"success","ttype","start_time","trial_type","trial_index","time_elapsed","internal_node_id","warning","missed_checkup","PID","stim_type","view_history","rt","responses","repeat_instructions","key_press","response","stimulus_id","painting","index","stimulus_left","stimulus_right","explain_trial","reward_type","rating_left","rating_right","painting_left","painting_right","block","left_chosen","chosen_obj","unchosen_obj","explain_response","reward_amount","see_reward_rt","register_reward_response","register_reward_rt","deliberation_reward_tally","stimulus_left_deliberation_ind","stimulus_right_deliberation_ind","chosen_trial","gain_left","higher_outcome_chosen","old_pair","chosen_object","rt_pairs","left_object_chosen","rt_object","old_response","new_rating","deliberated_stim","initial_rating","outcome_eval_rt","outcome_eval_response","outcome_eval_gain","outcome_eval_acc","preamble","outcome_eval_confidence","outcome_eval_confidence_rt","total_reward_tally"
"true","full_screen","d01192023hr2047","fullscreen","0","14174","0.0-0.0","0","0","QEjJQ","Scenes","","","","","","","","","","","","","","","","","","","","","","","","","","","","","","","","","","","","","","","","","","","","","","","","",""
"","rating_instructions","","instructions","1","24610","0.0-1.0-0.0","0","0","QEjJQ","Scenes","[{""page_index"":0,""viewing_time"":8727},{""page_index"":1,""viewing_time"":1704}]","10431","","","","","","","","","","","","","","","","","","","","","","","","","","","","","","","","","","","","","","","","","","","","","","",""
"","rating_comprehension_check","","survey-multi-choice","2","30168","0.0-1.0-1.0","0","0","QEjJQ","Scenes","","5553","{""Q0"":""True"",""Q1"":""Mouse""}","0","","","","","","","","","","","","","","","","","","","","","","","","","","","","","","","","","","","","","","","","","","","","",""
"","start_phase","","html-keyboard-response","3","32111","0.0-2.0","0","0","QEjJQ","Scenes","","1939","","","78","","","","","","","","","","","","","","","","","","","","","","","","","","","","","","","","","","","","","","","","","","","",""
"","rating","","html-slider-response","4","36338","0.0-3.0","0","0","QEjJQ","Scenes","","4220","","","","59","135","mohammad-alizade-4wzRuAb-KWs-unsplash.jpg","0","","","","","","","","","","","","","","","","","","","","","","","","","","","","","","","","","","","","","","","",""
"","rating","","html-slider-response","5","39751","0.0-4.0","0","0","QEjJQ","Scenes","","3410","","","","100","131","luca-bravo-hFzIoD0F_i8-unsplash.jpg","1","","","","","","","","","","","","","","","","","","","","","","","","","","","","","","","","","","","","","","","",""
"","rating","","html-slider-response","6","42886","0.0-5.0","0","0","QEjJQ","Scenes","","3131","","","","100","116","david-marcu-W5MhJ6cy1So-unsplash.jpg","2","","","","","","","","","","","","","","","","","","","","","","","","","","","","","","","","","","","","","","","",""
"","rating","","html-slider-response","7","46151","0.0-6.0","0","0","QEjJQ","Scenes","","3261","","","","94","100","aleksandra-boguslawska-MS7KD9Ti7FQ-unsplash.jpg","3","","","","","","","","","","","","","","","","","","","","","","","","","","","","","","","","","","","","","","","",""
"","rating","","html-slider-response","8","50139","0.0-7.0","0","0","QEjJQ","Scenes","","3986","","","","100","145","stephen-leonardi-gyIRjKPXupE-unsplash.jpg","4","","","","","","","","","","","","","","","","","","","","","","","","","","","","","","","","","","","","","","","",""
"","rating","","html-slider-response","9","52836","0.0-8.0","0","0","QEjJQ","Scenes","","2694","","","","81","119","james-wheeler-AFC0XvICMgs-unsplash.jpg","5","","","","","","","","","","","","","","","","","","","","","","","","","","","","","","","","","","","","","","","",""
"","rating","","html-slider-response","10","56526","0.0-9.0","0","0","QEjJQ","Scenes","","3687","","","","60","103","anton-darius-FBJugtbHsWU-unsplash.jpg","6","","","","","","","","","","","","","","","","","","","","","","","","","","","","","","","","","","","","","","","",""
"","rating","","html-slider-response","11","59144","0.0-10.0","0","0","QEjJQ","Scenes","","2615","","","","62","139","samsommer-vddccTqwal8-unsplash.jpg","7","","","","","","","","","","","","","","","","","","","","","","","","","","","","","","","","","","","","","","","",""
"","rating","","html-slider-response","12","62881","0.0-11.0","0","0","QEjJQ","Scenes","","3734","","","","95","140","samuele-errico-piccarini-JEBqFu2AOOA-unsplash.jpg","8","","","","","","","","","","","","","","","","","","","","","","","","","","","","","","","","","","","","","","","",""
"","rating","","html-slider-response","13","67649","0.0-12.0","0","0","QEjJQ","Scenes","","4765","","","","89","125","john-lee-oMneOBYhJxY-unsplash.jpg","9","","","","","","","","","","","","","","","","","","","","","","","","","","","","","","","","","","","","","","","",""
"","rating","","html-slider-response","14","71119","0.0-13.0","0","0","QEjJQ","Scenes","","3467","","","","88","107","benjamin-davies-Zm2n2O7Fph4-unsplash.jpg","10","","","","","","","","","","","","","","","","","","","","","","","","","","","","","","","","","","","","","","","",""
"","rating","","html-slider-response","15","73901","0.0-14.0","0","0","QEjJQ","Scenes","","2779","","","","53","115","darrell-cassell-hoCXpPUMCoE-unsplash.jpg","11","","","","","","","","","","","","","","","","","","","","","","","","","","","","","","","","","","","","","","","",""
"","rating","","html-slider-response","16","77271","0.0-15.0","0","0","QEjJQ","Scenes","","3367","","","","81","138","petr-vysohlid-9fqwGqGLUxc-unsplash.jpg","12","","","","","","","","","","","","","","","","","","","","","","","","","","","","","","","","","","","","","","","",""
"","rating","","html-slider-response","17","81327","0.0-16.0","0","0","QEjJQ","Scenes","","4053","","","","63","146","thomas-morse-cuKKa0vWZSY-unsplash.jpg","13","","","","","","","","","","","","","","","","","","","","","","","","","","","","","","","","","","","","","","","",""
"","rating","","html-slider-response","18","85588","0.0-17.0","0","0","QEjJQ","Scenes","","4257","","","","90","136","nicolas-jehly-LzVB84KkZOE-unsplash.jpg","14","","","","","","","","","","","","","","","","","","","","","","","","","","","","","","","","","","","","","","","",""
"","rating","","html-slider-response","19","89871","0.0-18.0","0","0","QEjJQ","Scenes","","4281","","","","85","104","artem-sapegin-XGDBdSQ70O0-unsplash.jpg","15","","","","","","","","","","","","","","","","","","","","","","","","","","","","","","","","","","","","","","","",""
"","rating","","html-slider-response","20","93146","0.0-19.0","0","0","QEjJQ","Scenes","","3271","","","","82","124","johannes-plenio-sPt5RIjKfpk-unsplash.jpg","16","","","","","","","","","","","","","","","","","","","","","","","","","","","","","","","","","","","","","","","",""
"","rating","","html-slider-response","21","95452","0.0-20.0","0","0","QEjJQ","Scenes","","2303","","","","58","102","anisur-rahman-K2b7UDed6uQ-unsplash.jpg","17","","","","","","","","","","","","","","","","","","","","","","","","","","","","","","","","","","","","","","","",""
"","rating","","html-slider-response","22","99993","0.0-21.0","0","0","QEjJQ","Scenes","","4539","","","","61","141","sebastian-unrau-v4e3JI7DDHI-unsplash.jpg","18","","","","","","","","","","","","","","","","","","","","","","","","","","","","","","","","","","","","","","","",""
"","rating","","html-slider-response","23","104199","0.0-22.0","0","0","QEjJQ","Scenes","","4203","","","","89","112","cosmic-timetraveler-pYyOZ8q7AII-unsplash.jpg","19","","","","","","","","","","","","","","","","","","","","","","","","","","","","","","","","","","","","","","","",""
"","rating","","html-slider-response","24","108232","0.0-23.0","0","0","QEjJQ","Scenes","","4030","","","","59","130","lina-loos-04-C1NZk1hE-unsplash.jpg","20","","","","","","","","","","","","","","","","","","","","","","","","","","","","","","","","","","","","","","","",""
"","rating","","html-slider-response","25","113682","0.0-24.0","0","0","QEjJQ","Scenes","","5447","","","","54","143","sigurdur-fjalar-jonsson-1KxBabIntpE-unsplash.jpg","21","","","","","","","","","","","","","","","","","","","","","","","","","","","","","","","","","","","","","","","",""
"","rating","","html-slider-response","26","118622","0.0-25.0","0","0","QEjJQ","Scenes","","4938","","","","62","114","daniel-sessler-z_9VmsxR8hs-unsplash.jpg","22","","","","","","","","","","","","","","","","","","","","","","","","","","","","","","","","","","","","","","","",""
"","rating","","html-slider-response","27","121428","0.0-26.0","0","0","QEjJQ","Scenes","","2802","","","","88","127","kace-rodriguez-p3OzJuT_Dks-unsplash.jpg","23","","","","","","","","","","","","","","","","","","","","","","","","","","","","","","","","","","","","","","","",""
"","rating","","html-slider-response","28","126582","0.0-27.0","0","0","QEjJQ","Scenes","","5149","","","","95","147","tobias-keller-73F4pKoUkM0-unsplash.jpg","24","","","","","","","","","","","","","","","","","","","","","","","","","","","","","","","","","","","","","","","",""
"","rating","","html-slider-response","29","130388","0.0-28.0","0","0","QEjJQ","Scenes","","3802","","","","54","118","henry-be-NLF6hTe4PAg-unsplash.jpg","25","","","","","","","","","","","","","","","","","","","","","","","","","","","","","","","","","","","","","","","",""
"","rating","","html-slider-response","30","132976","0.0-29.0","0","0","QEjJQ","Scenes","","2586","","","","58","109","brigitta-schneiter-hXXRLtTxXCU-unsplash.jpg","26","","","","","","","","","","","","","","","","","","","","","","","","","","","","","","","","","","","","","","","",""
"","rating","","html-slider-response","31","135392","0.0-30.0","0","0","QEjJQ","Scenes","","2413","","","","81","144","solotravelgoals-7kLufxYoqWk-unsplash.jpg","27","","","","","","","","","","","","","","","","","","","","","","","","","","","","","","","","","","","","","","","",""
"","rating","","html-slider-response","32","139152","0.0-31.0","0","0","QEjJQ","Scenes","","3758","","","","55","149","yuriy-bogdanov-W51VK3Obcj0-unsplash.jpg","28","","","","","","","","","","","","","","","","","","","","","","","","","","","","","","","","","","","","","","","",""
"","rating","","html-slider-response","33","142826","0.0-32.0","0","0","QEjJQ","Scenes","","3671","","","","91","123","joel-jasmin-forestbird-efuwb5eBDrI-unsplash.jpg","29","","","","","","","","","","","","","","","","","","","","","","","","","","","","","","","","","","","","","","","",""
"","rating","","html-slider-response","34","145764","0.0-33.0","0","0","QEjJQ","Scenes","","2936","","","","71","105","ashim-d-silva-S2Q5mdOrrVc-unsplash.jpg","30","","","","","","","","","","","","","","","","","","","","","","","","","","","","","","","","","","","","","","","",""
"","rating","","html-slider-response","35","151526","0.0-34.0","0","0","QEjJQ","Scenes","","5759","","","","53","122","jeff-king-bJHWJeiHfHc-unsplash.jpg","31","","","","","","","","","","","","","","","","","","","","","","","","","","","","","","","","","","","","","","","",""
"","rating","","html-slider-response","36","154738","0.0-35.0","0","0","QEjJQ","Scenes","","3209","","","","66","121","jean-pierre-brungs-qxCqkbF7tUc-unsplash.jpg","32","","","","","","","","","","","","","","","","","","","","","","","","","","","","","","","","","","","","","","","",""
"","rating","","html-slider-response","37","159054","0.0-36.0","0","0","QEjJQ","Scenes","","4313","","","","57","132","meng-ji-8BH_M-53CyA-unsplash.jpg","33","","","","","","","","","","","","","","","","","","","","","","","","","","","","","","","","","","","","","","","",""
"","rating","","html-slider-response","38","162586","0.0-37.0","0","0","QEjJQ","Scenes","","3530","","","","56","111","claudio-testa-U3F2o6vz3bs-unsplash.jpg","34","","","","","","","","","","","","","","","","","","","","","","","","","","","","","","","","","","","","","","","",""
"","rating","","html-slider-response","39","166332","0.0-38.0","0","0","QEjJQ","Scenes","","3743","","","","62","120","jarrett-kow-1ZOyYPOBn7I-unsplash.jpg","35","","","","","","","","","","","","","","","","","","","","","","","","","","","","","","","","","","","","","","","",""
"","rating","","html-slider-response","40","170162","0.0-39.0","0","0","QEjJQ","Scenes","","3827","","","","70","142","sergey-pesterev-y-b_FOmJXdg-unsplash.jpg","36","","","","","","","","","","","","","","","","","","","","","","","","","","","","","","","","","","","","","","","",""
"","rating","","html-slider-response","41","173718","0.0-40.0","0","0","QEjJQ","Scenes","","3554","","","","60","117","frank-mckenna-OD9EOzfSOh0-unsplash.jpg","37","","","","","","","","","","","","","","","","","","","","","","","","","","","","","","","","","","","","","","","",""
"","rating","","html-slider-response","42","177009","0.0-41.0","0","0","QEjJQ","Scenes","","3288","","","","58","106","ashim-d-silva-WeYamle9fDM-unsplash.jpg","38","","","","","","","","","","","","","","","","","","","","","","","","","","","","","","","","","","","","","","","",""
"","rating","","html-slider-response","43","181410","0.0-42.0","0","0","QEjJQ","Scenes","","4397","","","","65","134","milada-vigerova-pQMM63GE7fo-unsplash.jpg","39","","","","","","","","","","","","","","","","","","","","","","","","","","","","","","","","","","","","","","","",""
"","rating","","html-slider-response","44","184569","0.0-43.0","0","0","QEjJQ","Scenes","","3157","","","","64","148","tom-gainor-ZqLeQDjY6fY-unsplash.jpg","40","","","","","","","","","","","","","","","","","","","","","","","","","","","","","","","","","","","","","","","",""
"","rating","","html-slider-response","45","188711","0.0-44.0","0","0","QEjJQ","Scenes","","4139","","","","44","133","mickey-o-neil-xL66l--msXU-unsplash.jpg","41","","","","","","","","","","","","","","","","","","","","","","","","","","","","","","","","","","","","","","","",""
"","rating","","html-slider-response","46","195484","0.0-45.0","0","0","QEjJQ","Scenes","","6769","","","","55","137","olga-stalska-QaWRyEdlffY-unsplash.jpg","42","","","","","","","","","","","","","","","","","","","","","","","","","","","","","","","","","","","","","","","",""
"","rating","","html-slider-response","47","199274","0.0-46.0","0","0","QEjJQ","Scenes","","3787","","","","57","113","damian-denis-D8R_txR_0PE-unsplash.jpg","43","","","","","","","","","","","","","","","","","","","","","","","","","","","","","","","","","","","","","","","",""
"","rating","","html-slider-response","48","205597","0.0-47.0","0","0","QEjJQ","Scenes","","6320","","","","57","110","bruno-van-der-kraan-qez8mNJ3ilU-unsplash.jpg","44","","","","","","","","","","","","","","","","","","","","","","","","","","","","","","","","","","","","","","","",""
"","rating","","html-slider-response","49","211128","0.0-48.0","0","0","QEjJQ","Scenes","","5528","","","","54","101","aniket-deole-T-tOgjWZ0fQ-unsplash.jpg","45","","","","","","","","","","","","","","","","","","","","","","","","","","","","","","","","","","","","","","","",""
"","rating","","html-slider-response","50","214846","0.0-49.0","0","0","QEjJQ","Scenes","","3713","","","","37","129","kurt-cotoaga-cqbLg3lZEpk-unsplash.jpg","46","","","","","","","","","","","","","","","","","","","","","","","","","","","","","","","","","","","","","","","",""
"","rating","","html-slider-response","51","218740","0.0-50.0","0","0","QEjJQ","Scenes","","3891","","","","56","126","jordan-mcqueen-PJCZOWuOxbU-unsplash.jpg","47","","","","","","","","","","","","","","","","","","","","","","","","","","","","","","","","","","","","","","","",""
"","rating","","html-slider-response","52","222696","0.0-51.0","0","0","QEjJQ","Scenes","","3952","","","","53","128","karsten-wurth-jS0zC2PJ17A-unsplash.jpg","48","","","","","","","","","","","","","","","","","","","","","","","","","","","","","","","","","","","","","","","",""
"","rating","","html-slider-response","53","226276","0.0-52.0","0","0","QEjJQ","Scenes","","3577","","","","58","108","benjamin-voros-phIFdC6lA4E-unsplash.jpg","49","","","","","","","","","","","","","","","","","","","","","","","","","","","","","","","","","","","","","","","",""
"","deliberation_instructions","","instructions","54","283058","0.0-53.0-0.0","0","0","QEjJQ","Scenes","[{""page_index"":0,""viewing_time"":18881},{""page_index"":1,""viewing_time"":9412},{""page_index"":2,""viewing_time"":13109},{""page_index"":3,""viewing_time"":12846},{""page_index"":4,""viewing_time"":2530}]","56778","","","","","","","","","","","","","","","","","","","","","","","","","","","","","","","","","","","","","","","","","","","","","","",""
"","deliberation_comprehension_check","","survey-multi-choice","55","300599","0.0-53.0-1.0","0","0","QEjJQ","Scenes","","17532","{""Q0"":""True"",""Q1"":""True"",""Q2"":""Consider carefully and take your time (up to 10 seconds)"",""Q3"":""True"",""Q4"":""D""}","0","","","","","","","","","","","","","","","","","","","","","","","","","","","","","","","","","","","","","","","","","","","","",""
"","start_phase","","html-keyboard-response","56","311017","0.0-54.0","0","0","QEjJQ","Scenes","","10413","","","78","","","","","","","","","","","","","","","","","","","","","","","","","","","","","","","","","","","","","","","","","","","",""
"","first_deliberation_block","","html-keyboard-response","57","342878","0.0-55.0","0","0","QEjJQ","Scenes","","31858","","","78","","","","","","","","","","","","","","","","","","","","","","","","","","","","","","","","","","","","","","","","","","","",""
"","fixation","","html-keyboard-response","58","343892","0.0-56.0-0.0","0","0","QEjJQ","Scenes","","null","","","null","","","","","","","","","","","","","","","","","","","","","","","","","","","","","","","","","","","","","","","","","","","",""
"","deliberation","","html-keyboard-response","59","345267","0.0-56.0-1.0","0","0","QEjJQ","Scenes","","1366","","","68","","","","0","138","120","1","-1","81","62","petr-vysohlid-9fqwGqGLUxc-unsplash.jpg","jarrett-kow-1ZOyYPOBn7I-unsplash.jpg","1","1","138","120","","","","","","","","","","","","","","","","","","","","","","","","","","","",""
"","choice_confirmation","","html-keyboard-response","60","345781","0.0-56.0-2.0-0.0","0","0","QEjJQ","Scenes","","null","","","null","","","","0","138","120","","","","","","","","","","","","","","","","","","","","","","","","","","","","","","","","","","","","","",""
"","explain_trial","","survey-text","61","358907","0.0-56.0-5.0-0.0","0","0","QEjJQ","Scenes","","13121","{""Q0"":""The photograph draws you in more.""}","","","","","","0","138","120","","","","","","","","","","","{""Q0"":""The photograph draws you in more.""}","","","","","","","","","","","","","","","","","","","","","","","","","","",""
"","fixation","","html-keyboard-response","62","359914","0.0-57.0-0.0","0","0","QEjJQ","Scenes","","null","","","null","","","","","","","","","","","","","","","","","","","","","","","","","","","","","","","","","","","","","","","","","","","",""
"","deliberation","","html-keyboard-response","63","362304","0.0-57.0-1.0","0","0","QEjJQ","Scenes","","2387","","","68","","","","1","121","103","1","-1","66","60","jean-pierre-brungs-qxCqkbF7tUc-unsplash.jpg","anton-darius-FBJugtbHsWU-unsplash.jpg","1","1","121","103","","","","","","","","","","","","","","","","","","","","","","","","","","","",""
"","choice_confirmation","","html-keyboard-response","64","362815","0.0-57.0-2.0-0.0","0","0","QEjJQ","Scenes","","null","","","null","","","","1","121","103","","","","","","","","","","","","","","","","","","","","","","","","","","","","","","","","","","","","","",""
"","explain_trial","","survey-text","65","392040","0.0-57.0-5.0-0.0","0","0","QEjJQ","Scenes","","29220","{""Q0"":""Because the colors make it more enjoyable.""}","","","","","","1","121","103","","","","","","","","","","","{""Q0"":""Because the colors make it more enjoyable.""}","","","","","","","","","","","","","","","","","","","","","","","","","","",""
"","fixation","","html-keyboard-response","66","393063","0.0-58.0-0.0","0","0","QEjJQ","Scenes","","null","","","null","","","","","","","","","","","","","","","","","","","","","","","","","","","","","","","","","","","","","","","","","","","",""
"","deliberation","","html-keyboard-response","67","395848","0.0-58.0-1.0","0","0","QEjJQ","Scenes","","2781","","","75","","","","2","141","109","0","1","61","58","sebastian-unrau-v4e3JI7DDHI-unsplash.jpg","brigitta-schneiter-hXXRLtTxXCU-unsplash.jpg","1","0","109","141","","","","","","","","","","","","","","","","","","","","","","","","","","","",""
"","choice_confirmation","","html-keyboard-response","68","396357","0.0-58.0-2.0-0.0","0","0","QEjJQ","Scenes","","null","","","null","","","","2","141","109","","","","","","","","","","","","","","","","","","","","","","","","","","","","","","","","","","","","","",""
"","fixation","","html-keyboard-response","69","397368","0.0-59.0-0.0","0","0","QEjJQ","Scenes","","null","","","null","","","","","","","","","","","","","","","","","","","","","","","","","","","","","","","","","","","","","","","","","","","",""
"","deliberation","","html-keyboard-response","70","398734","0.0-59.0-1.0","0","0","QEjJQ","Scenes","","1361","","","68","","","","3","110","108","1","-1","57","58","bruno-van-der-kraan-qez8mNJ3ilU-unsplash.jpg","benjamin-voros-phIFdC6lA4E-unsplash.jpg","1","1","110","108","","","","","","","","","","","","","","","","","","","","","","","","","","","",""
"","choice_confirmation","","html-keyboard-response","71","399244","0.0-59.0-2.0-0.0","0","0","QEjJQ","Scenes","","null","","","null","","","","3","110","108","","","","","","","","","","","","","","","","","","","","","","","","","","","","","","","","","","","","","",""
"","explain_trial","","survey-text","72","429675","0.0-59.0-5.0-0.0","0","0","QEjJQ","Scenes","","30427","{""Q0"":""I like the little house in the foreground. It presents more of a scene that I would like to be a part of.""}","","","","","","3","110","108","","","","","","","","","","","{""Q0"":""I like the little house in the foreground. It presents more of a scene that I would like to be a part of.""}","","","","","","","","","","","","","","","","","","","","","","","","","","",""
"","fixation","","html-keyboard-response","73","430686","0.0-60.0-0.0","0","0","QEjJQ","Scenes","","null","","","null","","","","","","","","","","","","","","","","","","","","","","","","","","","","","","","","","","","","","","","","","","","",""
"","deliberation","","html-keyboard-response","74","432214","0.0-60.0-1.0","0","0","QEjJQ","Scenes","","1524","","","68","","","","4","148","114","0","1","64","62","tom-gainor-ZqLeQDjY6fY-unsplash.jpg","daniel-sessler-z_9VmsxR8hs-unsplash.jpg","1","1","148","114","","","","","","","","","","","","","","","","","","","","","","","","","","","",""
"","choice_confirmation","","html-keyboard-response","75","432731","0.0-60.0-2.0-0.0","0","0","QEjJQ","Scenes","","null","","","null","","","","4","148","114","","","","","","","","","","","","","","","","","","","","","","","","","","","","","","","","","","","","","",""
"","fixation","","html-keyboard-response","76","433738","0.0-61.0-0.0","0","0","QEjJQ","Scenes","","null","","","null","","","","","","","","","","","","","","","","","","","","","","","","","","","","","","","","","","","","","","","","","","","",""
"","deliberation","","html-keyboard-response","77","435080","0.0-61.0-1.0","0","0","QEjJQ","Scenes","","1340","","","68","","","","5","106","130","0","-1","58","59","ashim-d-silva-WeYamle9fDM-unsplash.jpg","lina-loos-04-C1NZk1hE-unsplash.jpg","1","1","106","130","","","","","","","","","","","","","","","","","","","","","","","","","","","",""
"","choice_confirmation","","html-keyboard-response","78","435594","0.0-61.0-2.0-0.0","0","0","QEjJQ","Scenes","","null","","","null","","","","5","106","130","","","","","","","","","","","","","","","","","","","","","","","","","","","","","","","","","","","","","",""
"","fixation","","html-keyboard-response","79","436603","0.0-62.0-0.0","0","0","QEjJQ","Scenes","","null","","","null","","","","","","","","","","","","","","","","","","","","","","","","","","","","","","","","","","","","","","","","","","","",""
"","deliberation","","html-keyboard-response","80","438412","0.0-62.0-1.0","0","0","QEjJQ","Scenes","","1805","","","75","","","","6","135","117","0","1","59","60","mohammad-alizade-4wzRuAb-KWs-unsplash.jpg","frank-mckenna-OD9EOzfSOh0-unsplash.jpg","1","0","117","135","","","","","","","","","","","","","","","","","","","","","","","","","","","",""
"","choice_confirmation","","html-keyboard-response","81","438929","0.0-62.0-2.0-0.0","0","0","QEjJQ","Scenes","","null","","","null","","","","6","135","117","","","","","","","","","","","","","","","","","","","","","","","","","","","","","","","","","","","","","",""
"","fixation","","html-keyboard-response","82","439940","0.0-63.0-0.0","0","0","QEjJQ","Scenes","","null","","","null","","","","","","","","","","","","","","","","","","","","","","","","","","","","","","","","","","","","","","","","","","","",""
"","deliberation","","html-keyboard-response","83","441896","0.0-63.0-1.0","0","0","QEjJQ","Scenes","","1953","","","75","","","","7","124","134","1","1","82","65","johannes-plenio-sPt5RIjKfpk-unsplash.jpg","milada-vigerova-pQMM63GE7fo-unsplash.jpg","1","0","134","124","","","","","","","","","","","","","","","","","","","","","","","","","","","",""
"","choice_confirmation","","html-keyboard-response","84","442401","0.0-63.0-2.0-0.0","0","0","QEjJQ","Scenes","","null","","","null","","","","7","124","134","","","","","","","","","","","","","","","","","","","","","","","","","","","","","","","","","","","","","",""
"","explain_trial","","survey-text","85","459028","0.0-63.0-5.0-0.0","0","0","QEjJQ","Scenes","","16622","{""Q0"":""Because it is clearer than the one on the left, and has a relaxing nature scene.""}","","","","","","7","124","134","","","","","","","","","","","{""Q0"":""Because it is clearer than the one on the left, and has a relaxing nature scene.""}","","","","","","","","","","","","","","","","","","","","","","","","","","",""
"","fixation","","html-keyboard-response","86","460044","0.0-64.0-0.0","0","0","QEjJQ","Scenes","","null","","","null","","","","","","","","","","","","","","","","","","","","","","","","","","","","","","","","","","","","","","","","","","","",""
"","deliberation","","html-keyboard-response","87","462413","0.0-64.0-1.0","0","0","QEjJQ","Scenes","","2365","","","68","","","","8","113","105","0","1","57","71","damian-denis-D8R_txR_0PE-unsplash.jpg","ashim-d-silva-S2Q5mdOrrVc-unsplash.jpg","1","1","113","105","","","","","","","","","","","","","","","","","","","","","","","","","","","",""
"","choice_confirmation","","html-keyboard-response","88","462936","0.0-64.0-2.0-0.0","0","0","QEjJQ","Scenes","","null","","","null","","","","8","113","105","","","","","","","","","","","","","","","","","","","","","","","","","","","","","","","","","","","","","",""
"","fixation","","html-keyboard-response","89","463958","0.0-65.0-0.0","0","0","QEjJQ","Scenes","","null","","","null","","","","","","","","","","","","","","","","","","","","","","","","","","","","","","","","","","","","","","","","","","","",""
"","deliberation","","html-keyboard-response","90","466542","0.0-65.0-1.0","0","0","QEjJQ","Scenes","","2578","","","75","","","","9","139","144","1","-1","62","81","samsommer-vddccTqwal8-unsplash.jpg","solotravelgoals-7kLufxYoqWk-unsplash.jpg","1","0","144","139","","","","","","","","","","","","","","","","","","","","","","","","","","","",""
"","choice_confirmation","","html-keyboard-response","91","467055","0.0-65.0-2.0-0.0","0","0","QEjJQ","Scenes","","null","","","null","","","","9","139","144","","","","","","","","","","","","","","","","","","","","","","","","","","","","","","","","","","","","","",""
"","explain_trial","","survey-text","92","490624","0.0-65.0-5.0-0.0","0","0","QEjJQ","Scenes","","23565","{""Q0"":""Because it would be beautiful to display with all the contrast in it.""}","","","","","","9","139","144","","","","","","","","","","","{""Q0"":""Because it would be beautiful to display with all the contrast in it.""}","","","","","","","","","","","","","","","","","","","","","","","","","","",""
"","fixation","","html-keyboard-response","93","491645","0.0-66.0-0.0","0","0","QEjJQ","Scenes","","null","","","null","","","","","","","","","","","","","","","","","","","","","","","","","","","","","","","","","","","","","","","","","","","",""
"","deliberation","","html-keyboard-response","94","493771","0.0-66.0-1.0","0","0","QEjJQ","Scenes","","2122","","","68","","","","10","142","146","1","-1","70","63","sergey-pesterev-y-b_FOmJXdg-unsplash.jpg","thomas-morse-cuKKa0vWZSY-unsplash.jpg","1","1","142","146","","","","","","","","","","","","","","","","","","","","","","","","","","","",""
"","choice_confirmation","","html-keyboard-response","95","494283","0.0-66.0-2.0-0.0","0","0","QEjJQ","Scenes","","null","","","null","","","","10","142","146","","","","","","","","","","","","","","","","","","","","","","","","","","","","","","","","","","","","","",""
"","explain_trial","","survey-text","96","514784","0.0-66.0-5.0-0.0","0","0","QEjJQ","Scenes","","20497","{""Q0"":""Because it is a very unique and beautiful scene.""}","","","","","","10","142","146","","","","","","","","","","","{""Q0"":""Because it is a very unique and beautiful scene.""}","","","","","","","","","","","","","","","","","","","","","","","","","","",""
"","fixation","","html-keyboard-response","97","515797","0.0-67.0-0.0","0","0","QEjJQ","Scenes","","null","","","null","","","","","","","","","","","","","","","","","","","","","","","","","","","","","","","","","","","","","","","","","","","",""
"","deliberation","","html-keyboard-response","98","517735","0.0-67.0-1.0","0","0","QEjJQ","Scenes","","1934","","","68","","","","11","102","119","0","1","58","81","anisur-rahman-K2b7UDed6uQ-unsplash.jpg","james-wheeler-AFC0XvICMgs-unsplash.jpg","1","1","102","119","","","","","","","","","","","","","","","","","","","","","","","","","","","",""
"","choice_confirmation","","html-keyboard-response","99","518248","0.0-67.0-2.0-0.0","0","0","QEjJQ","Scenes","","null","","","null","","","","11","102","119","","","","","","","","","","","","","","","","","","","","","","","","","","","","","","","","","","","","","",""
"","practice_deliberation_again","","html-keyboard-response","100","520157","0.0-67.0-6.0-0.0","0","0","QEjJQ","Scenes","","1905","","","78","","","","","","","","","","","","","","","","","","","","","","","","","","","","","","","","","","","","","","","","","","","",""
"","fixation","","html-keyboard-response","101","521178","0.0-68.0-0.0","0","0","QEjJQ","Scenes","","null","","","null","","","","","","","","","","","","","","","","","","","","","","","","","","","","","","","","","","","","","","","","","","","",""
"","deliberation","","html-keyboard-response","102","524366","0.0-68.0-1.0","0","0","QEjJQ","Scenes","","3184","","","68","","","","12","121","103","0","-1","66","60","jean-pierre-brungs-qxCqkbF7tUc-unsplash.jpg","anton-darius-FBJugtbHsWU-unsplash.jpg","2","1","121","103","","","","","","","","","","","","","","","","","","","","","","","","","","","",""
"","choice_confirmation","","html-keyboard-response","103","524877","0.0-68.0-2.0-0.0","0","0","QEjJQ","Scenes","","null","","","null","","","","12","121","103","","","","","","","","","","","","","","","","","","","","","","","","","","","","","","","","","","","","","",""
"","fixation","","html-keyboard-response","104","525887","0.0-69.0-0.0","0","0","QEjJQ","Scenes","","null","","","null","","","","","","","","","","","","","","","","","","","","","","","","","","","","","","","","","","","","","","","","","","","",""
"","deliberation","","html-keyboard-response","105","526812","0.0-69.0-1.0","0","0","QEjJQ","Scenes","","921","","","75","","","","13","135","117","1","1","59","60","mohammad-alizade-4wzRuAb-KWs-unsplash.jpg","frank-mckenna-OD9EOzfSOh0-unsplash.jpg","2","0","117","135","","","","","","","","","","","","","","","","","","","","","","","","","","","",""
"","choice_confirmation","","html-keyboard-response","106","527331","0.0-69.0-2.0-0.0","0","0","QEjJQ","Scenes","","null","","","null","","","","13","135","117","","","","","","","","","","","","","","","","","","","","","","","","","","","","","","","","","","","","","",""
"","explain_trial","","survey-text","107","548844","0.0-69.0-5.0-0.0","0","0","QEjJQ","Scenes","","21509","{""Q0"":""Because it really makes you want to be there, in the photo.""}","","","","","","13","135","117","","","","","","","","","","","{""Q0"":""Because it really makes you want to be there, in the photo.""}","","","","","","","","","","","","","","","","","","","","","","","","","","",""
"","fixation","","html-keyboard-response","108","549860","0.0-70.0-0.0","0","0","QEjJQ","Scenes","","null","","","null","","","","","","","","","","","","","","","","","","","","","","","","","","","","","","","","","","","","","","","","","","","",""
"","deliberation","","html-keyboard-response","109","551306","0.0-70.0-1.0","0","0","QEjJQ","Scenes","","1443","","","68","","","","14","138","120","0","-1","81","62","petr-vysohlid-9fqwGqGLUxc-unsplash.jpg","jarrett-kow-1ZOyYPOBn7I-unsplash.jpg","2","1","138","120","","","","","","","","","","","","","","","","","","","","","","","","","","","",""
"","choice_confirmation","","html-keyboard-response","110","551819","0.0-70.0-2.0-0.0","0","0","QEjJQ","Scenes","","null","","","null","","","","14","138","120","","","","","","","","","","","","","","","","","","","","","","","","","","","","","","","","","","","","","",""
"","fixation","","html-keyboard-response","111","552829","0.0-71.0-0.0","0","0","QEjJQ","Scenes","","null","","","null","","","","","","","","","","","","","","","","","","","","","","","","","","","","","","","","","","","","","","","","","","","",""
"","deliberation","","html-keyboard-response","112","554713","0.0-71.0-1.0","0","0","QEjJQ","Scenes","","1878","","","68","","","","15","142","146","0","-1","70","63","sergey-pesterev-y-b_FOmJXdg-unsplash.jpg","thomas-morse-cuKKa0vWZSY-unsplash.jpg","2","1","142","146","","","","","","","","","","","","","","","","","","","","","","","","","","","",""
"","choice_confirmation","","html-keyboard-response","113","555233","0.0-71.0-2.0-0.0","0","0","QEjJQ","Scenes","","null","","","null","","","","15","142","146","","","","","","","","","","","","","","","","","","","","","","","","","","","","","","","","","","","","","",""
"","fixation","","html-keyboard-response","114","556241","0.0-72.0-0.0","0","0","QEjJQ","Scenes","","null","","","null","","","","","","","","","","","","","","","","","","","","","","","","","","","","","","","","","","","","","","","","","","","",""
"","deliberation","","html-keyboard-response","115","557235","0.0-72.0-1.0","0","0","QEjJQ","Scenes","","990","","","68","","","","16","113","105","1","1","57","71","damian-denis-D8R_txR_0PE-unsplash.jpg","ashim-d-silva-S2Q5mdOrrVc-unsplash.jpg","2","1","113","105","","","","","","","","","","","","","","","","","","","","","","","","","","","",""
"","choice_confirmation","","html-keyboard-response","116","557748","0.0-72.0-2.0-0.0","0","0","QEjJQ","Scenes","","null","","","null","","","","16","113","105","","","","","","","","","","","","","","","","","","","","","","","","","","","","","","","","","","","","","",""
"","explain_trial","","survey-text","117","571679","0.0-72.0-5.0-0.0","0","0","QEjJQ","Scenes","","13926","{""Q0"":""It seems very austere, and would be nice to display.""}","","","","","","16","113","105","","","","","","","","","","","{""Q0"":""It seems very austere, and would be nice to display.""}","","","","","","","","","","","","","","","","","","","","","","","","","","",""
"","fixation","","html-keyboard-response","118","572697","0.0-73.0-0.0","0","0","QEjJQ","Scenes","","null","","","null","","","","","","","","","","","","","","","","","","","","","","","","","","","","","","","","","","","","","","","","","","","",""
"","deliberation","","html-keyboard-response","119","575243","0.0-73.0-1.0","0","0","QEjJQ","Scenes","","2543","","","68","","","","17","110","108","0","-1","57","58","bruno-van-der-kraan-qez8mNJ3ilU-unsplash.jpg","benjamin-voros-phIFdC6lA4E-unsplash.jpg","2","1","110","108","","","","","","","","","","","","","","","","","","","","","","","","","","","",""
"","choice_confirmation","","html-keyboard-response","120","575755","0.0-73.0-2.0-0.0","0","0","QEjJQ","Scenes","","null","","","null","","","","17","110","108","","","","","","","","","","","","","","","","","","","","","","","","","","","","","","","","","","","","","",""
"","fixation","","html-keyboard-response","121","576761","0.0-74.0-0.0","0","0","QEjJQ","Scenes","","null","","","null","","","","","","","","","","","","","","","","","","","","","","","","","","","","","","","","","","","","","","","","","","","",""
"","deliberation","","html-keyboard-response","122","578041","0.0-74.0-1.0","0","0","QEjJQ","Scenes","","1276","","","75","","","","18","139","144","0","-1","62","81","samsommer-vddccTqwal8-unsplash.jpg","solotravelgoals-7kLufxYoqWk-unsplash.jpg","2","0","144","139","","","","","","","","","","","","","","","","","","","","","","","","","","","",""
"","choice_confirmation","","html-keyboard-response","123","578554","0.0-74.0-2.0-0.0","0","0","QEjJQ","Scenes","","null","","","null","","","","18","139","144","","","","","","","","","","","","","","","","","","","","","","","","","","","","","","","","","","","","","",""
"","fixation","","html-keyboard-response","124","579561","0.0-75.0-0.0","0","0","QEjJQ","Scenes","","null","","","null","","","","","","","","","","","","","","","","","","","","","","","","","","","","","","","","","","","","","","","","","","","",""
"","deliberation","","html-keyboard-response","125","580694","0.0-75.0-1.0","0","0","QEjJQ","Scenes","","1130","","","75","","","","19","141","109","1","1","61","58","sebastian-unrau-v4e3JI7DDHI-unsplash.jpg","brigitta-schneiter-hXXRLtTxXCU-unsplash.jpg","2","0","109","141","","","","","","","","","","","","","","","","","","","","","","","","","","","",""
"","choice_confirmation","","html-keyboard-response","126","581208","0.0-75.0-2.0-0.0","0","0","QEjJQ","Scenes","","null","","","null","","","","19","141","109","","","","","","","","","","","","","","","","","","","","","","","","","","","","","","","","","","","","","",""
"","explain_trial","","survey-text","127","600167","0.0-75.0-5.0-0.0","0","0","QEjJQ","Scenes","","18955","{""Q0"":""It is a very peaceful scene and is a clearer photograph than the one on the left, which I prefer.""}","","","","","","19","141","109","","","","","","","","","","","{""Q0"":""It is a very peaceful scene and is a clearer photograph than the one on the left, which I prefer.""}","","","","","","","","","","","","","","","","","","","","","","","","","","",""
"","fixation","","html-keyboard-response","128","601187","0.0-76.0-0.0","0","0","QEjJQ","Scenes","","null","","","null","","","","","","","","","","","","","","","","","","","","","","","","","","","","","","","","","","","","","","","","","","","",""
"","deliberation","","html-keyboard-response","129","605776","0.0-76.0-1.0","0","0","QEjJQ","Scenes","","4585","","","68","","","","20","124","134","0","1","82","65","johannes-plenio-sPt5RIjKfpk-unsplash.jpg","milada-vigerova-pQMM63GE7fo-unsplash.jpg","2","1","124","134","","","","","","","","","","","","","","","","","","","","","","","","","","","",""
"","choice_confirmation","","html-keyboard-response","130","606290","0.0-76.0-2.0-0.0","0","0","QEjJQ","Scenes","","null","","","null","","","","20","124","134","","","","","","","","","","","","","","","","","","","","","","","","","","","","","","","","","","","","","",""
"","fixation","","html-keyboard-response","131","607299","0.0-77.0-0.0","0","0","QEjJQ","Scenes","","null","","","null","","","","","","","","","","","","","","","","","","","","","","","","","","","","","","","","","","","","","","","","","","","",""
"","deliberation","","html-keyboard-response","132","608418","0.0-77.0-1.0","0","0","QEjJQ","Scenes","","1114","","","68","","","","21","148","114","1","1","64","62","tom-gainor-ZqLeQDjY6fY-unsplash.jpg","daniel-sessler-z_9VmsxR8hs-unsplash.jpg","2","1","148","114","","","","","","","","","","","","","","","","","","","","","","","","","","","",""
"","choice_confirmation","","html-keyboard-response","133","608930","0.0-77.0-2.0-0.0","0","0","QEjJQ","Scenes","","null","","","null","","","","21","148","114","","","","","","","","","","","","","","","","","","","","","","","","","","","","","","","","","","","","","",""
"","explain_trial","","survey-text","134","629826","0.0-77.0-5.0-0.0","0","0","QEjJQ","Scenes","","20892","{""Q0"":""It is a clearer photograph with much contrast between the sky and the water. Very lovely.""}","","","","","","21","148","114","","","","","","","","","","","{""Q0"":""It is a clearer photograph with much contrast between the sky and the water. Very lovely.""}","","","","","","","","","","","","","","","","","","","","","","","","","","",""
"","fixation","","html-keyboard-response","135","630847","0.0-78.0-0.0","0","0","QEjJQ","Scenes","","null","","","null","","","","","","","","","","","","","","","","","","","","","","","","","","","","","","","","","","","","","","","","","","","",""
"","deliberation","","html-keyboard-response","136","633089","0.0-78.0-1.0","0","0","QEjJQ","Scenes","","2238","","","68","","","","22","102","119","1","1","58","81","anisur-rahman-K2b7UDed6uQ-unsplash.jpg","james-wheeler-AFC0XvICMgs-unsplash.jpg","2","1","102","119","","","","","","","","","","","","","","","","","","","","","","","","","","","",""
"","choice_confirmation","","html-keyboard-response","137","633600","0.0-78.0-2.0-0.0","0","0","QEjJQ","Scenes","","null","","","null","","","","22","102","119","","","","","","","","","","","","","","","","","","","","","","","","","","","","","","","","","","","","","",""
"","explain_trial","","survey-text","138","648126","0.0-78.0-5.0-0.0","0","0","QEjJQ","Scenes","","14523","{""Q0"":""Because the color is brighter and draws you in more.""}","","","","","","22","102","119","","","","","","","","","","","{""Q0"":""Because the color is brighter and draws you in more.""}","","","","","","","","","","","","","","","","","","","","","","","","","","",""
"","fixation","","html-keyboard-response","139","649149","0.0-79.0-0.0","0","0","QEjJQ","Scenes","","null","","","null","","","","","","","","","","","","","","","","","","","","","","","","","","","","","","","","","","","","","","","","","","","",""
"","deliberation","","html-keyboard-response","140","650569","0.0-79.0-1.0","0","0","QEjJQ","Scenes","","1416","","","68","","","","23","106","130","1","-1","58","59","ashim-d-silva-WeYamle9fDM-unsplash.jpg","lina-loos-04-C1NZk1hE-unsplash.jpg","2","1","106","130","","","","","","","","","","","","","","","","","","","","","","","","","","","",""
"","choice_confirmation","","html-keyboard-response","141","651075","0.0-79.0-2.0-0.0","0","0","QEjJQ","Scenes","","null","","","null","","","","23","106","130","","","","","","","","","","","","","","","","","","","","","","","","","","","","","","","","","","","","","",""
"","explain_trial","","survey-text","142","675612","0.0-79.0-5.0-0.0","0","0","QEjJQ","Scenes","","24534","{""Q0"":""It is a much more artistic shot, with nice alternate colors.""}","","","","","","23","106","130","","","","","","","","","","","{""Q0"":""It is a much more artistic shot, with nice alternate colors.""}","","","","","","","","","","","","","","","","","","","","","","","","","","",""
"","start_critical_deliberation_block","","html-keyboard-response","143","680474","0.0-79.0-7.0-0.0","0","0","QEjJQ","Scenes","","4859","","","78","","","","","","","","","","","","","","","","","","","","","","","","","","","","","","","","","","","","","","","","","","","",""
"","fixation","","html-keyboard-response","144","681486","0.0-80.0-0.0","0","0","QEjJQ","Scenes","","null","","","null","","","","","","","","","","","","","","","","","","","","","","","","","","","","","","","","","","","","","","","","","","","",""
"","deliberation","","html-keyboard-response","145","683759","0.0-80.0-1.0","0","0","QEjJQ","Scenes","","2269","","","68","","","","24","102","119","0","1","58","81","anisur-rahman-K2b7UDed6uQ-unsplash.jpg","james-wheeler-AFC0XvICMgs-unsplash.jpg","3","1","102","119","","","","","","","","","","","","","","","","","","","","","","","","","","","",""
"","choice_confirmation","","html-keyboard-response","146","684276","0.0-80.0-2.0-0.0","0","0","QEjJQ","Scenes","","null","","","null","","","","24","102","119","","","","","","","","","","","","","","","","","","","","","","","","","","","","","","","","","","","","","",""
"","fixation","","html-keyboard-response","147","685284","0.0-81.0-0.0","0","0","QEjJQ","Scenes","","null","","","null","","","","","","","","","","","","","","","","","","","","","","","","","","","","","","","","","","","","","","","","","","","",""
"","deliberation","","html-keyboard-response","148","685931","0.0-81.0-1.0","0","0","QEjJQ","Scenes","","643","","","68","","","","25","148","114","0","1","64","62","tom-gainor-ZqLeQDjY6fY-unsplash.jpg","daniel-sessler-z_9VmsxR8hs-unsplash.jpg","3","1","148","114","","","","","","","","","","","","","","","","","","","","","","","","","","","",""
"","choice_confirmation","","html-keyboard-response","149","686449","0.0-81.0-2.0-0.0","0","0","QEjJQ","Scenes","","null","","","null","","","","25","148","114","","","","","","","","","","","","","","","","","","","","","","","","","","","","","","","","","","","","","",""
"","fixation","","html-keyboard-response","150","687470","0.0-82.0-0.0","0","0","QEjJQ","Scenes","","null","","","null","","","","","","","","","","","","","","","","","","","","","","","","","","","","","","","","","","","","","","","","","","","",""
"","deliberation","","html-keyboard-response","151","689126","0.0-82.0-1.0","0","0","QEjJQ","Scenes","","1653","","","68","","","","26","138","120","0","-1","81","62","petr-vysohlid-9fqwGqGLUxc-unsplash.jpg","jarrett-kow-1ZOyYPOBn7I-unsplash.jpg","3","1","138","120","","","","","","","","","","","","","","","","","","","","","","","","","","","",""
"","choice_confirmation","","html-keyboard-response","152","689633","0.0-82.0-2.0-0.0","0","0","QEjJQ","Scenes","","null","","","null","","","","26","138","120","","","","","","","","","","","","","","","","","","","","","","","","","","","","","","","","","","","","","",""
"","fixation","","html-keyboard-response","153","690646","0.0-83.0-0.0","0","0","QEjJQ","Scenes","","null","","","null","","","","","","","","","","","","","","","","","","","","","","","","","","","","","","","","","","","","","","","","","","","",""
"","deliberation","","html-keyboard-response","154","691564","0.0-83.0-1.0","0","0","QEjJQ","Scenes","","915","","","75","","","","27","139","144","0","-1","62","81","samsommer-vddccTqwal8-unsplash.jpg","solotravelgoals-7kLufxYoqWk-unsplash.jpg","3","0","144","139","","","","","","","","","","","","","","","","","","","","","","","","","","","",""
"","choice_confirmation","","html-keyboard-response","155","692071","0.0-83.0-2.0-0.0","0","0","QEjJQ","Scenes","","null","","","null","","","","27","139","144","","","","","","","","","","","","","","","","","","","","","","","","","","","","","","","","","","","","","",""
"","fixation","","html-keyboard-response","156","693092","0.0-84.0-0.0","0","0","QEjJQ","Scenes","","null","","","null","","","","","","","","","","","","","","","","","","","","","","","","","","","","","","","","","","","","","","","","","","","",""
"","deliberation","","html-keyboard-response","157","693671","0.0-84.0-1.0","0","0","QEjJQ","Scenes","","575","","","68","","","","28","106","130","0","-1","58","59","ashim-d-silva-WeYamle9fDM-unsplash.jpg","lina-loos-04-C1NZk1hE-unsplash.jpg","3","1","106","130","","","","","","","","","","","","","","","","","","","","","","","","","","","",""
"","choice_confirmation","","html-keyboard-response","158","694179","0.0-84.0-2.0-0.0","0","0","QEjJQ","Scenes","","null","","","null","","","","28","106","130","","","","","","","","","","","","","","","","","","","","","","","","","","","","","","","","","","","","","",""
"","fixation","","html-keyboard-response","159","695186","0.0-85.0-0.0","0","0","QEjJQ","Scenes","","null","","","null","","","","","","","","","","","","","","","","","","","","","","","","","","","","","","","","","","","","","","","","","","","",""
"","deliberation","","html-keyboard-response","160","696272","0.0-85.0-1.0","0","0","QEjJQ","Scenes","","1081","","","68","","","","29","110","108","0","-1","57","58","bruno-van-der-kraan-qez8mNJ3ilU-unsplash.jpg","benjamin-voros-phIFdC6lA4E-unsplash.jpg","3","1","110","108","","","","","","","","","","","","","","","","","","","","","","","","","","","",""
"","choice_confirmation","","html-keyboard-response","161","696783","0.0-85.0-2.0-0.0","0","0","QEjJQ","Scenes","","null","","","null","","","","29","110","108","","","","","","","","","","","","","","","","","","","","","","","","","","","","","","","","","","","","","",""
"","fixation","","html-keyboard-response","162","697795","0.0-86.0-0.0","0","0","QEjJQ","Scenes","","null","","","null","","","","","","","","","","","","","","","","","","","","","","","","","","","","","","","","","","","","","","","","","","","",""
"","deliberation","","html-keyboard-response","163","699687","0.0-86.0-1.0","0","0","QEjJQ","Scenes","","1889","","","68","","","","30","124","134","0","1","82","65","johannes-plenio-sPt5RIjKfpk-unsplash.jpg","milada-vigerova-pQMM63GE7fo-unsplash.jpg","3","1","124","134","","","","","","","","","","","","","","","","","","","","","","","","","","","",""
"","choice_confirmation","","html-keyboard-response","164","700204","0.0-86.0-2.0-0.0","0","0","QEjJQ","Scenes","","null","","","null","","","","30","124","134","","","","","","","","","","","","","","","","","","","","","","","","","","","","","","","","","","","","","",""
"","fixation","","html-keyboard-response","165","701229","0.0-87.0-0.0","0","0","QEjJQ","Scenes","","null","","","null","","","","","","","","","","","","","","","","","","","","","","","","","","","","","","","","","","","","","","","","","","","",""
"","deliberation","","html-keyboard-response","166","701979","0.0-87.0-1.0","0","0","QEjJQ","Scenes","","747","","","68","","","","31","142","146","0","-1","70","63","sergey-pesterev-y-b_FOmJXdg-unsplash.jpg","thomas-morse-cuKKa0vWZSY-unsplash.jpg","3","1","142","146","","","","","","","","","","","","","","","","","","","","","","","","","","","",""
"","choice_confirmation","","html-keyboard-response","167","702487","0.0-87.0-2.0-0.0","0","0","QEjJQ","Scenes","","null","","","null","","","","31","142","146","","","","","","","","","","","","","","","","","","","","","","","","","","","","","","","","","","","","","",""
"","fixation","","html-keyboard-response","168","703508","0.0-88.0-0.0","0","0","QEjJQ","Scenes","","null","","","null","","","","","","","","","","","","","","","","","","","","","","","","","","","","","","","","","","","","","","","","","","","",""
"","deliberation","","html-keyboard-response","169","704525","0.0-88.0-1.0","0","0","QEjJQ","Scenes","","1013","","","75","","","","32","141","109","0","1","61","58","sebastian-unrau-v4e3JI7DDHI-unsplash.jpg","brigitta-schneiter-hXXRLtTxXCU-unsplash.jpg","3","0","109","141","","","","","","","","","","","","","","","","","","","","","","","","","","","",""
"","choice_confirmation","","html-keyboard-response","170","705041","0.0-88.0-2.0-0.0","0","0","QEjJQ","Scenes","","null","","","null","","","","32","141","109","","","","","","","","","","","","","","","","","","","","","","","","","","","","","","","","","","","","","",""
"","fixation","","html-keyboard-response","171","706049","0.0-89.0-0.0","0","0","QEjJQ","Scenes","","null","","","null","","","","","","","","","","","","","","","","","","","","","","","","","","","","","","","","","","","","","","","","","","","",""
"","deliberation","","html-keyboard-response","172","707231","0.0-89.0-1.0","0","0","QEjJQ","Scenes","","1178","","","68","","","","33","121","103","0","-1","66","60","jean-pierre-brungs-qxCqkbF7tUc-unsplash.jpg","anton-darius-FBJugtbHsWU-unsplash.jpg","3","1","121","103","","","","","","","","","","","","","","","","","","","","","","","","","","","",""
"","choice_confirmation","","html-keyboard-response","173","707742","0.0-89.0-2.0-0.0","0","0","QEjJQ","Scenes","","null","","","null","","","","33","121","103","","","","","","","","","","","","","","","","","","","","","","","","","","","","","","","","","","","","","",""
"","fixation","","html-keyboard-response","174","708763","0.0-90.0-0.0","0","0","QEjJQ","Scenes","","null","","","null","","","","","","","","","","","","","","","","","","","","","","","","","","","","","","","","","","","","","","","","","","","",""
"","deliberation","","html-keyboard-response","175","709743","0.0-90.0-1.0","0","0","QEjJQ","Scenes","","976","","","75","","","","34","135","117","0","1","59","60","mohammad-alizade-4wzRuAb-KWs-unsplash.jpg","frank-mckenna-OD9EOzfSOh0-unsplash.jpg","3","0","117","135","","","","","","","","","","","","","","","","","","","","","","","","","","","",""
"","choice_confirmation","","html-keyboard-response","176","710258","0.0-90.0-2.0-0.0","0","0","QEjJQ","Scenes","","null","","","null","","","","34","135","117","","","","","","","","","","","","","","","","","","","","","","","","","","","","","","","","","","","","","",""
"","fixation","","html-keyboard-response","177","711267","0.0-91.0-0.0","0","0","QEjJQ","Scenes","","null","","","null","","","","","","","","","","","","","","","","","","","","","","","","","","","","","","","","","","","","","","","","","","","",""
"","deliberation","","html-keyboard-response","178","712039","0.0-91.0-1.0","0","0","QEjJQ","Scenes","","768","","","68","","","","35","113","105","0","1","57","71","damian-denis-D8R_txR_0PE-unsplash.jpg","ashim-d-silva-S2Q5mdOrrVc-unsplash.jpg","3","1","113","105","","","","","","","","","","","","","","","","","","","","","","","","","","","",""
"","choice_confirmation","","html-keyboard-response","179","712569","0.0-91.0-2.0-0.0","0","0","QEjJQ","Scenes","","null","","","null","","","","35","113","105","","","","","","","","","","","","","","","","","","","","","","","","","","","","","","","","","","","","","",""
"","reward_learning_instructions","","instructions","180","756105","0.0-92.0-0.0","0","0","QEjJQ","Scenes","[{""page_index"":0,""viewing_time"":17351},{""page_index"":1,""viewing_time"":23524},{""page_index"":2,""viewing_time"":2658}]","43534","","","","","","","","","","","","","","","","","","","","","","","","","","","","","","","","","","","","","","","","","","","","","","",""
"","reward_comprehension_check","","survey-multi-choice","181","765243","0.0-92.0-1.0","0","0","QEjJQ","Scenes","","9130","{""Q0"":""True"",""Q1"":""True"",""Q2"":""Press the space bar to see its outcome"",""Q3"":""Press the relevant key while the outcome is presented""}","0","","","","","","","","","","","","","","","","","","","","","","","","","","","","","","","","","","","","","","","","","","","","",""
"","start_phase","","html-keyboard-response","182","767006","0.0-93.0","0","0","QEjJQ","Scenes","","1760","","","78","","","","","","","","","","","","","","","","","","","","","","","","","","","","","","","","","","","","","","","","","","","",""
"","fixation","","html-keyboard-response","183","768021","0.0-94.0","0","0","QEjJQ","Scenes","","null","","","null","","","","","","","","","","","","","","","","","","","","","","","","","","","","","","","","","","","","","","","","","","","",""
"","see_reward","","html-keyboard-response","184","768934","0.0-95.0","0","0","QEjJQ","Scenes","","910","","","32","","106","","0","","","","-1","","","","","1","","","","","0","910","","","","","","","","","","","","","","","","","","","","","","","","",""
"","reward_outcome","","html-keyboard-response","185","770944","0.0-96.0","0","0","QEjJQ","Scenes","","882","","","40","","106","","0","","","","","","","","","","","","","","","","-1","882","","","","","","","","","","","","","","","","","","","","","","",""
"","fixation","","html-keyboard-response","186","771969","0.0-99.0","0","0","QEjJQ","Scenes","","null","","","null","","","","","","","","","","","","","","","","","","","","","","","","","","","","","","","","","","","","","","","","","","","",""
"","see_reward","","html-keyboard-response","187","772827","0.0-100.0","0","0","QEjJQ","Scenes","","854","","","32","","109","","1","","","","1","","","","","1","","","","","144","854","","","","","","","","","","","","","","","","","","","","","","","","",""
"","reward_outcome","","html-keyboard-response","188","774837","0.0-101.0","0","0","QEjJQ","Scenes","","643","","","38","","109","","1","","","","","","","","","","","","","","","","1","643","","","","","","","","","","","","","","","","","","","","","","",""
"","fixation","","html-keyboard-response","189","775860","0.0-104.0","0","0","QEjJQ","Scenes","","null","","","null","","","","","","","","","","","","","","","","","","","","","","","","","","","","","","","","","","","","","","","","","","","",""
"","see_reward","","html-keyboard-response","190","776541","0.0-105.0","0","0","QEjJQ","Scenes","","677","","","32","","124","","2","","","","1","","","","","1","","","","","150","677","","","","","","","","","","","","","","","","","","","","","","","","",""
"","reward_outcome","","html-keyboard-response","191","778561","0.0-106.0","0","0","QEjJQ","Scenes","","898","","","38","","124","","2","","","","","","","","","","","","","","","","1","898","","","","","","","","","","","","","","","","","","","","","","",""
"","fixation","","html-keyboard-response","192","779571","0.0-109.0","0","0","QEjJQ","Scenes","","null","","","null","","","","","","","","","","","","","","","","","","","","","","","","","","","","","","","","","","","","","","","","","","","",""
"","see_reward","","html-keyboard-response","193","780266","0.0-110.0","0","0","QEjJQ","Scenes","","693","","","32","","142","","3","","","","-1","","","","","1","","","","","0","693","","","","","","","","","","","","","","","","","","","","","","","","",""
"","reward_outcome","","html-keyboard-response","194","782284","0.0-111.0","0","0","QEjJQ","Scenes","","685","","","40","","142","","3","","","","","","","","","","","","","","","","-1","685","","","","","","","","","","","","","","","","","","","","","","",""
"","fixation","","html-keyboard-response","195","783292","0.0-114.0","0","0","QEjJQ","Scenes","","null","","","null","","","","","","","","","","","","","","","","","","","","","","","","","","","","","","","","","","","","","","","","","","","",""
"","see_reward","","html-keyboard-response","196","784219","0.0-115.0","0","0","QEjJQ","Scenes","","924","","","32","","102","","4","","","","1","","","","","1","","","","","155","924","","","","","","","","","","","","","","","","","","","","","","","","",""
"","reward_outcome","","html-keyboard-response","197","786226","0.0-116.0","0","0","QEjJQ","Scenes","","604","","","38","","102","","4","","","","","","","","","","","","","","","","1","604","","","","","","","","","","","","","","","","","","","","","","",""
"","fixation","","html-keyboard-response","198","787242","0.0-119.0","0","0","QEjJQ","Scenes","","null","","","null","","","","","","","","","","","","","","","","","","","","","","","","","","","","","","","","","","","","","","","","","","","",""
"","see_reward","","html-keyboard-response","199","787739","0.0-120.0","0","0","QEjJQ","Scenes","","495","","","32","","138","","5","","","","-1","","","","","1","","","","","0","495","","","","","","","","","","","","","","","","","","","","","","","","",""
"","reward_outcome","","html-keyboard-response","200","789753","0.0-121.0","0","0","QEjJQ","Scenes","","656","","","40","","138","","5","","","","","","","","","","","","","","","","-1","656","","","","","","","","","","","","","","","","","","","","","","",""
"","fixation","","html-keyboard-response","201","790767","0.0-124.0","0","0","QEjJQ","Scenes","","null","","","null","","","","","","","","","","","","","","","","","","","","","","","","","","","","","","","","","","","","","","","","","","","",""
"","see_reward","","html-keyboard-response","202","791541","0.0-125.0","0","0","QEjJQ","Scenes","","771","","","32","","113","","6","","","","1","","","","","1","","","","","154","771","","","","","","","","","","","","","","","","","","","","","","","","",""
"","reward_outcome","","html-keyboard-response","203","793556","0.0-126.0","0","0","QEjJQ","Scenes","","929","","","38","","113","","6","","","","","","","","","","","","","","","","1","929","","","","","","","","","","","","","","","","","","","","","","",""
"","fixation","","html-keyboard-response","204","794561","0.0-129.0","0","0","QEjJQ","Scenes","","null","","","null","","","","","","","","","","","","","","","","","","","","","","","","","","","","","","","","","","","","","","","","","","","",""
"","see_reward","","html-keyboard-response","205","795550","0.0-130.0","0","0","QEjJQ","Scenes","","987","","","32","","121","","7","","","","-1","","","","","1","","","","","0","987","","","","","","","","","","","","","","","","","","","","","","","","",""
"","reward_outcome","","html-keyboard-response","206","797563","0.0-131.0","0","0","QEjJQ","Scenes","","1924","","","40","","121","","7","","","","","","","","","","","","","","","","-1","1924","","","","","","","","","","","","","","","","","","","","","","",""
"","fixation","","html-keyboard-response","207","798578","0.0-134.0","0","0","QEjJQ","Scenes","","null","","","null","","","","","","","","","","","","","","","","","","","","","","","","","","","","","","","","","","","","","","","","","","","",""
"","see_reward","","html-keyboard-response","208","799069","0.0-135.0","0","0","QEjJQ","Scenes","","487","","","32","","102","","8","","","","1","","","","","1","","","","","155","487","","","","","","","","","","","","","","","","","","","","","","","","",""
"","reward_outcome","","html-keyboard-response","209","801078","0.0-136.0","0","0","QEjJQ","Scenes","","943","","","38","","102","","8","","","","","","","","","","","","","","","","1","943","","","","","","","","","","","","","","","","","","","","","","",""
"","fixation","","html-keyboard-response","210","802100","0.0-139.0","0","0","QEjJQ","Scenes","","null","","","null","","","","","","","","","","","","","","","","","","","","","","","","","","","","","","","","","","","","","","","","","","","",""
"","see_reward","","html-keyboard-response","211","802798","0.0-140.0","0","0","QEjJQ","Scenes","","695","","","32","","110","","9","","","","-1","","","","","1","","","","","0","695","","","","","","","","","","","","","","","","","","","","","","","","",""
"","reward_outcome","","html-keyboard-response","212","804812","0.0-141.0","0","0","QEjJQ","Scenes","","621","","","40","","110","","9","","","","","","","","","","","","","","","","-1","621","","","","","","","","","","","","","","","","","","","","","","",""
"","fixation","","html-keyboard-response","213","805819","0.0-144.0","0","0","QEjJQ","Scenes","","null","","","null","","","","","","","","","","","","","","","","","","","","","","","","","","","","","","","","","","","","","","","","","","","",""
"","see_reward","","html-keyboard-response","214","806340","0.0-145.0","0","0","QEjJQ","Scenes","","519","","","32","","117","","10","","","","1","","","","","1","","","","","143","519","","","","","","","","","","","","","","","","","","","","","","","","",""
"","reward_outcome","","html-keyboard-response","215","808346","0.0-146.0","0","0","QEjJQ","Scenes","","655","","","38","","117","","10","","","","","","","","","","","","","","","","1","655","","","","","","","","","","","","","","","","","","","","","","",""
"","fixation","","html-keyboard-response","216","809353","0.0-149.0","0","0","QEjJQ","Scenes","","null","","","null","","","","","","","","","","","","","","","","","","","","","","","","","","","","","","","","","","","","","","","","","","","",""
"","see_reward","","html-keyboard-response","217","809810","0.0-150.0","0","0","QEjJQ","Scenes","","454","","","32","","144","","11","","","","-1","","","","","1","","","","","0","454","","","","","","","","","","","","","","","","","","","","","","","","",""
"","reward_outcome","","html-keyboard-response","218","811817","0.0-151.0","0","0","QEjJQ","Scenes","","602","","","40","","144","","11","","","","","","","","","","","","","","","","-1","602","","","","","","","","","","","","","","","","","","","","","","",""
"","fixation","","html-keyboard-response","219","812838","0.0-154.0","0","0","QEjJQ","Scenes","","null","","","null","","","","","","","","","","","","","","","","","","","","","","","","","","","","","","","","","","","","","","","","","","","",""
"","see_reward","","html-keyboard-response","220","813383","0.0-155.0","0","0","QEjJQ","Scenes","","541","","","32","","117","","12","","","","1","","","","","1","","","","","143","541","","","","","","","","","","","","","","","","","","","","","","","","",""
"","reward_outcome","","html-keyboard-response","221","815395","0.0-156.0","0","0","QEjJQ","Scenes","","548","","","38","","117","","12","","","","","","","","","","","","","","","","1","548","","","","","","","","","","","","","","","","","","","","","","",""
"","fixation","","html-keyboard-response","222","816412","0.0-159.0","0","0","QEjJQ","Scenes","","null","","","null","","","","","","","","","","","","","","","","","","","","","","","","","","","","","","","","","","","","","","","","","","","",""
"","see_reward","","html-keyboard-response","223","816783","0.0-160.0","0","0","QEjJQ","Scenes","","366","","","32","","148","","13","","","","1","","","","","1","","","","","143","366","","","","","","","","","","","","","","","","","","","","","","","","",""
"","reward_outcome","","html-keyboard-response","224","818795","0.0-161.0","0","0","QEjJQ","Scenes","","619","","","38","","148","","13","","","","","","","","","","","","","","","","1","619","","","","","","","","","","","","","","","","","","","","","","",""
"","fixation","","html-keyboard-response","225","819803","0.0-164.0","0","0","QEjJQ","Scenes","","null","","","null","","","","","","","","","","","","","","","","","","","","","","","","","","","","","","","","","","","","","","","","","","","",""
"","see_reward","","html-keyboard-response","226","820324","0.0-165.0","0","0","QEjJQ","Scenes","","518","","","32","","106","","14","","","","-1","","","","","1","","","","","0","518","","","","","","","","","","","","","","","","","","","","","","","","",""
"","reward_outcome","","html-keyboard-response","227","822336","0.0-166.0","0","0","QEjJQ","Scenes","","529","","","40","","106","","14","","","","","","","","","","","","","","","","-1","529","","","","","","","","","","","","","","","","","","","","","","",""
"","fixation","","html-keyboard-response","228","823354","0.0-169.0","0","0","QEjJQ","Scenes","","null","","","null","","","","","","","","","","","","","","","","","","","","","","","","","","","","","","","","","","","","","","","","","","","",""
"","see_reward","","html-keyboard-response","229","823679","0.0-170.0","0","0","QEjJQ","Scenes","","320","","","32","","121","","15","","","","-1","","","","","1","","","","","0","320","","","","","","","","","","","","","","","","","","","","","","","","",""
"","reward_outcome","","html-keyboard-response","230","825693","0.0-171.0","0","0","QEjJQ","Scenes","","519","","","40","","121","","15","","","","","","","","","","","","","","","","-1","519","","","","","","","","","","","","","","","","","","","","","","",""
"","fixation","","html-keyboard-response","231","826713","0.0-174.0","0","0","QEjJQ","Scenes","","null","","","null","","","","","","","","","","","","","","","","","","","","","","","","","","","","","","","","","","","","","","","","","","","",""
"","see_reward","","html-keyboard-response","232","827180","0.0-175.0","0","0","QEjJQ","Scenes","","464","","","32","","148","","16","","","","1","","","","","1","","","","","143","464","","","","","","","","","","","","","","","","","","","","","","","","",""
"","reward_outcome","","html-keyboard-response","233","829196","0.0-176.0","0","0","QEjJQ","Scenes","","470","","","38","","148","","16","","","","","","","","","","","","","","","","1","470","","","","","","","","","","","","","","","","","","","","","","",""
"","fixation","","html-keyboard-response","234","830215","0.0-179.0","0","0","QEjJQ","Scenes","","null","","","null","","","","","","","","","","","","","","","","","","","","","","","","","","","","","","","","","","","","","","","","","","","",""
"","see_reward","","html-keyboard-response","235","831031","0.0-180.0","0","0","QEjJQ","Scenes","","812","","","32","","144","","17","","","","-1","","","","","1","","","","","0","812","","","","","","","","","","","","","","","","","","","","","","","","",""
"","reward_outcome","","html-keyboard-response","236","833052","0.0-181.0","0","0","QEjJQ","Scenes","","532","","","40","","144","","17","","","","","","","","","","","","","","","","-1","532","","","","","","","","","","","","","","","","","","","","","","",""
"","fixation","","html-keyboard-response","237","834061","0.0-184.0","0","0","QEjJQ","Scenes","","null","","","null","","","","","","","","","","","","","","","","","","","","","","","","","","","","","","","","","","","","","","","","","","","",""
"","see_reward","","html-keyboard-response","238","834569","0.0-185.0","0","0","QEjJQ","Scenes","","505","","","32","","138","","18","","","","-1","","","","","1","","","","","0","505","","","","","","","","","","","","","","","","","","","","","","","","",""
"","reward_outcome","","html-keyboard-response","239","836587","0.0-186.0","0","0","QEjJQ","Scenes","","443","","","40","","138","","18","","","","","","","","","","","","","","","","-1","443","","","","","","","","","","","","","","","","","","","","","","",""
"","fixation","","html-keyboard-response","240","837597","0.0-189.0","0","0","QEjJQ","Scenes","","null","","","null","","","","","","","","","","","","","","","","","","","","","","","","","","","","","","","","","","","","","","","","","","","",""
"","see_reward","","html-keyboard-response","241","838019","0.0-190.0","0","0","QEjJQ","Scenes","","419","","","32","","124","","19","","","","1","","","","","1","","","","","150","419","","","","","","","","","","","","","","","","","","","","","","","","",""
"","reward_outcome","","html-keyboard-response","242","840034","0.0-191.0","0","0","QEjJQ","Scenes","","574","","","38","","124","","19","","","","","","","","","","","","","","","","1","574","","","","","","","","","","","","","","","","","","","","","","",""
"","fixation","","html-keyboard-response","243","841054","0.0-194.0","0","0","QEjJQ","Scenes","","null","","","null","","","","","","","","","","","","","","","","","","","","","","","","","","","","","","","","","","","","","","","","","","","",""
"","see_reward","","html-keyboard-response","244","841524","0.0-195.0","0","0","QEjJQ","Scenes","","466","","","32","","110","","20","","","","-1","","","","","1","","","","","0","466","","","","","","","","","","","","","","","","","","","","","","","","",""
"","reward_outcome","","html-keyboard-response","245","843531","0.0-196.0","0","0","QEjJQ","Scenes","","533","","","40","","110","","20","","","","","","","","","","","","","","","","-1","533","","","","","","","","","","","","","","","","","","","","","","",""
"","fixation","","html-keyboard-response","246","844540","0.0-199.0","0","0","QEjJQ","Scenes","","null","","","null","","","","","","","","","","","","","","","","","","","","","","","","","","","","","","","","","","","","","","","","","","","",""
"","see_reward","","html-keyboard-response","247","845029","0.0-200.0","0","0","QEjJQ","Scenes","","486","","","32","","113","","21","","","","1","","","","","1","","","","","154","486","","","","","","","","","","","","","","","","","","","","","","","","",""
"","reward_outcome","","html-keyboard-response","248","847043","0.0-201.0","0","0","QEjJQ","Scenes","","525","","","38","","113","","21","","","","","","","","","","","","","","","","1","525","","","","","","","","","","","","","","","","","","","","","","",""
"","fixation","","html-keyboard-response","249","848065","0.0-204.0","0","0","QEjJQ","Scenes","","null","","","null","","","","","","","","","","","","","","","","","","","","","","","","","","","","","","","","","","","","","","","","","","","",""
"","see_reward","","html-keyboard-response","250","848377","0.0-205.0","0","0","QEjJQ","Scenes","","307","","","32","","142","","22","","","","-1","","","","","1","","","","","0","307","","","","","","","","","","","","","","","","","","","","","","","","",""
"","reward_outcome","","html-keyboard-response","251","850398","0.0-206.0","0","0","QEjJQ","Scenes","","517","","","40","","142","","22","","","","","","","","","","","","","","","","-1","517","","","","","","","","","","","","","","","","","","","","","","",""
"","fixation","","html-keyboard-response","252","851408","0.0-209.0","0","0","QEjJQ","Scenes","","null","","","null","","","","","","","","","","","","","","","","","","","","","","","","","","","","","","","","","","","","","","","","","","","",""
"","see_reward","","html-keyboard-response","253","851923","0.0-210.0","0","0","QEjJQ","Scenes","","511","","","32","","109","","23","","","","1","","","","","1","","","","","144","511","","","","","","","","","","","","","","","","","","","","","","","","",""
"","reward_outcome","","html-keyboard-response","254","853936","0.0-211.0","0","0","QEjJQ","Scenes","","500","","","38","","109","","23","","","","","","","","","","","","","","","","1","500","","","","","","","","","","","","","","","","","","","","","","",""
"","block_over","","html-keyboard-response","255","856146","0.0-213.0-0.0","0","0","QEjJQ","Scenes","","2207","","","78","","","","","","","","","","","","","","","","","","","","","","","","","","","","","","","","","","","","","","","","","","","",""
"","fixation","","html-keyboard-response","256","857163","0.0-214.0","0","0","QEjJQ","Scenes","","null","","","null","","","","","","","","","","","","","","","","","","","","","","","","","","","","","","","","","","","","","","","","","","","",""
"","see_reward","","html-keyboard-response","257","857923","0.0-215.0","0","0","QEjJQ","Scenes","","756","","","32","","124","","24","","","","1","","","","","2","","","","","150","756","","","","","","","","","","","","","","","","","","","","","","","","",""
"","reward_outcome","","html-keyboard-response","258","859931","0.0-216.0","0","0","QEjJQ","Scenes","","686","","","38","","124","","24","","","","","","","","","","","","","","","","1","686","","","","","","","","","","","","","","","","","","","","","","",""
"","fixation","","html-keyboard-response","259","860939","0.0-219.0","0","0","QEjJQ","Scenes","","null","","","null","","","","","","","","","","","","","","","","","","","","","","","","","","","","","","","","","","","","","","","","","","","",""
"","see_reward","","html-keyboard-response","260","861325","0.0-220.0","0","0","QEjJQ","Scenes","","384","","","32","","117","","25","","","","1","","","","","2","","","","","143","384","","","","","","","","","","","","","","","","","","","","","","","","",""
"","reward_outcome","","html-keyboard-response","261","863347","0.0-221.0","0","0","QEjJQ","Scenes","","668","","","38","","117","","25","","","","","","","","","","","","","","","","1","668","","","","","","","","","","","","","","","","","","","","","","",""
"","fixation","","html-keyboard-response","262","864353","0.0-224.0","0","0","QEjJQ","Scenes","","null","","","null","","","","","","","","","","","","","","","","","","","","","","","","","","","","","","","","","","","","","","","","","","","",""
"","see_reward","","html-keyboard-response","263","864773","0.0-225.0","0","0","QEjJQ","Scenes","","415","","","32","","109","","26","","","","1","","","","","2","","","","","144","415","","","","","","","","","","","","","","","","","","","","","","","","",""
"","reward_outcome","","html-keyboard-response","264","866791","0.0-226.0","0","0","QEjJQ","Scenes","","491","","","38","","109","","26","","","","","","","","","","","","","","","","1","491","","","","","","","","","","","","","","","","","","","","","","",""
"","fixation","","html-keyboard-response","265","867801","0.0-229.0","0","0","QEjJQ","Scenes","","null","","","null","","","","","","","","","","","","","","","","","","","","","","","","","","","","","","","","","","","","","","","","","","","",""
"","see_reward","","html-keyboard-response","266","868078","0.0-230.0","0","0","QEjJQ","Scenes","","273","","","32","","117","","27","","","","1","","","","","2","","","","","143","273","","","","","","","","","","","","","","","","","","","","","","","","",""
"","reward_outcome","","html-keyboard-response","267","870094","0.0-231.0","0","0","QEjJQ","Scenes","","464","","","38","","117","","27","","","","","","","","","","","","","","","","1","464","","","","","","","","","","","","","","","","","","","","","","",""
"","fixation","","html-keyboard-response","268","871120","0.0-234.0","0","0","QEjJQ","Scenes","","null","","","null","","","","","","","","","","","","","","","","","","","","","","","","","","","","","","","","","","","","","","","","","","","",""
"","see_reward","","html-keyboard-response","269","871535","0.0-235.0","0","0","QEjJQ","Scenes","","411","","","32","","109","","28","","","","1","","","","","2","","","","","144","411","","","","","","","","","","","","","","","","","","","","","","","","",""
"","reward_outcome","","html-keyboard-response","270","873554","0.0-236.0","0","0","QEjJQ","Scenes","","392","","","38","","109","","28","","","","","","","","","","","","","","","","1","392","","","","","","","","","","","","","","","","","","","","","","",""
"","fixation","","html-keyboard-response","271","874572","0.0-239.0","0","0","QEjJQ","Scenes","","null","","","null","","","","","","","","","","","","","","","","","","","","","","","","","","","","","","","","","","","","","","","","","","","",""
"","see_reward","","html-keyboard-response","272","875083","0.0-240.0","0","0","QEjJQ","Scenes","","507","","","32","","110","","29","","","","-1","","","","","2","","","","","0","507","","","","","","","","","","","","","","","","","","","","","","","","",""
"","reward_outcome","","html-keyboard-response","273","877100","0.0-241.0","0","0","QEjJQ","Scenes","","516","","","40","","110","","29","","","","","","","","","","","","","","","","-1","516","","","","","","","","","","","","","","","","","","","","","","",""
"","fixation","","html-keyboard-response","274","878106","0.0-244.0","0","0","QEjJQ","Scenes","","null","","","null","","","","","","","","","","","","","","","","","","","","","","","","","","","","","","","","","","","","","","","","","","","",""
"","see_reward","","html-keyboard-response","275","878508","0.0-245.0","0","0","QEjJQ","Scenes","","399","","","32","","113","","30","","","","1","","","","","2","","","","","154","399","","","","","","","","","","","","","","","","","","","","","","","","",""
"","reward_outcome","","html-keyboard-response","276","880529","0.0-246.0","0","0","QEjJQ","Scenes","","357","","","38","","113","","30","","","","","","","","","","","","","","","","1","357","","","","","","","","","","","","","","","","","","","","","","",""
"","fixation","","html-keyboard-response","277","881537","0.0-249.0","0","0","QEjJQ","Scenes","","null","","","null","","","","","","","","","","","","","","","","","","","","","","","","","","","","","","","","","","","","","","","","","","","",""
"","see_reward","","html-keyboard-response","278","882113","0.0-250.0","0","0","QEjJQ","Scenes","","573","","","32","","124","","31","","","","1","","","","","2","","","","","150","573","","","","","","","","","","","","","","","","","","","","","","","","",""
"","reward_outcome","","html-keyboard-response","279","884128","0.0-251.0","0","0","QEjJQ","Scenes","","530","","","38","","124","","31","","","","","","","","","","","","","","","","1","530","","","","","","","","","","","","","","","","","","","","","","",""
"","fixation","","html-keyboard-response","280","885150","0.0-254.0","0","0","QEjJQ","Scenes","","null","","","null","","","","","","","","","","","","","","","","","","","","","","","","","","","","","","","","","","","","","","","","","","","",""
"","see_reward","","html-keyboard-response","281","885584","0.0-255.0","0","0","QEjJQ","Scenes","","430","","","32","","148","","32","","","","1","","","","","2","","","","","143","430","","","","","","","","","","","","","","","","","","","","","","","","",""
"","reward_outcome","","html-keyboard-response","282","887593","0.0-256.0","0","0","QEjJQ","Scenes","","369","","","38","","148","","32","","","","","","","","","","","","","","","","1","369","","","","","","","","","","","","","","","","","","","","","","",""
"","fixation","","html-keyboard-response","283","888602","0.0-259.0","0","0","QEjJQ","Scenes","","null","","","null","","","","","","","","","","","","","","","","","","","","","","","","","","","","","","","","","","","","","","","","","","","",""
"","see_reward","","html-keyboard-response","284","889058","0.0-260.0","0","0","QEjJQ","Scenes","","453","","","32","","106","","33","","","","-1","","","","","2","","","","","0","453","","","","","","","","","","","","","","","","","","","","","","","","",""
"","reward_outcome","","html-keyboard-response","285","891065","0.0-261.0","0","0","QEjJQ","Scenes","","394","","","40","","106","","33","","","","","","","","","","","","","","","","-1","394","","","","","","","","","","","","","","","","","","","","","","",""
"","fixation","","html-keyboard-response","286","892078","0.0-264.0","0","0","QEjJQ","Scenes","","null","","","null","","","","","","","","","","","","","","","","","","","","","","","","","","","","","","","","","","","","","","","","","","","",""
"","see_reward","","html-keyboard-response","287","892588","0.0-265.0","0","0","QEjJQ","Scenes","","507","","","32","","138","","34","","","","-1","","","","","2","","","","","0","507","","","","","","","","","","","","","","","","","","","","","","","","",""
"","reward_outcome","","html-keyboard-response","288","894605","0.0-266.0","0","0","QEjJQ","Scenes","","374","","","40","","138","","34","","","","","","","","","","","","","","","","-1","374","","","","","","","","","","","","","","","","","","","","","","",""
"","fixation","","html-keyboard-response","289","895616","0.0-269.0","0","0","QEjJQ","Scenes","","null","","","null","","","","","","","","","","","","","","","","","","","","","","","","","","","","","","","","","","","","","","","","","","","",""
"","see_reward","","html-keyboard-response","290","896157","0.0-270.0","0","0","QEjJQ","Scenes","","539","","","32","","102","","35","","","","1","","","","","2","","","","","155","539","","","","","","","","","","","","","","","","","","","","","","","","",""
"","reward_outcome","","html-keyboard-response","291","898182","0.0-271.0","0","0","QEjJQ","Scenes","","353","","","38","","102","","35","","","","","","","","","","","","","","","","1","353","","","","","","","","","","","","","","","","","","","","","","",""
"","fixation","","html-keyboard-response","292","899192","0.0-274.0","0","0","QEjJQ","Scenes","","null","","","null","","","","","","","","","","","","","","","","","","","","","","","","","","","","","","","","","","","","","","","","","","","",""
"","see_reward","","html-keyboard-response","293","899691","0.0-275.0","0","0","QEjJQ","Scenes","","495","","","32","","144","","36","","","","-1","","","","","2","","","","","0","495","","","","","","","","","","","","","","","","","","","","","","","","",""
"","reward_outcome","","html-keyboard-response","294","901696","0.0-276.0","0","0","QEjJQ","Scenes","","389","","","40","","144","","36","","","","","","","","","","","","","","","","-1","389","","","","","","","","","","","","","","","","","","","","","","",""
"","fixation","","html-keyboard-response","295","902711","0.0-279.0","0","0","QEjJQ","Scenes","","null","","","null","","","","","","","","","","","","","","","","","","","","","","","","","","","","","","","","","","","","","","","","","","","",""
"","see_reward","","html-keyboard-response","296","903315","0.0-280.0","0","0","QEjJQ","Scenes","","601","","","32","","106","","37","","","","-1","","","","","2","","","","","0","601","","","","","","","","","","","","","","","","","","","","","","","","",""
"","reward_outcome","","html-keyboard-response","297","905327","0.0-281.0","0","0","QEjJQ","Scenes","","327","","","40","","106","","37","","","","","","","","","","","","","","","","-1","327","","","","","","","","","","","","","","","","","","","","","","",""
"","fixation","","html-keyboard-response","298","906335","0.0-284.0","0","0","QEjJQ","Scenes","","null","","","null","","","","","","","","","","","","","","","","","","","","","","","","","","","","","","","","","","","","","","","","","","","",""
"","see_reward","","html-keyboard-response","299","906978","0.0-285.0","0","0","QEjJQ","Scenes","","639","","","32","","110","","38","","","","-1","","","","","2","","","","","0","639","","","","","","","","","","","","","","","","","","","","","","","","",""
"","reward_outcome","","html-keyboard-response","300","908995","0.0-286.0","0","0","QEjJQ","Scenes","","377","","","40","","110","","38","","","","","","","","","","","","","","","","-1","377","","","","","","","","","","","","","","","","","","","","","","",""
"","fixation","","html-keyboard-response","301","910022","0.0-289.0","0","0","QEjJQ","Scenes","","null","","","null","","","","","","","","","","","","","","","","","","","","","","","","","","","","","","","","","","","","","","","","","","","",""
"","see_reward","","html-keyboard-response","302","910504","0.0-290.0","0","0","QEjJQ","Scenes","","478","","","32","","142","","39","","","","-1","","","","","2","","","","","0","478","","","","","","","","","","","","","","","","","","","","","","","","",""
"","reward_outcome","","html-keyboard-response","303","912520","0.0-291.0","0","0","QEjJQ","Scenes","","357","","","40","","142","","39","","","","","","","","","","","","","","","","-1","357","","","","","","","","","","","","","","","","","","","","","","",""
"","fixation","","html-keyboard-response","304","913542","0.0-294.0","0","0","QEjJQ","Scenes","","null","","","null","","","","","","","","","","","","","","","","","","","","","","","","","","","","","","","","","","","","","","","","","","","",""
"","see_reward","","html-keyboard-response","305","914057","0.0-295.0","0","0","QEjJQ","Scenes","","511","","","32","","102","","40","","","","1","","","","","2","","","","","155","511","","","","","","","","","","","","","","","","","","","","","","","","",""
"","reward_outcome","","html-keyboard-response","306","916072","0.0-296.0","0","0","QEjJQ","Scenes","","362","","","38","","102","","40","","","","","","","","","","","","","","","","1","362","","","","","","","","","","","","","","","","","","","","","","",""
"","fixation","","html-keyboard-response","307","917093","0.0-299.0","0","0","QEjJQ","Scenes","","null","","","null","","","","","","","","","","","","","","","","","","","","","","","","","","","","","","","","","","","","","","","","","","","",""
"","see_reward","","html-keyboard-response","308","917652","0.0-300.0","0","0","QEjJQ","Scenes","","554","","","32","","144","","41","","","","-1","","","","","2","","","","","0","554","","","","","","","","","","","","","","","","","","","","","","","","",""
"","reward_outcome","","html-keyboard-response","309","919670","0.0-301.0","0","0","QEjJQ","Scenes","","373","","","40","","144","","41","","","","","","","","","","","","","","","","-1","373","","","","","","","","","","","","","","","","","","","","","","",""
"","fixation","","html-keyboard-response","310","920695","0.0-304.0","0","0","QEjJQ","Scenes","","null","","","null","","","","","","","","","","","","","","","","","","","","","","","","","","","","","","","","","","","","","","","","","","","",""
"","see_reward","","html-keyboard-response","311","921187","0.0-305.0","0","0","QEjJQ","Scenes","","488","","","32","","121","","42","","","","-1","","","","","2","","","","","0","488","","","","","","","","","","","","","","","","","","","","","","","","",""
"","reward_outcome","","html-keyboard-response","312","923193","0.0-306.0","0","0","QEjJQ","Scenes","","809","","","40","","121","","42","","","","","","","","","","","","","","","","-1","809","","","","","","","","","","","","","","","","","","","","","","",""
"","fixation","","html-keyboard-response","313","924200","0.0-309.0","0","0","QEjJQ","Scenes","","null","","","null","","","","","","","","","","","","","","","","","","","","","","","","","","","","","","","","","","","","","","","","","","","",""
"","see_reward","","html-keyboard-response","314","924688","0.0-310.0","0","0","QEjJQ","Scenes","","485","","","32","","148","","43","","","","1","","","","","2","","","","","143","485","","","","","","","","","","","","","","","","","","","","","","","","",""
"","reward_outcome","","html-keyboard-response","315","926698","0.0-311.0","0","0","QEjJQ","Scenes","","422","","","38","","148","","43","","","","","","","","","","","","","","","","1","422","","","","","","","","","","","","","","","","","","","","","","",""
"","fixation","","html-keyboard-response","316","927705","0.0-314.0","0","0","QEjJQ","Scenes","","null","","","null","","","","","","","","","","","","","","","","","","","","","","","","","","","","","","","","","","","","","","","","","","","",""
"","see_reward","","html-keyboard-response","317","928746","0.0-315.0","0","0","QEjJQ","Scenes","","1038","","","32","","113","","44","","","","1","","","","","2","","","","","154","1038","","","","","","","","","","","","","","","","","","","","","","","","",""
"","reward_outcome","","html-keyboard-response","318","930758","0.0-316.0","0","0","QEjJQ","Scenes","","542","","","38","","113","","44","","","","","","","","","","","","","","","","1","542","","","","","","","","","","","","","","","","","","","","","","",""
"","fixation","","html-keyboard-response","319","931781","0.0-319.0","0","0","QEjJQ","Scenes","","null","","","null","","","","","","","","","","","","","","","","","","","","","","","","","","","","","","","","","","","","","","","","","","","",""
"","see_reward","","html-keyboard-response","320","932432","0.0-320.0","0","0","QEjJQ","Scenes","","647","","","32","","138","","45","","","","-1","","","","","2","","","","","0","647","","","","","","","","","","","","","","","","","","","","","","","","",""
"","reward_outcome","","html-keyboard-response","321","934447","0.0-321.0","0","0","QEjJQ","Scenes","","430","","","40","","138","","45","","","","","","","","","","","","","","","","-1","430","","","","","","","","","","","","","","","","","","","","","","",""
"","fixation","","html-keyboard-response","322","935458","0.0-324.0","0","0","QEjJQ","Scenes","","null","","","null","","","","","","","","","","","","","","","","","","","","","","","","","","","","","","","","","","","","","","","","","","","",""
"","see_reward","","html-keyboard-response","323","935868","0.0-325.0","0","0","QEjJQ","Scenes","","406","","","32","","121","","46","","","","-1","","","","","2","","","","","0","406","","","","","","","","","","","","","","","","","","","","","","","","",""
"","reward_outcome","","html-keyboard-response","324","937880","0.0-326.0","0","0","QEjJQ","Scenes","","434","","","40","","121","","46","","","","","","","","","","","","","","","","-1","434","","","","","","","","","","","","","","","","","","","","","","",""
"","fixation","","html-keyboard-response","325","938890","0.0-329.0","0","0","QEjJQ","Scenes","","null","","","null","","","","","","","","","","","","","","","","","","","","","","","","","","","","","","","","","","","","","","","","","","","",""
"","see_reward","","html-keyboard-response","326","939371","0.0-330.0","0","0","QEjJQ","Scenes","","477","","","32","","142","","47","","","","-1","","","","","2","","","","","0","477","","","","","","","","","","","","","","","","","","","","","","","","",""
"","reward_outcome","","html-keyboard-response","327","941386","0.0-331.0","0","0","QEjJQ","Scenes","","653","","","40","","142","","47","","","","","","","","","","","","","","","","-1","653","","","","","","","","","","","","","","","","","","","","","","",""
"","block_over","","html-keyboard-response","328","945275","0.0-333.0-0.0","0","0","QEjJQ","Scenes","","3886","","","78","","","","","","","","","","","","","","","","","","","","","","","","","","","","","","","","","","","","","","","","","","","",""
"","fixation","","html-keyboard-response","329","946288","0.0-334.0","0","0","QEjJQ","Scenes","","null","","","null","","","","","","","","","","","","","","","","","","","","","","","","","","","","","","","","","","","","","","","","","","","",""
"","see_reward","","html-keyboard-response","330","947163","0.0-335.0","0","0","QEjJQ","Scenes","","871","","","32","","124","","48","","","","1","","","","","3","","","","","150","871","","","","","","","","","","","","","","","","","","","","","","","","",""
"","reward_outcome","","html-keyboard-response","331","949170","0.0-336.0","0","0","QEjJQ","Scenes","","559","","","38","","124","","48","","","","","","","","","","","","","","","","1","559","","","","","","","","","","","","","","","","","","","","","","",""
"","fixation","","html-keyboard-response","332","950184","0.0-339.0","0","0","QEjJQ","Scenes","","null","","","null","","","","","","","","","","","","","","","","","","","","","","","","","","","","","","","","","","","","","","","","","","","",""
"","see_reward","","html-keyboard-response","333","950867","0.0-340.0","0","0","QEjJQ","Scenes","","679","","","32","","138","","49","","","","-1","","","","","3","","","","","0","679","","","","","","","","","","","","","","","","","","","","","","","","",""
"","reward_outcome","","html-keyboard-response","334","952882","0.0-341.0","0","0","QEjJQ","Scenes","","426","","","40","","138","","49","","","","","","","","","","","","","","","","-1","426","","","","","","","","","","","","","","","","","","","","","","",""
"","fixation","","html-keyboard-response","335","953888","0.0-344.0","0","0","QEjJQ","Scenes","","null","","","null","","","","","","","","","","","","","","","","","","","","","","","","","","","","","","","","","","","","","","","","","","","",""
"","see_reward","","html-keyboard-response","336","954361","0.0-345.0","0","0","QEjJQ","Scenes","","470","","","32","","117","","50","","","","1","","","","","3","","","","","143","470","","","","","","","","","","","","","","","","","","","","","","","","",""
"","reward_outcome","","html-keyboard-response","337","956371","0.0-346.0","0","0","QEjJQ","Scenes","","377","","","38","","117","","50","","","","","","","","","","","","","","","","1","377","","","","","","","","","","","","","","","","","","","","","","",""
"","fixation","","html-keyboard-response","338","957384","0.0-349.0","0","0","QEjJQ","Scenes","","null","","","null","","","","","","","","","","","","","","","","","","","","","","","","","","","","","","","","","","","","","","","","","","","",""
"","see_reward","","html-keyboard-response","339","957868","0.0-350.0","0","0","QEjJQ","Scenes","","480","","","32","","110","","51","","","","-1","","","","","3","","","","","0","480","","","","","","","","","","","","","","","","","","","","","","","","",""
"","reward_outcome","","html-keyboard-response","340","959880","0.0-351.0","0","0","QEjJQ","Scenes","","385","","","40","","110","","51","","","","","","","","","","","","","","","","-1","385","","","","","","","","","","","","","","","","","","","","","","",""
"","fixation","","html-keyboard-response","341","960889","0.0-354.0","0","0","QEjJQ","Scenes","","null","","","null","","","","","","","","","","","","","","","","","","","","","","","","","","","","","","","","","","","","","","","","","","","",""
"","see_reward","","html-keyboard-response","342","961332","0.0-355.0","0","0","QEjJQ","Scenes","","439","","","32","","106","","52","","","","-1","","","","","3","","","","","0","439","","","","","","","","","","","","","","","","","","","","","","","","",""
"","reward_outcome","","html-keyboard-response","343","963358","0.0-356.0","0","0","QEjJQ","Scenes","","322","","","40","","106","","52","","","","","","","","","","","","","","","","-1","322","","","","","","","","","","","","","","","","","","","","","","",""
"","fixation","","html-keyboard-response","344","964382","0.0-359.0","0","0","QEjJQ","Scenes","","null","","","null","","","","","","","","","","","","","","","","","","","","","","","","","","","","","","","","","","","","","","","","","","","",""
"","see_reward","","html-keyboard-response","345","964813","0.0-360.0","0","0","QEjJQ","Scenes","","428","","","32","","142","","53","","","","-1","","","","","3","","","","","0","428","","","","","","","","","","","","","","","","","","","","","","","","",""
"","reward_outcome","","html-keyboard-response","346","966835","0.0-361.0","0","0","QEjJQ","Scenes","","486","","","40","","142","","53","","","","","","","","","","","","","","","","-1","486","","","","","","","","","","","","","","","","","","","","","","",""
"","fixation","","html-keyboard-response","347","967849","0.0-364.0","0","0","QEjJQ","Scenes","","null","","","null","","","","","","","","","","","","","","","","","","","","","","","","","","","","","","","","","","","","","","","","","","","",""
"","see_reward","","html-keyboard-response","348","968411","0.0-365.0","0","0","QEjJQ","Scenes","","559","","","32","","109","","54","","","","1","","","","","3","","","","","144","559","","","","","","","","","","","","","","","","","","","","","","","","",""
"","reward_outcome","","html-keyboard-response","349","970425","0.0-366.0","0","0","QEjJQ","Scenes","","399","","","38","","109","","54","","","","","","","","","","","","","","","","1","399","","","","","","","","","","","","","","","","","","","","","","",""
"","fixation","","html-keyboard-response","350","971446","0.0-369.0","0","0","QEjJQ","Scenes","","null","","","null","","","","","","","","","","","","","","","","","","","","","","","","","","","","","","","","","","","","","","","","","","","",""
"","see_reward","","html-keyboard-response","351","971996","0.0-370.0","0","0","QEjJQ","Scenes","","546","","","32","","148","","55","","","","1","","","","","3","","","","","143","546","","","","","","","","","","","","","","","","","","","","","","","","",""
"","reward_outcome","","html-keyboard-response","352","974020","0.0-371.0","0","0","QEjJQ","Scenes","","429","","","38","","148","","55","","","","","","","","","","","","","","","","1","429","","","","","","","","","","","","","","","","","","","","","","",""
