"success","ttype","start_time","trial_type","trial_index","time_elapsed","internal_node_id","warning","missed_checkup","PID","stim_type","view_history","rt","responses","category","repeat_instructions","key_press","response","stimulus_id","painting","index","stimulus_left","stimulus_right","explain_trial","reward_type","rating_left","rating_right","painting_left","painting_right","block","left_chosen","chosen_obj","unchosen_obj","explain_response","reward_amount","see_reward_rt","register_reward_response","register_reward_rt","deliberation_reward_tally","stimulus_left_deliberation_ind","stimulus_right_deliberation_ind","chosen_trial","gain_left","higher_outcome_chosen","old_pair","chosen_object","rt_pairs","left_object_chosen","rt_object","old_response","new_rating","deliberated_stim","initial_rating","outcome_eval_rt","outcome_eval_response","outcome_eval_gain","outcome_eval_acc","preamble","outcome_eval_confidence","outcome_eval_confidence_rt","total_reward_tally"
"true","full_screen","d01182023hr1528","fullscreen","0","23525","0.0-0.0","0","0","SAcSz","People","","","","","","","","","","","","","","","","","","","","","","","","","","","","","","","","","","","","","","","","","","","","","","","","","",""
"","rating_instructions","","instructions","1","67153","0.0-1.0-0.0","0","0","SAcSz","People","[{""page_index"":0,""viewing_time"":37983},{""page_index"":1,""viewing_time"":5641}]","43625","","","","","","","","","","","","","","","","","","","","","","","","","","","","","","","","","","","","","","","","","","","","","","","",""
"","","","survey-multi-choice","2","101749","0.0-1.0-1.0","0","0","SAcSz","People","","34592","{""Q0"":""True"",""Q1"":""Mouse""}","rating_comprehension_check","0","","","","","","","","","","","","","","","","","","","","","","","","","","","","","","","","","","","","","","","","","","","","",""
"","start_phase","","html-keyboard-response","3","106093","0.0-2.0","0","0","SAcSz","People","","4338","","","","78","","","","","","","","","","","","","","","","","","","","","","","","","","","","","","","","","","","","","","","","","","","",""
"","rating","","html-slider-response","4","113682","0.0-3.0","0","0","SAcSz","People","","7588","","","","","62","1","aiony-haust-jmATI5Q_YgY-unsplash.jpg","0","","","","","","","","","","","","","","","","","","","","","","","","","","","","","","","","","","","","","","","",""
"","rating","","html-slider-response","5","125887","0.0-4.0","0","0","SAcSz","People","","12196","","","","","67","12","daniel-rigdon-dXmXKPP2L4E-unsplash.jpg","1","","","","","","","","","","","","","","","","","","","","","","","","","","","","","","","","","","","","","","","",""
"","rating","","html-slider-response","6","130611","0.0-5.0","0","0","SAcSz","People","","4716","","","","","71","23","joanna-nix-walkup-H4fEMshfwTE-unsplash.jpg","2","","","","","","","","","","","","","","","","","","","","","","","","","","","","","","","","","","","","","","","",""
"","rating","","html-slider-response","7","135251","0.0-6.0","0","0","SAcSz","People","","4627","","","","","93","40","prince-akachi-4Yv84VgQkRM-unsplash.jpg","3","","","","","","","","","","","","","","","","","","","","","","","","","","","","","","","","","","","","","","","",""
"","rating","","html-slider-response","8","139515","0.0-7.0","0","0","SAcSz","People","","4261","","","","","68","44","rikonavt-HQjfrvdTfak-unsplash.jpg","4","","","","","","","","","","","","","","","","","","","","","","","","","","","","","","","","","","","","","","","",""
"","rating","","html-slider-response","9","143531","0.0-8.0","0","0","SAcSz","People","","4013","","","","","70","15","gabriel-silverio-u3WmDyKGsrY-unsplash.jpg","5","","","","","","","","","","","","","","","","","","","","","","","","","","","","","","","","","","","","","","","",""
"","rating","","html-slider-response","10","147574","0.0-9.0","0","0","SAcSz","People","","4038","","","","","69","33","olena-sergienko-0TSd6uCKTKc-unsplash.jpg","6","","","","","","","","","","","","","","","","","","","","","","","","","","","","","","","","","","","","","","","",""
"","rating","","html-slider-response","11","154488","0.0-10.0","0","0","SAcSz","People","","6912","","","","","75","4","barna-bartis-2x3vfVxwR7o-unsplash.jpg","7","","","","","","","","","","","","","","","","","","","","","","","","","","","","","","","","","","","","","","","",""
"","rating","","html-slider-response","12","159010","0.0-11.0","0","0","SAcSz","People","","4509","","","","","72","45","sarah-noltner-pL5ZzPp1zqg-unsplash.jpg","8","","","","","","","","","","","","","","","","","","","","","","","","","","","","","","","","","","","","","","","",""
"","rating","","html-slider-response","13","163073","0.0-12.0","0","0","SAcSz","People","","4055","","","","","78","34","oliver-johnson-1TUIcKob7Zs-unsplash.jpg","9","","","","","","","","","","","","","","","","","","","","","","","","","","","","","","","","","","","","","","","",""
"","rating","","html-slider-response","14","166840","0.0-13.0","0","0","SAcSz","People","","3763","","","","","71","48","velizar-ivanov-7ktP9yZA1g4-unsplash.jpg","10","","","","","","","","","","","","","","","","","","","","","","","","","","","","","","","","","","","","","","","",""
"","rating","","html-slider-response","15","176327","0.0-14.0","0","0","SAcSz","People","","9485","","","","","39","32","nathan-dumlao-ger61_TX6oI-unsplash.jpg","11","","","","","","","","","","","","","","","","","","","","","","","","","","","","","","","","","","","","","","","",""
"","rating","","html-slider-response","16","181720","0.0-15.0","0","0","SAcSz","People","","5392","","","","","70","2","arjunsyah-TBUA5KHJn6k-unsplash.jpg","12","","","","","","","","","","","","","","","","","","","","","","","","","","","","","","","","","","","","","","","",""
"","rating","","html-slider-response","17","185759","0.0-16.0","0","0","SAcSz","People","","4033","","","","","64","17","gleb-lukomets-paBzWCPN23k-unsplash.jpg","13","","","","","","","","","","","","","","","","","","","","","","","","","","","","","","","","","","","","","","","",""
"","rating","","html-slider-response","18","189773","0.0-17.0","0","0","SAcSz","People","","4009","","","","","68","24","joel-mott-LaK153ghdig-unsplash.jpg","14","","","","","","","","","","","","","","","","","","","","","","","","","","","","","","","","","","","","","","","",""
"","rating","","html-slider-response","19","193621","0.0-18.0","0","0","SAcSz","People","","3846","","","","","75","19","ha-nguy-n-OFSQ6bHjFjs-unsplash.jpg","15","","","","","","","","","","","","","","","","","","","","","","","","","","","","","","","","","","","","","","","",""
"","rating","","html-slider-response","20","197065","0.0-19.0","0","0","SAcSz","People","","3438","","","","","69","26","juri-gianfrancesco-9EZadYaMzk4-unsplash.jpg","16","","","","","","","","","","","","","","","","","","","","","","","","","","","","","","","","","","","","","","","",""
"","rating","","html-slider-response","21","201107","0.0-20.0","0","0","SAcSz","People","","4035","","","","","68","35","oliver-ragfelt-khV4fTy6-D8-unsplash.jpg","17","","","","","","","","","","","","","","","","","","","","","","","","","","","","","","","","","","","","","","","",""
"","rating","","html-slider-response","22","204986","0.0-21.0","0","0","SAcSz","People","","3876","","","","","75","7","brooke-cagle-HRZUzoX1e6w-unsplash.jpg","18","","","","","","","","","","","","","","","","","","","","","","","","","","","","","","","","","","","","","","","",""
"","rating","","html-slider-response","23","210880","0.0-22.0","0","0","SAcSz","People","","5890","","","","","72","16","giano-currie-5-9YOsmf8IQ-unsplash.jpg","19","","","","","","","","","","","","","","","","","","","","","","","","","","","","","","","","","","","","","","","",""
"","rating","","html-slider-response","24","235860","0.0-23.0","0","0","SAcSz","People","","24977","","","","","70","42","prince-akachi-l3IHXOdMyHQ-unsplash.jpg","20","","","","","","","","","","","","","","","","","","","","","","","","","","","","","","","","","","","","","","","",""
"","rating","","html-slider-response","25","240870","0.0-24.0","0","0","SAcSz","People","","5006","","","","","65","39","philip-martin-5aGUyCW_PJw-unsplash.jpg","21","","","","","","","","","","","","","","","","","","","","","","","","","","","","","","","","","","","","","","","",""
"","rating","","html-slider-response","26","247128","0.0-25.0","0","0","SAcSz","People","","6255","","","","","67","20","houcine-ncib-B4TjXnI0Y2c-unsplash.jpg","22","","","","","","","","","","","","","","","","","","","","","","","","","","","","","","","","","","","","","","","",""
"","rating","","html-slider-response","27","253844","0.0-26.0","0","0","SAcSz","People","","6713","","","","","64","36","ospan-ali-mGdA2fzjWLo-unsplash.jpg","23","","","","","","","","","","","","","","","","","","","","","","","","","","","","","","","","","","","","","","","",""
"","rating","","html-slider-response","28","266704","0.0-27.0","0","0","SAcSz","People","","12827","","","","","74","37","pavel-anoshin-d0peGya6R5Y-unsplash.jpg","24","","","","","","","","","","","","","","","","","","","","","","","","","","","","","","","","","","","","","","","",""
"","rating","","html-slider-response","29","272165","0.0-28.0","0","0","SAcSz","People","","5418","","","","","71","27","jurica-koletic-7YVZYZeITc8-unsplash.jpg","25","","","","","","","","","","","","","","","","","","","","","","","","","","","","","","","","","","","","","","","",""
"","rating","","html-slider-response","30","277412","0.0-29.0","0","0","SAcSz","People","","5241","","","","","72","31","mathilda-khoo-vLR0YP_otCo-unsplash.jpg","26","","","","","","","","","","","","","","","","","","","","","","","","","","","","","","","","","","","","","","","",""
"","rating","","html-slider-response","31","286540","0.0-30.0","0","0","SAcSz","People","","9126","","","","","69","30","matheus-ferrero-pg_WCHWSdT8-unsplash.jpg","27","","","","","","","","","","","","","","","","","","","","","","","","","","","","","","","","","","","","","","","",""
"","rating","","html-slider-response","32","289491","0.0-31.0","0","0","SAcSz","People","","2951","","","","","84","22","jessica-radanavong-mrYkTuAesKE-unsplash.jpg","28","","","","","","","","","","","","","","","","","","","","","","","","","","","","","","","","","","","","","","","",""
"","rating","","html-slider-response","33","292659","0.0-32.0","0","0","SAcSz","People","","3164","","","","","71","5","batel-studio-ttSRjiYG_WM-unsplash.jpg","29","","","","","","","","","","","","","","","","","","","","","","","","","","","","","","","","","","","","","","","",""
"","rating","","html-slider-response","34","296978","0.0-33.0","0","0","SAcSz","People","","4317","","","","","76","47","tyler-nix-ZGa9d1a_4tA-unsplash.jpg","30","","","","","","","","","","","","","","","","","","","","","","","","","","","","","","","","","","","","","","","",""
"","rating","","html-slider-response","35","304844","0.0-34.0","0","0","SAcSz","People","","7865","","","","","84","28","justin-chen-J7Cf1Gch49E-unsplash.jpg","31","","","","","","","","","","","","","","","","","","","","","","","","","","","","","","","","","","","","","","","",""
"","rating","","html-slider-response","36","308872","0.0-35.0","0","0","SAcSz","People","","4014","","","","","85","8","bruce-dixon-3M9WJQVHzog-unsplash.jpg","32","","","","","","","","","","","","","","","","","","","","","","","","","","","","","","","","","","","","","","","",""
"","rating","","html-slider-response","37","311998","0.0-36.0","0","0","SAcSz","People","","3124","","","","","88","11","christian-ferrer-8vT-DgHZDG4-unsplash.jpg","33","","","","","","","","","","","","","","","","","","","","","","","","","","","","","","","","","","","","","","","",""
"","rating","","html-slider-response","38","314844","0.0-37.0","0","0","SAcSz","People","","2845","","","","","78","18","good-faces-xmSWVeGEnJw-unsplash.jpg","34","","","","","","","","","","","","","","","","","","","","","","","","","","","","","","","","","","","","","","","",""
"","rating","","html-slider-response","39","317871","0.0-38.0","0","0","SAcSz","People","","3025","","","","","71","0","abstral-official-cyOKLSgkgCE-unsplash.jpg","35","","","","","","","","","","","","","","","","","","","","","","","","","","","","","","","","","","","","","","","",""
"","rating","","html-slider-response","40","320960","0.0-39.0","0","0","SAcSz","People","","3084","","","","","64","13","erik-lucatero-d2MSDujJl2g-unsplash.jpg","36","","","","","","","","","","","","","","","","","","","","","","","","","","","","","","","","","","","","","","","",""
"","rating","","html-slider-response","41","324416","0.0-40.0","0","0","SAcSz","People","","3453","","","","","62","41","prince-akachi-i2hoD-C2RUA-unsplash.jpg","37","","","","","","","","","","","","","","","","","","","","","","","","","","","","","","","","","","","","","","","",""
"","rating","","html-slider-response","42","327503","0.0-41.0","0","0","SAcSz","People","","3081","","","","","67","46","stefan-stefancik-QXevDflbl8A-unsplash.jpg","38","","","","","","","","","","","","","","","","","","","","","","","","","","","","","","","","","","","","","","","",""
"","rating","","html-slider-response","43","333355","0.0-42.0","0","0","SAcSz","People","","5849","","","","","71","9","carlos-andres-gomez-vJuk8Y86mRw-unsplash.jpg","39","","","","","","","","","","","","","","","","","","","","","","","","","","","","","","","","","","","","","","","",""
"","rating","","html-slider-response","44","335719","0.0-43.0","0","0","SAcSz","People","","2362","","","","","67","21","jessica-felicio-_cvwXhGqG-o-unsplash.jpg","40","","","","","","","","","","","","","","","","","","","","","","","","","","","","","","","","","","","","","","","",""
"","rating","","html-slider-response","45","339042","0.0-44.0","0","0","SAcSz","People","","3323","","","","","69","14","freddy-kearney-o-ioeoATbIM-unsplash.jpg","41","","","","","","","","","","","","","","","","","","","","","","","","","","","","","","","","","","","","","","","",""
"","rating","","html-slider-response","46","342757","0.0-45.0","0","0","SAcSz","People","","3686","","","","","79","38","petr-sevcovic-HzDF-rxlSeM-unsplash.jpg","42","","","","","","","","","","","","","","","","","","","","","","","","","","","","","","","","","","","","","","","",""
"","rating","","html-slider-response","47","345723","0.0-46.0","0","0","SAcSz","People","","2961","","","","","80","6","ben-o-bro-C5XyLljkMrY-unsplash.jpg","43","","","","","","","","","","","","","","","","","","","","","","","","","","","","","","","","","","","","","","","",""
"","rating","","html-slider-response","48","349566","0.0-47.0","0","0","SAcSz","People","","3838","","","","","86","49","vicky-hladynets-_gDoyVv5F4c-unsplash.jpg","44","","","","","","","","","","","","","","","","","","","","","","","","","","","","","","","","","","","","","","","",""
"","rating","","html-slider-response","49","353335","0.0-48.0","0","0","SAcSz","People","","3762","","","","","85","29","leilani-angel-K84vnnzxmTQ-unsplash.jpg","45","","","","","","","","","","","","","","","","","","","","","","","","","","","","","","","","","","","","","","","",""
"","rating","","html-slider-response","50","361196","0.0-49.0","0","0","SAcSz","People","","7858","","","","","96","3","art-hauntington-jzY0KRJopEI-unsplash.jpg","46","","","","","","","","","","","","","","","","","","","","","","","","","","","","","","","","","","","","","","","",""
"","rating","","html-slider-response","51","364875","0.0-50.0","0","0","SAcSz","People","","3675","","","","","89","43","raamin-ka-0qJBEzudn5E-unsplash.jpg","47","","","","","","","","","","","","","","","","","","","","","","","","","","","","","","","","","","","","","","","",""
"","rating","","html-slider-response","52","368406","0.0-51.0","0","0","SAcSz","People","","3526","","","","","91","10","charles-etoroma-95UF6LXe-Lo-unsplash.jpg","48","","","","","","","","","","","","","","","","","","","","","","","","","","","","","","","","","","","","","","","",""
"","rating","","html-slider-response","53","371393","0.0-52.0","0","0","SAcSz","People","","2968","","","","","89","25","joseph-gonzalez-iFgRcqHznqg-unsplash.jpg","49","","","","","","","","","","","","","","","","","","","","","","","","","","","","","","","","","","","","","","","",""
"","deliberation_instructions","","instructions","54","492187","0.0-53.0-0.0","0","0","SAcSz","People","[{""page_index"":0,""viewing_time"":20247},{""page_index"":1,""viewing_time"":27632},{""page_index"":2,""viewing_time"":20070},{""page_index"":3,""viewing_time"":970},{""page_index"":4,""viewing_time"":4376},{""page_index"":3,""viewing_time"":45241},{""page_index"":4,""viewing_time"":2234}]","120776","","","","","","","","","","","","","","","","","","","","","","","","","","","","","","","","","","","","","","","","","","","","","","","",""
"","","","survey-multi-choice","55","534702","0.0-53.0-1.0","0","0","SAcSz","People","","42488","{""Q0"":""True"",""Q1"":""False"",""Q2"":""Consider carefully and take your time (up to 10 seconds)"",""Q3"":""True"",""Q4"":""D""}","deliberation_comprehension_check","1","","","","","","","","","","","","","","","","","","","","","","","","","","","","","","","","","","","","","","","","","","","","",""
"","missed_instruction_checkup","","html-keyboard-response","56","538646","0.0-53.0-2.0-0.0","0","1","SAcSz","People","","3928","","","","78","","","","","","","","","","","","","","","","","","","","","","","","","","","","","","","","","","","","","","","","","","","",""
"","deliberation_instructions","","instructions","57","575511","0.0-53.1-0.1","0","0","SAcSz","People","[{""page_index"":0,""viewing_time"":16520},{""page_index"":1,""viewing_time"":8125},{""page_index"":2,""viewing_time"":6777},{""page_index"":3,""viewing_time"":3357},{""page_index"":4,""viewing_time"":2078}]","36858","","","","","","","","","","","","","","","","","","","","","","","","","","","","","","","","","","","","","","","","","","","","","","","",""
"","","","survey-multi-choice","58","809229","0.0-53.1-1.1","0","0","SAcSz","People","","233673","{""Q0"":""True"",""Q1"":"""",""Q2"":""Consider carefully and take your time (up to 10 seconds)"",""Q3"":""False"",""Q4"":""D""}","deliberation_comprehension_check","1","","","","","","","","","","","","","","","","","","","","","","","","","","","","","","","","","","","","","","","","","","","","",""
"","missed_instruction_checkup","","html-keyboard-response","59","812879","0.0-53.1-2.1-0.1","0","1","SAcSz","People","","3650","","","","78","","","","","","","","","","","","","","","","","","","","","","","","","","","","","","","","","","","","","","","","","","","",""
"","deliberation_instructions","","instructions","60","825021","0.0-53.2-0.2","0","0","SAcSz","People","[{""page_index"":0,""viewing_time"":3409},{""page_index"":1,""viewing_time"":1549},{""page_index"":2,""viewing_time"":1111},{""page_index"":3,""viewing_time"":2110},{""page_index"":4,""viewing_time"":3958}]","12138","","","","","","","","","","","","","","","","","","","","","","","","","","","","","","","","","","","","","","","","","","","","","","","",""
"","","","survey-multi-choice","61","859134","0.0-53.2-1.2","0","0","SAcSz","People","","34105","{""Q0"":""False"",""Q1"":""False"",""Q2"":""Consider carefully and take your time (up to 10 seconds)"",""Q3"":""False"",""Q4"":""D""}","deliberation_comprehension_check","1","","","","","","","","","","","","","","","","","","","","","","","","","","","","","","","","","","","","","","","","","","","","",""
"","missed_instruction_checkup","","html-keyboard-response","62","861669","0.0-53.2-2.2-0.2","0","1","SAcSz","People","","2532","","","","78","","","","","","","","","","","","","","","","","","","","","","","","","","","","","","","","","","","","","","","","","","","",""
"","deliberation_instructions","","instructions","63","876196","0.0-53.3-0.3","0","0","SAcSz","People","[{""page_index"":0,""viewing_time"":2211},{""page_index"":1,""viewing_time"":1648},{""page_index"":2,""viewing_time"":1786},{""page_index"":3,""viewing_time"":5892},{""page_index"":4,""viewing_time"":2987}]","14524","","","","","","","","","","","","","","","","","","","","","","","","","","","","","","","","","","","","","","","","","","","","","","","",""
"","","","survey-multi-choice","64","1062259","0.0-53.3-1.3","0","0","SAcSz","People","","186057","{""Q0"":""True"",""Q1"":""False"",""Q2"":""Consider carefully and take your time (up to 10 seconds)"",""Q3"":""True"",""Q4"":""D""}","deliberation_comprehension_check","1","","","","","","","","","","","","","","","","","","","","","","","","","","","","","","","","","","","","","","","","","","","","",""
"","missed_instruction_checkup","","html-keyboard-response","65","1066409","0.0-53.3-2.3-0.3","0","1","SAcSz","People","","4146","","","","78","","","","","","","","","","","","","","","","","","","","","","","","","","","","","","","","","","","","","","","","","","","",""
"","deliberation_instructions","","instructions","66","1074148","0.0-53.4-0.4","0","0","SAcSz","People","[{""page_index"":0,""viewing_time"":2017},{""page_index"":1,""viewing_time"":1900},{""page_index"":2,""viewing_time"":943},{""page_index"":3,""viewing_time"":1072},{""page_index"":4,""viewing_time"":1805}]","7738","","","","","","","","","","","","","","","","","","","","","","","","","","","","","","","","","","","","","","","","","","","","","","","",""
"","","","survey-multi-choice","67","1087271","0.0-53.4-1.4","0","0","SAcSz","People","","13095","{""Q0"":""True"",""Q1"":""False"",""Q2"":""Consider carefully and take your time (up to 10 seconds)"",""Q3"":""False"",""Q4"":""D""}","deliberation_comprehension_check","1","","","","","","","","","","","","","","","","","","","","","","","","","","","","","","","","","","","","","","","","","","","","",""
"","missed_instruction_checkup","","html-keyboard-response","68","1093277","0.0-53.4-2.4-0.4","0","1","SAcSz","People","","6003","","","","78","","","","","","","","","","","","","","","","","","","","","","","","","","","","","","","","","","","","","","","","","","","",""
"","deliberation_instructions","","instructions","69","1102110","0.0-53.5-0.5","0","0","SAcSz","People","[{""page_index"":0,""viewing_time"":2238},{""page_index"":1,""viewing_time"":2234},{""page_index"":2,""viewing_time"":1096},{""page_index"":3,""viewing_time"":1259},{""page_index"":4,""viewing_time"":2000}]","8828","","","","","","","","","","","","","","","","","","","","","","","","","","","","","","","","","","","","","","","","","","","","","","","",""
"","","","survey-multi-choice","70","1115606","0.0-53.5-1.5","0","0","SAcSz","People","","13473","{""Q0"":""False"",""Q1"":""True"",""Q2"":""Do it as quickly as possible"",""Q3"":""True"",""Q4"":""D""}","deliberation_comprehension_check","1","","","","","","","","","","","","","","","","","","","","","","","","","","","","","","","","","","","","","","","","","","","","",""
"","missed_instruction_checkup","","html-keyboard-response","71","1128643","0.0-53.5-2.5-0.5","0","1","SAcSz","People","","13033","","","","78","","","","","","","","","","","","","","","","","","","","","","","","","","","","","","","","","","","","","","","","","","","",""
"","deliberation_instructions","","instructions","72","1137159","0.0-53.6-0.6","0","0","SAcSz","People","[{""page_index"":0,""viewing_time"":3581},{""page_index"":1,""viewing_time"":1145},{""page_index"":2,""viewing_time"":1199},{""page_index"":3,""viewing_time"":1318},{""page_index"":4,""viewing_time"":1271}]","8514","","","","","","","","","","","","","","","","","","","","","","","","","","","","","","","","","","","","","","","","","","","","","","","",""
"","","","survey-multi-choice","73","1152813","0.0-53.6-1.6","0","0","SAcSz","People","","15639","{""Q0"":""True"",""Q1"":""True"",""Q2"":""Consider carefully and take your time (up to 10 seconds)"",""Q3"":""True"",""Q4"":""D""}","deliberation_comprehension_check","0","","","","","","","","","","","","","","","","","","","","","","","","","","","","","","","","","","","","","","","","","","","","",""
"","start_phase","","html-keyboard-response","74","1159495","0.0-54.0","0","0","SAcSz","People","","6679","","","","78","","","","","","","","","","","","","","","","","","","","","","","","","","","","","","","","","","","","","","","","","","","",""
"","first_deliberation_block","","html-keyboard-response","75","2221908","0.0-55.0","0","0","SAcSz","People","","1062410","","","","78","","","","","","","","","","","","","","","","","","","","","","","","","","","","","","","","","","","","","","","","","","","",""
"","fixation","","html-keyboard-response","76","2222910","0.0-56.0-0.0","0","0","SAcSz","People","","null","","","","null","","","","","","","","","","","","","","","","","","","","","","","","","","","","","","","","","","","","","","","","","","","",""
"","deliberation","","html-keyboard-response","77","2227883","0.0-56.0-1.0","0","0","SAcSz","People","","4973","","","","68","","","","0","45","35","0","1","72","68","sarah-noltner-pL5ZzPp1zqg-unsplash.jpg","oliver-ragfelt-khV4fTy6-D8-unsplash.jpg","1","1","45","35","","","","","","","","","","","","","","","","","","","","","","","","","","","",""
"","choice_confirmation","","html-keyboard-response","78","2228432","0.0-56.0-2.0-0.0","0","0","SAcSz","People","","null","","","","null","","","","0","45","35","","","","","","","","","","","","","","","","","","","","","","","","","","","","","","","","","","","","","",""
"","fixation","","html-keyboard-response","79","2229445","0.0-57.0-0.0","0","0","SAcSz","People","","null","","","","null","","","","","","","","","","","","","","","","","","","","","","","","","","","","","","","","","","","","","","","","","","","",""
"","deliberation","","html-keyboard-response","80","2232555","0.0-57.0-1.0","0","0","SAcSz","People","","3083","","","","68","","","","1","14","42","1","1","69","70","freddy-kearney-o-ioeoATbIM-unsplash.jpg","prince-akachi-l3IHXOdMyHQ-unsplash.jpg","1","1","14","42","","","","","","","","","","","","","","","","","","","","","","","","","","","",""
"","choice_confirmation","","html-keyboard-response","81","2233057","0.0-57.0-2.0-0.0","0","0","SAcSz","People","","null","","","","null","","","","1","14","42","","","","","","","","","","","","","","","","","","","","","","","","","","","","","","","","","","","","","",""
"","explain_trial","","survey-text","82","2260991","0.0-57.0-5.0-0.0","0","0","SAcSz","People","","27926","{""Q0"":""Happy face""}","","","","","","","1","14","42","","","","","","","","","","","{""Q0"":""Happy face""}","","","","","","","","","","","","","","","","","","","","","","","","","","",""
"","fixation","","html-keyboard-response","83","2262002","0.0-58.0-0.0","0","0","SAcSz","People","","null","","","","null","","","","","","","","","","","","","","","","","","","","","","","","","","","","","","","","","","","","","","","","","","","",""
"","deliberation","","html-keyboard-response","84","2266228","0.0-58.0-1.0","0","0","SAcSz","People","","4218","","","","68","","","","2","47","48","0","-1","76","71","tyler-nix-ZGa9d1a_4tA-unsplash.jpg","velizar-ivanov-7ktP9yZA1g4-unsplash.jpg","1","1","47","48","","","","","","","","","","","","","","","","","","","","","","","","","","","",""
"","choice_confirmation","","html-keyboard-response","85","2266740","0.0-58.0-2.0-0.0","0","0","SAcSz","People","","null","","","","null","","","","2","47","48","","","","","","","","","","","","","","","","","","","","","","","","","","","","","","","","","","","","","",""
"","fixation","","html-keyboard-response","86","2267746","0.0-59.0-0.0","0","0","SAcSz","People","","null","","","","null","","","","","","","","","","","","","","","","","","","","","","","","","","","","","","","","","","","","","","","","","","","",""
"","deliberation","","html-keyboard-response","87","2272909","0.0-59.0-1.0","0","0","SAcSz","People","","5158","","","","75","","","","3","34","9","1","1","78","71","oliver-johnson-1TUIcKob7Zs-unsplash.jpg","carlos-andres-gomez-vJuk8Y86mRw-unsplash.jpg","1","0","9","34","","","","","","","","","","","","","","","","","","","","","","","","","","","",""
"","choice_confirmation","","html-keyboard-response","88","2273437","0.0-59.0-2.0-0.0","0","0","SAcSz","People","","null","","","","null","","","","3","34","9","","","","","","","","","","","","","","","","","","","","","","","","","","","","","","","","","","","","","",""
"","explain_trial","","survey-text","89","2282508","0.0-59.0-5.0-0.0","0","0","SAcSz","People","","9058","{""Q0"":""look handsome""}","","","","","","","3","34","9","","","","","","","","","","","{""Q0"":""look handsome""}","","","","","","","","","","","","","","","","","","","","","","","","","","",""
"","fixation","","html-keyboard-response","90","2283553","0.0-60.0-0.0","0","0","SAcSz","People","","null","","","","null","","","","","","","","","","","","","","","","","","","","","","","","","","","","","","","","","","","","","","","","","","","",""
"","deliberation","","html-keyboard-response","91","2288436","0.0-60.0-1.0","0","0","SAcSz","People","","4868","","","","68","","","","4","5","4","1","1","71","75","batel-studio-ttSRjiYG_WM-unsplash.jpg","barna-bartis-2x3vfVxwR7o-unsplash.jpg","1","1","5","4","","","","","","","","","","","","","","","","","","","","","","","","","","","",""
"","choice_confirmation","","html-keyboard-response","92","2288947","0.0-60.0-2.0-0.0","0","0","SAcSz","People","","null","","","","null","","","","4","5","4","","","","","","","","","","","","","","","","","","","","","","","","","","","","","","","","","","","","","",""
"","explain_trial","","survey-text","93","2295755","0.0-60.0-5.0-0.0","0","0","SAcSz","People","","6788","{""Q0"":""modern""}","","","","","","","4","5","4","","","","","","","","","","","{""Q0"":""modern""}","","","","","","","","","","","","","","","","","","","","","","","","","","",""
"","fixation","","html-keyboard-response","94","2296879","0.0-61.0-0.0","0","0","SAcSz","People","","null","","","","null","","","","","","","","","","","","","","","","","","","","","","","","","","","","","","","","","","","","","","","","","","","",""
"","deliberation","","html-keyboard-response","95","2300817","0.0-61.0-1.0","0","0","SAcSz","People","","3922","","","","68","","","","5","18","2","0","-1","78","70","good-faces-xmSWVeGEnJw-unsplash.jpg","arjunsyah-TBUA5KHJn6k-unsplash.jpg","1","1","18","2","","","","","","","","","","","","","","","","","","","","","","","","","","","",""
"","choice_confirmation","","html-keyboard-response","96","2301326","0.0-61.0-2.0-0.0","0","0","SAcSz","People","","null","","","","null","","","","5","18","2","","","","","","","","","","","","","","","","","","","","","","","","","","","","","","","","","","","","","",""
"","fixation","","html-keyboard-response","97","2302434","0.0-62.0-0.0","0","0","SAcSz","People","","null","","","","null","","","","","","","","","","","","","","","","","","","","","","","","","","","","","","","","","","","","","","","","","","","",""
"","deliberation","","html-keyboard-response","98","2305577","0.0-62.0-1.0","0","0","SAcSz","People","","3118","","","","68","","","","6","19","15","0","-1","75","70","ha-nguy-n-OFSQ6bHjFjs-unsplash.jpg","gabriel-silverio-u3WmDyKGsrY-unsplash.jpg","1","1","19","15","","","","","","","","","","","","","","","","","","","","","","","","","","","",""
"","choice_confirmation","","html-keyboard-response","99","2306099","0.0-62.0-2.0-0.0","0","0","SAcSz","People","","null","","","","null","","","","6","19","15","","","","","","","","","","","","","","","","","","","","","","","","","","","","","","","","","","","","","",""
"","fixation","","html-keyboard-response","100","2307242","0.0-63.0-0.0","0","0","SAcSz","People","","null","","","","null","","","","","","","","","","","","","","","","","","","","","","","","","","","","","","","","","","","","","","","","","","","",""
"","deliberation","","html-keyboard-response","101","2311358","0.0-63.0-1.0","0","0","SAcSz","People","","4084","","","","68","","","","7","30","26","0","1","69","69","matheus-ferrero-pg_WCHWSdT8-unsplash.jpg","juri-gianfrancesco-9EZadYaMzk4-unsplash.jpg","1","1","30","26","","","","","","","","","","","","","","","","","","","","","","","","","","","",""
"","choice_confirmation","","html-keyboard-response","102","2311900","0.0-63.0-2.0-0.0","0","0","SAcSz","People","","null","","","","null","","","","7","30","26","","","","","","","","","","","","","","","","","","","","","","","","","","","","","","","","","","","","","",""
"","fixation","","html-keyboard-response","103","2313017","0.0-64.0-0.0","0","0","SAcSz","People","","null","","","","null","","","","","","","","","","","","","","","","","","","","","","","","","","","","","","","","","","","","","","","","","","","",""
"","deliberation","","html-keyboard-response","104","2315945","0.0-64.0-1.0","0","0","SAcSz","People","","2920","","","","68","","","","8","33","31","1","1","69","72","olena-sergienko-0TSd6uCKTKc-unsplash.jpg","mathilda-khoo-vLR0YP_otCo-unsplash.jpg","1","1","33","31","","","","","","","","","","","","","","","","","","","","","","","","","","","",""
"","choice_confirmation","","html-keyboard-response","105","2316661","0.0-64.0-2.0-0.0","0","0","SAcSz","People","","null","","","","null","","","","8","33","31","","","","","","","","","","","","","","","","","","","","","","","","","","","","","","","","","","","","","",""
"","explain_trial","","survey-text","106","2326913","0.0-64.0-5.0-0.0","0","0","SAcSz","People","","10244","{""Q0"":""modern""}","","","","","","","8","33","31","","","","","","","","","","","{""Q0"":""modern""}","","","","","","","","","","","","","","","","","","","","","","","","","","",""
"","fixation","","html-keyboard-response","107","2328413","0.0-65.0-0.0","0","0","SAcSz","People","","null","","","","null","","","","","","","","","","","","","","","","","","","","","","","","","","","","","","","","","","","","","","","","","","","",""
"","deliberation","","html-keyboard-response","108","2333838","0.0-65.0-1.0","0","0","SAcSz","People","","5360","","","","75","","","","9","0","7","1","-1","71","75","abstral-official-cyOKLSgkgCE-unsplash.jpg","brooke-cagle-HRZUzoX1e6w-unsplash.jpg","1","0","7","0","","","","","","","","","","","","","","","","","","","","","","","","","","","",""
"","choice_confirmation","","html-keyboard-response","109","2334364","0.0-65.0-2.0-0.0","0","0","SAcSz","People","","null","","","","null","","","","9","0","7","","","","","","","","","","","","","","","","","","","","","","","","","","","","","","","","","","","","","",""
"","explain_trial","","survey-text","110","2342709","0.0-65.0-5.0-0.0","0","0","SAcSz","People","","8343","{""Q0"":""happy face""}","","","","","","","9","0","7","","","","","","","","","","","{""Q0"":""happy face""}","","","","","","","","","","","","","","","","","","","","","","","","","","",""
"","fixation","","html-keyboard-response","111","2343724","0.0-66.0-0.0","0","0","SAcSz","People","","null","","","","null","","","","","","","","","","","","","","","","","","","","","","","","","","","","","","","","","","","","","","","","","","","",""
"","deliberation","","html-keyboard-response","112","2347316","0.0-66.0-1.0","0","0","SAcSz","People","","3588","","","","75","","","","10","27","16","1","-1","71","72","jurica-koletic-7YVZYZeITc8-unsplash.jpg","giano-currie-5-9YOsmf8IQ-unsplash.jpg","1","0","16","27","","","","","","","","","","","","","","","","","","","","","","","","","","","",""
"","choice_confirmation","","html-keyboard-response","113","2347853","0.0-66.0-2.0-0.0","0","0","SAcSz","People","","null","","","","null","","","","10","27","16","","","","","","","","","","","","","","","","","","","","","","","","","","","","","","","","","","","","","",""
"","explain_trial","","survey-text","114","2353167","0.0-66.0-5.0-0.0","0","0","SAcSz","People","","5311","{""Q0"":""modern""}","","","","","","","10","27","16","","","","","","","","","","","{""Q0"":""modern""}","","","","","","","","","","","","","","","","","","","","","","","","","","",""
"","fixation","","html-keyboard-response","115","2354172","0.0-67.0-0.0","0","0","SAcSz","People","","null","","","","null","","","","","","","","","","","","","","","","","","","","","","","","","","","","","","","","","","","","","","","","","","","",""
"","deliberation","","html-keyboard-response","116","2360004","0.0-67.0-1.0","0","0","SAcSz","People","","5796","","","","68","","","","11","37","23","0","-1","74","71","pavel-anoshin-d0peGya6R5Y-unsplash.jpg","joanna-nix-walkup-H4fEMshfwTE-unsplash.jpg","1","1","37","23","","","","","","","","","","","","","","","","","","","","","","","","","","","",""
"","choice_confirmation","","html-keyboard-response","117","2360507","0.0-67.0-2.0-0.0","0","0","SAcSz","People","","null","","","","null","","","","11","37","23","","","","","","","","","","","","","","","","","","","","","","","","","","","","","","","","","","","","","",""
"","practice_deliberation_again","","html-keyboard-response","118","2365911","0.0-67.0-6.0-0.0","0","0","SAcSz","People","","5388","","","","78","","","","","","","","","","","","","","","","","","","","","","","","","","","","","","","","","","","","","","","","","","","",""
"","fixation","","html-keyboard-response","119","2366932","0.0-68.0-0.0","0","0","SAcSz","People","","null","","","","null","","","","","","","","","","","","","","","","","","","","","","","","","","","","","","","","","","","","","","","","","","","",""
"","deliberation","","html-keyboard-response","120","2369802","0.0-68.0-1.0","0","0","SAcSz","People","","2870","","","","75","","","","12","0","7","0","-1","71","75","abstral-official-cyOKLSgkgCE-unsplash.jpg","brooke-cagle-HRZUzoX1e6w-unsplash.jpg","2","0","7","0","","","","","","","","","","","","","","","","","","","","","","","","","","","",""
"","choice_confirmation","","html-keyboard-response","121","2370315","0.0-68.0-2.0-0.0","0","0","SAcSz","People","","null","","","","null","","","","12","0","7","","","","","","","","","","","","","","","","","","","","","","","","","","","","","","","","","","","","","",""
"","fixation","","html-keyboard-response","122","2371334","0.0-69.0-0.0","0","0","SAcSz","People","","null","","","","null","","","","","","","","","","","","","","","","","","","","","","","","","","","","","","","","","","","","","","","","","","","",""
"","deliberation","","html-keyboard-response","123","2375825","0.0-69.0-1.0","0","0","SAcSz","People","","4484","","","","68","","","","13","30","26","1","1","69","69","matheus-ferrero-pg_WCHWSdT8-unsplash.jpg","juri-gianfrancesco-9EZadYaMzk4-unsplash.jpg","2","1","30","26","","","","","","","","","","","","","","","","","","","","","","","","","","","",""
"","choice_confirmation","","html-keyboard-response","124","2376339","0.0-69.0-2.0-0.0","0","0","SAcSz","People","","null","","","","null","","","","13","30","26","","","","","","","","","","","","","","","","","","","","","","","","","","","","","","","","","","","","","",""
"","explain_trial","","survey-text","125","2382489","0.0-69.0-5.0-0.0","0","0","SAcSz","People","","6120","{""Q0"":""modern""}","","","","","","","13","30","26","","","","","","","","","","","{""Q0"":""modern""}","","","","","","","","","","","","","","","","","","","","","","","","","","",""
"","fixation","","html-keyboard-response","126","2383556","0.0-70.0-0.0","0","0","SAcSz","People","","null","","","","null","","","","","","","","","","","","","","","","","","","","","","","","","","","","","","","","","","","","","","","","","","","",""
"","deliberation","","html-keyboard-response","127","2386273","0.0-70.0-1.0","0","0","SAcSz","People","","2714","","","","75","","","","14","34","9","0","1","78","71","oliver-johnson-1TUIcKob7Zs-unsplash.jpg","carlos-andres-gomez-vJuk8Y86mRw-unsplash.jpg","2","0","9","34","","","","","","","","","","","","","","","","","","","","","","","","","","","",""
"","choice_confirmation","","html-keyboard-response","128","2386806","0.0-70.0-2.0-0.0","0","0","SAcSz","People","","null","","","","null","","","","14","34","9","","","","","","","","","","","","","","","","","","","","","","","","","","","","","","","","","","","","","",""
"","fixation","","html-keyboard-response","129","2387898","0.0-71.0-0.0","0","0","SAcSz","People","","null","","","","null","","","","","","","","","","","","","","","","","","","","","","","","","","","","","","","","","","","","","","","","","","","",""
"","deliberation","","html-keyboard-response","130","2389836","0.0-71.0-1.0","0","0","SAcSz","People","","1915","","","","75","","","","15","27","16","0","-1","71","72","jurica-koletic-7YVZYZeITc8-unsplash.jpg","giano-currie-5-9YOsmf8IQ-unsplash.jpg","2","0","16","27","","","","","","","","","","","","","","","","","","","","","","","","","","","",""
"","choice_confirmation","","html-keyboard-response","131","2390349","0.0-71.0-2.0-0.0","0","0","SAcSz","People","","null","","","","null","","","","15","27","16","","","","","","","","","","","","","","","","","","","","","","","","","","","","","","","","","","","","","",""
"","fixation","","html-keyboard-response","132","2391377","0.0-72.0-0.0","0","0","SAcSz","People","","null","","","","null","","","","","","","","","","","","","","","","","","","","","","","","","","","","","","","","","","","","","","","","","","","",""
"","deliberation","","html-keyboard-response","133","2394072","0.0-72.0-1.0","0","0","SAcSz","People","","2690","","","","68","","","","16","5","4","0","1","71","75","batel-studio-ttSRjiYG_WM-unsplash.jpg","barna-bartis-2x3vfVxwR7o-unsplash.jpg","2","1","5","4","","","","","","","","","","","","","","","","","","","","","","","","","","","",""
"","choice_confirmation","","html-keyboard-response","134","2394750","0.0-72.0-2.0-0.0","0","0","SAcSz","People","","null","","","","null","","","","16","5","4","","","","","","","","","","","","","","","","","","","","","","","","","","","","","","","","","","","","","",""
"","fixation","","html-keyboard-response","135","2395795","0.0-73.0-0.0","0","0","SAcSz","People","","null","","","","null","","","","","","","","","","","","","","","","","","","","","","","","","","","","","","","","","","","","","","","","","","","",""
"","deliberation","","html-keyboard-response","136","2398927","0.0-73.0-1.0","0","0","SAcSz","People","","3131","","","","68","","","","17","45","35","1","1","72","68","sarah-noltner-pL5ZzPp1zqg-unsplash.jpg","oliver-ragfelt-khV4fTy6-D8-unsplash.jpg","2","1","45","35","","","","","","","","","","","","","","","","","","","","","","","","","","","",""
"","choice_confirmation","","html-keyboard-response","137","2399430","0.0-73.0-2.0-0.0","0","0","SAcSz","People","","null","","","","null","","","","17","45","35","","","","","","","","","","","","","","","","","","","","","","","","","","","","","","","","","","","","","",""
"","explain_trial","","survey-text","138","2410676","0.0-73.0-5.0-0.0","0","0","SAcSz","People","","11240","{""Q0"":""look handsome""}","","","","","","","17","45","35","","","","","","","","","","","{""Q0"":""look handsome""}","","","","","","","","","","","","","","","","","","","","","","","","","","",""
"","fixation","","html-keyboard-response","139","2411744","0.0-74.0-0.0","0","0","SAcSz","People","","null","","","","null","","","","","","","","","","","","","","","","","","","","","","","","","","","","","","","","","","","","","","","","","","","",""
"","deliberation","","html-keyboard-response","140","2415932","0.0-74.0-1.0","0","0","SAcSz","People","","4135","","","","68","","","","18","33","31","0","1","69","72","olena-sergienko-0TSd6uCKTKc-unsplash.jpg","mathilda-khoo-vLR0YP_otCo-unsplash.jpg","2","1","33","31","","","","","","","","","","","","","","","","","","","","","","","","","","","",""
"","choice_confirmation","","html-keyboard-response","141","2416662","0.0-74.0-2.0-0.0","0","0","SAcSz","People","","null","","","","null","","","","18","33","31","","","","","","","","","","","","","","","","","","","","","","","","","","","","","","","","","","","","","",""
"","fixation","","html-keyboard-response","142","2417696","0.0-75.0-0.0","0","0","SAcSz","People","","null","","","","null","","","","","","","","","","","","","","","","","","","","","","","","","","","","","","","","","","","","","","","","","","","",""
"","deliberation","","html-keyboard-response","143","2421219","0.0-75.0-1.0","0","0","SAcSz","People","","3493","","","","75","","","","19","37","23","1","-1","74","71","pavel-anoshin-d0peGya6R5Y-unsplash.jpg","joanna-nix-walkup-H4fEMshfwTE-unsplash.jpg","2","0","23","37","","","","","","","","","","","","","","","","","","","","","","","","","","","",""
"","choice_confirmation","","html-keyboard-response","144","2422007","0.0-75.0-2.0-0.0","0","0","SAcSz","People","","null","","","","null","","","","19","37","23","","","","","","","","","","","","","","","","","","","","","","","","","","","","","","","","","","","","","",""
"","explain_trial","","survey-text","145","2432022","0.0-75.0-5.0-0.0","0","0","SAcSz","People","","10007","{""Q0"":""nature""}","","","","","","","19","37","23","","","","","","","","","","","{""Q0"":""nature""}","","","","","","","","","","","","","","","","","","","","","","","","","","",""
"","fixation","","html-keyboard-response","146","2433045","0.0-76.0-0.0","0","0","SAcSz","People","","null","","","","null","","","","","","","","","","","","","","","","","","","","","","","","","","","","","","","","","","","","","","","","","","","",""
"","deliberation","","html-keyboard-response","147","2433091","0.0-76.0-1.0","0","0","SAcSz","People","","18","","","","75","","","","20","47","48","1","-1","76","71","tyler-nix-ZGa9d1a_4tA-unsplash.jpg","velizar-ivanov-7ktP9yZA1g4-unsplash.jpg","2","0","48","47","","","","","","","","","","","","","","","","","","","","","","","","","","","",""
"","choice_confirmation","","html-keyboard-response","148","2433613","0.0-76.0-2.0-0.0","0","0","SAcSz","People","","null","","","","null","","","","20","47","48","","","","","","","","","","","","","","","","","","","","","","","","","","","","","","","","","","","","","",""
"","deliberation_too_fast","","html-keyboard-response","149","2435151","0.0-76.0-3.0-0.0","1","0","SAcSz","People","","null","","","","null","","","","20","","","","","","","","","","","","","","","","","","","","","","","","","","","","","","","","","","","","","","","",""
"","explain_trial","","survey-text","150","2443176","0.0-76.0-5.0-0.0","0","0","SAcSz","People","","8020","{""Q0"":""modern""}","","","","","","","20","47","48","","","","","","","","","","","{""Q0"":""modern""}","","","","","","","","","","","","","","","","","","","","","","","","","","",""
"","fixation","","html-keyboard-response","151","2444178","0.0-77.0-0.0","0","0","SAcSz","People","","null","","","","null","","","","","","","","","","","","","","","","","","","","","","","","","","","","","","","","","","","","","","","","","","","",""
"","deliberation","","html-keyboard-response","152","2448084","0.0-77.0-1.0","0","0","SAcSz","People","","3903","","","","68","","","","21","14","42","0","1","69","70","freddy-kearney-o-ioeoATbIM-unsplash.jpg","prince-akachi-l3IHXOdMyHQ-unsplash.jpg","2","1","14","42","","","","","","","","","","","","","","","","","","","","","","","","","","","",""
"","choice_confirmation","","html-keyboard-response","153","2448590","0.0-77.0-2.0-0.0","0","0","SAcSz","People","","null","","","","null","","","","21","14","42","","","","","","","","","","","","","","","","","","","","","","","","","","","","","","","","","","","","","",""
"","fixation","","html-keyboard-response","154","2449593","0.0-78.0-0.0","0","0","SAcSz","People","","null","","","","null","","","","","","","","","","","","","","","","","","","","","","","","","","","","","","","","","","","","","","","","","","","",""
"","deliberation","","html-keyboard-response","155","2451697","0.0-78.0-1.0","0","0","SAcSz","People","","2095","","","","68","","","","22","19","15","1","-1","75","70","ha-nguy-n-OFSQ6bHjFjs-unsplash.jpg","gabriel-silverio-u3WmDyKGsrY-unsplash.jpg","2","1","19","15","","","","","","","","","","","","","","","","","","","","","","","","","","","",""
"","choice_confirmation","","html-keyboard-response","156","2452334","0.0-78.0-2.0-0.0","0","0","SAcSz","People","","null","","","","null","","","","22","19","15","","","","","","","","","","","","","","","","","","","","","","","","","","","","","","","","","","","","","",""
"","explain_trial","","survey-text","157","2460736","0.0-78.0-5.0-0.0","0","0","SAcSz","People","","8398","{""Q0"":""happy face""}","","","","","","","22","19","15","","","","","","","","","","","{""Q0"":""happy face""}","","","","","","","","","","","","","","","","","","","","","","","","","","",""
"","fixation","","html-keyboard-response","158","2461748","0.0-79.0-0.0","0","0","SAcSz","People","","null","","","","null","","","","","","","","","","","","","","","","","","","","","","","","","","","","","","","","","","","","","","","","","","","",""
"","deliberation","","html-keyboard-response","159","2465269","0.0-79.0-1.0","0","0","SAcSz","People","","3504","","","","68","","","","23","18","2","1","-1","78","70","good-faces-xmSWVeGEnJw-unsplash.jpg","arjunsyah-TBUA5KHJn6k-unsplash.jpg","2","1","18","2","","","","","","","","","","","","","","","","","","","","","","","","","","","",""
"","choice_confirmation","","html-keyboard-response","160","2465795","0.0-79.0-2.0-0.0","0","0","SAcSz","People","","null","","","","null","","","","23","18","2","","","","","","","","","","","","","","","","","","","","","","","","","","","","","","","","","","","","","",""
"","explain_trial","","survey-text","161","2472198","0.0-79.0-5.0-0.0","0","0","SAcSz","People","","6396","{""Q0"":""modern""}","","","","","","","23","18","2","","","","","","","","","","","{""Q0"":""modern""}","","","","","","","","","","","","","","","","","","","","","","","","","","",""
"","start_critical_deliberation_block","","html-keyboard-response","162","2474811","0.0-79.0-7.0-0.0","0","0","SAcSz","People","","2613","","","","78","","","","","","","","","","","","","","","","","","","","","","","","","","","","","","","","","","","","","","","","","","","",""
"","fixation","","html-keyboard-response","163","2475927","0.0-80.0-0.0","0","0","SAcSz","People","","null","","","","null","","","","","","","","","","","","","","","","","","","","","","","","","","","","","","","","","","","","","","","","","","","",""
"","deliberation","","html-keyboard-response","164","2478922","0.0-80.0-1.0","0","0","SAcSz","People","","2954","","","","68","","","","24","14","42","0","1","69","70","freddy-kearney-o-ioeoATbIM-unsplash.jpg","prince-akachi-l3IHXOdMyHQ-unsplash.jpg","3","1","14","42","","","","","","","","","","","","","","","","","","","","","","","","","","","",""
"","choice_confirmation","","html-keyboard-response","165","2479607","0.0-80.0-2.0-0.0","0","0","SAcSz","People","","null","","","","null","","","","24","14","42","","","","","","","","","","","","","","","","","","","","","","","","","","","","","","","","","","","","","",""
"","fixation","","html-keyboard-response","166","2481063","0.0-81.0-0.0","0","0","SAcSz","People","","null","","","","null","","","","","","","","","","","","","","","","","","","","","","","","","","","","","","","","","","","","","","","","","","","",""
"","deliberation","","html-keyboard-response","167","2484451","0.0-81.0-1.0","0","0","SAcSz","People","","3388","","","","75","","","","25","34","9","0","1","78","71","oliver-johnson-1TUIcKob7Zs-unsplash.jpg","carlos-andres-gomez-vJuk8Y86mRw-unsplash.jpg","3","0","9","34","","","","","","","","","","","","","","","","","","","","","","","","","","","",""
"","choice_confirmation","","html-keyboard-response","168","2484979","0.0-81.0-2.0-0.0","0","0","SAcSz","People","","null","","","","null","","","","25","34","9","","","","","","","","","","","","","","","","","","","","","","","","","","","","","","","","","","","","","",""
"","fixation","","html-keyboard-response","169","2485987","0.0-82.0-0.0","0","0","SAcSz","People","","null","","","","null","","","","","","","","","","","","","","","","","","","","","","","","","","","","","","","","","","","","","","","","","","","",""
"","deliberation","","html-keyboard-response","170","2488282","0.0-82.0-1.0","0","0","SAcSz","People","","2283","","","","68","","","","26","45","35","0","1","72","68","sarah-noltner-pL5ZzPp1zqg-unsplash.jpg","oliver-ragfelt-khV4fTy6-D8-unsplash.jpg","3","1","45","35","","","","","","","","","","","","","","","","","","","","","","","","","","","",""
"","choice_confirmation","","html-keyboard-response","171","2489196","0.0-82.0-2.0-0.0","0","0","SAcSz","People","","null","","","","null","","","","26","45","35","","","","","","","","","","","","","","","","","","","","","","","","","","","","","","","","","","","","","",""
"","fixation","","html-keyboard-response","172","2490289","0.0-83.0-0.0","0","0","SAcSz","People","","null","","","","null","","","","","","","","","","","","","","","","","","","","","","","","","","","","","","","","","","","","","","","","","","","",""
"","deliberation","","html-keyboard-response","173","2492764","0.0-83.0-1.0","0","0","SAcSz","People","","2454","","","","68","","","","27","18","2","0","-1","78","70","good-faces-xmSWVeGEnJw-unsplash.jpg","arjunsyah-TBUA5KHJn6k-unsplash.jpg","3","1","18","2","","","","","","","","","","","","","","","","","","","","","","","","","","","",""
"","choice_confirmation","","html-keyboard-response","174","2493318","0.0-83.0-2.0-0.0","0","0","SAcSz","People","","null","","","","null","","","","27","18","2","","","","","","","","","","","","","","","","","","","","","","","","","","","","","","","","","","","","","",""
"","fixation","","html-keyboard-response","175","2494350","0.0-84.0-0.0","0","0","SAcSz","People","","null","","","","null","","","","","","","","","","","","","","","","","","","","","","","","","","","","","","","","","","","","","","","","","","","",""
"","deliberation","","html-keyboard-response","176","2496756","0.0-84.0-1.0","0","0","SAcSz","People","","2390","","","","75","","","","28","0","7","0","-1","71","75","abstral-official-cyOKLSgkgCE-unsplash.jpg","brooke-cagle-HRZUzoX1e6w-unsplash.jpg","3","0","7","0","","","","","","","","","","","","","","","","","","","","","","","","","","","",""
"","choice_confirmation","","html-keyboard-response","177","2497263","0.0-84.0-2.0-0.0","0","0","SAcSz","People","","null","","","","null","","","","28","0","7","","","","","","","","","","","","","","","","","","","","","","","","","","","","","","","","","","","","","",""
"","fixation","","html-keyboard-response","178","2498421","0.0-85.0-0.0","0","0","SAcSz","People","","null","","","","null","","","","","","","","","","","","","","","","","","","","","","","","","","","","","","","","","","","","","","","","","","","",""
"","deliberation","","html-keyboard-response","179","2500886","0.0-85.0-1.0","0","0","SAcSz","People","","2459","","","","68","","","","29","33","31","0","1","69","72","olena-sergienko-0TSd6uCKTKc-unsplash.jpg","mathilda-khoo-vLR0YP_otCo-unsplash.jpg","3","1","33","31","","","","","","","","","","","","","","","","","","","","","","","","","","","",""
"","choice_confirmation","","html-keyboard-response","180","2501457","0.0-85.0-2.0-0.0","0","0","SAcSz","People","","null","","","","null","","","","29","33","31","","","","","","","","","","","","","","","","","","","","","","","","","","","","","","","","","","","","","",""
"","fixation","","html-keyboard-response","181","2502490","0.0-86.0-0.0","0","0","SAcSz","People","","null","","","","null","","","","","","","","","","","","","","","","","","","","","","","","","","","","","","","","","","","","","","","","","","","",""
"","deliberation","","html-keyboard-response","182","2505141","0.0-86.0-1.0","0","0","SAcSz","People","","2648","","","","75","","","","30","27","16","0","-1","71","72","jurica-koletic-7YVZYZeITc8-unsplash.jpg","giano-currie-5-9YOsmf8IQ-unsplash.jpg","3","0","16","27","","","","","","","","","","","","","","","","","","","","","","","","","","","",""
"","choice_confirmation","","html-keyboard-response","183","2505662","0.0-86.0-2.0-0.0","0","0","SAcSz","People","","null","","","","null","","","","30","27","16","","","","","","","","","","","","","","","","","","","","","","","","","","","","","","","","","","","","","",""
"","fixation","","html-keyboard-response","184","2506709","0.0-87.0-0.0","0","0","SAcSz","People","","null","","","","null","","","","","","","","","","","","","","","","","","","","","","","","","","","","","","","","","","","","","","","","","","","",""
"","deliberation","","html-keyboard-response","185","2509138","0.0-87.0-1.0","0","0","SAcSz","People","","2420","","","","68","","","","31","37","23","0","-1","74","71","pavel-anoshin-d0peGya6R5Y-unsplash.jpg","joanna-nix-walkup-H4fEMshfwTE-unsplash.jpg","3","1","37","23","","","","","","","","","","","","","","","","","","","","","","","","","","","",""
"","choice_confirmation","","html-keyboard-response","186","2509657","0.0-87.0-2.0-0.0","0","0","SAcSz","People","","null","","","","null","","","","31","37","23","","","","","","","","","","","","","","","","","","","","","","","","","","","","","","","","","","","","","",""
"","fixation","","html-keyboard-response","187","2510848","0.0-88.0-0.0","0","0","SAcSz","People","","null","","","","null","","","","","","","","","","","","","","","","","","","","","","","","","","","","","","","","","","","","","","","","","","","",""
"","deliberation","","html-keyboard-response","188","2513457","0.0-88.0-1.0","0","0","SAcSz","People","","2422","","","","68","","","","32","19","15","0","-1","75","70","ha-nguy-n-OFSQ6bHjFjs-unsplash.jpg","gabriel-silverio-u3WmDyKGsrY-unsplash.jpg","3","1","19","15","","","","","","","","","","","","","","","","","","","","","","","","","","","",""
"","choice_confirmation","","html-keyboard-response","189","2513995","0.0-88.0-2.0-0.0","0","0","SAcSz","People","","null","","","","null","","","","32","19","15","","","","","","","","","","","","","","","","","","","","","","","","","","","","","","","","","","","","","",""
"","fixation","","html-keyboard-response","190","2515021","0.0-89.0-0.0","0","0","SAcSz","People","","null","","","","null","","","","","","","","","","","","","","","","","","","","","","","","","","","","","","","","","","","","","","","","","","","",""
"","deliberation","","html-keyboard-response","191","2516628","0.0-89.0-1.0","0","0","SAcSz","People","","1582","","","","68","","","","33","30","26","0","1","69","69","matheus-ferrero-pg_WCHWSdT8-unsplash.jpg","juri-gianfrancesco-9EZadYaMzk4-unsplash.jpg","3","1","30","26","","","","","","","","","","","","","","","","","","","","","","","","","","","",""
"","choice_confirmation","","html-keyboard-response","192","2517180","0.0-89.0-2.0-0.0","0","0","SAcSz","People","","null","","","","null","","","","33","30","26","","","","","","","","","","","","","","","","","","","","","","","","","","","","","","","","","","","","","",""
"","fixation","","html-keyboard-response","193","2518195","0.0-90.0-0.0","0","0","SAcSz","People","","null","","","","null","","","","","","","","","","","","","","","","","","","","","","","","","","","","","","","","","","","","","","","","","","","",""
"","deliberation","","html-keyboard-response","194","2521209","0.0-90.0-1.0","0","0","SAcSz","People","","3014","","","","68","","","","34","47","48","0","-1","76","71","tyler-nix-ZGa9d1a_4tA-unsplash.jpg","velizar-ivanov-7ktP9yZA1g4-unsplash.jpg","3","1","47","48","","","","","","","","","","","","","","","","","","","","","","","","","","","",""
"","choice_confirmation","","html-keyboard-response","195","2521735","0.0-90.0-2.0-0.0","0","0","SAcSz","People","","null","","","","null","","","","34","47","48","","","","","","","","","","","","","","","","","","","","","","","","","","","","","","","","","","","","","",""
"","fixation","","html-keyboard-response","196","2522760","0.0-91.0-0.0","0","0","SAcSz","People","","null","","","","null","","","","","","","","","","","","","","","","","","","","","","","","","","","","","","","","","","","","","","","","","","","",""
"","deliberation","","html-keyboard-response","197","2525006","0.0-91.0-1.0","0","0","SAcSz","People","","2216","","","","68","","","","35","5","4","0","1","71","75","batel-studio-ttSRjiYG_WM-unsplash.jpg","barna-bartis-2x3vfVxwR7o-unsplash.jpg","3","1","5","4","","","","","","","","","","","","","","","","","","","","","","","","","","","",""
"","choice_confirmation","","html-keyboard-response","198","2525533","0.0-91.0-2.0-0.0","0","0","SAcSz","People","","null","","","","null","","","","35","5","4","","","","","","","","","","","","","","","","","","","","","","","","","","","","","","","","","","","","","",""
"","reward_learning_instructions","","instructions","199","2611855","0.0-92.0-0.0","0","0","SAcSz","People","[{""page_index"":0,""viewing_time"":37974},{""page_index"":1,""viewing_time"":43406},{""page_index"":2,""viewing_time"":4936}]","86316","","","","","","","","","","","","","","","","","","","","","","","","","","","","","","","","","","","","","","","","","","","","","","","",""
"","","","survey-multi-choice","200","2640196","0.0-92.0-1.0","0","0","SAcSz","People","","28320","{""Q0"":""True"",""Q1"":""True"",""Q2"":""Press the space bar to see its outcome"",""Q3"":""Press the relevant key while the outcome is presented""}","reward_comprehension_check","0","","","","","","","","","","","","","","","","","","","","","","","","","","","","","","","","","","","","","","","","","","","","",""
"","start_phase","","html-keyboard-response","201","2643712","0.0-93.0","0","0","SAcSz","People","","3503","","","","78","","","","","","","","","","","","","","","","","","","","","","","","","","","","","","","","","","","","","","","","","","","",""
"","fixation","","html-keyboard-response","202","2644722","0.0-94.0","0","0","SAcSz","People","","null","","","","null","","","","","","","","","","","","","","","","","","","","","","","","","","","","","","","","","","","","","","","","","","","",""
"","see_reward","","html-keyboard-response","203","2648408","0.0-95.0","0","0","SAcSz","People","","3681","","","","32","","7","","0","","","","-1","","","","","1","","","","","0","3681","","","","","","","","","","","","","","","","","","","","","","","","",""
"","reward_outcome","","html-keyboard-response","204","2650419","0.0-96.0","0","0","SAcSz","People","","null","","","","null","","7","","0","","","","","","","","","","","","","","","","NaN","null","","","","","","","","","","","","","","","","","","","","","","",""
"","respond_faster","","html-keyboard-response","205","2651946","0.0-97.0-0.0","1","0","SAcSz","People","","null","","","","null","","","","","","","","","","","","","","","","","","","","","","","","","","","","","","","","","","","","","","","","","","","",""
"","fixation","","html-keyboard-response","206","2652961","0.0-99.0","0","0","SAcSz","People","","null","","","","null","","","","","","","","","","","","","","","","","","","","","","","","","","","","","","","","","","","","","","","","","","","",""
"","see_reward","","html-keyboard-response","207","2660802","0.0-100.0","0","0","SAcSz","People","","7838","","","","32","","5","","1","","","","1","","","","","1","","","","","154","7838","","","","","","","","","","","","","","","","","","","","","","","","",""
"","reward_outcome","","html-keyboard-response","208","2662857","0.0-101.0","0","0","SAcSz","People","","null","","","","null","","5","","1","","","","","","","","","","","","","","","","NaN","null","","","","","","","","","","","","","","","","","","","","","","",""
"","respond_faster","","html-keyboard-response","209","2664379","0.0-102.0-0.0","1","0","SAcSz","People","","null","","","","null","","","","","","","","","","","","","","","","","","","","","","","","","","","","","","","","","","","","","","","","","","","",""
"","fixation","","html-keyboard-response","210","2665412","0.0-104.0","0","0","SAcSz","People","","null","","","","null","","","","","","","","","","","","","","","","","","","","","","","","","","","","","","","","","","","","","","","","","","","",""
"","see_reward","","html-keyboard-response","211","2666827","0.0-105.0","0","0","SAcSz","People","","1404","","","","32","","47","","2","","","","-1","","","","","1","","","","","0","1404","","","","","","","","","","","","","","","","","","","","","","","","",""
"","reward_outcome","","html-keyboard-response","212","2668857","0.0-106.0","0","0","SAcSz","People","","2000","","","","40","","47","","2","","","","","","","","","","","","","","","","-1","2000","","","","","","","","","","","","","","","","","","","","","","",""
"","fixation","","html-keyboard-response","213","2669899","0.0-109.0","0","0","SAcSz","People","","null","","","","null","","","","","","","","","","","","","","","","","","","","","","","","","","","","","","","","","","","","","","","","","","","",""
"","see_reward","","html-keyboard-response","214","2671377","0.0-110.0","0","0","SAcSz","People","","1473","","","","32","","30","","3","","","","1","","","","","1","","","","","140","1473","","","","","","","","","","","","","","","","","","","","","","","","",""
"","reward_outcome","","html-keyboard-response","215","2673390","0.0-111.0","0","0","SAcSz","People","","null","","","","null","","30","","3","","","","","","","","","","","","","","","","NaN","null","","","","","","","","","","","","","","","","","","","","","","",""
"","respond_faster","","html-keyboard-response","216","2674914","0.0-112.0-0.0","1","0","SAcSz","People","","null","","","","null","","","","","","","","","","","","","","","","","","","","","","","","","","","","","","","","","","","","","","","","","","","",""
"","fixation","","html-keyboard-response","217","2675923","0.0-114.0","0","0","SAcSz","People","","null","","","","null","","","","","","","","","","","","","","","","","","","","","","","","","","","","","","","","","","","","","","","","","","","",""
"","see_reward","","html-keyboard-response","218","2677302","0.0-115.0","0","0","SAcSz","People","","1376","","","","32","","16","","4","","","","-1","","","","","1","","","","","0","1376","","","","","","","","","","","","","","","","","","","","","","","","",""
"","reward_outcome","","html-keyboard-response","219","2679487","0.0-116.0","0","0","SAcSz","People","","null","","","","null","","16","","4","","","","","","","","","","","","","","","","NaN","null","","","","","","","","","","","","","","","","","","","","","","",""
"","respond_faster","","html-keyboard-response","220","2681033","0.0-117.0-0.0","1","0","SAcSz","People","","null","","","","null","","","","","","","","","","","","","","","","","","","","","","","","","","","","","","","","","","","","","","","","","","","",""
"","fixation","","html-keyboard-response","221","2682057","0.0-119.0","0","0","SAcSz","People","","null","","","","null","","","","","","","","","","","","","","","","","","","","","","","","","","","","","","","","","","","","","","","","","","","",""
"","see_reward","","html-keyboard-response","222","2684271","0.0-120.0","0","0","SAcSz","People","","2207","","","","32","","16","","5","","","","-1","","","","","1","","","","","0","2207","","","","","","","","","","","","","","","","","","","","","","","","",""
"","reward_outcome","","html-keyboard-response","223","2686292","0.0-121.0","0","0","SAcSz","People","","null","","","","null","","16","","5","","","","","","","","","","","","","","","","NaN","null","","","","","","","","","","","","","","","","","","","","","","",""
"","respond_faster","","html-keyboard-response","224","2687843","0.0-122.0-0.0","1","0","SAcSz","People","","null","","","","null","","","","","","","","","","","","","","","","","","","","","","","","","","","","","","","","","","","","","","","","","","","",""
"","fixation","","html-keyboard-response","225","2688874","0.0-124.0","0","0","SAcSz","People","","null","","","","null","","","","","","","","","","","","","","","","","","","","","","","","","","","","","","","","","","","","","","","","","","","",""
"","see_reward","","html-keyboard-response","226","2690040","0.0-125.0","0","0","SAcSz","People","","1152","","","","32","","45","","6","","","","1","","","","","1","","","","","159","1152","","","","","","","","","","","","","","","","","","","","","","","","",""
"","reward_outcome","","html-keyboard-response","227","2692073","0.0-126.0","0","0","SAcSz","People","","null","","","","null","","45","","6","","","","","","","","","","","","","","","","NaN","null","","","","","","","","","","","","","","","","","","","","","","",""
"","respond_faster","","html-keyboard-response","228","2693592","0.0-127.0-0.0","1","0","SAcSz","People","","null","","","","null","","","","","","","","","","","","","","","","","","","","","","","","","","","","","","","","","","","","","","","","","","","",""
"","fixation","","html-keyboard-response","229","2694798","0.0-129.0","0","0","SAcSz","People","","null","","","","null","","","","","","","","","","","","","","","","","","","","","","","","","","","","","","","","","","","","","","","","","","","",""
"","see_reward","","html-keyboard-response","230","2695866","0.0-130.0","0","0","SAcSz","People","","1060","","","","32","","33","","7","","","","1","","","","","1","","","","","158","1060","","","","","","","","","","","","","","","","","","","","","","","","",""
"","reward_outcome","","html-keyboard-response","231","2697914","0.0-131.0","0","0","SAcSz","People","","null","","","","null","","33","","7","","","","","","","","","","","","","","","","NaN","null","","","","","","","","","","","","","","","","","","","","","","",""
"","respond_faster","","html-keyboard-response","232","2699478","0.0-132.0-0.0","1","0","SAcSz","People","","null","","","","null","","","","","","","","","","","","","","","","","","","","","","","","","","","","","","","","","","","","","","","","","","","",""
"","fixation","","html-keyboard-response","233","2700507","0.0-134.0","0","0","SAcSz","People","","null","","","","null","","","","","","","","","","","","","","","","","","","","","","","","","","","","","","","","","","","","","","","","","","","",""
"","see_reward","","html-keyboard-response","234","2701626","0.0-135.0","0","0","SAcSz","People","","1111","","","","32","","9","","8","","","","1","","","","","1","","","","","143","1111","","","","","","","","","","","","","","","","","","","","","","","","",""
"","reward_outcome","","html-keyboard-response","235","2703670","0.0-136.0","0","0","SAcSz","People","","null","","","","null","","9","","8","","","","","","","","","","","","","","","","NaN","null","","","","","","","","","","","","","","","","","","","","","","",""
"","respond_faster","","html-keyboard-response","236","2705192","0.0-137.0-0.0","1","0","SAcSz","People","","null","","","","null","","","","","","","","","","","","","","","","","","","","","","","","","","","","","","","","","","","","","","","","","","","",""
"","fixation","","html-keyboard-response","237","2706217","0.0-139.0","0","0","SAcSz","People","","null","","","","null","","","","","","","","","","","","","","","","","","","","","","","","","","","","","","","","","","","","","","","","","","","",""
"","see_reward","","html-keyboard-response","238","2707495","0.0-140.0","0","0","SAcSz","People","","1264","","","","32","","14","","9","","","","1","","","","","1","","","","","150","1264","","","","","","","","","","","","","","","","","","","","","","","","",""
"","reward_outcome","","html-keyboard-response","239","2709522","0.0-141.0","0","0","SAcSz","People","","null","","","","null","","14","","9","","","","","","","","","","","","","","","","NaN","null","","","","","","","","","","","","","","","","","","","","","","",""
"","respond_faster","","html-keyboard-response","240","2711076","0.0-142.0-0.0","1","0","SAcSz","People","","null","","","","null","","","","","","","","","","","","","","","","","","","","","","","","","","","","","","","","","","","","","","","","","","","",""
"","fixation","","html-keyboard-response","241","2712096","0.0-144.0","0","0","SAcSz","People","","null","","","","null","","","","","","","","","","","","","","","","","","","","","","","","","","","","","","","","","","","","","","","","","","","",""
"","see_reward","","html-keyboard-response","242","2712918","0.0-145.0","0","0","SAcSz","People","","820","","","","32","","45","","10","","","","1","","","","","1","","","","","159","820","","","","","","","","","","","","","","","","","","","","","","","","",""
"","reward_outcome","","html-keyboard-response","243","2715194","0.0-146.0","0","0","SAcSz","People","","null","","","","null","","45","","10","","","","","","","","","","","","","","","","NaN","null","","","","","","","","","","","","","","","","","","","","","","",""
"","respond_faster","","html-keyboard-response","244","2716703","0.0-147.0-0.0","1","0","SAcSz","People","","null","","","","null","","","","","","","","","","","","","","","","","","","","","","","","","","","","","","","","","","","","","","","","","","","",""
"","fixation","","html-keyboard-response","245","2717720","0.0-149.0","0","0","SAcSz","People","","null","","","","null","","","","","","","","","","","","","","","","","","","","","","","","","","","","","","","","","","","","","","","","","","","",""
"","see_reward","","html-keyboard-response","246","2719065","0.0-150.0","0","0","SAcSz","People","","1344","","","","32","","5","","11","","","","1","","","","","1","","","","","154","1344","","","","","","","","","","","","","","","","","","","","","","","","",""
"","reward_outcome","","html-keyboard-response","247","2721071","0.0-151.0","0","0","SAcSz","People","","null","","","","null","","5","","11","","","","","","","","","","","","","","","","NaN","null","","","","","","","","","","","","","","","","","","","","","","",""
"","respond_faster","","html-keyboard-response","248","2722594","0.0-152.0-0.0","1","0","SAcSz","People","","null","","","","null","","","","","","","","","","","","","","","","","","","","","","","","","","","","","","","","","","","","","","","","","","","",""
"","fixation","","html-keyboard-response","249","2723610","0.0-154.0","0","0","SAcSz","People","","null","","","","null","","","","","","","","","","","","","","","","","","","","","","","","","","","","","","","","","","","","","","","","","","","",""
"","see_reward","","html-keyboard-response","250","2724693","0.0-155.0","0","0","SAcSz","People","","1075","","","","32","","37","","12","","","","-1","","","","","1","","","","","0","1075","","","","","","","","","","","","","","","","","","","","","","","","",""
"","reward_outcome","","html-keyboard-response","251","2726698","0.0-156.0","0","0","SAcSz","People","","null","","","","null","","37","","12","","","","","","","","","","","","","","","","NaN","null","","","","","","","","","","","","","","","","","","","","","","",""
"","respond_faster","","html-keyboard-response","252","2728317","0.0-157.0-0.0","1","0","SAcSz","People","","null","","","","null","","","","","","","","","","","","","","","","","","","","","","","","","","","","","","","","","","","","","","","","","","","",""
"","fixation","","html-keyboard-response","253","2729323","0.0-159.0","0","0","SAcSz","People","","null","","","","null","","","","","","","","","","","","","","","","","","","","","","","","","","","","","","","","","","","","","","","","","","","",""
"","see_reward","","html-keyboard-response","254","2730173","0.0-160.0","0","0","SAcSz","People","","847","","","","32","","14","","13","","","","1","","","","","1","","","","","150","847","","","","","","","","","","","","","","","","","","","","","","","","",""
"","reward_outcome","","html-keyboard-response","255","2732240","0.0-161.0","0","0","SAcSz","People","","null","","","","null","","14","","13","","","","","","","","","","","","","","","","NaN","null","","","","","","","","","","","","","","","","","","","","","","",""
"","respond_faster","","html-keyboard-response","256","2733758","0.0-162.0-0.0","1","0","SAcSz","People","","null","","","","null","","","","","","","","","","","","","","","","","","","","","","","","","","","","","","","","","","","","","","","","","","","",""
"","fixation","","html-keyboard-response","257","2734931","0.0-164.0","0","0","SAcSz","People","","null","","","","null","","","","","","","","","","","","","","","","","","","","","","","","","","","","","","","","","","","","","","","","","","","",""
"","see_reward","","html-keyboard-response","258","2735867","0.0-165.0","0","0","SAcSz","People","","935","","","","32","","18","","14","","","","-1","","","","","1","","","","","0","935","","","","","","","","","","","","","","","","","","","","","","","","",""
"","reward_outcome","","html-keyboard-response","259","2737883","0.0-166.0","0","0","SAcSz","People","","null","","","","null","","18","","14","","","","","","","","","","","","","","","","NaN","null","","","","","","","","","","","","","","","","","","","","","","",""
"","respond_faster","","html-keyboard-response","260","2739457","0.0-167.0-0.0","1","0","SAcSz","People","","null","","","","null","","","","","","","","","","","","","","","","","","","","","","","","","","","","","","","","","","","","","","","","","","","",""
"","fixation","","html-keyboard-response","261","2740483","0.0-169.0","0","0","SAcSz","People","","null","","","","null","","","","","","","","","","","","","","","","","","","","","","","","","","","","","","","","","","","","","","","","","","","",""
"","see_reward","","html-keyboard-response","262","2741235","0.0-170.0","0","0","SAcSz","People","","742","","","","32","","19","","15","","","","-1","","","","","1","","","","","0","742","","","","","","","","","","","","","","","","","","","","","","","","",""
"","reward_outcome","","html-keyboard-response","263","2743247","0.0-171.0","0","0","SAcSz","People","","null","","","","null","","19","","15","","","","","","","","","","","","","","","","NaN","null","","","","","","","","","","","","","","","","","","","","","","",""
"","respond_faster","","html-keyboard-response","264","2744768","0.0-172.0-0.0","1","0","SAcSz","People","","null","","","","null","","","","","","","","","","","","","","","","","","","","","","","","","","","","","","","","","","","","","","","","","","","",""
"","fixation","","html-keyboard-response","265","2745987","0.0-174.0","0","0","SAcSz","People","","null","","","","null","","","","","","","","","","","","","","","","","","","","","","","","","","","","","","","","","","","","","","","","","","","",""
"","see_reward","","html-keyboard-response","266","2746945","0.0-175.0","0","0","SAcSz","People","","951","","","","32","","19","","16","","","","-1","","","","","1","","","","","0","951","","","","","","","","","","","","","","","","","","","","","","","","",""
"","reward_outcome","","html-keyboard-response","267","2748983","0.0-176.0","0","0","SAcSz","People","","null","","","","null","","19","","16","","","","","","","","","","","","","","","","NaN","null","","","","","","","","","","","","","","","","","","","","","","",""
"","respond_faster","","html-keyboard-response","268","2750495","0.0-177.0-0.0","1","0","SAcSz","People","","null","","","","null","","","","","","","","","","","","","","","","","","","","","","","","","","","","","","","","","","","","","","","","","","","",""
"","fixation","","html-keyboard-response","269","2751504","0.0-179.0","0","0","SAcSz","People","","null","","","","null","","","","","","","","","","","","","","","","","","","","","","","","","","","","","","","","","","","","","","","","","","","",""
"","see_reward","","html-keyboard-response","270","2752742","0.0-180.0","0","0","SAcSz","People","","1222","","","","32","","18","","17","","","","-1","","","","","1","","","","","0","1222","","","","","","","","","","","","","","","","","","","","","","","","",""
"","reward_outcome","","html-keyboard-response","271","2754759","0.0-181.0","0","0","SAcSz","People","","null","","","","null","","18","","17","","","","","","","","","","","","","","","","NaN","null","","","","","","","","","","","","","","","","","","","","","","",""
"","respond_faster","","html-keyboard-response","272","2756275","0.0-182.0-0.0","1","0","SAcSz","People","","null","","","","null","","","","","","","","","","","","","","","","","","","","","","","","","","","","","","","","","","","","","","","","","","","",""
"","fixation","","html-keyboard-response","273","2757291","0.0-184.0","0","0","SAcSz","People","","null","","","","null","","","","","","","","","","","","","","","","","","","","","","","","","","","","","","","","","","","","","","","","","","","",""
"","see_reward","","html-keyboard-response","274","2758087","0.0-185.0","0","0","SAcSz","People","","794","","","","32","","33","","18","","","","1","","","","","1","","","","","158","794","","","","","","","","","","","","","","","","","","","","","","","","",""
"","reward_outcome","","html-keyboard-response","275","2760101","0.0-186.0","0","0","SAcSz","People","","null","","","","null","","33","","18","","","","","","","","","","","","","","","","NaN","null","","","","","","","","","","","","","","","","","","","","","","",""
"","respond_faster","","html-keyboard-response","276","2761618","0.0-187.0-0.0","1","0","SAcSz","People","","null","","","","null","","","","","","","","","","","","","","","","","","","","","","","","","","","","","","","","","","","","","","","","","","","",""
"","fixation","","html-keyboard-response","277","2762650","0.0-189.0","0","0","SAcSz","People","","null","","","","null","","","","","","","","","","","","","","","","","","","","","","","","","","","","","","","","","","","","","","","","","","","",""
"","see_reward","","html-keyboard-response","278","2764259","0.0-190.0","0","0","SAcSz","People","","1604","","","","32","","37","","19","","","","-1","","","","","1","","","","","0","1604","","","","","","","","","","","","","","","","","","","","","","","","",""
"","reward_outcome","","html-keyboard-response","279","2766274","0.0-191.0","0","0","SAcSz","People","","null","","","","null","","37","","19","","","","","","","","","","","","","","","","NaN","null","","","","","","","","","","","","","","","","","","","","","","",""
"","respond_faster","","html-keyboard-response","280","2767792","0.0-192.0-0.0","1","0","SAcSz","People","","null","","","","null","","","","","","","","","","","","","","","","","","","","","","","","","","","","","","","","","","","","","","","","","","","",""
"","fixation","","html-keyboard-response","281","2768806","0.0-194.0","0","0","SAcSz","People","","null","","","","null","","","","","","","","","","","","","","","","","","","","","","","","","","","","","","","","","","","","","","","","","","","",""
"","see_reward","","html-keyboard-response","282","2770444","0.0-195.0","0","0","SAcSz","People","","1638","","","","32","","7","","20","","","","-1","","","","","1","","","","","0","1638","","","","","","","","","","","","","","","","","","","","","","","","",""
"","reward_outcome","","html-keyboard-response","283","2772457","0.0-196.0","0","0","SAcSz","People","","null","","","","null","","7","","20","","","","","","","","","","","","","","","","NaN","null","","","","","","","","","","","","","","","","","","","","","","",""
"","respond_faster","","html-keyboard-response","284","2773968","0.0-197.0-0.0","1","0","SAcSz","People","","null","","","","null","","","","","","","","","","","","","","","","","","","","","","","","","","","","","","","","","","","","","","","","","","","",""
"","fixation","","html-keyboard-response","285","2774979","0.0-199.0","0","0","SAcSz","People","","null","","","","null","","","","","","","","","","","","","","","","","","","","","","","","","","","","","","","","","","","","","","","","","","","",""
"","see_reward","","html-keyboard-response","286","2775840","0.0-200.0","0","0","SAcSz","People","","843","","","","32","","30","","21","","","","1","","","","","1","","","","","140","843","","","","","","","","","","","","","","","","","","","","","","","","",""
"","reward_outcome","","html-keyboard-response","287","2777867","0.0-201.0","0","0","SAcSz","People","","null","","","","null","","30","","21","","","","","","","","","","","","","","","","NaN","null","","","","","","","","","","","","","","","","","","","","","","",""
"","respond_faster","","html-keyboard-response","288","2779469","0.0-202.0-0.0","1","0","SAcSz","People","","null","","","","null","","","","","","","","","","","","","","","","","","","","","","","","","","","","","","","","","","","","","","","","","","","",""
"","fixation","","html-keyboard-response","289","2780490","0.0-204.0","0","0","SAcSz","People","","null","","","","null","","","","","","","","","","","","","","","","","","","","","","","","","","","","","","","","","","","","","","","","","","","",""
"","see_reward","","html-keyboard-response","290","2781794","0.0-205.0","0","0","SAcSz","People","","1304","","","","32","","9","","22","","","","1","","","","","1","","","","","143","1304","","","","","","","","","","","","","","","","","","","","","","","","",""
"","reward_outcome","","html-keyboard-response","291","2783901","0.0-206.0","0","0","SAcSz","People","","null","","","","null","","9","","22","","","","","","","","","","","","","","","","NaN","null","","","","","","","","","","","","","","","","","","","","","","",""
"","respond_faster","","html-keyboard-response","292","2785410","0.0-207.0-0.0","1","0","SAcSz","People","","null","","","","null","","","","","","","","","","","","","","","","","","","","","","","","","","","","","","","","","","","","","","","","","","","",""
"","fixation","","html-keyboard-response","293","2786572","0.0-209.0","0","0","SAcSz","People","","null","","","","null","","","","","","","","","","","","","","","","","","","","","","","","","","","","","","","","","","","","","","","","","","","",""
"","see_reward","","html-keyboard-response","294","2787319","0.0-210.0","0","0","SAcSz","People","","738","","","","32","","47","","23","","","","-1","","","","","1","","","","","0","738","","","","","","","","","","","","","","","","","","","","","","","","",""
"","reward_outcome","","html-keyboard-response","295","2789454","0.0-211.0","0","0","SAcSz","People","","null","","","","null","","47","","23","","","","","","","","","","","","","","","","NaN","null","","","","","","","","","","","","","","","","","","","","","","",""
"","respond_faster","","html-keyboard-response","296","2791615","0.0-212.0-0.0","1","0","SAcSz","People","","null","","","","null","","","","","","","","","","","","","","","","","","","","","","","","","","","","","","","","","","","","","","","","","","","",""
"","block_over","","html-keyboard-response","297","2795906","0.0-213.0-0.0","0","0","SAcSz","People","","4291","","","","78","","","","","","","","","","","","","","","","","","","","","","","","","","","","","","","","","","","","","","","","","","","",""
"","fixation","","html-keyboard-response","298","2796956","0.0-214.0","0","0","SAcSz","People","","null","","","","null","","","","","","","","","","","","","","","","","","","","","","","","","","","","","","","","","","","","","","","","","","","",""
"","see_reward","","html-keyboard-response","299","2798599","0.0-215.0","0","0","SAcSz","People","","1643","","","","32","","47","","24","","","","-1","","","","","2","","","","","0","1643","","","","","","","","","","","","","","","","","","","","","","","","",""
"","reward_outcome","","html-keyboard-response","300","2800611","0.0-216.0","0","0","SAcSz","People","","null","","","","null","","47","","24","","","","","","","","","","","","","","","","NaN","null","","","","","","","","","","","","","","","","","","","","","","",""
"","respond_faster","","html-keyboard-response","301","2802141","0.0-217.0-0.0","1","0","SAcSz","People","","null","","","","null","","","","","","","","","","","","","","","","","","","","","","","","","","","","","","","","","","","","","","","","","","","",""
"","fixation","","html-keyboard-response","302","2803232","0.0-219.0","0","0","SAcSz","People","","null","","","","null","","","","","","","","","","","","","","","","","","","","","","","","","","","","","","","","","","","","","","","","","","","",""
"","see_reward","","html-keyboard-response","303","2805855","0.0-220.0","0","0","SAcSz","People","","2611","","","","32","","33","","25","","","","1","","","","","2","","","","","158","2611","","","","","","","","","","","","","","","","","","","","","","","","",""
"","reward_outcome","","html-keyboard-response","304","2807860","0.0-221.0","0","0","SAcSz","People","","null","","","","null","","33","","25","","","","","","","","","","","","","","","","NaN","null","","","","","","","","","","","","","","","","","","","","","","",""
"","respond_faster","","html-keyboard-response","305","2809375","0.0-222.0-0.0","1","0","SAcSz","People","","null","","","","null","","","","","","","","","","","","","","","","","","","","","","","","","","","","","","","","","","","","","","","","","","","",""
"","fixation","","html-keyboard-response","306","2810381","0.0-224.0","0","0","SAcSz","People","","null","","","","null","","","","","","","","","","","","","","","","","","","","","","","","","","","","","","","","","","","","","","","","","","","",""
"","see_reward","","html-keyboard-response","307","2811286","0.0-225.0","0","0","SAcSz","People","","898","","","","32","","9","","26","","","","1","","","","","2","","","","","143","898","","","","","","","","","","","","","","","","","","","","","","","","",""
"","reward_outcome","","html-keyboard-response","308","2813325","0.0-226.0","0","0","SAcSz","People","","null","","","","null","","9","","26","","","","","","","","","","","","","","","","NaN","null","","","","","","","","","","","","","","","","","","","","","","",""
"","respond_faster","","html-keyboard-response","309","2814885","0.0-227.0-0.0","1","0","SAcSz","People","","null","","","","null","","","","","","","","","","","","","","","","","","","","","","","","","","","","","","","","","","","","","","","","","","","",""
"","fixation","","html-keyboard-response","310","2815928","0.0-229.0","0","0","SAcSz","People","","null","","","","null","","","","","","","","","","","","","","","","","","","","","","","","","","","","","","","","","","","","","","","","","","","",""
"","see_reward","","html-keyboard-response","311","2816726","0.0-230.0","0","0","SAcSz","People","","785","","","","32","","47","","27","","","","-1","","","","","2","","","","","0","785","","","","","","","","","","","","","","","","","","","","","","","","",""
"","reward_outcome","","html-keyboard-response","312","2818739","0.0-231.0","0","0","SAcSz","People","","null","","","","null","","47","","27","","","","","","","","","","","","","","","","NaN","null","","","","","","","","","","","","","","","","","","","","","","",""
"","respond_faster","","html-keyboard-response","313","2820266","0.0-232.0-0.0","1","0","SAcSz","People","","null","","","","null","","","","","","","","","","","","","","","","","","","","","","","","","","","","","","","","","","","","","","","","","","","",""
"","fixation","","html-keyboard-response","314","2821281","0.0-234.0","0","0","SAcSz","People","","null","","","","null","","","","","","","","","","","","","","","","","","","","","","","","","","","","","","","","","","","","","","","","","","","",""
"","see_reward","","html-keyboard-response","315","2822979","0.0-235.0","0","0","SAcSz","People","","1688","","","","32","","45","","28","","","","1","","","","","2","","","","","159","1688","","","","","","","","","","","","","","","","","","","","","","","","",""
"","reward_outcome","","html-keyboard-response","316","2824991","0.0-236.0","0","0","SAcSz","People","","null","","","","null","","45","","28","","","","","","","","","","","","","","","","NaN","null","","","","","","","","","","","","","","","","","","","","","","",""
"","respond_faster","","html-keyboard-response","317","2826549","0.0-237.0-0.0","1","0","SAcSz","People","","null","","","","null","","","","","","","","","","","","","","","","","","","","","","","","","","","","","","","","","","","","","","","","","","","",""
"","fixation","","html-keyboard-response","318","2827580","0.0-239.0","0","0","SAcSz","People","","null","","","","null","","","","","","","","","","","","","","","","","","","","","","","","","","","","","","","","","","","","","","","","","","","",""
"","see_reward","","html-keyboard-response","319","2828658","0.0-240.0","0","0","SAcSz","People","","1013","","","","32","","5","","29","","","","1","","","","","2","","","","","154","1013","","","","","","","","","","","","","","","","","","","","","","","","",""
"","reward_outcome","","html-keyboard-response","320","2830661","0.0-241.0","0","0","SAcSz","People","","null","","","","null","","5","","29","","","","","","","","","","","","","","","","NaN","null","","","","","","","","","","","","","","","","","","","","","","",""
"","respond_faster","","html-keyboard-response","321","2832175","0.0-242.0-0.0","1","0","SAcSz","People","","null","","","","null","","","","","","","","","","","","","","","","","","","","","","","","","","","","","","","","","","","","","","","","","","","",""
"","fixation","","html-keyboard-response","322","2833189","0.0-244.0","0","0","SAcSz","People","","null","","","","null","","","","","","","","","","","","","","","","","","","","","","","","","","","","","","","","","","","","","","","","","","","",""
"","see_reward","","html-keyboard-response","323","2834870","0.0-245.0","0","0","SAcSz","People","","1667","","","","32","","7","","30","","","","-1","","","","","2","","","","","0","1667","","","","","","","","","","","","","","","","","","","","","","","","",""
"","reward_outcome","","html-keyboard-response","324","2836875","0.0-246.0","0","0","SAcSz","People","","null","","","","null","","7","","30","","","","","","","","","","","","","","","","NaN","null","","","","","","","","","","","","","","","","","","","","","","",""
"","respond_faster","","html-keyboard-response","325","2838382","0.0-247.0-0.0","1","0","SAcSz","People","","null","","","","null","","","","","","","","","","","","","","","","","","","","","","","","","","","","","","","","","","","","","","","","","","","",""
"","fixation","","html-keyboard-response","326","2839393","0.0-249.0","0","0","SAcSz","People","","null","","","","null","","","","","","","","","","","","","","","","","","","","","","","","","","","","","","","","","","","","","","","","","","","",""
"","see_reward","","html-keyboard-response","327","2840919","0.0-250.0","0","0","SAcSz","People","","1514","","","","32","","9","","31","","","","1","","","","","2","","","","","143","1514","","","","","","","","","","","","","","","","","","","","","","","","",""
"","reward_outcome","","html-keyboard-response","328","2842940","0.0-251.0","0","0","SAcSz","People","","null","","","","null","","9","","31","","","","","","","","","","","","","","","","NaN","null","","","","","","","","","","","","","","","","","","","","","","",""
"","respond_faster","","html-keyboard-response","329","2844453","0.0-252.0-0.0","1","0","SAcSz","People","","null","","","","null","","","","","","","","","","","","","","","","","","","","","","","","","","","","","","","","","","","","","","","","","","","",""
"","fixation","","html-keyboard-response","330","2845470","0.0-254.0","0","0","SAcSz","People","","null","","","","null","","","","","","","","","","","","","","","","","","","","","","","","","","","","","","","","","","","","","","","","","","","",""
"","see_reward","","html-keyboard-response","331","2847133","0.0-255.0","0","0","SAcSz","People","","1662","","","","32","","37","","32","","","","-1","","","","","2","","","","","0","1662","","","","","","","","","","","","","","","","","","","","","","","","",""
"","reward_outcome","","html-keyboard-response","332","2849180","0.0-256.0","0","0","SAcSz","People","","null","","","","null","","37","","32","","","","","","","","","","","","","","","","NaN","null","","","","","","","","","","","","","","","","","","","","","","",""
"","respond_faster","","html-keyboard-response","333","2850715","0.0-257.0-0.0","1","0","SAcSz","People","","null","","","","null","","","","","","","","","","","","","","","","","","","","","","","","","","","","","","","","","","","","","","","","","","","",""
"","fixation","","html-keyboard-response","334","2851746","0.0-259.0","0","0","SAcSz","People","","null","","","","null","","","","","","","","","","","","","","","","","","","","","","","","","","","","","","","","","","","","","","","","","","","",""
"","see_reward","","html-keyboard-response","335","2852539","0.0-260.0","0","0","SAcSz","People","","791","","","","32","","16","","33","","","","-1","","","","","2","","","","","0","791","","","","","","","","","","","","","","","","","","","","","","","","",""
"","reward_outcome","","html-keyboard-response","336","2854619","0.0-261.0","0","0","SAcSz","People","","null","","","","null","","16","","33","","","","","","","","","","","","","","","","NaN","null","","","","","","","","","","","","","","","","","","","","","","",""
"","respond_faster","","html-keyboard-response","337","2856148","0.0-262.0-0.0","1","0","SAcSz","People","","null","","","","null","","","","","","","","","","","","","","","","","","","","","","","","","","","","","","","","","","","","","","","","","","","",""
"","fixation","","html-keyboard-response","338","2857166","0.0-264.0","0","0","SAcSz","People","","null","","","","null","","","","","","","","","","","","","","","","","","","","","","","","","","","","","","","","","","","","","","","","","","","",""
"","see_reward","","html-keyboard-response","339","2859059","0.0-265.0","0","0","SAcSz","People","","1888","","","","32","","33","","34","","","","1","","","","","2","","","","","158","1888","","","","","","","","","","","","","","","","","","","","","","","","",""
"","reward_outcome","","html-keyboard-response","340","2861117","0.0-266.0","0","0","SAcSz","People","","null","","","","null","","33","","34","","","","","","","","","","","","","","","","NaN","null","","","","","","","","","","","","","","","","","","","","","","",""
"","respond_faster","","html-keyboard-response","341","2862655","0.0-267.0-0.0","1","0","SAcSz","People","","null","","","","null","","","","","","","","","","","","","","","","","","","","","","","","","","","","","","","","","","","","","","","","","","","",""
"","fixation","","html-keyboard-response","342","2863667","0.0-269.0","0","0","SAcSz","People","","null","","","","null","","","","","","","","","","","","","","","","","","","","","","","","","","","","","","","","","","","","","","","","","","","",""
"","see_reward","","html-keyboard-response","343","2864723","0.0-270.0","0","0","SAcSz","People","","1043","","","","32","","7","","35","","","","-1","","","","","2","","","","","0","1043","","","","","","","","","","","","","","","","","","","","","","","","",""
"","reward_outcome","","html-keyboard-response","344","2866742","0.0-271.0","0","0","SAcSz","People","","null","","","","null","","7","","35","","","","","","","","","","","","","","","","NaN","null","","","","","","","","","","","","","","","","","","","","","","",""
