"success","ttype","start_time","trial_type","trial_index","time_elapsed","internal_node_id","warning","missed_checkup","PID","stim_type","view_history","rt","responses","repeat_instructions","key_press","response","stimulus_id","painting","index","stimulus_left","stimulus_right","explain_trial","reward_type","rating_left","rating_right","painting_left","painting_right","block","left_chosen","chosen_obj","unchosen_obj","explain_response","reward_amount","see_reward_rt","register_reward_response","register_reward_rt","deliberation_reward_tally","stimulus_left_deliberation_ind","stimulus_right_deliberation_ind","chosen_trial","gain_left","higher_outcome_chosen","old_pair","chosen_object","rt_pairs","left_object_chosen","rt_object","old_response","new_rating","deliberated_stim","initial_rating","outcome_eval_rt","outcome_eval_response","outcome_eval_gain","outcome_eval_acc","preamble","outcome_eval_confidence","outcome_eval_confidence_rt","total_reward_tally"
"true","full_screen","d01192023hr2100","fullscreen","0","4020","0.0-0.0","0","0","JAECO","Scenes","","","","","","","","","","","","","","","","","","","","","","","","","","","","","","","","","","","","","","","","","","","","","","","","",""
"","rating_instructions","","instructions","1","14157","0.0-1.0-0.0","0","0","JAECO","Scenes","[{""page_index"":0,""viewing_time"":5371},{""page_index"":1,""viewing_time"":2311},{""page_index"":0,""viewing_time"":2007},{""page_index"":1,""viewing_time"":447}]","10136","","","","","","","","","","","","","","","","","","","","","","","","","","","","","","","","","","","","","","","","","","","","","","",""
"","rating_comprehension_check","","survey-multi-choice","2","18555","0.0-1.0-1.0","0","0","JAECO","Scenes","","4395","{""Q0"":""True"",""Q1"":""Mouse""}","0","","","","","","","","","","","","","","","","","","","","","","","","","","","","","","","","","","","","","","","","","","","","",""
"","start_phase","","html-keyboard-response","3","20656","0.0-2.0","0","0","JAECO","Scenes","","2099","","","78","","","","","","","","","","","","","","","","","","","","","","","","","","","","","","","","","","","","","","","","","","","",""
"","rating","","html-slider-response","4","24153","0.0-3.0","0","0","JAECO","Scenes","","3495","","","","76","109","brigitta-schneiter-hXXRLtTxXCU-unsplash.jpg","0","","","","","","","","","","","","","","","","","","","","","","","","","","","","","","","","","","","","","","","",""
"","rating","","html-slider-response","5","28878","0.0-4.0","0","0","JAECO","Scenes","","4724","","","","84","137","olga-stalska-QaWRyEdlffY-unsplash.jpg","1","","","","","","","","","","","","","","","","","","","","","","","","","","","","","","","","","","","","","","","",""
"","rating","","html-slider-response","6","32046","0.0-5.0","0","0","JAECO","Scenes","","3166","","","","52","146","thomas-morse-cuKKa0vWZSY-unsplash.jpg","2","","","","","","","","","","","","","","","","","","","","","","","","","","","","","","","","","","","","","","","",""
"","rating","","html-slider-response","7","34396","0.0-6.0","0","0","JAECO","Scenes","","2349","","","","66","134","milada-vigerova-pQMM63GE7fo-unsplash.jpg","3","","","","","","","","","","","","","","","","","","","","","","","","","","","","","","","","","","","","","","","",""
"","rating","","html-slider-response","8","36723","0.0-7.0","0","0","JAECO","Scenes","","2325","","","","81","119","james-wheeler-AFC0XvICMgs-unsplash.jpg","4","","","","","","","","","","","","","","","","","","","","","","","","","","","","","","","","","","","","","","","",""
"","rating","","html-slider-response","9","39497","0.0-8.0","0","0","JAECO","Scenes","","2773","","","","58","144","solotravelgoals-7kLufxYoqWk-unsplash.jpg","5","","","","","","","","","","","","","","","","","","","","","","","","","","","","","","","","","","","","","","","",""
"","rating","","html-slider-response","10","42649","0.0-9.0","0","0","JAECO","Scenes","","3150","","","","31","116","david-marcu-W5MhJ6cy1So-unsplash.jpg","6","","","","","","","","","","","","","","","","","","","","","","","","","","","","","","","","","","","","","","","",""
"","rating","","html-slider-response","11","45879","0.0-10.0","0","0","JAECO","Scenes","","3229","","","","40","103","anton-darius-FBJugtbHsWU-unsplash.jpg","7","","","","","","","","","","","","","","","","","","","","","","","","","","","","","","","","","","","","","","","",""
"","rating","","html-slider-response","12","48557","0.0-11.0","0","0","JAECO","Scenes","","2676","","","","38","108","benjamin-voros-phIFdC6lA4E-unsplash.jpg","8","","","","","","","","","","","","","","","","","","","","","","","","","","","","","","","","","","","","","","","",""
"","rating","","html-slider-response","13","51733","0.0-12.0","0","0","JAECO","Scenes","","3174","","","","33","117","frank-mckenna-OD9EOzfSOh0-unsplash.jpg","9","","","","","","","","","","","","","","","","","","","","","","","","","","","","","","","","","","","","","","","",""
"","rating","","html-slider-response","14","55339","0.0-13.0","0","0","JAECO","Scenes","","3605","","","","43","115","darrell-cassell-hoCXpPUMCoE-unsplash.jpg","10","","","","","","","","","","","","","","","","","","","","","","","","","","","","","","","","","","","","","","","",""
"","rating","","html-slider-response","15","59225","0.0-14.0","0","0","JAECO","Scenes","","3886","","","","24","133","mickey-o-neil-xL66l--msXU-unsplash.jpg","11","","","","","","","","","","","","","","","","","","","","","","","","","","","","","","","","","","","","","","","",""
"","rating","","html-slider-response","16","63463","0.0-15.0","0","0","JAECO","Scenes","","4236","","","","72","112","cosmic-timetraveler-pYyOZ8q7AII-unsplash.jpg","12","","","","","","","","","","","","","","","","","","","","","","","","","","","","","","","","","","","","","","","",""
"","rating","","html-slider-response","17","66198","0.0-16.0","0","0","JAECO","Scenes","","2733","","","","74","114","daniel-sessler-z_9VmsxR8hs-unsplash.jpg","13","","","","","","","","","","","","","","","","","","","","","","","","","","","","","","","","","","","","","","","",""
"","rating","","html-slider-response","18","68764","0.0-17.0","0","0","JAECO","Scenes","","2565","","","","80","140","samuele-errico-piccarini-JEBqFu2AOOA-unsplash.jpg","14","","","","","","","","","","","","","","","","","","","","","","","","","","","","","","","","","","","","","","","",""
"","rating","","html-slider-response","19","71068","0.0-18.0","0","0","JAECO","Scenes","","2302","","","","74","102","anisur-rahman-K2b7UDed6uQ-unsplash.jpg","15","","","","","","","","","","","","","","","","","","","","","","","","","","","","","","","","","","","","","","","",""
"","rating","","html-slider-response","20","73211","0.0-19.0","0","0","JAECO","Scenes","","2142","","","","73","149","yuriy-bogdanov-W51VK3Obcj0-unsplash.jpg","16","","","","","","","","","","","","","","","","","","","","","","","","","","","","","","","","","","","","","","","",""
"","rating","","html-slider-response","21","76945","0.0-20.0","0","0","JAECO","Scenes","","3733","","","","59","129","kurt-cotoaga-cqbLg3lZEpk-unsplash.jpg","17","","","","","","","","","","","","","","","","","","","","","","","","","","","","","","","","","","","","","","","",""
"","rating","","html-slider-response","22","79824","0.0-21.0","0","0","JAECO","Scenes","","2877","","","","29","126","jordan-mcqueen-PJCZOWuOxbU-unsplash.jpg","18","","","","","","","","","","","","","","","","","","","","","","","","","","","","","","","","","","","","","","","",""
"","rating","","html-slider-response","23","82423","0.0-22.0","0","0","JAECO","Scenes","","2598","","","","71","101","aniket-deole-T-tOgjWZ0fQ-unsplash.jpg","19","","","","","","","","","","","","","","","","","","","","","","","","","","","","","","","","","","","","","","","",""
"","rating","","html-slider-response","24","84638","0.0-23.0","0","0","JAECO","Scenes","","2214","","","","78","148","tom-gainor-ZqLeQDjY6fY-unsplash.jpg","20","","","","","","","","","","","","","","","","","","","","","","","","","","","","","","","","","","","","","","","",""
"","rating","","html-slider-response","25","87356","0.0-24.0","0","0","JAECO","Scenes","","2717","","","","79","128","karsten-wurth-jS0zC2PJ17A-unsplash.jpg","21","","","","","","","","","","","","","","","","","","","","","","","","","","","","","","","","","","","","","","","",""
"","rating","","html-slider-response","26","90092","0.0-25.0","0","0","JAECO","Scenes","","2734","","","","43","118","henry-be-NLF6hTe4PAg-unsplash.jpg","22","","","","","","","","","","","","","","","","","","","","","","","","","","","","","","","","","","","","","","","",""
"","rating","","html-slider-response","27","92162","0.0-26.0","0","0","JAECO","Scenes","","2069","","","","71","127","kace-rodriguez-p3OzJuT_Dks-unsplash.jpg","23","","","","","","","","","","","","","","","","","","","","","","","","","","","","","","","","","","","","","","","",""
"","rating","","html-slider-response","28","94625","0.0-27.0","0","0","JAECO","Scenes","","2461","","","","78","104","artem-sapegin-XGDBdSQ70O0-unsplash.jpg","24","","","","","","","","","","","","","","","","","","","","","","","","","","","","","","","","","","","","","","","",""
"","rating","","html-slider-response","29","97048","0.0-28.0","0","0","JAECO","Scenes","","2422","","","","73","122","jeff-king-bJHWJeiHfHc-unsplash.jpg","25","","","","","","","","","","","","","","","","","","","","","","","","","","","","","","","","","","","","","","","",""
"","rating","","html-slider-response","30","100183","0.0-29.0","0","0","JAECO","Scenes","","3133","","","","81","142","sergey-pesterev-y-b_FOmJXdg-unsplash.jpg","26","","","","","","","","","","","","","","","","","","","","","","","","","","","","","","","","","","","","","","","",""
"","rating","","html-slider-response","31","102574","0.0-30.0","0","0","JAECO","Scenes","","2390","","","","69","131","luca-bravo-hFzIoD0F_i8-unsplash.jpg","27","","","","","","","","","","","","","","","","","","","","","","","","","","","","","","","","","","","","","","","",""
"","rating","","html-slider-response","32","104892","0.0-31.0","0","0","JAECO","Scenes","","2317","","","","35","124","johannes-plenio-sPt5RIjKfpk-unsplash.jpg","28","","","","","","","","","","","","","","","","","","","","","","","","","","","","","","","","","","","","","","","",""
"","rating","","html-slider-response","33","107755","0.0-32.0","0","0","JAECO","Scenes","","2862","","","","74","141","sebastian-unrau-v4e3JI7DDHI-unsplash.jpg","29","","","","","","","","","","","","","","","","","","","","","","","","","","","","","","","","","","","","","","","",""
"","rating","","html-slider-response","34","111314","0.0-33.0","0","0","JAECO","Scenes","","3557","","","","35","106","ashim-d-silva-WeYamle9fDM-unsplash.jpg","30","","","","","","","","","","","","","","","","","","","","","","","","","","","","","","","","","","","","","","","",""
"","rating","","html-slider-response","35","113689","0.0-34.0","0","0","JAECO","Scenes","","2373","","","","85","139","samsommer-vddccTqwal8-unsplash.jpg","31","","","","","","","","","","","","","","","","","","","","","","","","","","","","","","","","","","","","","","","",""
"","rating","","html-slider-response","36","117167","0.0-35.0","0","0","JAECO","Scenes","","3476","","","","31","113","damian-denis-D8R_txR_0PE-unsplash.jpg","32","","","","","","","","","","","","","","","","","","","","","","","","","","","","","","","","","","","","","","","",""
"","rating","","html-slider-response","37","121460","0.0-36.0","0","0","JAECO","Scenes","","4293","","","","34","105","ashim-d-silva-S2Q5mdOrrVc-unsplash.jpg","33","","","","","","","","","","","","","","","","","","","","","","","","","","","","","","","","","","","","","","","",""
"","rating","","html-slider-response","38","124156","0.0-37.0","0","0","JAECO","Scenes","","2694","","","","64","143","sigurdur-fjalar-jonsson-1KxBabIntpE-unsplash.jpg","34","","","","","","","","","","","","","","","","","","","","","","","","","","","","","","","","","","","","","","","",""
"","rating","","html-slider-response","39","126698","0.0-38.0","0","0","JAECO","Scenes","","2541","","","","73","107","benjamin-davies-Zm2n2O7Fph4-unsplash.jpg","35","","","","","","","","","","","","","","","","","","","","","","","","","","","","","","","","","","","","","","","",""
"","rating","","html-slider-response","40","129153","0.0-39.0","0","0","JAECO","Scenes","","2454","","","","87","125","john-lee-oMneOBYhJxY-unsplash.jpg","36","","","","","","","","","","","","","","","","","","","","","","","","","","","","","","","","","","","","","","","",""
"","rating","","html-slider-response","41","132696","0.0-40.0","0","0","JAECO","Scenes","","3541","","","","72","123","joel-jasmin-forestbird-efuwb5eBDrI-unsplash.jpg","37","","","","","","","","","","","","","","","","","","","","","","","","","","","","","","","","","","","","","","","",""
"","rating","","html-slider-response","42","135567","0.0-41.0","0","0","JAECO","Scenes","","2870","","","","33","145","stephen-leonardi-gyIRjKPXupE-unsplash.jpg","38","","","","","","","","","","","","","","","","","","","","","","","","","","","","","","","","","","","","","","","",""
"","rating","","html-slider-response","43","138141","0.0-42.0","0","0","JAECO","Scenes","","2572","","","","38","136","nicolas-jehly-LzVB84KkZOE-unsplash.jpg","39","","","","","","","","","","","","","","","","","","","","","","","","","","","","","","","","","","","","","","","",""
"","rating","","html-slider-response","44","140532","0.0-43.0","0","0","JAECO","Scenes","","2391","","","","79","111","claudio-testa-U3F2o6vz3bs-unsplash.jpg","40","","","","","","","","","","","","","","","","","","","","","","","","","","","","","","","","","","","","","","","",""
"","rating","","html-slider-response","45","142476","0.0-44.0","0","0","JAECO","Scenes","","1942","","","","77","130","lina-loos-04-C1NZk1hE-unsplash.jpg","41","","","","","","","","","","","","","","","","","","","","","","","","","","","","","","","","","","","","","","","",""
"","rating","","html-slider-response","46","145338","0.0-45.0","0","0","JAECO","Scenes","","2861","","","","74","121","jean-pierre-brungs-qxCqkbF7tUc-unsplash.jpg","42","","","","","","","","","","","","","","","","","","","","","","","","","","","","","","","","","","","","","","","",""
"","rating","","html-slider-response","47","149488","0.0-46.0","0","0","JAECO","Scenes","","4149","","","","42","100","aleksandra-boguslawska-MS7KD9Ti7FQ-unsplash.jpg","43","","","","","","","","","","","","","","","","","","","","","","","","","","","","","","","","","","","","","","","",""
"","rating","","html-slider-response","48","153398","0.0-47.0","0","0","JAECO","Scenes","","3909","","","","30","138","petr-vysohlid-9fqwGqGLUxc-unsplash.jpg","44","","","","","","","","","","","","","","","","","","","","","","","","","","","","","","","","","","","","","","","",""
"","rating","","html-slider-response","49","155406","0.0-48.0","0","0","JAECO","Scenes","","2006","","","","80","120","jarrett-kow-1ZOyYPOBn7I-unsplash.jpg","45","","","","","","","","","","","","","","","","","","","","","","","","","","","","","","","","","","","","","","","",""
"","rating","","html-slider-response","50","157612","0.0-49.0","0","0","JAECO","Scenes","","2206","","","","88","147","tobias-keller-73F4pKoUkM0-unsplash.jpg","46","","","","","","","","","","","","","","","","","","","","","","","","","","","","","","","","","","","","","","","",""
"","rating","","html-slider-response","51","160348","0.0-50.0","0","0","JAECO","Scenes","","2734","","","","73","135","mohammad-alizade-4wzRuAb-KWs-unsplash.jpg","47","","","","","","","","","","","","","","","","","","","","","","","","","","","","","","","","","","","","","","","",""
"","rating","","html-slider-response","52","163386","0.0-51.0","0","0","JAECO","Scenes","","3037","","","","80","132","meng-ji-8BH_M-53CyA-unsplash.jpg","48","","","","","","","","","","","","","","","","","","","","","","","","","","","","","","","","","","","","","","","",""
"","rating","","html-slider-response","53","165681","0.0-52.0","0","0","JAECO","Scenes","","2293","","","","92","110","bruno-van-der-kraan-qez8mNJ3ilU-unsplash.jpg","49","","","","","","","","","","","","","","","","","","","","","","","","","","","","","","","","","","","","","","","",""
"","deliberation_instructions","","instructions","54","348664","0.0-53.0-0.0","0","0","JAECO","Scenes","[{""page_index"":0,""viewing_time"":46425},{""page_index"":1,""viewing_time"":115780},{""page_index"":2,""viewing_time"":7061},{""page_index"":3,""viewing_time"":12306},{""page_index"":4,""viewing_time"":1408}]","182980","","","","","","","","","","","","","","","","","","","","","","","","","","","","","","","","","","","","","","","","","","","","","","",""
"","deliberation_comprehension_check","","survey-multi-choice","55","370957","0.0-53.0-1.0","0","0","JAECO","Scenes","","22287","{""Q0"":""True"",""Q1"":""False"",""Q2"":""Consider carefully and take your time (up to 10 seconds)"",""Q3"":""True"",""Q4"":""D""}","1","","","","","","","","","","","","","","","","","","","","","","","","","","","","","","","","","","","","","","","","","","","","",""
"","missed_instruction_checkup","","html-keyboard-response","56","373073","0.0-53.0-2.0-0.0","0","1","JAECO","Scenes","","2115","","","78","","","","","","","","","","","","","","","","","","","","","","","","","","","","","","","","","","","","","","","","","","","",""
"","deliberation_instructions","","instructions","57","398593","0.0-53.1-0.1","0","0","JAECO","Scenes","[{""page_index"":0,""viewing_time"":8006},{""page_index"":1,""viewing_time"":4950},{""page_index"":2,""viewing_time"":8091},{""page_index"":3,""viewing_time"":3336},{""page_index"":4,""viewing_time"":1135}]","25518","","","","","","","","","","","","","","","","","","","","","","","","","","","","","","","","","","","","","","","","","","","","","","",""
"","deliberation_comprehension_check","","survey-multi-choice","58","412028","0.0-53.1-1.1","0","0","JAECO","Scenes","","13429","{""Q0"":""True"",""Q1"":""True"",""Q2"":""Consider carefully and take your time (up to 10 seconds)"",""Q3"":""True"",""Q4"":""K""}","1","","","","","","","","","","","","","","","","","","","","","","","","","","","","","","","","","","","","","","","","","","","","",""
"","missed_instruction_checkup","","html-keyboard-response","59","413877","0.0-53.1-2.1-0.1","0","1","JAECO","Scenes","","1848","","","78","","","","","","","","","","","","","","","","","","","","","","","","","","","","","","","","","","","","","","","","","","","",""
"","deliberation_instructions","","instructions","60","456767","0.0-53.2-0.2","0","0","JAECO","Scenes","[{""page_index"":0,""viewing_time"":12015},{""page_index"":1,""viewing_time"":13403},{""page_index"":2,""viewing_time"":10451},{""page_index"":3,""viewing_time"":6212},{""page_index"":4,""viewing_time"":809}]","42890","","","","","","","","","","","","","","","","","","","","","","","","","","","","","","","","","","","","","","","","","","","","","","",""
"","deliberation_comprehension_check","","survey-multi-choice","61","472528","0.0-53.2-1.2","0","0","JAECO","Scenes","","15756","{""Q0"":""True"",""Q1"":""True"",""Q2"":""Consider carefully and take your time (up to 10 seconds)"",""Q3"":""True"",""Q4"":""D""}","0","","","","","","","","","","","","","","","","","","","","","","","","","","","","","","","","","","","","","","","","","","","","",""
"","start_phase","","html-keyboard-response","62","474303","0.0-54.0","0","0","JAECO","Scenes","","1772","","","78","","","","","","","","","","","","","","","","","","","","","","","","","","","","","","","","","","","","","","","","","","","",""
"","first_deliberation_block","","html-keyboard-response","63","530835","0.0-55.0","0","0","JAECO","Scenes","","56531","","","78","","","","","","","","","","","","","","","","","","","","","","","","","","","","","","","","","","","","","","","","","","","",""
"","fixation","","html-keyboard-response","64","531837","0.0-56.0-0.0","0","0","JAECO","Scenes","","null","","","null","","","","","","","","","","","","","","","","","","","","","","","","","","","","","","","","","","","","","","","","","","","",""
"","deliberation","","html-keyboard-response","65","535199","0.0-56.0-1.0","0","0","JAECO","Scenes","","3360","","","68","","","","0","135","127","0","-1","73","71","mohammad-alizade-4wzRuAb-KWs-unsplash.jpg","kace-rodriguez-p3OzJuT_Dks-unsplash.jpg","1","1","135","127","","","","","","","","","","","","","","","","","","","","","","","","","","","",""
"","choice_confirmation","","html-keyboard-response","66","535700","0.0-56.0-2.0-0.0","0","0","JAECO","Scenes","","null","","","null","","","","0","135","127","","","","","","","","","","","","","","","","","","","","","","","","","","","","","","","","","","","","","",""
"","fixation","","html-keyboard-response","67","536702","0.0-57.0-0.0","0","0","JAECO","Scenes","","null","","","null","","","","","","","","","","","","","","","","","","","","","","","","","","","","","","","","","","","","","","","","","","","",""
"","deliberation","","html-keyboard-response","68","539928","0.0-57.0-1.0","0","0","JAECO","Scenes","","3225","","","68","","","","1","130","100","1","-1","77","42","lina-loos-04-C1NZk1hE-unsplash.jpg","aleksandra-boguslawska-MS7KD9Ti7FQ-unsplash.jpg","1","1","130","100","","","","","","","","","","","","","","","","","","","","","","","","","","","",""
"","choice_confirmation","","html-keyboard-response","69","540430","0.0-57.0-2.0-0.0","0","0","JAECO","Scenes","","null","","","null","","","","1","130","100","","","","","","","","","","","","","","","","","","","","","","","","","","","","","","","","","","","","","",""
"","explain_trial","","survey-text","70","562448","0.0-57.0-5.0-0.0","0","0","JAECO","Scenes","","22017","{""Q0"":""I think mountains are more appealing to many buyers than planks.""}","","","","","","1","130","100","","","","","","","","","","","{""Q0"":""I think mountains are more appealing to many buyers than planks.""}","","","","","","","","","","","","","","","","","","","","","","","","","","",""
"","fixation","","html-keyboard-response","71","563450","0.0-58.0-0.0","0","0","JAECO","Scenes","","null","","","null","","","","","","","","","","","","","","","","","","","","","","","","","","","","","","","","","","","","","","","","","","","",""
"","deliberation","","html-keyboard-response","72","566857","0.0-58.0-1.0","0","0","JAECO","Scenes","","3406","","","75","","","","2","149","146","0","1","73","52","yuriy-bogdanov-W51VK3Obcj0-unsplash.jpg","thomas-morse-cuKKa0vWZSY-unsplash.jpg","1","0","146","149","","","","","","","","","","","","","","","","","","","","","","","","","","","",""
"","choice_confirmation","","html-keyboard-response","73","567358","0.0-58.0-2.0-0.0","0","0","JAECO","Scenes","","null","","","null","","","","2","149","146","","","","","","","","","","","","","","","","","","","","","","","","","","","","","","","","","","","","","",""
"","fixation","","html-keyboard-response","74","568361","0.0-59.0-0.0","0","0","JAECO","Scenes","","null","","","null","","","","","","","","","","","","","","","","","","","","","","","","","","","","","","","","","","","","","","","","","","","",""
"","deliberation","","html-keyboard-response","75","571586","0.0-59.0-1.0","0","0","JAECO","Scenes","","3225","","","68","","","","3","112","148","1","1","72","78","cosmic-timetraveler-pYyOZ8q7AII-unsplash.jpg","tom-gainor-ZqLeQDjY6fY-unsplash.jpg","1","1","112","148","","","","","","","","","","","","","","","","","","","","","","","","","","","",""
"","choice_confirmation","","html-keyboard-response","76","572088","0.0-59.0-2.0-0.0","0","0","JAECO","Scenes","","null","","","null","","","","3","112","148","","","","","","","","","","","","","","","","","","","","","","","","","","","","","","","","","","","","","",""
"","explain_trial","","survey-text","77","590540","0.0-59.0-5.0-0.0","0","0","JAECO","Scenes","","18451","{""Q0"":""The vivid colorful forest looks like it would attract more buyers.""}","","","","","","3","112","148","","","","","","","","","","","{""Q0"":""The vivid colorful forest looks like it would attract more buyers.""}","","","","","","","","","","","","","","","","","","","","","","","","","","",""
"","fixation","","html-keyboard-response","78","591541","0.0-60.0-0.0","0","0","JAECO","Scenes","","null","","","null","","","","","","","","","","","","","","","","","","","","","","","","","","","","","","","","","","","","","","","","","","","",""
"","deliberation","","html-keyboard-response","79","595089","0.0-60.0-1.0","0","0","JAECO","Scenes","","3547","","","68","","","","4","144","114","0","1","58","74","solotravelgoals-7kLufxYoqWk-unsplash.jpg","daniel-sessler-z_9VmsxR8hs-unsplash.jpg","1","1","144","114","","","","","","","","","","","","","","","","","","","","","","","","","","","",""
"","choice_confirmation","","html-keyboard-response","80","595590","0.0-60.0-2.0-0.0","0","0","JAECO","Scenes","","null","","","null","","","","4","144","114","","","","","","","","","","","","","","","","","","","","","","","","","","","","","","","","","","","","","",""
"","fixation","","html-keyboard-response","81","596591","0.0-61.0-0.0","0","0","JAECO","Scenes","","null","","","null","","","","","","","","","","","","","","","","","","","","","","","","","","","","","","","","","","","","","","","","","","","",""
"","deliberation","","html-keyboard-response","82","598159","0.0-61.0-1.0","0","0","JAECO","Scenes","","1567","","","68","","","","5","122","115","1","-1","73","43","jeff-king-bJHWJeiHfHc-unsplash.jpg","darrell-cassell-hoCXpPUMCoE-unsplash.jpg","1","1","122","115","","","","","","","","","","","","","","","","","","","","","","","","","","","",""
"","choice_confirmation","","html-keyboard-response","83","598661","0.0-61.0-2.0-0.0","0","0","JAECO","Scenes","","null","","","null","","","","5","122","115","","","","","","","","","","","","","","","","","","","","","","","","","","","","","","","","","","","","","",""
"","explain_trial","","survey-text","84","621533","0.0-61.0-5.0-0.0","0","0","JAECO","Scenes","","22871","{""Q0"":""I think more would like the tree in their living room.""}","","","","","","5","122","115","","","","","","","","","","","{""Q0"":""I think more would like the tree in their living room.""}","","","","","","","","","","","","","","","","","","","","","","","","","","",""
"","fixation","","html-keyboard-response","85","622535","0.0-62.0-0.0","0","0","JAECO","Scenes","","null","","","null","","","","","","","","","","","","","","","","","","","","","","","","","","","","","","","","","","","","","","","","","","","",""
"","deliberation","","html-keyboard-response","86","626522","0.0-62.0-1.0","0","0","JAECO","Scenes","","3986","","","75","","","","6","101","109","0","1","71","76","aniket-deole-T-tOgjWZ0fQ-unsplash.jpg","brigitta-schneiter-hXXRLtTxXCU-unsplash.jpg","1","0","109","101","","","","","","","","","","","","","","","","","","","","","","","","","","","",""
"","choice_confirmation","","html-keyboard-response","87","627024","0.0-62.0-2.0-0.0","0","0","JAECO","Scenes","","null","","","null","","","","6","101","109","","","","","","","","","","","","","","","","","","","","","","","","","","","","","","","","","","","","","",""
"","fixation","","html-keyboard-response","88","628026","0.0-63.0-0.0","0","0","JAECO","Scenes","","null","","","null","","","","","","","","","","","","","","","","","","","","","","","","","","","","","","","","","","","","","","","","","","","",""
"","deliberation","","html-keyboard-response","89","631790","0.0-63.0-1.0","0","0","JAECO","Scenes","","3763","","","75","","","","7","118","102","1","-1","43","74","henry-be-NLF6hTe4PAg-unsplash.jpg","anisur-rahman-K2b7UDed6uQ-unsplash.jpg","1","0","102","118","","","","","","","","","","","","","","","","","","","","","","","","","","","",""
"","choice_confirmation","","html-keyboard-response","90","632292","0.0-63.0-2.0-0.0","0","0","JAECO","Scenes","","null","","","null","","","","7","118","102","","","","","","","","","","","","","","","","","","","","","","","","","","","","","","","","","","","","","",""
"","explain_trial","","survey-text","91","685273","0.0-63.0-5.0-0.0","0","0","JAECO","Scenes","","52981","{""Q0"":""I think the tracks would give people the impression that people live near here, which many would like.""}","","","","","","7","118","102","","","","","","","","","","","{""Q0"":""I think the tracks would give people the impression that people live near here, which many would like.""}","","","","","","","","","","","","","","","","","","","","","","","","","","",""
"","fixation","","html-keyboard-response","92","686275","0.0-64.0-0.0","0","0","JAECO","Scenes","","null","","","null","","","","","","","","","","","","","","","","","","","","","","","","","","","","","","","","","","","","","","","","","","","",""
"","deliberation","","html-keyboard-response","93","689654","0.0-64.0-1.0","0","0","JAECO","Scenes","","3377","","","75","","","","8","129","141","0","1","59","74","kurt-cotoaga-cqbLg3lZEpk-unsplash.jpg","sebastian-unrau-v4e3JI7DDHI-unsplash.jpg","1","0","141","129","","","","","","","","","","","","","","","","","","","","","","","","","","","",""
"","choice_confirmation","","html-keyboard-response","94","690156","0.0-64.0-2.0-0.0","0","0","JAECO","Scenes","","null","","","null","","","","8","129","141","","","","","","","","","","","","","","","","","","","","","","","","","","","","","","","","","","","","","",""
"","fixation","","html-keyboard-response","95","691159","0.0-65.0-0.0","0","0","JAECO","Scenes","","null","","","null","","","","","","","","","","","","","","","","","","","","","","","","","","","","","","","","","","","","","","","","","","","",""
"","deliberation","","html-keyboard-response","96","693950","0.0-65.0-1.0","0","0","JAECO","Scenes","","2791","","","75","","","","9","123","143","1","-1","72","64","joel-jasmin-forestbird-efuwb5eBDrI-unsplash.jpg","sigurdur-fjalar-jonsson-1KxBabIntpE-unsplash.jpg","1","0","143","123","","","","","","","","","","","","","","","","","","","","","","","","","","","",""
"","choice_confirmation","","html-keyboard-response","97","694453","0.0-65.0-2.0-0.0","0","0","JAECO","Scenes","","null","","","null","","","","9","123","143","","","","","","","","","","","","","","","","","","","","","","","","","","","","","","","","","","","","","",""
"","explain_trial","","survey-text","98","717651","0.0-65.0-5.0-0.0","0","0","JAECO","Scenes","","23196","{""Q0"":""I think there's more variety of colors in this image, which appeals to more poeple.""}","","","","","","9","123","143","","","","","","","","","","","{""Q0"":""I think there's more variety of colors in this image, which appeals to more poeple.""}","","","","","","","","","","","","","","","","","","","","","","","","","","",""
"","fixation","","html-keyboard-response","99","718652","0.0-66.0-0.0","0","0","JAECO","Scenes","","null","","","null","","","","","","","","","","","","","","","","","","","","","","","","","","","","","","","","","","","","","","","","","","","",""
"","deliberation","","html-keyboard-response","100","721146","0.0-66.0-1.0","0","0","JAECO","Scenes","","2493","","","75","","","","10","134","131","0","1","66","69","milada-vigerova-pQMM63GE7fo-unsplash.jpg","luca-bravo-hFzIoD0F_i8-unsplash.jpg","1","0","131","134","","","","","","","","","","","","","","","","","","","","","","","","","","","",""
"","choice_confirmation","","html-keyboard-response","101","721649","0.0-66.0-2.0-0.0","0","0","JAECO","Scenes","","null","","","null","","","","10","134","131","","","","","","","","","","","","","","","","","","","","","","","","","","","","","","","","","","","","","",""
"","fixation","","html-keyboard-response","102","722650","0.0-67.0-0.0","0","0","JAECO","Scenes","","null","","","null","","","","","","","","","","","","","","","","","","","","","","","","","","","","","","","","","","","","","","","","","","","",""
"","deliberation","","html-keyboard-response","103","726631","0.0-67.0-1.0","0","0","JAECO","Scenes","","3979","","","68","","","","11","121","107","1","-1","74","73","jean-pierre-brungs-qxCqkbF7tUc-unsplash.jpg","benjamin-davies-Zm2n2O7Fph4-unsplash.jpg","1","1","121","107","","","","","","","","","","","","","","","","","","","","","","","","","","","",""
"","choice_confirmation","","html-keyboard-response","104","727133","0.0-67.0-2.0-0.0","0","0","JAECO","Scenes","","null","","","null","","","","11","121","107","","","","","","","","","","","","","","","","","","","","","","","","","","","","","","","","","","","","","",""
"","explain_trial","","survey-text","105","744648","0.0-67.0-5.0-0.0","0","0","JAECO","Scenes","","17513","{""Q0"":""I think the contrast of the orange and blue fits.""}","","","","","","11","121","107","","","","","","","","","","","{""Q0"":""I think the contrast of the orange and blue fits.""}","","","","","","","","","","","","","","","","","","","","","","","","","","",""
"","practice_deliberation_again","","html-keyboard-response","106","747553","0.0-67.0-6.0-0.0","0","0","JAECO","Scenes","","2905","","","78","","","","","","","","","","","","","","","","","","","","","","","","","","","","","","","","","","","","","","","","","","","",""
"","fixation","","html-keyboard-response","107","748554","0.0-68.0-0.0","0","0","JAECO","Scenes","","null","","","null","","","","","","","","","","","","","","","","","","","","","","","","","","","","","","","","","","","","","","","","","","","",""
"","deliberation","","html-keyboard-response","108","751356","0.0-68.0-1.0","0","0","JAECO","Scenes","","2800","","","68","","","","12","144","114","1","1","58","74","solotravelgoals-7kLufxYoqWk-unsplash.jpg","daniel-sessler-z_9VmsxR8hs-unsplash.jpg","2","1","144","114","","","","","","","","","","","","","","","","","","","","","","","","","","","",""
"","choice_confirmation","","html-keyboard-response","109","751857","0.0-68.0-2.0-0.0","0","0","JAECO","Scenes","","null","","","null","","","","12","144","114","","","","","","","","","","","","","","","","","","","","","","","","","","","","","","","","","","","","","",""
"","explain_trial","","survey-text","110","771027","0.0-68.0-5.0-0.0","0","0","JAECO","Scenes","","19169","{""Q0"":""Interesting rock formations tend to do well, I think.""}","","","","","","12","144","114","","","","","","","","","","","{""Q0"":""Interesting rock formations tend to do well, I think.""}","","","","","","","","","","","","","","","","","","","","","","","","","","",""
"","fixation","","html-keyboard-response","111","772029","0.0-69.0-0.0","0","0","JAECO","Scenes","","null","","","null","","","","","","","","","","","","","","","","","","","","","","","","","","","","","","","","","","","","","","","","","","","",""
"","deliberation","","html-keyboard-response","112","774109","0.0-69.0-1.0","0","0","JAECO","Scenes","","2079","","","75","","","","13","129","141","1","1","59","74","kurt-cotoaga-cqbLg3lZEpk-unsplash.jpg","sebastian-unrau-v4e3JI7DDHI-unsplash.jpg","2","0","141","129","","","","","","","","","","","","","","","","","","","","","","","","","","","",""
"","choice_confirmation","","html-keyboard-response","113","774612","0.0-69.0-2.0-0.0","0","0","JAECO","Scenes","","null","","","null","","","","13","129","141","","","","","","","","","","","","","","","","","","","","","","","","","","","","","","","","","","","","","",""
"","explain_trial","","survey-text","114","793313","0.0-69.0-5.0-0.0","0","0","JAECO","Scenes","","18700","{""Q0"":""The tall trees create a cool image.""}","","","","","","13","129","141","","","","","","","","","","","{""Q0"":""The tall trees create a cool image.""}","","","","","","","","","","","","","","","","","","","","","","","","","","",""
"","fixation","","html-keyboard-response","115","794316","0.0-70.0-0.0","0","0","JAECO","Scenes","","null","","","null","","","","","","","","","","","","","","","","","","","","","","","","","","","","","","","","","","","","","","","","","","","",""
"","deliberation","","html-keyboard-response","116","796156","0.0-70.0-1.0","0","0","JAECO","Scenes","","1839","","","75","","","","14","134","131","1","1","66","69","milada-vigerova-pQMM63GE7fo-unsplash.jpg","luca-bravo-hFzIoD0F_i8-unsplash.jpg","2","0","131","134","","","","","","","","","","","","","","","","","","","","","","","","","","","",""
"","choice_confirmation","","html-keyboard-response","117","796657","0.0-70.0-2.0-0.0","0","0","JAECO","Scenes","","null","","","null","","","","14","134","131","","","","","","","","","","","","","","","","","","","","","","","","","","","","","","","","","","","","","",""
"","explain_trial","","survey-text","118","808762","0.0-70.0-5.0-0.0","0","0","JAECO","Scenes","","12103","{""Q0"":""The shack shows people are there.""}","","","","","","14","134","131","","","","","","","","","","","{""Q0"":""The shack shows people are there.""}","","","","","","","","","","","","","","","","","","","","","","","","","","",""
"","fixation","","html-keyboard-response","119","809764","0.0-71.0-0.0","0","0","JAECO","Scenes","","null","","","null","","","","","","","","","","","","","","","","","","","","","","","","","","","","","","","","","","","","","","","","","","","",""
"","deliberation","","html-keyboard-response","120","816721","0.0-71.0-1.0","0","0","JAECO","Scenes","","6957","","","75","","","","15","101","109","1","1","71","76","aniket-deole-T-tOgjWZ0fQ-unsplash.jpg","brigitta-schneiter-hXXRLtTxXCU-unsplash.jpg","2","0","109","101","","","","","","","","","","","","","","","","","","","","","","","","","","","",""
"","choice_confirmation","","html-keyboard-response","121","817223","0.0-71.0-2.0-0.0","0","0","JAECO","Scenes","","null","","","null","","","","15","101","109","","","","","","","","","","","","","","","","","","","","","","","","","","","","","","","","","","","","","",""
"","explain_trial","","survey-text","122","834071","0.0-71.0-5.0-0.0","0","0","JAECO","Scenes","","16848","{""Q0"":""People will like the calm still water.""}","","","","","","15","101","109","","","","","","","","","","","{""Q0"":""People will like the calm still water.""}","","","","","","","","","","","","","","","","","","","","","","","","","","",""
"","fixation","","html-keyboard-response","123","835073","0.0-72.0-0.0","0","0","JAECO","Scenes","","null","","","null","","","","","","","","","","","","","","","","","","","","","","","","","","","","","","","","","","","","","","","","","","","",""
"","deliberation","","html-keyboard-response","124","837655","0.0-72.0-1.0","0","0","JAECO","Scenes","","2580","","","75","","","","16","123","143","0","-1","72","64","joel-jasmin-forestbird-efuwb5eBDrI-unsplash.jpg","sigurdur-fjalar-jonsson-1KxBabIntpE-unsplash.jpg","2","0","143","123","","","","","","","","","","","","","","","","","","","","","","","","","","","",""
"","choice_confirmation","","html-keyboard-response","125","838156","0.0-72.0-2.0-0.0","0","0","JAECO","Scenes","","null","","","null","","","","16","123","143","","","","","","","","","","","","","","","","","","","","","","","","","","","","","","","","","","","","","",""
"","fixation","","html-keyboard-response","126","839158","0.0-73.0-0.0","0","0","JAECO","Scenes","","null","","","null","","","","","","","","","","","","","","","","","","","","","","","","","","","","","","","","","","","","","","","","","","","",""
"","deliberation","","html-keyboard-response","127","840873","0.0-73.0-1.0","0","0","JAECO","Scenes","","1715","","","68","","","","17","121","107","0","-1","74","73","jean-pierre-brungs-qxCqkbF7tUc-unsplash.jpg","benjamin-davies-Zm2n2O7Fph4-unsplash.jpg","2","1","121","107","","","","","","","","","","","","","","","","","","","","","","","","","","","",""
"","choice_confirmation","","html-keyboard-response","128","841375","0.0-73.0-2.0-0.0","0","0","JAECO","Scenes","","null","","","null","","","","17","121","107","","","","","","","","","","","","","","","","","","","","","","","","","","","","","","","","","","","","","",""
"","fixation","","html-keyboard-response","129","842377","0.0-74.0-0.0","0","0","JAECO","Scenes","","null","","","null","","","","","","","","","","","","","","","","","","","","","","","","","","","","","","","","","","","","","","","","","","","",""
"","deliberation","","html-keyboard-response","130","844073","0.0-74.0-1.0","0","0","JAECO","Scenes","","1696","","","75","","","","18","149","146","1","1","73","52","yuriy-bogdanov-W51VK3Obcj0-unsplash.jpg","thomas-morse-cuKKa0vWZSY-unsplash.jpg","2","0","146","149","","","","","","","","","","","","","","","","","","","","","","","","","","","",""
"","choice_confirmation","","html-keyboard-response","131","844575","0.0-74.0-2.0-0.0","0","0","JAECO","Scenes","","null","","","null","","","","18","149","146","","","","","","","","","","","","","","","","","","","","","","","","","","","","","","","","","","","","","",""
"","explain_trial","","survey-text","132","863602","0.0-74.0-5.0-0.0","0","0","JAECO","Scenes","","19026","{""Q0"":""The more complex pictures probably sell for more.""}","","","","","","18","149","146","","","","","","","","","","","{""Q0"":""The more complex pictures probably sell for more.""}","","","","","","","","","","","","","","","","","","","","","","","","","","",""
"","fixation","","html-keyboard-response","133","864604","0.0-75.0-0.0","0","0","JAECO","Scenes","","null","","","null","","","","","","","","","","","","","","","","","","","","","","","","","","","","","","","","","","","","","","","","","","","",""
"","deliberation","","html-keyboard-response","134","866343","0.0-75.0-1.0","0","0","JAECO","Scenes","","1737","","","68","","","","19","112","148","0","1","72","78","cosmic-timetraveler-pYyOZ8q7AII-unsplash.jpg","tom-gainor-ZqLeQDjY6fY-unsplash.jpg","2","1","112","148","","","","","","","","","","","","","","","","","","","","","","","","","","","",""
"","choice_confirmation","","html-keyboard-response","135","866844","0.0-75.0-2.0-0.0","0","0","JAECO","Scenes","","null","","","null","","","","19","112","148","","","","","","","","","","","","","","","","","","","","","","","","","","","","","","","","","","","","","",""
"","fixation","","html-keyboard-response","136","867846","0.0-76.0-0.0","0","0","JAECO","Scenes","","null","","","null","","","","","","","","","","","","","","","","","","","","","","","","","","","","","","","","","","","","","","","","","","","",""
"","deliberation","","html-keyboard-response","137","868817","0.0-76.0-1.0","0","0","JAECO","Scenes","","970","","","68","","","","20","130","100","0","-1","77","42","lina-loos-04-C1NZk1hE-unsplash.jpg","aleksandra-boguslawska-MS7KD9Ti7FQ-unsplash.jpg","2","1","130","100","","","","","","","","","","","","","","","","","","","","","","","","","","","",""
"","choice_confirmation","","html-keyboard-response","138","869319","0.0-76.0-2.0-0.0","0","0","JAECO","Scenes","","null","","","null","","","","20","130","100","","","","","","","","","","","","","","","","","","","","","","","","","","","","","","","","","","","","","",""
"","fixation","","html-keyboard-response","139","870321","0.0-77.0-0.0","0","0","JAECO","Scenes","","null","","","null","","","","","","","","","","","","","","","","","","","","","","","","","","","","","","","","","","","","","","","","","","","",""
"","deliberation","","html-keyboard-response","140","871953","0.0-77.0-1.0","0","0","JAECO","Scenes","","1632","","","75","","","","21","118","102","0","-1","43","74","henry-be-NLF6hTe4PAg-unsplash.jpg","anisur-rahman-K2b7UDed6uQ-unsplash.jpg","2","0","102","118","","","","","","","","","","","","","","","","","","","","","","","","","","","",""
"","choice_confirmation","","html-keyboard-response","141","872455","0.0-77.0-2.0-0.0","0","0","JAECO","Scenes","","null","","","null","","","","21","118","102","","","","","","","","","","","","","","","","","","","","","","","","","","","","","","","","","","","","","",""
"","fixation","","html-keyboard-response","142","873457","0.0-78.0-0.0","0","0","JAECO","Scenes","","null","","","null","","","","","","","","","","","","","","","","","","","","","","","","","","","","","","","","","","","","","","","","","","","",""
"","deliberation","","html-keyboard-response","143","874850","0.0-78.0-1.0","0","0","JAECO","Scenes","","1391","","","68","","","","22","122","115","0","-1","73","43","jeff-king-bJHWJeiHfHc-unsplash.jpg","darrell-cassell-hoCXpPUMCoE-unsplash.jpg","2","1","122","115","","","","","","","","","","","","","","","","","","","","","","","","","","","",""
"","choice_confirmation","","html-keyboard-response","144","875351","0.0-78.0-2.0-0.0","0","0","JAECO","Scenes","","null","","","null","","","","22","122","115","","","","","","","","","","","","","","","","","","","","","","","","","","","","","","","","","","","","","",""
"","fixation","","html-keyboard-response","145","876353","0.0-79.0-0.0","0","0","JAECO","Scenes","","null","","","null","","","","","","","","","","","","","","","","","","","","","","","","","","","","","","","","","","","","","","","","","","","",""
"","deliberation","","html-keyboard-response","146","879102","0.0-79.0-1.0","0","0","JAECO","Scenes","","2748","","","68","","","","23","135","127","1","-1","73","71","mohammad-alizade-4wzRuAb-KWs-unsplash.jpg","kace-rodriguez-p3OzJuT_Dks-unsplash.jpg","2","1","135","127","","","","","","","","","","","","","","","","","","","","","","","","","","","",""
"","choice_confirmation","","html-keyboard-response","147","879604","0.0-79.0-2.0-0.0","0","0","JAECO","Scenes","","null","","","null","","","","23","135","127","","","","","","","","","","","","","","","","","","","","","","","","","","","","","","","","","","","","","",""
"","explain_trial","","survey-text","148","895412","0.0-79.0-5.0-0.0","0","0","JAECO","Scenes","","15808","{""Q0"":""I like the contrast between the rocks and the sky.""}","","","","","","23","135","127","","","","","","","","","","","{""Q0"":""I like the contrast between the rocks and the sky.""}","","","","","","","","","","","","","","","","","","","","","","","","","","",""
"","start_critical_deliberation_block","","html-keyboard-response","149","897272","0.0-79.0-7.0-0.0","0","0","JAECO","Scenes","","1858","","","78","","","","","","","","","","","","","","","","","","","","","","","","","","","","","","","","","","","","","","","","","","","",""
"","fixation","","html-keyboard-response","150","898274","0.0-80.0-0.0","0","0","JAECO","Scenes","","null","","","null","","","","","","","","","","","","","","","","","","","","","","","","","","","","","","","","","","","","","","","","","","","",""
"","deliberation","","html-keyboard-response","151","900347","0.0-80.0-1.0","0","0","JAECO","Scenes","","2073","","","75","","","","24","118","102","0","-1","43","74","henry-be-NLF6hTe4PAg-unsplash.jpg","anisur-rahman-K2b7UDed6uQ-unsplash.jpg","3","0","102","118","","","","","","","","","","","","","","","","","","","","","","","","","","","",""
"","choice_confirmation","","html-keyboard-response","152","900848","0.0-80.0-2.0-0.0","0","0","JAECO","Scenes","","null","","","null","","","","24","118","102","","","","","","","","","","","","","","","","","","","","","","","","","","","","","","","","","","","","","",""
"","fixation","","html-keyboard-response","153","901850","0.0-81.0-0.0","0","0","JAECO","Scenes","","null","","","null","","","","","","","","","","","","","","","","","","","","","","","","","","","","","","","","","","","","","","","","","","","",""
"","deliberation","","html-keyboard-response","154","902778","0.0-81.0-1.0","0","0","JAECO","Scenes","","928","","","75","","","","25","149","146","0","1","73","52","yuriy-bogdanov-W51VK3Obcj0-unsplash.jpg","thomas-morse-cuKKa0vWZSY-unsplash.jpg","3","0","146","149","","","","","","","","","","","","","","","","","","","","","","","","","","","",""
"","choice_confirmation","","html-keyboard-response","155","903281","0.0-81.0-2.0-0.0","0","0","JAECO","Scenes","","null","","","null","","","","25","149","146","","","","","","","","","","","","","","","","","","","","","","","","","","","","","","","","","","","","","",""
"","fixation","","html-keyboard-response","156","904283","0.0-82.0-0.0","0","0","JAECO","Scenes","","null","","","null","","","","","","","","","","","","","","","","","","","","","","","","","","","","","","","","","","","","","","","","","","","",""
"","deliberation","","html-keyboard-response","157","906156","0.0-82.0-1.0","0","0","JAECO","Scenes","","1872","","","68","","","","26","144","114","0","1","58","74","solotravelgoals-7kLufxYoqWk-unsplash.jpg","daniel-sessler-z_9VmsxR8hs-unsplash.jpg","3","1","144","114","","","","","","","","","","","","","","","","","","","","","","","","","","","",""
"","choice_confirmation","","html-keyboard-response","158","906657","0.0-82.0-2.0-0.0","0","0","JAECO","Scenes","","null","","","null","","","","26","144","114","","","","","","","","","","","","","","","","","","","","","","","","","","","","","","","","","","","","","",""
"","fixation","","html-keyboard-response","159","907660","0.0-83.0-0.0","0","0","JAECO","Scenes","","null","","","null","","","","","","","","","","","","","","","","","","","","","","","","","","","","","","","","","","","","","","","","","","","",""
"","deliberation","","html-keyboard-response","160","909355","0.0-83.0-1.0","0","0","JAECO","Scenes","","1695","","","68","","","","27","121","107","0","-1","74","73","jean-pierre-brungs-qxCqkbF7tUc-unsplash.jpg","benjamin-davies-Zm2n2O7Fph4-unsplash.jpg","3","1","121","107","","","","","","","","","","","","","","","","","","","","","","","","","","","",""
"","choice_confirmation","","html-keyboard-response","161","909857","0.0-83.0-2.0-0.0","0","0","JAECO","Scenes","","null","","","null","","","","27","121","107","","","","","","","","","","","","","","","","","","","","","","","","","","","","","","","","","","","","","",""
"","fixation","","html-keyboard-response","162","910859","0.0-84.0-0.0","0","0","JAECO","Scenes","","null","","","null","","","","","","","","","","","","","","","","","","","","","","","","","","","","","","","","","","","","","","","","","","","",""
"","deliberation","","html-keyboard-response","163","912379","0.0-84.0-1.0","0","0","JAECO","Scenes","","1519","","","75","","","","28","134","131","0","1","66","69","milada-vigerova-pQMM63GE7fo-unsplash.jpg","luca-bravo-hFzIoD0F_i8-unsplash.jpg","3","0","131","134","","","","","","","","","","","","","","","","","","","","","","","","","","","",""
"","choice_confirmation","","html-keyboard-response","164","912881","0.0-84.0-2.0-0.0","0","0","JAECO","Scenes","","null","","","null","","","","28","134","131","","","","","","","","","","","","","","","","","","","","","","","","","","","","","","","","","","","","","",""
"","fixation","","html-keyboard-response","165","913883","0.0-85.0-0.0","0","0","JAECO","Scenes","","null","","","null","","","","","","","","","","","","","","","","","","","","","","","","","","","","","","","","","","","","","","","","","","","",""
"","deliberation","","html-keyboard-response","166","915057","0.0-85.0-1.0","0","0","JAECO","Scenes","","1173","","","68","","","","29","112","148","0","1","72","78","cosmic-timetraveler-pYyOZ8q7AII-unsplash.jpg","tom-gainor-ZqLeQDjY6fY-unsplash.jpg","3","1","112","148","","","","","","","","","","","","","","","","","","","","","","","","","","","",""
"","choice_confirmation","","html-keyboard-response","167","915559","0.0-85.0-2.0-0.0","0","0","JAECO","Scenes","","null","","","null","","","","29","112","148","","","","","","","","","","","","","","","","","","","","","","","","","","","","","","","","","","","","","",""
"","fixation","","html-keyboard-response","168","916560","0.0-86.0-0.0","0","0","JAECO","Scenes","","null","","","null","","","","","","","","","","","","","","","","","","","","","","","","","","","","","","","","","","","","","","","","","","","",""
"","deliberation","","html-keyboard-response","169","917256","0.0-86.0-1.0","0","0","JAECO","Scenes","","694","","","68","","","","30","122","115","0","-1","73","43","jeff-king-bJHWJeiHfHc-unsplash.jpg","darrell-cassell-hoCXpPUMCoE-unsplash.jpg","3","1","122","115","","","","","","","","","","","","","","","","","","","","","","","","","","","",""
"","choice_confirmation","","html-keyboard-response","170","917757","0.0-86.0-2.0-0.0","0","0","JAECO","Scenes","","null","","","null","","","","30","122","115","","","","","","","","","","","","","","","","","","","","","","","","","","","","","","","","","","","","","",""
"","fixation","","html-keyboard-response","171","918759","0.0-87.0-0.0","0","0","JAECO","Scenes","","null","","","null","","","","","","","","","","","","","","","","","","","","","","","","","","","","","","","","","","","","","","","","","","","",""
"","deliberation","","html-keyboard-response","172","919864","0.0-87.0-1.0","0","0","JAECO","Scenes","","1104","","","68","","","","31","135","127","0","-1","73","71","mohammad-alizade-4wzRuAb-KWs-unsplash.jpg","kace-rodriguez-p3OzJuT_Dks-unsplash.jpg","3","1","135","127","","","","","","","","","","","","","","","","","","","","","","","","","","","",""
"","choice_confirmation","","html-keyboard-response","173","920366","0.0-87.0-2.0-0.0","0","0","JAECO","Scenes","","null","","","null","","","","31","135","127","","","","","","","","","","","","","","","","","","","","","","","","","","","","","","","","","","","","","",""
"","fixation","","html-keyboard-response","174","921367","0.0-88.0-0.0","0","0","JAECO","Scenes","","null","","","null","","","","","","","","","","","","","","","","","","","","","","","","","","","","","","","","","","","","","","","","","","","",""
"","deliberation","","html-keyboard-response","175","922762","0.0-88.0-1.0","0","0","JAECO","Scenes","","1394","","","75","","","","32","101","109","0","1","71","76","aniket-deole-T-tOgjWZ0fQ-unsplash.jpg","brigitta-schneiter-hXXRLtTxXCU-unsplash.jpg","3","0","109","101","","","","","","","","","","","","","","","","","","","","","","","","","","","",""
"","choice_confirmation","","html-keyboard-response","176","923265","0.0-88.0-2.0-0.0","0","0","JAECO","Scenes","","null","","","null","","","","32","101","109","","","","","","","","","","","","","","","","","","","","","","","","","","","","","","","","","","","","","",""
"","fixation","","html-keyboard-response","177","924267","0.0-89.0-0.0","0","0","JAECO","Scenes","","null","","","null","","","","","","","","","","","","","","","","","","","","","","","","","","","","","","","","","","","","","","","","","","","",""
"","deliberation","","html-keyboard-response","178","925794","0.0-89.0-1.0","0","0","JAECO","Scenes","","1526","","","75","","","","33","129","141","0","1","59","74","kurt-cotoaga-cqbLg3lZEpk-unsplash.jpg","sebastian-unrau-v4e3JI7DDHI-unsplash.jpg","3","0","141","129","","","","","","","","","","","","","","","","","","","","","","","","","","","",""
"","choice_confirmation","","html-keyboard-response","179","926295","0.0-89.0-2.0-0.0","0","0","JAECO","Scenes","","null","","","null","","","","33","129","141","","","","","","","","","","","","","","","","","","","","","","","","","","","","","","","","","","","","","",""
"","fixation","","html-keyboard-response","180","927297","0.0-90.0-0.0","0","0","JAECO","Scenes","","null","","","null","","","","","","","","","","","","","","","","","","","","","","","","","","","","","","","","","","","","","","","","","","","",""
"","deliberation","","html-keyboard-response","181","928698","0.0-90.0-1.0","0","0","JAECO","Scenes","","1400","","","75","","","","34","123","143","0","-1","72","64","joel-jasmin-forestbird-efuwb5eBDrI-unsplash.jpg","sigurdur-fjalar-jonsson-1KxBabIntpE-unsplash.jpg","3","0","143","123","","","","","","","","","","","","","","","","","","","","","","","","","","","",""
"","choice_confirmation","","html-keyboard-response","182","929200","0.0-90.0-2.0-0.0","0","0","JAECO","Scenes","","null","","","null","","","","34","123","143","","","","","","","","","","","","","","","","","","","","","","","","","","","","","","","","","","","","","",""
"","fixation","","html-keyboard-response","183","930201","0.0-91.0-0.0","0","0","JAECO","Scenes","","null","","","null","","","","","","","","","","","","","","","","","","","","","","","","","","","","","","","","","","","","","","","","","","","",""
"","deliberation","","html-keyboard-response","184","931451","0.0-91.0-1.0","0","0","JAECO","Scenes","","1249","","","68","","","","35","130","100","0","-1","77","42","lina-loos-04-C1NZk1hE-unsplash.jpg","aleksandra-boguslawska-MS7KD9Ti7FQ-unsplash.jpg","3","1","130","100","","","","","","","","","","","","","","","","","","","","","","","","","","","",""
"","choice_confirmation","","html-keyboard-response","185","931958","0.0-91.0-2.0-0.0","0","0","JAECO","Scenes","","null","","","null","","","","35","130","100","","","","","","","","","","","","","","","","","","","","","","","","","","","","","","","","","","","","","",""
"","reward_learning_instructions","","instructions","186","1071726","0.0-92.0-0.0","0","0","JAECO","Scenes","[{""page_index"":0,""viewing_time"":7130},{""page_index"":1,""viewing_time"":131205},{""page_index"":2,""viewing_time"":1432}]","139768","","","","","","","","","","","","","","","","","","","","","","","","","","","","","","","","","","","","","","","","","","","","","","",""
"","reward_comprehension_check","","survey-multi-choice","187","1079163","0.0-92.0-1.0","0","0","JAECO","Scenes","","7433","{""Q0"":""True"",""Q1"":""True"",""Q2"":""Press the space bar to see its outcome"",""Q3"":""Press the relevant key while the outcome is presented""}","0","","","","","","","","","","","","","","","","","","","","","","","","","","","","","","","","","","","","","","","","","","","","",""
"","start_phase","","html-keyboard-response","188","1081008","0.0-93.0","0","0","JAECO","Scenes","","1844","","","78","","","","","","","","","","","","","","","","","","","","","","","","","","","","","","","","","","","","","","","","","","","",""
"","fixation","","html-keyboard-response","189","1082011","0.0-94.0","0","0","JAECO","Scenes","","null","","","null","","","","","","","","","","","","","","","","","","","","","","","","","","","","","","","","","","","","","","","","","","","",""
"","see_reward","","html-keyboard-response","190","1083030","0.0-95.0","0","0","JAECO","Scenes","","1019","","","32","","121","","0","","","","-1","","","","","1","","","","","0","1019","","","","","","","","","","","","","","","","","","","","","","","","",""
"","reward_outcome","","html-keyboard-response","191","1085032","0.0-96.0","0","0","JAECO","Scenes","","null","","","null","","121","","0","","","","","","","","","","","","","","","","NaN","null","","","","","","","","","","","","","","","","","","","","","","",""
"","respond_faster","","html-keyboard-response","192","1086534","0.0-97.0-0.0","1","0","JAECO","Scenes","","null","","","null","","","","","","","","","","","","","","","","","","","","","","","","","","","","","","","","","","","","","","","","","","","",""
"","fixation","","html-keyboard-response","193","1087536","0.0-99.0","0","0","JAECO","Scenes","","null","","","null","","","","","","","","","","","","","","","","","","","","","","","","","","","","","","","","","","","","","","","","","","","",""
"","see_reward","","html-keyboard-response","194","1089042","0.0-100.0","0","0","JAECO","Scenes","","1505","","","32","","131","","1","","","","1","","","","","1","","","","","158","1505","","","","","","","","","","","","","","","","","","","","","","","","",""
"","reward_outcome","","html-keyboard-response","195","1091045","0.0-101.0","0","0","JAECO","Scenes","","630","","","38","","131","","1","","","","","","","","","","","","","","","","1","630","","","","","","","","","","","","","","","","","","","","","","",""
"","fixation","","html-keyboard-response","196","1092046","0.0-104.0","0","0","JAECO","Scenes","","null","","","null","","","","","","","","","","","","","","","","","","","","","","","","","","","","","","","","","","","","","","","","","","","",""
"","see_reward","","html-keyboard-response","197","1092391","0.0-105.0","0","0","JAECO","Scenes","","344","","","32","","141","","2","","","","1","","","","","1","","","","","142","344","","","","","","","","","","","","","","","","","","","","","","","","",""
"","reward_outcome","","html-keyboard-response","198","1094393","0.0-106.0","0","0","JAECO","Scenes","","552","","","38","","141","","2","","","","","","","","","","","","","","","","1","552","","","","","","","","","","","","","","","","","","","","","","",""
"","fixation","","html-keyboard-response","199","1095396","0.0-109.0","0","0","JAECO","Scenes","","null","","","null","","","","","","","","","","","","","","","","","","","","","","","","","","","","","","","","","","","","","","","","","","","",""
"","see_reward","","html-keyboard-response","200","1095791","0.0-110.0","0","0","JAECO","Scenes","","394","","","32","","130","","3","","","","-1","","","","","1","","","","","0","394","","","","","","","","","","","","","","","","","","","","","","","","",""
"","reward_outcome","","html-keyboard-response","201","1097793","0.0-111.0","0","0","JAECO","Scenes","","579","","","40","","130","","3","","","","","","","","","","","","","","","","-1","579","","","","","","","","","","","","","","","","","","","","","","",""
"","fixation","","html-keyboard-response","202","1098796","0.0-114.0","0","0","JAECO","Scenes","","null","","","null","","","","","","","","","","","","","","","","","","","","","","","","","","","","","","","","","","","","","","","","","","","",""
"","see_reward","","html-keyboard-response","203","1099125","0.0-115.0","0","0","JAECO","Scenes","","328","","","32","","135","","4","","","","-1","","","","","1","","","","","0","328","","","","","","","","","","","","","","","","","","","","","","","","",""
"","reward_outcome","","html-keyboard-response","204","1101127","0.0-116.0","0","0","JAECO","Scenes","","659","","","40","","135","","4","","","","","","","","","","","","","","","","-1","659","","","","","","","","","","","","","","","","","","","","","","",""
"","fixation","","html-keyboard-response","205","1102130","0.0-119.0","0","0","JAECO","Scenes","","null","","","null","","","","","","","","","","","","","","","","","","","","","","","","","","","","","","","","","","","","","","","","","","","",""
"","see_reward","","html-keyboard-response","206","1102527","0.0-120.0","0","0","JAECO","Scenes","","397","","","32","","112","","5","","","","1","","","","","1","","","","","159","397","","","","","","","","","","","","","","","","","","","","","","","","",""
"","reward_outcome","","html-keyboard-response","207","1104529","0.0-121.0","0","0","JAECO","Scenes","","569","","","38","","112","","5","","","","","","","","","","","","","","","","1","569","","","","","","","","","","","","","","","","","","","","","","",""
"","fixation","","html-keyboard-response","208","1105531","0.0-124.0","0","0","JAECO","Scenes","","null","","","null","","","","","","","","","","","","","","","","","","","","","","","","","","","","","","","","","","","","","","","","","","","",""
"","see_reward","","html-keyboard-response","209","1105857","0.0-125.0","0","0","JAECO","Scenes","","325","","","32","","121","","6","","","","-1","","","","","1","","","","","0","325","","","","","","","","","","","","","","","","","","","","","","","","",""
"","reward_outcome","","html-keyboard-response","210","1107859","0.0-126.0","0","0","JAECO","Scenes","","426","","","40","","121","","6","","","","","","","","","","","","","","","","-1","426","","","","","","","","","","","","","","","","","","","","","","",""
"","fixation","","html-keyboard-response","211","1108861","0.0-129.0","0","0","JAECO","Scenes","","null","","","null","","","","","","","","","","","","","","","","","","","","","","","","","","","","","","","","","","","","","","","","","","","",""
"","see_reward","","html-keyboard-response","212","1109145","0.0-130.0","0","0","JAECO","Scenes","","283","","","32","","102","","7","","","","-1","","","","","1","","","","","0","283","","","","","","","","","","","","","","","","","","","","","","","","",""
"","reward_outcome","","html-keyboard-response","213","1111147","0.0-131.0","0","0","JAECO","Scenes","","499","","","40","","102","","7","","","","","","","","","","","","","","","","-1","499","","","","","","","","","","","","","","","","","","","","","","",""
"","fixation","","html-keyboard-response","214","1112149","0.0-134.0","0","0","JAECO","Scenes","","null","","","null","","","","","","","","","","","","","","","","","","","","","","","","","","","","","","","","","","","","","","","","","","","",""
"","see_reward","","html-keyboard-response","215","1112423","0.0-135.0","0","0","JAECO","Scenes","","273","","","32","","130","","8","","","","-1","","","","","1","","","","","0","273","","","","","","","","","","","","","","","","","","","","","","","","",""
"","reward_outcome","","html-keyboard-response","216","1114426","0.0-136.0","0","0","JAECO","Scenes","","564","","","40","","130","","8","","","","","","","","","","","","","","","","-1","564","","","","","","","","","","","","","","","","","","","","","","",""
"","fixation","","html-keyboard-response","217","1115429","0.0-139.0","0","0","JAECO","Scenes","","null","","","null","","","","","","","","","","","","","","","","","","","","","","","","","","","","","","","","","","","","","","","","","","","",""
"","see_reward","","html-keyboard-response","218","1115840","0.0-140.0","0","0","JAECO","Scenes","","410","","","32","","109","","9","","","","1","","","","","1","","","","","145","410","","","","","","","","","","","","","","","","","","","","","","","","",""
"","reward_outcome","","html-keyboard-response","219","1117842","0.0-141.0","0","0","JAECO","Scenes","","509","","","38","","109","","9","","","","","","","","","","","","","","","","1","509","","","","","","","","","","","","","","","","","","","","","","",""
"","fixation","","html-keyboard-response","220","1118844","0.0-144.0","0","0","JAECO","Scenes","","null","","","null","","","","","","","","","","","","","","","","","","","","","","","","","","","","","","","","","","","","","","","","","","","",""
"","see_reward","","html-keyboard-response","221","1119361","0.0-145.0","0","0","JAECO","Scenes","","516","","","32","","131","","10","","","","1","","","","","1","","","","","158","516","","","","","","","","","","","","","","","","","","","","","","","","",""
"","reward_outcome","","html-keyboard-response","222","1121363","0.0-146.0","0","0","JAECO","Scenes","","410","","","38","","131","","10","","","","","","","","","","","","","","","","1","410","","","","","","","","","","","","","","","","","","","","","","",""
"","fixation","","html-keyboard-response","223","1122365","0.0-149.0","0","0","JAECO","Scenes","","null","","","null","","","","","","","","","","","","","","","","","","","","","","","","","","","","","","","","","","","","","","","","","","","",""
"","see_reward","","html-keyboard-response","224","1122764","0.0-150.0","0","0","JAECO","Scenes","","399","","","32","","122","","11","","","","-1","","","","","1","","","","","0","399","","","","","","","","","","","","","","","","","","","","","","","","",""
"","reward_outcome","","html-keyboard-response","225","1124767","0.0-151.0","0","0","JAECO","Scenes","","392","","","40","","122","","11","","","","","","","","","","","","","","","","-1","392","","","","","","","","","","","","","","","","","","","","","","",""
"","fixation","","html-keyboard-response","226","1125769","0.0-154.0","0","0","JAECO","Scenes","","null","","","null","","","","","","","","","","","","","","","","","","","","","","","","","","","","","","","","","","","","","","","","","","","",""
"","see_reward","","html-keyboard-response","227","1126035","0.0-155.0","0","0","JAECO","Scenes","","265","","","32","","141","","12","","","","1","","","","","1","","","","","142","265","","","","","","","","","","","","","","","","","","","","","","","","",""
"","reward_outcome","","html-keyboard-response","228","1128037","0.0-156.0","0","0","JAECO","Scenes","","565","","","38","","141","","12","","","","","","","","","","","","","","","","1","565","","","","","","","","","","","","","","","","","","","","","","",""
"","fixation","","html-keyboard-response","229","1129039","0.0-159.0","0","0","JAECO","Scenes","","null","","","null","","","","","","","","","","","","","","","","","","","","","","","","","","","","","","","","","","","","","","","","","","","",""
"","see_reward","","html-keyboard-response","230","1129320","0.0-160.0","0","0","JAECO","Scenes","","279","","","32","","146","","13","","","","1","","","","","1","","","","","150","279","","","","","","","","","","","","","","","","","","","","","","","","",""
"","reward_outcome","","html-keyboard-response","231","1131321","0.0-161.0","0","0","JAECO","Scenes","","406","","","38","","146","","13","","","","","","","","","","","","","","","","1","406","","","","","","","","","","","","","","","","","","","","","","",""
"","fixation","","html-keyboard-response","232","1132324","0.0-164.0","0","0","JAECO","Scenes","","null","","","null","","","","","","","","","","","","","","","","","","","","","","","","","","","","","","","","","","","","","","","","","","","",""
"","see_reward","","html-keyboard-response","233","1132582","0.0-165.0","0","0","JAECO","Scenes","","258","","","32","","144","","14","","","","1","","","","","1","","","","","149","258","","","","","","","","","","","","","","","","","","","","","","","","",""
"","reward_outcome","","html-keyboard-response","234","1134584","0.0-166.0","0","0","JAECO","Scenes","","411","","","38","","144","","14","","","","","","","","","","","","","","","","1","411","","","","","","","","","","","","","","","","","","","","","","",""
"","fixation","","html-keyboard-response","235","1135586","0.0-169.0","0","0","JAECO","Scenes","","null","","","null","","","","","","","","","","","","","","","","","","","","","","","","","","","","","","","","","","","","","","","","","","","",""
"","see_reward","","html-keyboard-response","236","1135963","0.0-170.0","0","0","JAECO","Scenes","","376","","","32","","143","","15","","","","-1","","","","","1","","","","","0","376","","","","","","","","","","","","","","","","","","","","","","","","",""
"","reward_outcome","","html-keyboard-response","237","1137965","0.0-171.0","0","0","JAECO","Scenes","","520","","","40","","143","","15","","","","","","","","","","","","","","","","-1","520","","","","","","","","","","","","","","","","","","","","","","",""
"","fixation","","html-keyboard-response","238","1138967","0.0-174.0","0","0","JAECO","Scenes","","null","","","null","","","","","","","","","","","","","","","","","","","","","","","","","","","","","","","","","","","","","","","","","","","",""
"","see_reward","","html-keyboard-response","239","1139206","0.0-175.0","0","0","JAECO","Scenes","","237","","","32","","144","","16","","","","1","","","","","1","","","","","149","237","","","","","","","","","","","","","","","","","","","","","","","","",""
"","reward_outcome","","html-keyboard-response","240","1141208","0.0-176.0","0","0","JAECO","Scenes","","431","","","38","","144","","16","","","","","","","","","","","","","","","","1","431","","","","","","","","","","","","","","","","","","","","","","",""
"","fixation","","html-keyboard-response","241","1142209","0.0-179.0","0","0","JAECO","Scenes","","null","","","null","","","","","","","","","","","","","","","","","","","","","","","","","","","","","","","","","","","","","","","","","","","",""
"","see_reward","","html-keyboard-response","242","1142519","0.0-180.0","0","0","JAECO","Scenes","","309","","","32","","109","","17","","","","1","","","","","1","","","","","145","309","","","","","","","","","","","","","","","","","","","","","","","","",""
"","reward_outcome","","html-keyboard-response","243","1144521","0.0-181.0","0","0","JAECO","Scenes","","378","","","38","","109","","17","","","","","","","","","","","","","","","","1","378","","","","","","","","","","","","","","","","","","","","","","",""
"","fixation","","html-keyboard-response","244","1145523","0.0-184.0","0","0","JAECO","Scenes","","null","","","null","","","","","","","","","","","","","","","","","","","","","","","","","","","","","","","","","","","","","","","","","","","",""
"","see_reward","","html-keyboard-response","245","1145969","0.0-185.0","0","0","JAECO","Scenes","","445","","","32","","143","","18","","","","-1","","","","","1","","","","","0","445","","","","","","","","","","","","","","","","","","","","","","","","",""
"","reward_outcome","","html-keyboard-response","246","1147970","0.0-186.0","0","0","JAECO","Scenes","","646","","","40","","143","","18","","","","","","","","","","","","","","","","-1","646","","","","","","","","","","","","","","","","","","","","","","",""
"","fixation","","html-keyboard-response","247","1148972","0.0-189.0","0","0","JAECO","Scenes","","null","","","null","","","","","","","","","","","","","","","","","","","","","","","","","","","","","","","","","","","","","","","","","","","",""
"","see_reward","","html-keyboard-response","248","1149376","0.0-190.0","0","0","JAECO","Scenes","","403","","","32","","146","","19","","","","1","","","","","1","","","","","150","403","","","","","","","","","","","","","","","","","","","","","","","","",""
"","reward_outcome","","html-keyboard-response","249","1151378","0.0-191.0","0","0","JAECO","Scenes","","465","","","38","","146","","19","","","","","","","","","","","","","","","","1","465","","","","","","","","","","","","","","","","","","","","","","",""
"","fixation","","html-keyboard-response","250","1152380","0.0-194.0","0","0","JAECO","Scenes","","null","","","null","","","","","","","","","","","","","","","","","","","","","","","","","","","","","","","","","","","","","","","","","","","",""
"","see_reward","","html-keyboard-response","251","1152753","0.0-195.0","0","0","JAECO","Scenes","","372","","","32","","135","","20","","","","-1","","","","","1","","","","","0","372","","","","","","","","","","","","","","","","","","","","","","","","",""
"","reward_outcome","","html-keyboard-response","252","1154756","0.0-196.0","0","0","JAECO","Scenes","","516","","","40","","135","","20","","","","","","","","","","","","","","","","-1","516","","","","","","","","","","","","","","","","","","","","","","",""
"","fixation","","html-keyboard-response","253","1155757","0.0-199.0","0","0","JAECO","Scenes","","null","","","null","","","","","","","","","","","","","","","","","","","","","","","","","","","","","","","","","","","","","","","","","","","",""
"","see_reward","","html-keyboard-response","254","1156148","0.0-200.0","0","0","JAECO","Scenes","","389","","","32","","122","","21","","","","-1","","","","","1","","","","","0","389","","","","","","","","","","","","","","","","","","","","","","","","",""
"","reward_outcome","","html-keyboard-response","255","1158151","0.0-201.0","0","0","JAECO","Scenes","","505","","","40","","122","","21","","","","","","","","","","","","","","","","-1","505","","","","","","","","","","","","","","","","","","","","","","",""
"","fixation","","html-keyboard-response","256","1159153","0.0-204.0","0","0","JAECO","Scenes","","null","","","null","","","","","","","","","","","","","","","","","","","","","","","","","","","","","","","","","","","","","","","","","","","",""
"","see_reward","","html-keyboard-response","257","1159422","0.0-205.0","0","0","JAECO","Scenes","","268","","","32","","102","","22","","","","-1","","","","","1","","","","","0","268","","","","","","","","","","","","","","","","","","","","","","","","",""
"","reward_outcome","","html-keyboard-response","258","1161424","0.0-206.0","0","0","JAECO","Scenes","","505","","","40","","102","","22","","","","","","","","","","","","","","","","-1","505","","","","","","","","","","","","","","","","","","","","","","",""
"","fixation","","html-keyboard-response","259","1162425","0.0-209.0","0","0","JAECO","Scenes","","null","","","null","","","","","","","","","","","","","","","","","","","","","","","","","","","","","","","","","","","","","","","","","","","",""
"","see_reward","","html-keyboard-response","260","1162814","0.0-210.0","0","0","JAECO","Scenes","","388","","","32","","112","","23","","","","1","","","","","1","","","","","159","388","","","","","","","","","","","","","","","","","","","","","","","","",""
"","reward_outcome","","html-keyboard-response","261","1164817","0.0-211.0","0","0","JAECO","Scenes","","494","","","38","","112","","23","","","","","","","","","","","","","","","","1","494","","","","","","","","","","","","","","","","","","","","","","",""
"","block_over","","html-keyboard-response","262","1167852","0.0-213.0-0.0","0","0","JAECO","Scenes","","3034","","","78","","","","","","","","","","","","","","","","","","","","","","","","","","","","","","","","","","","","","","","","","","","",""
"","fixation","","html-keyboard-response","263","1168854","0.0-214.0","0","0","JAECO","Scenes","","null","","","null","","","","","","","","","","","","","","","","","","","","","","","","","","","","","","","","","","","","","","","","","","","",""
"","see_reward","","html-keyboard-response","264","1169481","0.0-215.0","0","0","JAECO","Scenes","","626","","","32","","144","","24","","","","1","","","","","2","","","","","149","626","","","","","","","","","","","","","","","","","","","","","","","","",""
"","reward_outcome","","html-keyboard-response","265","1171483","0.0-216.0","0","0","JAECO","Scenes","","544","","","38","","144","","24","","","","","","","","","","","","","","","","1","544","","","","","","","","","","","","","","","","","","","","","","",""
"","fixation","","html-keyboard-response","266","1172486","0.0-219.0","0","0","JAECO","Scenes","","null","","","null","","","","","","","","","","","","","","","","","","","","","","","","","","","","","","","","","","","","","","","","","","","",""
"","see_reward","","html-keyboard-response","267","1172852","0.0-220.0","0","0","JAECO","Scenes","","365","","","32","","146","","25","","","","1","","","","","2","","","","","150","365","","","","","","","","","","","","","","","","","","","","","","","","",""
"","reward_outcome","","html-keyboard-response","268","1174853","0.0-221.0","0","0","JAECO","Scenes","","458","","","38","","146","","25","","","","","","","","","","","","","","","","1","458","","","","","","","","","","","","","","","","","","","","","","",""
"","fixation","","html-keyboard-response","269","1175854","0.0-224.0","0","0","JAECO","Scenes","","null","","","null","","","","","","","","","","","","","","","","","","","","","","","","","","","","","","","","","","","","","","","","","","","",""
"","see_reward","","html-keyboard-response","270","1176364","0.0-225.0","0","0","JAECO","Scenes","","509","","","32","","102","","26","","","","-1","","","","","2","","","","","0","509","","","","","","","","","","","","","","","","","","","","","","","","",""
"","reward_outcome","","html-keyboard-response","271","1178365","0.0-226.0","0","0","JAECO","Scenes","","426","","","40","","102","","26","","","","","","","","","","","","","","","","-1","426","","","","","","","","","","","","","","","","","","","","","","",""
"","fixation","","html-keyboard-response","272","1179368","0.0-229.0","0","0","JAECO","Scenes","","null","","","null","","","","","","","","","","","","","","","","","","","","","","","","","","","","","","","","","","","","","","","","","","","",""
"","see_reward","","html-keyboard-response","273","1179636","0.0-230.0","0","0","JAECO","Scenes","","268","","","32","","130","","27","","","","-1","","","","","2","","","","","0","268","","","","","","","","","","","","","","","","","","","","","","","","",""
"","reward_outcome","","html-keyboard-response","274","1181639","0.0-231.0","0","0","JAECO","Scenes","","469","","","40","","130","","27","","","","","","","","","","","","","","","","-1","469","","","","","","","","","","","","","","","","","","","","","","",""
"","fixation","","html-keyboard-response","275","1182641","0.0-234.0","0","0","JAECO","Scenes","","null","","","null","","","","","","","","","","","","","","","","","","","","","","","","","","","","","","","","","","","","","","","","","","","",""
"","see_reward","","html-keyboard-response","276","1183329","0.0-235.0","0","0","JAECO","Scenes","","687","","","32","","135","","28","","","","-1","","","","","2","","","","","0","687","","","","","","","","","","","","","","","","","","","","","","","","",""
"","reward_outcome","","html-keyboard-response","277","1185331","0.0-236.0","0","0","JAECO","Scenes","","652","","","40","","135","","28","","","","","","","","","","","","","","","","-1","652","","","","","","","","","","","","","","","","","","","","","","",""
"","fixation","","html-keyboard-response","278","1186332","0.0-239.0","0","0","JAECO","Scenes","","null","","","null","","","","","","","","","","","","","","","","","","","","","","","","","","","","","","","","","","","","","","","","","","","",""
"","see_reward","","html-keyboard-response","279","1186722","0.0-240.0","0","0","JAECO","Scenes","","389","","","32","","131","","29","","","","1","","","","","2","","","","","158","389","","","","","","","","","","","","","","","","","","","","","","","","",""
"","reward_outcome","","html-keyboard-response","280","1188724","0.0-241.0","0","0","JAECO","Scenes","","389","","","38","","131","","29","","","","","","","","","","","","","","","","1","389","","","","","","","","","","","","","","","","","","","","","","",""
"","fixation","","html-keyboard-response","281","1189725","0.0-244.0","0","0","JAECO","Scenes","","null","","","null","","","","","","","","","","","","","","","","","","","","","","","","","","","","","","","","","","","","","","","","","","","",""
"","see_reward","","html-keyboard-response","282","1189956","0.0-245.0","0","0","JAECO","Scenes","","230","","","32","","109","","30","","","","1","","","","","2","","","","","145","230","","","","","","","","","","","","","","","","","","","","","","","","",""
"","reward_outcome","","html-keyboard-response","283","1191958","0.0-246.0","0","0","JAECO","Scenes","","437","","","38","","109","","30","","","","","","","","","","","","","","","","1","437","","","","","","","","","","","","","","","","","","","","","","",""
"","fixation","","html-keyboard-response","284","1192960","0.0-249.0","0","0","JAECO","Scenes","","null","","","null","","","","","","","","","","","","","","","","","","","","","","","","","","","","","","","","","","","","","","","","","","","",""
"","see_reward","","html-keyboard-response","285","1193302","0.0-250.0","0","0","JAECO","Scenes","","341","","","32","","102","","31","","","","-1","","","","","2","","","","","0","341","","","","","","","","","","","","","","","","","","","","","","","","",""
"","reward_outcome","","html-keyboard-response","286","1195304","0.0-251.0","0","0","JAECO","Scenes","","335","","","40","","102","","31","","","","","","","","","","","","","","","","-1","335","","","","","","","","","","","","","","","","","","","","","","",""
"","fixation","","html-keyboard-response","287","1196306","0.0-254.0","0","0","JAECO","Scenes","","null","","","null","","","","","","","","","","","","","","","","","","","","","","","","","","","","","","","","","","","","","","","","","","","",""
"","see_reward","","html-keyboard-response","288","1196554","0.0-255.0","0","0","JAECO","Scenes","","247","","","32","","130","","32","","","","-1","","","","","2","","","","","0","247","","","","","","","","","","","","","","","","","","","","","","","","",""
"","reward_outcome","","html-keyboard-response","289","1198556","0.0-256.0","0","0","JAECO","Scenes","","348","","","40","","130","","32","","","","","","","","","","","","","","","","-1","348","","","","","","","","","","","","","","","","","","","","","","",""
"","fixation","","html-keyboard-response","290","1199558","0.0-259.0","0","0","JAECO","Scenes","","null","","","null","","","","","","","","","","","","","","","","","","","","","","","","","","","","","","","","","","","","","","","","","","","",""
"","see_reward","","html-keyboard-response","291","1199983","0.0-260.0","0","0","JAECO","Scenes","","424","","","32","","143","","33","","","","-1","","","","","2","","","","","0","424","","","","","","","","","","","","","","","","","","","","","","","","",""
"","reward_outcome","","html-keyboard-response","292","1201986","0.0-261.0","0","0","JAECO","Scenes","","597","","","40","","143","","33","","","","","","","","","","","","","","","","-1","597","","","","","","","","","","","","","","","","","","","","","","",""
"","fixation","","html-keyboard-response","293","1202987","0.0-264.0","0","0","JAECO","Scenes","","null","","","null","","","","","","","","","","","","","","","","","","","","","","","","","","","","","","","","","","","","","","","","","","","",""
"","see_reward","","html-keyboard-response","294","1203541","0.0-265.0","0","0","JAECO","Scenes","","553","","","32","","144","","34","","","","1","","","","","2","","","","","149","553","","","","","","","","","","","","","","","","","","","","","","","","",""
"","reward_outcome","","html-keyboard-response","295","1205543","0.0-266.0","0","0","JAECO","Scenes","","303","","","38","","144","","34","","","","","","","","","","","","","","","","1","303","","","","","","","","","","","","","","","","","","","","","","",""
"","fixation","","html-keyboard-response","296","1206544","0.0-269.0","0","0","JAECO","Scenes","","null","","","null","","","","","","","","","","","","","","","","","","","","","","","","","","","","","","","","","","","","","","","","","","","",""
"","see_reward","","html-keyboard-response","297","1206905","0.0-270.0","0","0","JAECO","Scenes","","360","","","32","","112","","35","","","","1","","","","","2","","","","","159","360","","","","","","","","","","","","","","","","","","","","","","","","",""
"","reward_outcome","","html-keyboard-response","298","1208907","0.0-271.0","0","0","JAECO","Scenes","","351","","","38","","112","","35","","","","","","","","","","","","","","","","1","351","","","","","","","","","","","","","","","","","","","","","","",""
"","fixation","","html-keyboard-response","299","1209909","0.0-274.0","0","0","JAECO","Scenes","","null","","","null","","","","","","","","","","","","","","","","","","","","","","","","","","","","","","","","","","","","","","","","","","","",""
"","see_reward","","html-keyboard-response","300","1210202","0.0-275.0","0","0","JAECO","Scenes","","292","","","32","","122","","36","","","","-1","","","","","2","","","","","0","292","","","","","","","","","","","","","","","","","","","","","","","","",""
"","reward_outcome","","html-keyboard-response","301","1212205","0.0-276.0","0","0","JAECO","Scenes","","383","","","40","","122","","36","","","","","","","","","","","","","","","","-1","383","","","","","","","","","","","","","","","","","","","","","","",""
"","fixation","","html-keyboard-response","302","1213206","0.0-279.0","0","0","JAECO","Scenes","","null","","","null","","","","","","","","","","","","","","","","","","","","","","","","","","","","","","","","","","","","","","","","","","","",""
"","see_reward","","html-keyboard-response","303","1213478","0.0-280.0","0","0","JAECO","Scenes","","271","","","32","","143","","37","","","","-1","","","","","2","","","","","0","271","","","","","","","","","","","","","","","","","","","","","","","","",""
"","reward_outcome","","html-keyboard-response","304","1215480","0.0-281.0","0","0","JAECO","Scenes","","450","","","40","","143","","37","","","","","","","","","","","","","","","","-1","450","","","","","","","","","","","","","","","","","","","","","","",""
"","fixation","","html-keyboard-response","305","1216483","0.0-284.0","0","0","JAECO","Scenes","","null","","","null","","","","","","","","","","","","","","","","","","","","","","","","","","","","","","","","","","","","","","","","","","","",""
"","see_reward","","html-keyboard-response","306","1216693","0.0-285.0","0","0","JAECO","Scenes","","209","","","32","","112","","38","","","","1","","","","","2","","","","","159","209","","","","","","","","","","","","","","","","","","","","","","","","",""
"","reward_outcome","","html-keyboard-response","307","1218696","0.0-286.0","0","0","JAECO","Scenes","","389","","","38","","112","","38","","","","","","","","","","","","","","","","1","389","","","","","","","","","","","","","","","","","","","","","","",""
"","fixation","","html-keyboard-response","308","1219698","0.0-289.0","0","0","JAECO","Scenes","","null","","","null","","","","","","","","","","","","","","","","","","","","","","","","","","","","","","","","","","","","","","","","","","","",""
"","see_reward","","html-keyboard-response","309","1219967","0.0-290.0","0","0","JAECO","Scenes","","267","","","32","","141","","39","","","","1","","","","","2","","","","","142","267","","","","","","","","","","","","","","","","","","","","","","","","",""
"","reward_outcome","","html-keyboard-response","310","1221969","0.0-291.0","0","0","JAECO","Scenes","","377","","","38","","141","","39","","","","","","","","","","","","","","","","1","377","","","","","","","","","","","","","","","","","","","","","","",""
"","fixation","","html-keyboard-response","311","1222971","0.0-294.0","0","0","JAECO","Scenes","","null","","","null","","","","","","","","","","","","","","","","","","","","","","","","","","","","","","","","","","","","","","","","","","","",""
"","see_reward","","html-keyboard-response","312","1223214","0.0-295.0","0","0","JAECO","Scenes","","242","","","32","","122","","40","","","","-1","","","","","2","","","","","0","242","","","","","","","","","","","","","","","","","","","","","","","","",""
"","reward_outcome","","html-keyboard-response","313","1225215","0.0-296.0","0","0","JAECO","Scenes","","345","","","40","","122","","40","","","","","","","","","","","","","","","","-1","345","","","","","","","","","","","","","","","","","","","","","","",""
"","fixation","","html-keyboard-response","314","1226217","0.0-299.0","0","0","JAECO","Scenes","","null","","","null","","","","","","","","","","","","","","","","","","","","","","","","","","","","","","","","","","","","","","","","","","","",""
"","see_reward","","html-keyboard-response","315","1226477","0.0-300.0","0","0","JAECO","Scenes","","260","","","32","","146","","41","","","","1","","","","","2","","","","","150","260","","","","","","","","","","","","","","","","","","","","","","","","",""
"","reward_outcome","","html-keyboard-response","316","1228479","0.0-301.0","0","0","JAECO","Scenes","","301","","","38","","146","","41","","","","","","","","","","","","","","","","1","301","","","","","","","","","","","","","","","","","","","","","","",""
"","fixation","","html-keyboard-response","317","1229481","0.0-304.0","0","0","JAECO","Scenes","","null","","","null","","","","","","","","","","","","","","","","","","","","","","","","","","","","","","","","","","","","","","","","","","","",""
"","see_reward","","html-keyboard-response","318","1229742","0.0-305.0","0","0","JAECO","Scenes","","259","","","32","","109","","42","","","","1","","","","","2","","","","","145","259","","","","","","","","","","","","","","","","","","","","","","","","",""
"","reward_outcome","","html-keyboard-response","319","1231743","0.0-306.0","0","0","JAECO","Scenes","","462","","","38","","109","","42","","","","","","","","","","","","","","","","1","462","","","","","","","","","","","","","","","","","","","","","","",""
"","fixation","","html-keyboard-response","320","1232745","0.0-309.0","0","0","JAECO","Scenes","","null","","","null","","","","","","","","","","","","","","","","","","","","","","","","","","","","","","","","","","","","","","","","","","","",""
"","see_reward","","html-keyboard-response","321","1233104","0.0-310.0","0","0","JAECO","Scenes","","358","","","32","","121","","43","","","","-1","","","","","2","","","","","0","358","","","","","","","","","","","","","","","","","","","","","","","","",""
"","reward_outcome","","html-keyboard-response","322","1235106","0.0-311.0","0","0","JAECO","Scenes","","449","","","40","","121","","43","","","","","","","","","","","","","","","","-1","449","","","","","","","","","","","","","","","","","","","","","","",""
"","fixation","","html-keyboard-response","323","1236108","0.0-314.0","0","0","JAECO","Scenes","","null","","","null","","","","","","","","","","","","","","","","","","","","","","","","","","","","","","","","","","","","","","","","","","","",""
"","see_reward","","html-keyboard-response","324","1236446","0.0-315.0","0","0","JAECO","Scenes","","337","","","32","","121","","44","","","","-1","","","","","2","","","","","0","337","","","","","","","","","","","","","","","","","","","","","","","","",""
"","reward_outcome","","html-keyboard-response","325","1238448","0.0-316.0","0","0","JAECO","Scenes","","271","","","40","","121","","44","","","","","","","","","","","","","","","","-1","271","","","","","","","","","","","","","","","","","","","","","","",""
"","fixation","","html-keyboard-response","326","1239451","0.0-319.0","0","0","JAECO","Scenes","","null","","","null","","","","","","","","","","","","","","","","","","","","","","","","","","","","","","","","","","","","","","","","","","","",""
"","see_reward","","html-keyboard-response","327","1239736","0.0-320.0","0","0","JAECO","Scenes","","285","","","32","","141","","45","","","","1","","","","","2","","","","","142","285","","","","","","","","","","","","","","","","","","","","","","","","",""
"","reward_outcome","","html-keyboard-response","328","1241738","0.0-321.0","0","0","JAECO","Scenes","","402","","","38","","141","","45","","","","","","","","","","","","","","","","1","402","","","","","","","","","","","","","","","","","","","","","","",""
"","fixation","","html-keyboard-response","329","1242741","0.0-324.0","0","0","JAECO","Scenes","","null","","","null","","","","","","","","","","","","","","","","","","","","","","","","","","","","","","","","","","","","","","","","","","","",""
"","see_reward","","html-keyboard-response","330","1243091","0.0-325.0","0","0","JAECO","Scenes","","349","","","32","","135","","46","","","","-1","","","","","2","","","","","0","349","","","","","","","","","","","","","","","","","","","","","","","","",""
"","reward_outcome","","html-keyboard-response","331","1245093","0.0-326.0","0","0","JAECO","Scenes","","360","","","40","","135","","46","","","","","","","","","","","","","","","","-1","360","","","","","","","","","","","","","","","","","","","","","","",""
"","fixation","","html-keyboard-response","332","1246094","0.0-329.0","0","0","JAECO","Scenes","","null","","","null","","","","","","","","","","","","","","","","","","","","","","","","","","","","","","","","","","","","","","","","","","","",""
"","see_reward","","html-keyboard-response","333","1246413","0.0-330.0","0","0","JAECO","Scenes","","318","","","32","","131","","47","","","","1","","","","","2","","","","","158","318","","","","","","","","","","","","","","","","","","","","","","","","",""
"","reward_outcome","","html-keyboard-response","334","1248415","0.0-331.0","0","0","JAECO","Scenes","","501","","","38","","131","","47","","","","","","","","","","","","","","","","1","501","","","","","","","","","","","","","","","","","","","","","","",""
"","block_over","","html-keyboard-response","335","1249978","0.0-333.0-0.0","0","0","JAECO","Scenes","","1562","","","78","","","","","","","","","","","","","","","","","","","","","","","","","","","","","","","","","","","","","","","","","","","",""
"","fixation","","html-keyboard-response","336","1250980","0.0-334.0","0","0","JAECO","Scenes","","null","","","null","","","","","","","","","","","","","","","","","","","","","","","","","","","","","","","","","","","","","","","","","","","",""
"","see_reward","","html-keyboard-response","337","1251675","0.0-335.0","0","0","JAECO","Scenes","","693","","","32","","121","","48","","","","-1","","","","","3","","","","","0","693","","","","","","","","","","","","","","","","","","","","","","","","",""
"","reward_outcome","","html-keyboard-response","338","1253677","0.0-336.0","0","0","JAECO","Scenes","","254","","","40","","121","","48","","","","","","","","","","","","","","","","-1","254","","","","","","","","","","","","","","","","","","","","","","",""
"","fixation","","html-keyboard-response","339","1254679","0.0-339.0","0","0","JAECO","Scenes","","null","","","null","","","","","","","","","","","","","","","","","","","","","","","","","","","","","","","","","","","","","","","","","","","",""
"","see_reward","","html-keyboard-response","340","1254935","0.0-340.0","0","0","JAECO","Scenes","","255","","","32","","146","","49","","","","1","","","","","3","","","","","150","255","","","","","","","","","","","","","","","","","","","","","","","","",""
"","reward_outcome","","html-keyboard-response","341","1256937","0.0-341.0","0","0","JAECO","Scenes","","522","","","38","","146","","49","","","","","","","","","","","","","","","","1","522","","","","","","","","","","","","","","","","","","","","","","",""
"","fixation","","html-keyboard-response","342","1257939","0.0-344.0","0","0","JAECO","Scenes","","null","","","null","","","","","","","","","","","","","","","","","","","","","","","","","","","","","","","","","","","","","","","","","","","",""
"","see_reward","","html-keyboard-response","343","1258192","0.0-345.0","0","0","JAECO","Scenes","","252","","","32","","122","","50","","","","-1","","","","","3","","","","","0","252","","","","","","","","","","","","","","","","","","","","","","","","",""
"","reward_outcome","","html-keyboard-response","344","1260194","0.0-346.0","0","0","JAECO","Scenes","","331","","","40","","122","","50","","","","","","","","","","","","","","","","-1","331","","","","","","","","","","","","","","","","","","","","","","",""
"","fixation","","html-keyboard-response","345","1261196","0.0-349.0","0","0","JAECO","Scenes","","null","","","null","","","","","","","","","","","","","","","","","","","","","","","","","","","","","","","","","","","","","","","","","","","",""
"","see_reward","","html-keyboard-response","346","1261454","0.0-350.0","0","0","JAECO","Scenes","","257","","","32","","122","","51","","","","-1","","","","","3","","","","","0","257","","","","","","","","","","","","","","","","","","","","","","","","",""
"","reward_outcome","","html-keyboard-response","347","1263455","0.0-351.0","0","0","JAECO","Scenes","","275","","","40","","122","","51","","","","","","","","","","","","","","","","-1","275","","","","","","","","","","","","","","","","","","","","","","",""
"","fixation","","html-keyboard-response","348","1264457","0.0-354.0","0","0","JAECO","Scenes","","null","","","null","","","","","","","","","","","","","","","","","","","","","","","","","","","","","","","","","","","","","","","","","","","",""
"","see_reward","","html-keyboard-response","349","1264687","0.0-355.0","0","0","JAECO","Scenes","","229","","","32","","143","","52","","","","-1","","","","","3","","","","","0","229","","","","","","","","","","","","","","","","","","","","","","","","",""
