"success","ttype","start_time","trial_type","trial_index","time_elapsed","internal_node_id","warning","missed_checkup","PID","stim_type","view_history","rt","responses","repeat_instructions","key_press","response","stimulus_id","painting","index","stimulus_left","stimulus_right","explain_trial","reward_type","rating_left","rating_right","painting_left","painting_right","block","left_chosen","chosen_obj","unchosen_obj","explain_response","reward_amount","see_reward_rt","register_reward_response","register_reward_rt","deliberation_reward_tally","stimulus_left_deliberation_ind","stimulus_right_deliberation_ind","chosen_trial","gain_left","higher_outcome_chosen","old_pair","chosen_object","rt_pairs","left_object_chosen","rt_object","old_response","new_rating","deliberated_stim","initial_rating","outcome_eval_rt","outcome_eval_response","outcome_eval_gain","outcome_eval_acc","preamble","outcome_eval_confidence","outcome_eval_confidence_rt","total_reward_tally"
"true","full_screen","d01192023hr2048","fullscreen","0","12811","0.0-0.0","0","0","YHZzx","Scenes","","","","","","","","","","","","","","","","","","","","","","","","","","","","","","","","","","","","","","","","","","","","","","","","",""
"","rating_instructions","","instructions","1","22875","0.0-1.0-0.0","0","0","YHZzx","Scenes","[{""page_index"":0,""viewing_time"":8065},{""page_index"":1,""viewing_time"":1998}]","10063","","","","","","","","","","","","","","","","","","","","","","","","","","","","","","","","","","","","","","","","","","","","","","",""
"","rating_comprehension_check","","survey-multi-choice","2","28971","0.0-1.0-1.0","0","0","YHZzx","Scenes","","6094","{""Q0"":""True"",""Q1"":""Mouse""}","0","","","","","","","","","","","","","","","","","","","","","","","","","","","","","","","","","","","","","","","","","","","","",""
"","start_phase","","html-keyboard-response","3","31050","0.0-2.0","0","0","YHZzx","Scenes","","2077","","","78","","","","","","","","","","","","","","","","","","","","","","","","","","","","","","","","","","","","","","","","","","","",""
"","rating","","html-slider-response","4","34033","0.0-3.0","0","0","YHZzx","Scenes","","2982","","","","100","130","lina-loos-04-C1NZk1hE-unsplash.jpg","0","","","","","","","","","","","","","","","","","","","","","","","","","","","","","","","","","","","","","","","",""
"","rating","","html-slider-response","5","37024","0.0-4.0","0","0","YHZzx","Scenes","","2990","","","","82","144","solotravelgoals-7kLufxYoqWk-unsplash.jpg","1","","","","","","","","","","","","","","","","","","","","","","","","","","","","","","","","","","","","","","","",""
"","rating","","html-slider-response","6","39256","0.0-5.0","0","0","YHZzx","Scenes","","2232","","","","100","118","henry-be-NLF6hTe4PAg-unsplash.jpg","2","","","","","","","","","","","","","","","","","","","","","","","","","","","","","","","","","","","","","","","",""
"","rating","","html-slider-response","7","41894","0.0-6.0","0","0","YHZzx","Scenes","","2637","","","","70","117","frank-mckenna-OD9EOzfSOh0-unsplash.jpg","3","","","","","","","","","","","","","","","","","","","","","","","","","","","","","","","","","","","","","","","",""
"","rating","","html-slider-response","8","43989","0.0-7.0","0","0","YHZzx","Scenes","","2093","","","","100","146","thomas-morse-cuKKa0vWZSY-unsplash.jpg","4","","","","","","","","","","","","","","","","","","","","","","","","","","","","","","","","","","","","","","","",""
"","rating","","html-slider-response","9","46062","0.0-8.0","0","0","YHZzx","Scenes","","2073","","","","100","141","sebastian-unrau-v4e3JI7DDHI-unsplash.jpg","5","","","","","","","","","","","","","","","","","","","","","","","","","","","","","","","","","","","","","","","",""
"","rating","","html-slider-response","10","48533","0.0-9.0","0","0","YHZzx","Scenes","","2470","","","","86","148","tom-gainor-ZqLeQDjY6fY-unsplash.jpg","6","","","","","","","","","","","","","","","","","","","","","","","","","","","","","","","","","","","","","","","",""
"","rating","","html-slider-response","11","50756","0.0-10.0","0","0","YHZzx","Scenes","","2221","","","","73","147","tobias-keller-73F4pKoUkM0-unsplash.jpg","7","","","","","","","","","","","","","","","","","","","","","","","","","","","","","","","","","","","","","","","",""
"","rating","","html-slider-response","12","53659","0.0-11.0","0","0","YHZzx","Scenes","","2903","","","","100","142","sergey-pesterev-y-b_FOmJXdg-unsplash.jpg","8","","","","","","","","","","","","","","","","","","","","","","","","","","","","","","","","","","","","","","","",""
"","rating","","html-slider-response","13","56066","0.0-12.0","0","0","YHZzx","Scenes","","2406","","","","100","131","luca-bravo-hFzIoD0F_i8-unsplash.jpg","9","","","","","","","","","","","","","","","","","","","","","","","","","","","","","","","","","","","","","","","",""
"","rating","","html-slider-response","14","58640","0.0-13.0","0","0","YHZzx","Scenes","","2573","","","","58","103","anton-darius-FBJugtbHsWU-unsplash.jpg","10","","","","","","","","","","","","","","","","","","","","","","","","","","","","","","","","","","","","","","","",""
"","rating","","html-slider-response","15","60601","0.0-14.0","0","0","YHZzx","Scenes","","1961","","","","66","139","samsommer-vddccTqwal8-unsplash.jpg","11","","","","","","","","","","","","","","","","","","","","","","","","","","","","","","","","","","","","","","","",""
"","rating","","html-slider-response","16","63807","0.0-15.0","0","0","YHZzx","Scenes","","3205","","","","100","136","nicolas-jehly-LzVB84KkZOE-unsplash.jpg","12","","","","","","","","","","","","","","","","","","","","","","","","","","","","","","","","","","","","","","","",""
"","rating","","html-slider-response","17","67484","0.0-16.0","0","0","YHZzx","Scenes","","3677","","","","81","102","anisur-rahman-K2b7UDed6uQ-unsplash.jpg","13","","","","","","","","","","","","","","","","","","","","","","","","","","","","","","","","","","","","","","","",""
"","rating","","html-slider-response","18","69948","0.0-17.0","0","0","YHZzx","Scenes","","2463","","","","100","104","artem-sapegin-XGDBdSQ70O0-unsplash.jpg","14","","","","","","","","","","","","","","","","","","","","","","","","","","","","","","","","","","","","","","","",""
"","rating","","html-slider-response","19","72012","0.0-18.0","0","0","YHZzx","Scenes","","2064","","","","74","126","jordan-mcqueen-PJCZOWuOxbU-unsplash.jpg","15","","","","","","","","","","","","","","","","","","","","","","","","","","","","","","","","","","","","","","","",""
"","rating","","html-slider-response","20","73743","0.0-19.0","0","0","YHZzx","Scenes","","1729","","","","100","110","bruno-van-der-kraan-qez8mNJ3ilU-unsplash.jpg","16","","","","","","","","","","","","","","","","","","","","","","","","","","","","","","","","","","","","","","","",""
"","rating","","html-slider-response","21","77248","0.0-20.0","0","0","YHZzx","Scenes","","3505","","","","100","145","stephen-leonardi-gyIRjKPXupE-unsplash.jpg","17","","","","","","","","","","","","","","","","","","","","","","","","","","","","","","","","","","","","","","","",""
"","rating","","html-slider-response","22","79576","0.0-21.0","0","0","YHZzx","Scenes","","2327","","","","77","140","samuele-errico-piccarini-JEBqFu2AOOA-unsplash.jpg","18","","","","","","","","","","","","","","","","","","","","","","","","","","","","","","","","","","","","","","","",""
"","rating","","html-slider-response","23","81960","0.0-22.0","0","0","YHZzx","Scenes","","2383","","","","74","123","joel-jasmin-forestbird-efuwb5eBDrI-unsplash.jpg","19","","","","","","","","","","","","","","","","","","","","","","","","","","","","","","","","","","","","","","","",""
"","rating","","html-slider-response","24","83926","0.0-23.0","0","0","YHZzx","Scenes","","1965","","","","69","143","sigurdur-fjalar-jonsson-1KxBabIntpE-unsplash.jpg","20","","","","","","","","","","","","","","","","","","","","","","","","","","","","","","","","","","","","","","","",""
"","rating","","html-slider-response","25","87621","0.0-24.0","0","0","YHZzx","Scenes","","3693","","","","63","106","ashim-d-silva-WeYamle9fDM-unsplash.jpg","21","","","","","","","","","","","","","","","","","","","","","","","","","","","","","","","","","","","","","","","",""
"","rating","","html-slider-response","26","89515","0.0-25.0","0","0","YHZzx","Scenes","","1894","","","","61","127","kace-rodriguez-p3OzJuT_Dks-unsplash.jpg","22","","","","","","","","","","","","","","","","","","","","","","","","","","","","","","","","","","","","","","","",""
"","rating","","html-slider-response","27","91548","0.0-26.0","0","0","YHZzx","Scenes","","2033","","","","100","114","daniel-sessler-z_9VmsxR8hs-unsplash.jpg","23","","","","","","","","","","","","","","","","","","","","","","","","","","","","","","","","","","","","","","","",""
"","rating","","html-slider-response","28","93752","0.0-27.0","0","0","YHZzx","Scenes","","2203","","","","100","128","karsten-wurth-jS0zC2PJ17A-unsplash.jpg","24","","","","","","","","","","","","","","","","","","","","","","","","","","","","","","","","","","","","","","","",""
"","rating","","html-slider-response","29","96936","0.0-28.0","0","0","YHZzx","Scenes","","3184","","","","59","115","darrell-cassell-hoCXpPUMCoE-unsplash.jpg","25","","","","","","","","","","","","","","","","","","","","","","","","","","","","","","","","","","","","","","","",""
"","rating","","html-slider-response","30","99130","0.0-29.0","0","0","YHZzx","Scenes","","2194","","","","38","149","yuriy-bogdanov-W51VK3Obcj0-unsplash.jpg","26","","","","","","","","","","","","","","","","","","","","","","","","","","","","","","","","","","","","","","","",""
"","rating","","html-slider-response","31","101278","0.0-30.0","0","0","YHZzx","Scenes","","2147","","","","100","137","olga-stalska-QaWRyEdlffY-unsplash.jpg","27","","","","","","","","","","","","","","","","","","","","","","","","","","","","","","","","","","","","","","","",""
"","rating","","html-slider-response","32","104319","0.0-31.0","0","0","YHZzx","Scenes","","3040","","","","27","105","ashim-d-silva-S2Q5mdOrrVc-unsplash.jpg","28","","","","","","","","","","","","","","","","","","","","","","","","","","","","","","","","","","","","","","","",""
"","rating","","html-slider-response","33","106375","0.0-32.0","0","0","YHZzx","Scenes","","2055","","","","28","133","mickey-o-neil-xL66l--msXU-unsplash.jpg","29","","","","","","","","","","","","","","","","","","","","","","","","","","","","","","","","","","","","","","","",""
"","rating","","html-slider-response","34","107998","0.0-33.0","0","0","YHZzx","Scenes","","1622","","","","100","119","james-wheeler-AFC0XvICMgs-unsplash.jpg","30","","","","","","","","","","","","","","","","","","","","","","","","","","","","","","","","","","","","","","","",""
"","rating","","html-slider-response","35","109485","0.0-34.0","0","0","YHZzx","Scenes","","1486","","","","100","138","petr-vysohlid-9fqwGqGLUxc-unsplash.jpg","31","","","","","","","","","","","","","","","","","","","","","","","","","","","","","","","","","","","","","","","",""
"","rating","","html-slider-response","36","111113","0.0-35.0","0","0","YHZzx","Scenes","","1627","","","","100","120","jarrett-kow-1ZOyYPOBn7I-unsplash.jpg","32","","","","","","","","","","","","","","","","","","","","","","","","","","","","","","","","","","","","","","","",""
"","rating","","html-slider-response","37","112822","0.0-36.0","0","0","YHZzx","Scenes","","1709","","","","100","101","aniket-deole-T-tOgjWZ0fQ-unsplash.jpg","33","","","","","","","","","","","","","","","","","","","","","","","","","","","","","","","","","","","","","","","",""
"","rating","","html-slider-response","38","114474","0.0-37.0","0","0","YHZzx","Scenes","","1652","","","","62","109","brigitta-schneiter-hXXRLtTxXCU-unsplash.jpg","34","","","","","","","","","","","","","","","","","","","","","","","","","","","","","","","","","","","","","","","",""
"","rating","","html-slider-response","39","116075","0.0-38.0","0","0","YHZzx","Scenes","","1601","","","","100","134","milada-vigerova-pQMM63GE7fo-unsplash.jpg","35","","","","","","","","","","","","","","","","","","","","","","","","","","","","","","","","","","","","","","","",""
"","rating","","html-slider-response","40","118198","0.0-39.0","0","0","YHZzx","Scenes","","2122","","","","62","124","johannes-plenio-sPt5RIjKfpk-unsplash.jpg","36","","","","","","","","","","","","","","","","","","","","","","","","","","","","","","","","","","","","","","","",""
"","rating","","html-slider-response","41","120034","0.0-40.0","0","0","YHZzx","Scenes","","1836","","","","100","112","cosmic-timetraveler-pYyOZ8q7AII-unsplash.jpg","37","","","","","","","","","","","","","","","","","","","","","","","","","","","","","","","","","","","","","","","",""
"","rating","","html-slider-response","42","120306","0.0-41.0","0","0","YHZzx","Scenes","","271","","","","50","116","david-marcu-W5MhJ6cy1So-unsplash.jpg","38","","","","","","","","","","","","","","","","","","","","","","","","","","","","","","","","","","","","","","","",""
"","rating","","html-slider-response","43","123117","0.0-42.0","0","0","YHZzx","Scenes","","2810","","","","100","108","benjamin-voros-phIFdC6lA4E-unsplash.jpg","39","","","","","","","","","","","","","","","","","","","","","","","","","","","","","","","","","","","","","","","",""
"","rating","","html-slider-response","44","125037","0.0-43.0","0","0","YHZzx","Scenes","","1920","","","","100","122","jeff-king-bJHWJeiHfHc-unsplash.jpg","40","","","","","","","","","","","","","","","","","","","","","","","","","","","","","","","","","","","","","","","",""
"","rating","","html-slider-response","45","127753","0.0-44.0","0","0","YHZzx","Scenes","","2714","","","","21","129","kurt-cotoaga-cqbLg3lZEpk-unsplash.jpg","41","","","","","","","","","","","","","","","","","","","","","","","","","","","","","","","","","","","","","","","",""
"","rating","","html-slider-response","46","129254","0.0-45.0","0","0","YHZzx","Scenes","","1500","","","","72","132","meng-ji-8BH_M-53CyA-unsplash.jpg","42","","","","","","","","","","","","","","","","","","","","","","","","","","","","","","","","","","","","","","","",""
"","rating","","html-slider-response","47","131221","0.0-46.0","0","0","YHZzx","Scenes","","1967","","","","29","135","mohammad-alizade-4wzRuAb-KWs-unsplash.jpg","43","","","","","","","","","","","","","","","","","","","","","","","","","","","","","","","","","","","","","","","",""
"","rating","","html-slider-response","48","132936","0.0-47.0","0","0","YHZzx","Scenes","","1715","","","","100","107","benjamin-davies-Zm2n2O7Fph4-unsplash.jpg","44","","","","","","","","","","","","","","","","","","","","","","","","","","","","","","","","","","","","","","","",""
"","rating","","html-slider-response","49","135651","0.0-48.0","0","0","YHZzx","Scenes","","2714","","","","18","113","damian-denis-D8R_txR_0PE-unsplash.jpg","45","","","","","","","","","","","","","","","","","","","","","","","","","","","","","","","","","","","","","","","",""
"","rating","","html-slider-response","50","137296","0.0-49.0","0","0","YHZzx","Scenes","","1645","","","","100","121","jean-pierre-brungs-qxCqkbF7tUc-unsplash.jpg","46","","","","","","","","","","","","","","","","","","","","","","","","","","","","","","","","","","","","","","","",""
"","rating","","html-slider-response","51","139176","0.0-50.0","0","0","YHZzx","Scenes","","1880","","","","79","111","claudio-testa-U3F2o6vz3bs-unsplash.jpg","47","","","","","","","","","","","","","","","","","","","","","","","","","","","","","","","","","","","","","","","",""
"","rating","","html-slider-response","52","140928","0.0-51.0","0","0","YHZzx","Scenes","","1752","","","","71","100","aleksandra-boguslawska-MS7KD9Ti7FQ-unsplash.jpg","48","","","","","","","","","","","","","","","","","","","","","","","","","","","","","","","","","","","","","","","",""
"","rating","","html-slider-response","53","142594","0.0-52.0","0","0","YHZzx","Scenes","","1666","","","","100","125","john-lee-oMneOBYhJxY-unsplash.jpg","49","","","","","","","","","","","","","","","","","","","","","","","","","","","","","","","","","","","","","","","",""
"","deliberation_instructions","","instructions","54","195658","0.0-53.0-0.0","0","0","YHZzx","Scenes","[{""page_index"":0,""viewing_time"":15453},{""page_index"":1,""viewing_time"":10795},{""page_index"":2,""viewing_time"":9824},{""page_index"":3,""viewing_time"":15318},{""page_index"":4,""viewing_time"":1672}]","53063","","","","","","","","","","","","","","","","","","","","","","","","","","","","","","","","","","","","","","","","","","","","","","",""
"","deliberation_comprehension_check","","survey-multi-choice","55","225143","0.0-53.0-1.0","0","0","YHZzx","Scenes","","29484","{""Q0"":""True"",""Q1"":""False"",""Q2"":""Consider carefully and take your time (up to 10 seconds)"",""Q3"":""True"",""Q4"":""D""}","1","","","","","","","","","","","","","","","","","","","","","","","","","","","","","","","","","","","","","","","","","","","","",""
"","missed_instruction_checkup","","html-keyboard-response","56","227385","0.0-53.0-2.0-0.0","0","1","YHZzx","Scenes","","2241","","","78","","","","","","","","","","","","","","","","","","","","","","","","","","","","","","","","","","","","","","","","","","","",""
"","deliberation_instructions","","instructions","57","275517","0.0-53.1-0.1","0","0","YHZzx","Scenes","[{""page_index"":0,""viewing_time"":9702},{""page_index"":1,""viewing_time"":5946},{""page_index"":2,""viewing_time"":11481},{""page_index"":1,""viewing_time"":1322},{""page_index"":0,""viewing_time"":10173},{""page_index"":1,""viewing_time"":1154},{""page_index"":2,""viewing_time"":5721},{""page_index"":3,""viewing_time"":1520},{""page_index"":4,""viewing_time"":1112}]","48131","","","","","","","","","","","","","","","","","","","","","","","","","","","","","","","","","","","","","","","","","","","","","","",""
"","deliberation_comprehension_check","","survey-multi-choice","58","287976","0.0-53.1-1.1","0","0","YHZzx","Scenes","","12456","{""Q0"":"""",""Q1"":""True"",""Q2"":""Consider carefully and take your time (up to 10 seconds)"",""Q3"":""True"",""Q4"":""D""}","1","","","","","","","","","","","","","","","","","","","","","","","","","","","","","","","","","","","","","","","","","","","","",""
"","missed_instruction_checkup","","html-keyboard-response","59","289817","0.0-53.1-2.1-0.1","0","1","YHZzx","Scenes","","1841","","","78","","","","","","","","","","","","","","","","","","","","","","","","","","","","","","","","","","","","","","","","","","","",""
"","deliberation_instructions","","instructions","60","294065","0.0-53.2-0.2","0","0","YHZzx","Scenes","[{""page_index"":0,""viewing_time"":1812},{""page_index"":1,""viewing_time"":435},{""page_index"":2,""viewing_time"":548},{""page_index"":3,""viewing_time"":483},{""page_index"":4,""viewing_time"":970}]","4248","","","","","","","","","","","","","","","","","","","","","","","","","","","","","","","","","","","","","","","","","","","","","","",""
"","deliberation_comprehension_check","","survey-multi-choice","61","318570","0.0-53.2-1.2","0","0","YHZzx","Scenes","","24503","{""Q0"":""True"",""Q1"":""True"",""Q2"":""Consider carefully and take your time (up to 10 seconds)"",""Q3"":""True"",""Q4"":""D""}","0","","","","","","","","","","","","","","","","","","","","","","","","","","","","","","","","","","","","","","","","","","","","",""
"","start_phase","","html-keyboard-response","62","321777","0.0-54.0","0","0","YHZzx","Scenes","","3207","","","78","","","","","","","","","","","","","","","","","","","","","","","","","","","","","","","","","","","","","","","","","","","",""
"","first_deliberation_block","","html-keyboard-response","63","324153","0.0-55.0","0","0","YHZzx","Scenes","","2376","","","78","","","","","","","","","","","","","","","","","","","","","","","","","","","","","","","","","","","","","","","","","","","",""
"","fixation","","html-keyboard-response","64","325165","0.0-56.0-0.0","0","0","YHZzx","Scenes","","null","","","null","","","","","","","","","","","","","","","","","","","","","","","","","","","","","","","","","","","","","","","","","","","",""
"","deliberation","","html-keyboard-response","65","326785","0.0-56.0-1.0","0","0","YHZzx","Scenes","","1620","","","75","","","","0","144","123","0","-1","82","74","solotravelgoals-7kLufxYoqWk-unsplash.jpg","joel-jasmin-forestbird-efuwb5eBDrI-unsplash.jpg","1","0","123","144","","","","","","","","","","","","","","","","","","","","","","","","","","","",""
"","choice_confirmation","","html-keyboard-response","66","327289","0.0-56.0-2.0-0.0","0","0","YHZzx","Scenes","","null","","","null","","","","0","144","123","","","","","","","","","","","","","","","","","","","","","","","","","","","","","","","","","","","","","",""
"","fixation","","html-keyboard-response","67","328296","0.0-57.0-0.0","0","0","YHZzx","Scenes","","null","","","null","","","","","","","","","","","","","","","","","","","","","","","","","","","","","","","","","","","","","","","","","","","",""
"","deliberation","","html-keyboard-response","68","329505","0.0-57.0-1.0","0","0","YHZzx","Scenes","","1209","","","75","","","","1","139","140","1","-1","66","77","samsommer-vddccTqwal8-unsplash.jpg","samuele-errico-piccarini-JEBqFu2AOOA-unsplash.jpg","1","0","140","139","","","","","","","","","","","","","","","","","","","","","","","","","","","",""
"","choice_confirmation","","html-keyboard-response","69","330017","0.0-57.0-2.0-0.0","0","0","YHZzx","Scenes","","null","","","null","","","","1","139","140","","","","","","","","","","","","","","","","","","","","","","","","","","","","","","","","","","","","","",""
"","explain_trial","","survey-text","70","340270","0.0-57.0-5.0-0.0","0","0","YHZzx","Scenes","","10251","{""Q0"":""More going on""}","","","","","","1","139","140","","","","","","","","","","","{""Q0"":""More going on""}","","","","","","","","","","","","","","","","","","","","","","","","","","",""
"","fixation","","html-keyboard-response","71","341278","0.0-58.0-0.0","0","0","YHZzx","Scenes","","null","","","null","","","","","","","","","","","","","","","","","","","","","","","","","","","","","","","","","","","","","","","","","","","",""
"","deliberation","","html-keyboard-response","72","343065","0.0-58.0-1.0","0","0","YHZzx","Scenes","","1787","","","68","","","","2","148","102","0","1","86","81","tom-gainor-ZqLeQDjY6fY-unsplash.jpg","anisur-rahman-K2b7UDed6uQ-unsplash.jpg","1","1","148","102","","","","","","","","","","","","","","","","","","","","","","","","","","","",""
"","choice_confirmation","","html-keyboard-response","73","343579","0.0-58.0-2.0-0.0","0","0","YHZzx","Scenes","","null","","","null","","","","2","148","102","","","","","","","","","","","","","","","","","","","","","","","","","","","","","","","","","","","","","",""
"","fixation","","html-keyboard-response","74","344587","0.0-59.0-0.0","0","0","YHZzx","Scenes","","null","","","null","","","","","","","","","","","","","","","","","","","","","","","","","","","","","","","","","","","","","","","","","","","",""
"","deliberation","","html-keyboard-response","75","346577","0.0-59.0-1.0","0","0","YHZzx","Scenes","","1990","","","68","","","","3","126","100","1","-1","74","71","jordan-mcqueen-PJCZOWuOxbU-unsplash.jpg","aleksandra-boguslawska-MS7KD9Ti7FQ-unsplash.jpg","1","1","126","100","","","","","","","","","","","","","","","","","","","","","","","","","","","",""
"","choice_confirmation","","html-keyboard-response","76","347082","0.0-59.0-2.0-0.0","0","0","YHZzx","Scenes","","null","","","null","","","","3","126","100","","","","","","","","","","","","","","","","","","","","","","","","","","","","","","","","","","","","","",""
"","explain_trial","","survey-text","77","351730","0.0-59.0-5.0-0.0","0","0","YHZzx","Scenes","","4646","{""Q0"":""Better shot""}","","","","","","3","126","100","","","","","","","","","","","{""Q0"":""Better shot""}","","","","","","","","","","","","","","","","","","","","","","","","","","",""
"","fixation","","html-keyboard-response","78","352740","0.0-60.0-0.0","0","0","YHZzx","Scenes","","null","","","null","","","","","","","","","","","","","","","","","","","","","","","","","","","","","","","","","","","","","","","","","","","",""
"","deliberation","","html-keyboard-response","79","355233","0.0-60.0-1.0","0","0","YHZzx","Scenes","","2493","","","75","","","","4","117","141","0","1","70","100","frank-mckenna-OD9EOzfSOh0-unsplash.jpg","sebastian-unrau-v4e3JI7DDHI-unsplash.jpg","1","0","141","117","","","","","","","","","","","","","","","","","","","","","","","","","","","",""
"","choice_confirmation","","html-keyboard-response","80","355747","0.0-60.0-2.0-0.0","0","0","YHZzx","Scenes","","null","","","null","","","","4","117","141","","","","","","","","","","","","","","","","","","","","","","","","","","","","","","","","","","","","","",""
"","fixation","","html-keyboard-response","81","356754","0.0-61.0-0.0","0","0","YHZzx","Scenes","","null","","","null","","","","","","","","","","","","","","","","","","","","","","","","","","","","","","","","","","","","","","","","","","","",""
"","deliberation","","html-keyboard-response","82","357953","0.0-61.0-1.0","0","0","YHZzx","Scenes","","1199","","","75","","","","5","110","145","1","1","100","100","bruno-van-der-kraan-qez8mNJ3ilU-unsplash.jpg","stephen-leonardi-gyIRjKPXupE-unsplash.jpg","1","0","145","110","","","","","","","","","","","","","","","","","","","","","","","","","","","",""
"","choice_confirmation","","html-keyboard-response","83","358459","0.0-61.0-2.0-0.0","0","0","YHZzx","Scenes","","null","","","null","","","","5","110","145","","","","","","","","","","","","","","","","","","","","","","","","","","","","","","","","","","","","","",""
"","explain_trial","","survey-text","84","364142","0.0-61.0-5.0-0.0","0","0","YHZzx","Scenes","","5683","{""Q0"":""mysterious""}","","","","","","5","110","145","","","","","","","","","","","{""Q0"":""mysterious""}","","","","","","","","","","","","","","","","","","","","","","","","","","",""
"","fixation","","html-keyboard-response","85","365155","0.0-62.0-0.0","0","0","YHZzx","Scenes","","null","","","null","","","","","","","","","","","","","","","","","","","","","","","","","","","","","","","","","","","","","","","","","","","",""
"","deliberation","","html-keyboard-response","86","366865","0.0-62.0-1.0","0","0","YHZzx","Scenes","","1710","","","68","","","","6","147","136","1","1","73","100","tobias-keller-73F4pKoUkM0-unsplash.jpg","nicolas-jehly-LzVB84KkZOE-unsplash.jpg","1","1","147","136","","","","","","","","","","","","","","","","","","","","","","","","","","","",""
"","choice_confirmation","","html-keyboard-response","87","367372","0.0-62.0-2.0-0.0","0","0","YHZzx","Scenes","","null","","","null","","","","6","147","136","","","","","","","","","","","","","","","","","","","","","","","","","","","","","","","","","","","","","",""
"","explain_trial","","survey-text","88","375725","0.0-62.0-5.0-0.0","0","0","YHZzx","Scenes","","8353","{""Q0"":""Further shot ""}","","","","","","6","147","136","","","","","","","","","","","{""Q0"":""Further shot ""}","","","","","","","","","","","","","","","","","","","","","","","","","","",""
"","fixation","","html-keyboard-response","89","376734","0.0-63.0-0.0","0","0","YHZzx","Scenes","","null","","","null","","","","","","","","","","","","","","","","","","","","","","","","","","","","","","","","","","","","","","","","","","","",""
"","deliberation","","html-keyboard-response","90","378297","0.0-63.0-1.0","0","0","YHZzx","Scenes","","1563","","","75","","","","7","130","146","0","1","100","100","lina-loos-04-C1NZk1hE-unsplash.jpg","thomas-morse-cuKKa0vWZSY-unsplash.jpg","1","0","146","130","","","","","","","","","","","","","","","","","","","","","","","","","","","",""
"","choice_confirmation","","html-keyboard-response","91","378811","0.0-63.0-2.0-0.0","0","0","YHZzx","Scenes","","null","","","null","","","","7","130","146","","","","","","","","","","","","","","","","","","","","","","","","","","","","","","","","","","","","","",""
"","fixation","","html-keyboard-response","92","379818","0.0-64.0-0.0","0","0","YHZzx","Scenes","","null","","","null","","","","","","","","","","","","","","","","","","","","","","","","","","","","","","","","","","","","","","","","","","","",""
"","deliberation","","html-keyboard-response","93","381265","0.0-64.0-1.0","0","0","YHZzx","Scenes","","1447","","","68","","","","8","104","142","0","-1","100","100","artem-sapegin-XGDBdSQ70O0-unsplash.jpg","sergey-pesterev-y-b_FOmJXdg-unsplash.jpg","1","1","104","142","","","","","","","","","","","","","","","","","","","","","","","","","","","",""
"","choice_confirmation","","html-keyboard-response","94","381787","0.0-64.0-2.0-0.0","0","0","YHZzx","Scenes","","null","","","null","","","","8","104","142","","","","","","","","","","","","","","","","","","","","","","","","","","","","","","","","","","","","","",""
"","fixation","","html-keyboard-response","95","382794","0.0-65.0-0.0","0","0","YHZzx","Scenes","","null","","","null","","","","","","","","","","","","","","","","","","","","","","","","","","","","","","","","","","","","","","","","","","","",""
"","deliberation","","html-keyboard-response","96","384969","0.0-65.0-1.0","0","0","YHZzx","Scenes","","2175","","","68","","","","9","143","114","0","-1","69","100","sigurdur-fjalar-jonsson-1KxBabIntpE-unsplash.jpg","daniel-sessler-z_9VmsxR8hs-unsplash.jpg","1","1","143","114","","","","","","","","","","","","","","","","","","","","","","","","","","","",""
"","choice_confirmation","","html-keyboard-response","97","385476","0.0-65.0-2.0-0.0","0","0","YHZzx","Scenes","","null","","","null","","","","9","143","114","","","","","","","","","","","","","","","","","","","","","","","","","","","","","","","","","","","","","",""
"","fixation","","html-keyboard-response","98","386483","0.0-66.0-0.0","0","0","YHZzx","Scenes","","null","","","null","","","","","","","","","","","","","","","","","","","","","","","","","","","","","","","","","","","","","","","","","","","",""
"","deliberation","","html-keyboard-response","99","388073","0.0-66.0-1.0","0","0","YHZzx","Scenes","","1589","","","75","","","","10","111","118","1","-1","79","100","claudio-testa-U3F2o6vz3bs-unsplash.jpg","henry-be-NLF6hTe4PAg-unsplash.jpg","1","0","118","111","","","","","","","","","","","","","","","","","","","","","","","","","","","",""
"","choice_confirmation","","html-keyboard-response","100","388576","0.0-66.0-2.0-0.0","0","0","YHZzx","Scenes","","null","","","null","","","","10","111","118","","","","","","","","","","","","","","","","","","","","","","","","","","","","","","","","","","","","","",""
"","explain_trial","","survey-text","101","395279","0.0-66.0-5.0-0.0","0","0","YHZzx","Scenes","","6703","{""Q0"":""More contrast""}","","","","","","10","111","118","","","","","","","","","","","{""Q0"":""More contrast""}","","","","","","","","","","","","","","","","","","","","","","","","","","",""
"","fixation","","html-keyboard-response","102","396295","0.0-67.0-0.0","0","0","YHZzx","Scenes","","null","","","null","","","","","","","","","","","","","","","","","","","","","","","","","","","","","","","","","","","","","","","","","","","",""
"","deliberation","","html-keyboard-response","103","397297","0.0-67.0-1.0","0","0","YHZzx","Scenes","","1002","","","75","","","","11","132","131","1","1","72","100","meng-ji-8BH_M-53CyA-unsplash.jpg","luca-bravo-hFzIoD0F_i8-unsplash.jpg","1","0","131","132","","","","","","","","","","","","","","","","","","","","","","","","","","","",""
"","choice_confirmation","","html-keyboard-response","104","397798","0.0-67.0-2.0-0.0","0","0","YHZzx","Scenes","","null","","","null","","","","11","132","131","","","","","","","","","","","","","","","","","","","","","","","","","","","","","","","","","","","","","",""
"","explain_trial","","survey-text","105","405278","0.0-67.0-5.0-0.0","0","0","YHZzx","Scenes","","7478","{""Q0"":""More going on""}","","","","","","11","132","131","","","","","","","","","","","{""Q0"":""More going on""}","","","","","","","","","","","","","","","","","","","","","","","","","","",""
"","practice_deliberation_again","","html-keyboard-response","106","408737","0.0-67.0-6.0-0.0","0","0","YHZzx","Scenes","","3459","","","78","","","","","","","","","","","","","","","","","","","","","","","","","","","","","","","","","","","","","","","","","","","",""
"","fixation","","html-keyboard-response","107","409749","0.0-68.0-0.0","0","0","YHZzx","Scenes","","null","","","null","","","","","","","","","","","","","","","","","","","","","","","","","","","","","","","","","","","","","","","","","","","",""
"","deliberation","","html-keyboard-response","108","410929","0.0-68.0-1.0","0","0","YHZzx","Scenes","","1179","","","75","","","","12","111","118","0","-1","79","100","claudio-testa-U3F2o6vz3bs-unsplash.jpg","henry-be-NLF6hTe4PAg-unsplash.jpg","2","0","118","111","","","","","","","","","","","","","","","","","","","","","","","","","","","",""
"","choice_confirmation","","html-keyboard-response","109","411438","0.0-68.0-2.0-0.0","0","0","YHZzx","Scenes","","null","","","null","","","","12","111","118","","","","","","","","","","","","","","","","","","","","","","","","","","","","","","","","","","","","","",""
"","fixation","","html-keyboard-response","110","412461","0.0-69.0-0.0","0","0","YHZzx","Scenes","","null","","","null","","","","","","","","","","","","","","","","","","","","","","","","","","","","","","","","","","","","","","","","","","","",""
"","deliberation","","html-keyboard-response","111","413321","0.0-69.0-1.0","0","0","YHZzx","Scenes","","860","","","68","","","","13","126","100","0","-1","74","71","jordan-mcqueen-PJCZOWuOxbU-unsplash.jpg","aleksandra-boguslawska-MS7KD9Ti7FQ-unsplash.jpg","2","1","126","100","","","","","","","","","","","","","","","","","","","","","","","","","","","",""
"","choice_confirmation","","html-keyboard-response","112","413825","0.0-69.0-2.0-0.0","0","0","YHZzx","Scenes","","null","","","null","","","","13","126","100","","","","","","","","","","","","","","","","","","","","","","","","","","","","","","","","","","","","","",""
"","fixation","","html-keyboard-response","113","414832","0.0-70.0-0.0","0","0","YHZzx","Scenes","","null","","","null","","","","","","","","","","","","","","","","","","","","","","","","","","","","","","","","","","","","","","","","","","","",""
"","deliberation","","html-keyboard-response","114","415433","0.0-70.0-1.0","0","0","YHZzx","Scenes","","600","","","75","","","","14","132","131","0","1","72","100","meng-ji-8BH_M-53CyA-unsplash.jpg","luca-bravo-hFzIoD0F_i8-unsplash.jpg","2","0","131","132","","","","","","","","","","","","","","","","","","","","","","","","","","","",""
"","choice_confirmation","","html-keyboard-response","115","415948","0.0-70.0-2.0-0.0","0","0","YHZzx","Scenes","","null","","","null","","","","14","132","131","","","","","","","","","","","","","","","","","","","","","","","","","","","","","","","","","","","","","",""
"","fixation","","html-keyboard-response","116","416956","0.0-71.0-0.0","0","0","YHZzx","Scenes","","null","","","null","","","","","","","","","","","","","","","","","","","","","","","","","","","","","","","","","","","","","","","","","","","",""
"","deliberation","","html-keyboard-response","117","417537","0.0-71.0-1.0","0","0","YHZzx","Scenes","","581","","","75","","","","15","110","145","0","1","100","100","bruno-van-der-kraan-qez8mNJ3ilU-unsplash.jpg","stephen-leonardi-gyIRjKPXupE-unsplash.jpg","2","0","145","110","","","","","","","","","","","","","","","","","","","","","","","","","","","",""
"","choice_confirmation","","html-keyboard-response","118","418041","0.0-71.0-2.0-0.0","0","0","YHZzx","Scenes","","null","","","null","","","","15","110","145","","","","","","","","","","","","","","","","","","","","","","","","","","","","","","","","","","","","","",""
"","fixation","","html-keyboard-response","119","419049","0.0-72.0-0.0","0","0","YHZzx","Scenes","","null","","","null","","","","","","","","","","","","","","","","","","","","","","","","","","","","","","","","","","","","","","","","","","","",""
"","deliberation","","html-keyboard-response","120","419817","0.0-72.0-1.0","0","0","YHZzx","Scenes","","767","","","75","","","","16","130","146","1","1","100","100","lina-loos-04-C1NZk1hE-unsplash.jpg","thomas-morse-cuKKa0vWZSY-unsplash.jpg","2","0","146","130","","","","","","","","","","","","","","","","","","","","","","","","","","","",""
"","choice_confirmation","","html-keyboard-response","121","420319","0.0-72.0-2.0-0.0","0","0","YHZzx","Scenes","","null","","","null","","","","16","130","146","","","","","","","","","","","","","","","","","","","","","","","","","","","","","","","","","","","","","",""
"","explain_trial","","survey-text","122","427462","0.0-72.0-5.0-0.0","0","0","YHZzx","Scenes","","7141","{""Q0"":""more colorful""}","","","","","","16","130","146","","","","","","","","","","","{""Q0"":""more colorful""}","","","","","","","","","","","","","","","","","","","","","","","","","","",""
"","fixation","","html-keyboard-response","123","428472","0.0-73.0-0.0","0","0","YHZzx","Scenes","","null","","","null","","","","","","","","","","","","","","","","","","","","","","","","","","","","","","","","","","","","","","","","","","","",""
"","deliberation","","html-keyboard-response","124","429721","0.0-73.0-1.0","0","0","YHZzx","Scenes","","1248","","","68","","","","17","104","142","1","-1","100","100","artem-sapegin-XGDBdSQ70O0-unsplash.jpg","sergey-pesterev-y-b_FOmJXdg-unsplash.jpg","2","1","104","142","","","","","","","","","","","","","","","","","","","","","","","","","","","",""
"","choice_confirmation","","html-keyboard-response","125","430224","0.0-73.0-2.0-0.0","0","0","YHZzx","Scenes","","null","","","null","","","","17","104","142","","","","","","","","","","","","","","","","","","","","","","","","","","","","","","","","","","","","","",""
"","explain_trial","","survey-text","126","441938","0.0-73.0-5.0-0.0","0","0","YHZzx","Scenes","","11714","{""Q0"":""has a story with it""}","","","","","","17","104","142","","","","","","","","","","","{""Q0"":""has a story with it""}","","","","","","","","","","","","","","","","","","","","","","","","","","",""
"","fixation","","html-keyboard-response","127","442950","0.0-74.0-0.0","0","0","YHZzx","Scenes","","null","","","null","","","","","","","","","","","","","","","","","","","","","","","","","","","","","","","","","","","","","","","","","","","",""
"","deliberation","","html-keyboard-response","128","443713","0.0-74.0-1.0","0","0","YHZzx","Scenes","","763","","","75","","","","18","139","140","0","-1","66","77","samsommer-vddccTqwal8-unsplash.jpg","samuele-errico-piccarini-JEBqFu2AOOA-unsplash.jpg","2","0","140","139","","","","","","","","","","","","","","","","","","","","","","","","","","","",""
"","choice_confirmation","","html-keyboard-response","129","444221","0.0-74.0-2.0-0.0","0","0","YHZzx","Scenes","","null","","","null","","","","18","139","140","","","","","","","","","","","","","","","","","","","","","","","","","","","","","","","","","","","","","",""
"","fixation","","html-keyboard-response","130","445244","0.0-75.0-0.0","0","0","YHZzx","Scenes","","null","","","null","","","","","","","","","","","","","","","","","","","","","","","","","","","","","","","","","","","","","","","","","","","",""
"","deliberation","","html-keyboard-response","131","446105","0.0-75.0-1.0","0","0","YHZzx","Scenes","","860","","","68","","","","19","143","114","1","-1","69","100","sigurdur-fjalar-jonsson-1KxBabIntpE-unsplash.jpg","daniel-sessler-z_9VmsxR8hs-unsplash.jpg","2","1","143","114","","","","","","","","","","","","","","","","","","","","","","","","","","","",""
"","choice_confirmation","","html-keyboard-response","132","446608","0.0-75.0-2.0-0.0","0","0","YHZzx","Scenes","","null","","","null","","","","19","143","114","","","","","","","","","","","","","","","","","","","","","","","","","","","","","","","","","","","","","",""
"","explain_trial","","survey-text","133","452424","0.0-75.0-5.0-0.0","0","0","YHZzx","Scenes","","5816","{""Q0"":""less blurry""}","","","","","","19","143","114","","","","","","","","","","","{""Q0"":""less blurry""}","","","","","","","","","","","","","","","","","","","","","","","","","","",""
"","fixation","","html-keyboard-response","134","453443","0.0-76.0-0.0","0","0","YHZzx","Scenes","","null","","","null","","","","","","","","","","","","","","","","","","","","","","","","","","","","","","","","","","","","","","","","","","","",""
"","deliberation","","html-keyboard-response","135","454201","0.0-76.0-1.0","0","0","YHZzx","Scenes","","758","","","75","","","","20","117","141","1","1","70","100","frank-mckenna-OD9EOzfSOh0-unsplash.jpg","sebastian-unrau-v4e3JI7DDHI-unsplash.jpg","2","0","141","117","","","","","","","","","","","","","","","","","","","","","","","","","","","",""
"","choice_confirmation","","html-keyboard-response","136","454714","0.0-76.0-2.0-0.0","0","0","YHZzx","Scenes","","null","","","null","","","","20","117","141","","","","","","","","","","","","","","","","","","","","","","","","","","","","","","","","","","","","","",""
"","explain_trial","","survey-text","137","458972","0.0-76.0-5.0-0.0","0","0","YHZzx","Scenes","","4257","{""Q0"":""colorful""}","","","","","","20","117","141","","","","","","","","","","","{""Q0"":""colorful""}","","","","","","","","","","","","","","","","","","","","","","","","","","",""
"","fixation","","html-keyboard-response","138","459984","0.0-77.0-0.0","0","0","YHZzx","Scenes","","null","","","null","","","","","","","","","","","","","","","","","","","","","","","","","","","","","","","","","","","","","","","","","","","",""
"","deliberation","","html-keyboard-response","139","460577","0.0-77.0-1.0","0","0","YHZzx","Scenes","","593","","","68","","","","21","148","102","1","1","86","81","tom-gainor-ZqLeQDjY6fY-unsplash.jpg","anisur-rahman-K2b7UDed6uQ-unsplash.jpg","2","1","148","102","","","","","","","","","","","","","","","","","","","","","","","","","","","",""
"","choice_confirmation","","html-keyboard-response","140","461085","0.0-77.0-2.0-0.0","0","0","YHZzx","Scenes","","null","","","null","","","","21","148","102","","","","","","","","","","","","","","","","","","","","","","","","","","","","","","","","","","","","","",""
"","explain_trial","","survey-text","141","469506","0.0-77.0-5.0-0.0","0","0","YHZzx","Scenes","","8421","{""Q0"":""I like the colors""}","","","","","","21","148","102","","","","","","","","","","","{""Q0"":""I like the colors""}","","","","","","","","","","","","","","","","","","","","","","","","","","",""
"","fixation","","html-keyboard-response","142","470524","0.0-78.0-0.0","0","0","YHZzx","Scenes","","null","","","null","","","","","","","","","","","","","","","","","","","","","","","","","","","","","","","","","","","","","","","","","","","",""
"","deliberation","","html-keyboard-response","143","471377","0.0-78.0-1.0","0","0","YHZzx","Scenes","","853","","","68","","","","22","147","136","0","1","73","100","tobias-keller-73F4pKoUkM0-unsplash.jpg","nicolas-jehly-LzVB84KkZOE-unsplash.jpg","2","1","147","136","","","","","","","","","","","","","","","","","","","","","","","","","","","",""
"","choice_confirmation","","html-keyboard-response","144","471888","0.0-78.0-2.0-0.0","0","0","YHZzx","Scenes","","null","","","null","","","","22","147","136","","","","","","","","","","","","","","","","","","","","","","","","","","","","","","","","","","","","","",""
"","fixation","","html-keyboard-response","145","472896","0.0-79.0-0.0","0","0","YHZzx","Scenes","","null","","","null","","","","","","","","","","","","","","","","","","","","","","","","","","","","","","","","","","","","","","","","","","","",""
"","deliberation","","html-keyboard-response","146","473449","0.0-79.0-1.0","0","0","YHZzx","Scenes","","552","","","75","","","","23","144","123","1","-1","82","74","solotravelgoals-7kLufxYoqWk-unsplash.jpg","joel-jasmin-forestbird-efuwb5eBDrI-unsplash.jpg","2","0","123","144","","","","","","","","","","","","","","","","","","","","","","","","","","","",""
"","choice_confirmation","","html-keyboard-response","147","473950","0.0-79.0-2.0-0.0","0","0","YHZzx","Scenes","","null","","","null","","","","23","144","123","","","","","","","","","","","","","","","","","","","","","","","","","","","","","","","","","","","","","",""
"","explain_trial","","survey-text","148","481561","0.0-79.0-5.0-0.0","0","0","YHZzx","Scenes","","7611","{""Q0"":""I prefer the snow""}","","","","","","23","144","123","","","","","","","","","","","{""Q0"":""I prefer the snow""}","","","","","","","","","","","","","","","","","","","","","","","","","","",""
"","start_critical_deliberation_block","","html-keyboard-response","149","483297","0.0-79.0-7.0-0.0","0","0","YHZzx","Scenes","","1735","","","78","","","","","","","","","","","","","","","","","","","","","","","","","","","","","","","","","","","","","","","","","","","",""
"","fixation","","html-keyboard-response","150","484304","0.0-80.0-0.0","0","0","YHZzx","Scenes","","null","","","null","","","","","","","","","","","","","","","","","","","","","","","","","","","","","","","","","","","","","","","","","","","",""
"","deliberation","","html-keyboard-response","151","485217","0.0-80.0-1.0","0","0","YHZzx","Scenes","","913","","","68","","","","24","104","142","0","-1","100","100","artem-sapegin-XGDBdSQ70O0-unsplash.jpg","sergey-pesterev-y-b_FOmJXdg-unsplash.jpg","3","1","104","142","","","","","","","","","","","","","","","","","","","","","","","","","","","",""
"","choice_confirmation","","html-keyboard-response","152","485730","0.0-80.0-2.0-0.0","0","0","YHZzx","Scenes","","null","","","null","","","","24","104","142","","","","","","","","","","","","","","","","","","","","","","","","","","","","","","","","","","","","","",""
"","fixation","","html-keyboard-response","153","486737","0.0-81.0-0.0","0","0","YHZzx","Scenes","","null","","","null","","","","","","","","","","","","","","","","","","","","","","","","","","","","","","","","","","","","","","","","","","","",""
"","deliberation","","html-keyboard-response","154","487345","0.0-81.0-1.0","0","0","YHZzx","Scenes","","607","","","75","","","","25","132","131","0","1","72","100","meng-ji-8BH_M-53CyA-unsplash.jpg","luca-bravo-hFzIoD0F_i8-unsplash.jpg","3","0","131","132","","","","","","","","","","","","","","","","","","","","","","","","","","","",""
"","choice_confirmation","","html-keyboard-response","155","487853","0.0-81.0-2.0-0.0","0","0","YHZzx","Scenes","","null","","","null","","","","25","132","131","","","","","","","","","","","","","","","","","","","","","","","","","","","","","","","","","","","","","",""
"","fixation","","html-keyboard-response","156","488876","0.0-82.0-0.0","0","0","YHZzx","Scenes","","null","","","null","","","","","","","","","","","","","","","","","","","","","","","","","","","","","","","","","","","","","","","","","","","",""
"","deliberation","","html-keyboard-response","157","489705","0.0-82.0-1.0","0","0","YHZzx","Scenes","","828","","","75","","","","26","139","140","0","-1","66","77","samsommer-vddccTqwal8-unsplash.jpg","samuele-errico-piccarini-JEBqFu2AOOA-unsplash.jpg","3","0","140","139","","","","","","","","","","","","","","","","","","","","","","","","","","","",""
"","choice_confirmation","","html-keyboard-response","158","490210","0.0-82.0-2.0-0.0","0","0","YHZzx","Scenes","","null","","","null","","","","26","139","140","","","","","","","","","","","","","","","","","","","","","","","","","","","","","","","","","","","","","",""
"","fixation","","html-keyboard-response","159","491217","0.0-83.0-0.0","0","0","YHZzx","Scenes","","null","","","null","","","","","","","","","","","","","","","","","","","","","","","","","","","","","","","","","","","","","","","","","","","",""
"","deliberation","","html-keyboard-response","160","491761","0.0-83.0-1.0","0","0","YHZzx","Scenes","","543","","","75","","","","27","111","118","0","-1","79","100","claudio-testa-U3F2o6vz3bs-unsplash.jpg","henry-be-NLF6hTe4PAg-unsplash.jpg","3","0","118","111","","","","","","","","","","","","","","","","","","","","","","","","","","","",""
"","choice_confirmation","","html-keyboard-response","161","492271","0.0-83.0-2.0-0.0","0","0","YHZzx","Scenes","","null","","","null","","","","27","111","118","","","","","","","","","","","","","","","","","","","","","","","","","","","","","","","","","","","","","",""
"","fixation","","html-keyboard-response","162","493278","0.0-84.0-0.0","0","0","YHZzx","Scenes","","null","","","null","","","","","","","","","","","","","","","","","","","","","","","","","","","","","","","","","","","","","","","","","","","",""
"","deliberation","","html-keyboard-response","163","493937","0.0-84.0-1.0","0","0","YHZzx","Scenes","","658","","","75","","","","28","110","145","0","1","100","100","bruno-van-der-kraan-qez8mNJ3ilU-unsplash.jpg","stephen-leonardi-gyIRjKPXupE-unsplash.jpg","3","0","145","110","","","","","","","","","","","","","","","","","","","","","","","","","","","",""
"","choice_confirmation","","html-keyboard-response","164","494441","0.0-84.0-2.0-0.0","0","0","YHZzx","Scenes","","null","","","null","","","","28","110","145","","","","","","","","","","","","","","","","","","","","","","","","","","","","","","","","","","","","","",""
"","fixation","","html-keyboard-response","165","495448","0.0-85.0-0.0","0","0","YHZzx","Scenes","","null","","","null","","","","","","","","","","","","","","","","","","","","","","","","","","","","","","","","","","","","","","","","","","","",""
"","deliberation","","html-keyboard-response","166","496217","0.0-85.0-1.0","0","0","YHZzx","Scenes","","768","","","68","","","","29","126","100","0","-1","74","71","jordan-mcqueen-PJCZOWuOxbU-unsplash.jpg","aleksandra-boguslawska-MS7KD9Ti7FQ-unsplash.jpg","3","1","126","100","","","","","","","","","","","","","","","","","","","","","","","","","","","",""
"","choice_confirmation","","html-keyboard-response","167","496719","0.0-85.0-2.0-0.0","0","0","YHZzx","Scenes","","null","","","null","","","","29","126","100","","","","","","","","","","","","","","","","","","","","","","","","","","","","","","","","","","","","","",""
"","fixation","","html-keyboard-response","168","497727","0.0-86.0-0.0","0","0","YHZzx","Scenes","","null","","","null","","","","","","","","","","","","","","","","","","","","","","","","","","","","","","","","","","","","","","","","","","","",""
"","deliberation","","html-keyboard-response","169","498401","0.0-86.0-1.0","0","0","YHZzx","Scenes","","674","","","75","","","","30","130","146","0","1","100","100","lina-loos-04-C1NZk1hE-unsplash.jpg","thomas-morse-cuKKa0vWZSY-unsplash.jpg","3","0","146","130","","","","","","","","","","","","","","","","","","","","","","","","","","","",""
"","choice_confirmation","","html-keyboard-response","170","498905","0.0-86.0-2.0-0.0","0","0","YHZzx","Scenes","","null","","","null","","","","30","130","146","","","","","","","","","","","","","","","","","","","","","","","","","","","","","","","","","","","","","",""
"","fixation","","html-keyboard-response","171","499912","0.0-87.0-0.0","0","0","YHZzx","Scenes","","null","","","null","","","","","","","","","","","","","","","","","","","","","","","","","","","","","","","","","","","","","","","","","","","",""
"","deliberation","","html-keyboard-response","172","500561","0.0-87.0-1.0","0","0","YHZzx","Scenes","","648","","","68","","","","31","148","102","0","1","86","81","tom-gainor-ZqLeQDjY6fY-unsplash.jpg","anisur-rahman-K2b7UDed6uQ-unsplash.jpg","3","1","148","102","","","","","","","","","","","","","","","","","","","","","","","","","","","",""
"","choice_confirmation","","html-keyboard-response","173","501075","0.0-87.0-2.0-0.0","0","0","YHZzx","Scenes","","null","","","null","","","","31","148","102","","","","","","","","","","","","","","","","","","","","","","","","","","","","","","","","","","","","","",""
"","fixation","","html-keyboard-response","174","502082","0.0-88.0-0.0","0","0","YHZzx","Scenes","","null","","","null","","","","","","","","","","","","","","","","","","","","","","","","","","","","","","","","","","","","","","","","","","","",""
"","deliberation","","html-keyboard-response","175","502697","0.0-88.0-1.0","0","0","YHZzx","Scenes","","615","","","75","","","","32","144","123","0","-1","82","74","solotravelgoals-7kLufxYoqWk-unsplash.jpg","joel-jasmin-forestbird-efuwb5eBDrI-unsplash.jpg","3","0","123","144","","","","","","","","","","","","","","","","","","","","","","","","","","","",""
"","choice_confirmation","","html-keyboard-response","176","503198","0.0-88.0-2.0-0.0","0","0","YHZzx","Scenes","","null","","","null","","","","32","144","123","","","","","","","","","","","","","","","","","","","","","","","","","","","","","","","","","","","","","",""
"","fixation","","html-keyboard-response","177","504206","0.0-89.0-0.0","0","0","YHZzx","Scenes","","null","","","null","","","","","","","","","","","","","","","","","","","","","","","","","","","","","","","","","","","","","","","","","","","",""
"","deliberation","","html-keyboard-response","178","504985","0.0-89.0-1.0","0","0","YHZzx","Scenes","","779","","","75","","","","33","117","141","0","1","70","100","frank-mckenna-OD9EOzfSOh0-unsplash.jpg","sebastian-unrau-v4e3JI7DDHI-unsplash.jpg","3","0","141","117","","","","","","","","","","","","","","","","","","","","","","","","","","","",""
"","choice_confirmation","","html-keyboard-response","179","505492","0.0-89.0-2.0-0.0","0","0","YHZzx","Scenes","","null","","","null","","","","33","117","141","","","","","","","","","","","","","","","","","","","","","","","","","","","","","","","","","","","","","",""
"","fixation","","html-keyboard-response","180","506500","0.0-90.0-0.0","0","0","YHZzx","Scenes","","null","","","null","","","","","","","","","","","","","","","","","","","","","","","","","","","","","","","","","","","","","","","","","","","",""
"","deliberation","","html-keyboard-response","181","507033","0.0-90.0-1.0","0","0","YHZzx","Scenes","","533","","","68","","","","34","147","136","0","1","73","100","tobias-keller-73F4pKoUkM0-unsplash.jpg","nicolas-jehly-LzVB84KkZOE-unsplash.jpg","3","1","147","136","","","","","","","","","","","","","","","","","","","","","","","","","","","",""
"","choice_confirmation","","html-keyboard-response","182","507549","0.0-90.0-2.0-0.0","0","0","YHZzx","Scenes","","null","","","null","","","","34","147","136","","","","","","","","","","","","","","","","","","","","","","","","","","","","","","","","","","","","","",""
"","fixation","","html-keyboard-response","183","508561","0.0-91.0-0.0","0","0","YHZzx","Scenes","","null","","","null","","","","","","","","","","","","","","","","","","","","","","","","","","","","","","","","","","","","","","","","","","","",""
"","deliberation","","html-keyboard-response","184","509353","0.0-91.0-1.0","0","0","YHZzx","Scenes","","791","","","68","","","","35","143","114","0","-1","69","100","sigurdur-fjalar-jonsson-1KxBabIntpE-unsplash.jpg","daniel-sessler-z_9VmsxR8hs-unsplash.jpg","3","1","143","114","","","","","","","","","","","","","","","","","","","","","","","","","","","",""
"","choice_confirmation","","html-keyboard-response","185","509863","0.0-91.0-2.0-0.0","0","0","YHZzx","Scenes","","null","","","null","","","","35","143","114","","","","","","","","","","","","","","","","","","","","","","","","","","","","","","","","","","","","","",""
"","reward_learning_instructions","","instructions","186","539269","0.0-92.0-0.0","0","0","YHZzx","Scenes","[{""page_index"":0,""viewing_time"":17713},{""page_index"":1,""viewing_time"":10219},{""page_index"":2,""viewing_time"":1474}]","29406","","","","","","","","","","","","","","","","","","","","","","","","","","","","","","","","","","","","","","","","","","","","","","",""
"","reward_comprehension_check","","survey-multi-choice","187","550800","0.0-92.0-1.0","0","0","YHZzx","Scenes","","11530","{""Q0"":""True"",""Q1"":""True"",""Q2"":""Press the space bar to see its outcome"",""Q3"":""Press the relevant key while the outcome is presented""}","0","","","","","","","","","","","","","","","","","","","","","","","","","","","","","","","","","","","","","","","","","","","","",""
"","start_phase","","html-keyboard-response","188","552337","0.0-93.0","0","0","YHZzx","Scenes","","1536","","","78","","","","","","","","","","","","","","","","","","","","","","","","","","","","","","","","","","","","","","","","","","","",""
"","fixation","","html-keyboard-response","189","553356","0.0-94.0","0","0","YHZzx","Scenes","","null","","","null","","","","","","","","","","","","","","","","","","","","","","","","","","","","","","","","","","","","","","","","","","","",""
"","see_reward","","html-keyboard-response","190","554161","0.0-95.0","0","0","YHZzx","Scenes","","804","","","32","","148","","0","","","","1","","","","","1","","","","","145","804","","","","","","","","","","","","","","","","","","","","","","","","",""
"","reward_outcome","","html-keyboard-response","191","556177","0.0-96.0","0","0","YHZzx","Scenes","","null","","","null","","148","","0","","","","","","","","","","","","","","","","NaN","null","","","","","","","","","","","","","","","","","","","","","","",""
"","respond_faster","","html-keyboard-response","192","557696","0.0-97.0-0.0","1","0","YHZzx","Scenes","","null","","","null","","","","","","","","","","","","","","","","","","","","","","","","","","","","","","","","","","","","","","","","","","","",""
"","fixation","","html-keyboard-response","193","558704","0.0-99.0","0","0","YHZzx","Scenes","","null","","","null","","","","","","","","","","","","","","","","","","","","","","","","","","","","","","","","","","","","","","","","","","","",""
"","see_reward","","html-keyboard-response","194","559089","0.0-100.0","0","0","YHZzx","Scenes","","385","","","32","","147","","1","","","","1","","","","","1","","","","","141","385","","","","","","","","","","","","","","","","","","","","","","","","",""
"","reward_outcome","","html-keyboard-response","195","561106","0.0-101.0","0","0","YHZzx","Scenes","","776","","","38","","147","","1","","","","","","","","","","","","","","","","1","776","","","","","","","","","","","","","","","","","","","","","","",""
"","fixation","","html-keyboard-response","196","562113","0.0-104.0","0","0","YHZzx","Scenes","","null","","","null","","","","","","","","","","","","","","","","","","","","","","","","","","","","","","","","","","","","","","","","","","","",""
"","see_reward","","html-keyboard-response","197","562761","0.0-105.0","0","0","YHZzx","Scenes","","648","","","32","","143","","2","","","","-1","","","","","1","","","","","0","648","","","","","","","","","","","","","","","","","","","","","","","","",""
"","reward_outcome","","html-keyboard-response","198","564779","0.0-106.0","0","0","YHZzx","Scenes","","752","","","40","","143","","2","","","","","","","","","","","","","","","","-1","752","","","","","","","","","","","","","","","","","","","","","","",""
"","fixation","","html-keyboard-response","199","565787","0.0-109.0","0","0","YHZzx","Scenes","","null","","","null","","","","","","","","","","","","","","","","","","","","","","","","","","","","","","","","","","","","","","","","","","","",""
"","see_reward","","html-keyboard-response","200","566257","0.0-110.0","0","0","YHZzx","Scenes","","470","","","32","","141","","3","","","","1","","","","","1","","","","","157","470","","","","","","","","","","","","","","","","","","","","","","","","",""
"","reward_outcome","","html-keyboard-response","201","568267","0.0-111.0","0","0","YHZzx","Scenes","","488","","","38","","141","","3","","","","","","","","","","","","","","","","1","488","","","","","","","","","","","","","","","","","","","","","","",""
"","fixation","","html-keyboard-response","202","569274","0.0-114.0","0","0","YHZzx","Scenes","","null","","","null","","","","","","","","","","","","","","","","","","","","","","","","","","","","","","","","","","","","","","","","","","","",""
"","see_reward","","html-keyboard-response","203","569769","0.0-115.0","0","0","YHZzx","Scenes","","495","","","32","","146","","4","","","","1","","","","","1","","","","","148","495","","","","","","","","","","","","","","","","","","","","","","","","",""
"","reward_outcome","","html-keyboard-response","204","571785","0.0-116.0","0","0","YHZzx","Scenes","","776","","","38","","146","","4","","","","","","","","","","","","","","","","1","776","","","","","","","","","","","","","","","","","","","","","","",""
"","fixation","","html-keyboard-response","205","572793","0.0-119.0","0","0","YHZzx","Scenes","","null","","","null","","","","","","","","","","","","","","","","","","","","","","","","","","","","","","","","","","","","","","","","","","","",""
"","see_reward","","html-keyboard-response","206","573186","0.0-120.0","0","0","YHZzx","Scenes","","392","","","32","","104","","5","","","","-1","","","","","1","","","","","0","392","","","","","","","","","","","","","","","","","","","","","","","","",""
"","reward_outcome","","html-keyboard-response","207","575195","0.0-121.0","0","0","YHZzx","Scenes","","478","","","40","","104","","5","","","","","","","","","","","","","","","","-1","478","","","","","","","","","","","","","","","","","","","","","","",""
"","fixation","","html-keyboard-response","208","576203","0.0-124.0","0","0","YHZzx","Scenes","","null","","","null","","","","","","","","","","","","","","","","","","","","","","","","","","","","","","","","","","","","","","","","","","","",""
"","see_reward","","html-keyboard-response","209","576465","0.0-125.0","0","0","YHZzx","Scenes","","262","","","32","","143","","6","","","","-1","","","","","1","","","","","0","262","","","","","","","","","","","","","","","","","","","","","","","","",""
"","reward_outcome","","html-keyboard-response","210","578482","0.0-126.0","0","0","YHZzx","Scenes","","464","","","40","","143","","6","","","","","","","","","","","","","","","","-1","464","","","","","","","","","","","","","","","","","","","","","","",""
"","fixation","","html-keyboard-response","211","579489","0.0-129.0","0","0","YHZzx","Scenes","","null","","","null","","","","","","","","","","","","","","","","","","","","","","","","","","","","","","","","","","","","","","","","","","","",""
"","see_reward","","html-keyboard-response","212","579753","0.0-130.0","0","0","YHZzx","Scenes","","264","","","32","","146","","7","","","","1","","","","","1","","","","","148","264","","","","","","","","","","","","","","","","","","","","","","","","",""
"","reward_outcome","","html-keyboard-response","213","581767","0.0-131.0","0","0","YHZzx","Scenes","","432","","","38","","146","","7","","","","","","","","","","","","","","","","1","432","","","","","","","","","","","","","","","","","","","","","","",""
"","fixation","","html-keyboard-response","214","582775","0.0-134.0","0","0","YHZzx","Scenes","","null","","","null","","","","","","","","","","","","","","","","","","","","","","","","","","","","","","","","","","","","","","","","","","","",""
"","see_reward","","html-keyboard-response","215","583065","0.0-135.0","0","0","YHZzx","Scenes","","290","","","32","","141","","8","","","","1","","","","","1","","","","","157","290","","","","","","","","","","","","","","","","","","","","","","","","",""
"","reward_outcome","","html-keyboard-response","216","585084","0.0-136.0","0","0","YHZzx","Scenes","","464","","","38","","141","","8","","","","","","","","","","","","","","","","1","464","","","","","","","","","","","","","","","","","","","","","","",""
"","fixation","","html-keyboard-response","217","586092","0.0-139.0","0","0","YHZzx","Scenes","","null","","","null","","","","","","","","","","","","","","","","","","","","","","","","","","","","","","","","","","","","","","","","","","","",""
"","see_reward","","html-keyboard-response","218","586329","0.0-140.0","0","0","YHZzx","Scenes","","237","","","32","","126","","9","","","","-1","","","","","1","","","","","0","237","","","","","","","","","","","","","","","","","","","","","","","","",""
"","reward_outcome","","html-keyboard-response","219","588339","0.0-141.0","0","0","YHZzx","Scenes","","519","","","40","","126","","9","","","","","","","","","","","","","","","","-1","519","","","","","","","","","","","","","","","","","","","","","","",""
"","fixation","","html-keyboard-response","220","589347","0.0-144.0","0","0","YHZzx","Scenes","","null","","","null","","","","","","","","","","","","","","","","","","","","","","","","","","","","","","","","","","","","","","","","","","","",""
"","see_reward","","html-keyboard-response","221","589593","0.0-145.0","0","0","YHZzx","Scenes","","246","","","32","","147","","10","","","","1","","","","","1","","","","","141","246","","","","","","","","","","","","","","","","","","","","","","","","",""
"","reward_outcome","","html-keyboard-response","222","591610","0.0-146.0","0","0","YHZzx","Scenes","","559","","","38","","147","","10","","","","","","","","","","","","","","","","1","559","","","","","","","","","","","","","","","","","","","","","","",""
"","fixation","","html-keyboard-response","223","592617","0.0-149.0","0","0","YHZzx","Scenes","","null","","","null","","","","","","","","","","","","","","","","","","","","","","","","","","","","","","","","","","","","","","","","","","","",""
"","see_reward","","html-keyboard-response","224","592905","0.0-150.0","0","0","YHZzx","Scenes","","288","","","32","","131","","11","","","","1","","","","","1","","","","","150","288","","","","","","","","","","","","","","","","","","","","","","","","",""
"","reward_outcome","","html-keyboard-response","225","594911","0.0-151.0","0","0","YHZzx","Scenes","","471","","","38","","131","","11","","","","","","","","","","","","","","","","1","471","","","","","","","","","","","","","","","","","","","","","","",""
"","fixation","","html-keyboard-response","226","595919","0.0-154.0","0","0","YHZzx","Scenes","","null","","","null","","","","","","","","","","","","","","","","","","","","","","","","","","","","","","","","","","","","","","","","","","","",""
"","see_reward","","html-keyboard-response","227","596209","0.0-155.0","0","0","YHZzx","Scenes","","290","","","32","","131","","12","","","","1","","","","","1","","","","","150","290","","","","","","","","","","","","","","","","","","","","","","","","",""
"","reward_outcome","","html-keyboard-response","228","598228","0.0-156.0","0","0","YHZzx","Scenes","","352","","","38","","131","","12","","","","","","","","","","","","","","","","1","352","","","","","","","","","","","","","","","","","","","","","","",""
"","fixation","","html-keyboard-response","229","599235","0.0-159.0","0","0","YHZzx","Scenes","","null","","","null","","","","","","","","","","","","","","","","","","","","","","","","","","","","","","","","","","","","","","","","","","","",""
"","see_reward","","html-keyboard-response","230","599513","0.0-160.0","0","0","YHZzx","Scenes","","276","","","32","","145","","13","","","","1","","","","","1","","","","","147","276","","","","","","","","","","","","","","","","","","","","","","","","",""
"","reward_outcome","","html-keyboard-response","231","601529","0.0-161.0","0","0","YHZzx","Scenes","","488","","","38","","145","","13","","","","","","","","","","","","","","","","1","488","","","","","","","","","","","","","","","","","","","","","","",""
"","fixation","","html-keyboard-response","232","602537","0.0-164.0","0","0","YHZzx","Scenes","","null","","","null","","","","","","","","","","","","","","","","","","","","","","","","","","","","","","","","","","","","","","","","","","","",""
"","see_reward","","html-keyboard-response","233","602801","0.0-165.0","0","0","YHZzx","Scenes","","263","","","32","","118","","14","","","","-1","","","","","1","","","","","0","263","","","","","","","","","","","","","","","","","","","","","","","","",""
"","reward_outcome","","html-keyboard-response","234","604815","0.0-166.0","0","0","YHZzx","Scenes","","551","","","40","","118","","14","","","","","","","","","","","","","","","","-1","551","","","","","","","","","","","","","","","","","","","","","","",""
"","fixation","","html-keyboard-response","235","605823","0.0-169.0","0","0","YHZzx","Scenes","","null","","","null","","","","","","","","","","","","","","","","","","","","","","","","","","","","","","","","","","","","","","","","","","","",""
"","see_reward","","html-keyboard-response","236","606073","0.0-170.0","0","0","YHZzx","Scenes","","249","","","32","","145","","15","","","","1","","","","","1","","","","","147","249","","","","","","","","","","","","","","","","","","","","","","","","",""
"","reward_outcome","","html-keyboard-response","237","608086","0.0-171.0","0","0","YHZzx","Scenes","","352","","","38","","145","","15","","","","","","","","","","","","","","","","1","352","","","","","","","","","","","","","","","","","","","","","","",""
"","fixation","","html-keyboard-response","238","609093","0.0-174.0","0","0","YHZzx","Scenes","","null","","","null","","","","","","","","","","","","","","","","","","","","","","","","","","","","","","","","","","","","","","","","","","","",""
"","see_reward","","html-keyboard-response","239","609417","0.0-175.0","0","0","YHZzx","Scenes","","323","","","32","","123","","16","","","","-1","","","","","1","","","","","0","323","","","","","","","","","","","","","","","","","","","","","","","","",""
"","reward_outcome","","html-keyboard-response","240","611434","0.0-176.0","0","0","YHZzx","Scenes","","423","","","40","","123","","16","","","","","","","","","","","","","","","","-1","423","","","","","","","","","","","","","","","","","","","","","","",""
"","fixation","","html-keyboard-response","241","612441","0.0-179.0","0","0","YHZzx","Scenes","","null","","","null","","","","","","","","","","","","","","","","","","","","","","","","","","","","","","","","","","","","","","","","","","","",""
"","see_reward","","html-keyboard-response","242","612721","0.0-180.0","0","0","YHZzx","Scenes","","278","","","32","","148","","17","","","","1","","","","","1","","","","","145","278","","","","","","","","","","","","","","","","","","","","","","","","",""
"","reward_outcome","","html-keyboard-response","243","614735","0.0-181.0","0","0","YHZzx","Scenes","","423","","","38","","148","","17","","","","","","","","","","","","","","","","1","423","","","","","","","","","","","","","","","","","","","","","","",""
"","fixation","","html-keyboard-response","244","615743","0.0-184.0","0","0","YHZzx","Scenes","","null","","","null","","","","","","","","","","","","","","","","","","","","","","","","","","","","","","","","","","","","","","","","","","","",""
"","see_reward","","html-keyboard-response","245","616145","0.0-185.0","0","0","YHZzx","Scenes","","401","","","32","","140","","18","","","","-1","","","","","1","","","","","0","401","","","","","","","","","","","","","","","","","","","","","","","","",""
"","reward_outcome","","html-keyboard-response","246","618161","0.0-186.0","0","0","YHZzx","Scenes","","464","","","40","","140","","18","","","","","","","","","","","","","","","","-1","464","","","","","","","","","","","","","","","","","","","","","","",""
"","fixation","","html-keyboard-response","247","619168","0.0-189.0","0","0","YHZzx","Scenes","","null","","","null","","","","","","","","","","","","","","","","","","","","","","","","","","","","","","","","","","","","","","","","","","","",""
"","see_reward","","html-keyboard-response","248","619449","0.0-190.0","0","0","YHZzx","Scenes","","280","","","32","","104","","19","","","","-1","","","","","1","","","","","0","280","","","","","","","","","","","","","","","","","","","","","","","","",""
"","reward_outcome","","html-keyboard-response","249","621462","0.0-191.0","0","0","YHZzx","Scenes","","534","","","40","","104","","19","","","","","","","","","","","","","","","","-1","534","","","","","","","","","","","","","","","","","","","","","","",""
"","fixation","","html-keyboard-response","250","622486","0.0-194.0","0","0","YHZzx","Scenes","","null","","","null","","","","","","","","","","","","","","","","","","","","","","","","","","","","","","","","","","","","","","","","","","","",""
"","see_reward","","html-keyboard-response","251","622841","0.0-195.0","0","0","YHZzx","Scenes","","354","","","32","","126","","20","","","","-1","","","","","1","","","","","0","354","","","","","","","","","","","","","","","","","","","","","","","","",""
"","reward_outcome","","html-keyboard-response","252","624857","0.0-196.0","0","0","YHZzx","Scenes","","415","","","40","","126","","20","","","","","","","","","","","","","","","","-1","415","","","","","","","","","","","","","","","","","","","","","","",""
"","fixation","","html-keyboard-response","253","625864","0.0-199.0","0","0","YHZzx","Scenes","","null","","","null","","","","","","","","","","","","","","","","","","","","","","","","","","","","","","","","","","","","","","","","","","","",""
"","see_reward","","html-keyboard-response","254","626129","0.0-200.0","0","0","YHZzx","Scenes","","264","","","32","","140","","21","","","","-1","","","","","1","","","","","0","264","","","","","","","","","","","","","","","","","","","","","","","","",""
"","reward_outcome","","html-keyboard-response","255","628143","0.0-201.0","0","0","YHZzx","Scenes","","431","","","40","","140","","21","","","","","","","","","","","","","","","","-1","431","","","","","","","","","","","","","","","","","","","","","","",""
"","fixation","","html-keyboard-response","256","629150","0.0-204.0","0","0","YHZzx","Scenes","","null","","","null","","","","","","","","","","","","","","","","","","","","","","","","","","","","","","","","","","","","","","","","","","","",""
"","see_reward","","html-keyboard-response","257","629433","0.0-205.0","0","0","YHZzx","Scenes","","282","","","32","","123","","22","","","","-1","","","","","1","","","","","0","282","","","","","","","","","","","","","","","","","","","","","","","","",""
"","reward_outcome","","html-keyboard-response","258","631444","0.0-206.0","0","0","YHZzx","Scenes","","439","","","40","","123","","22","","","","","","","","","","","","","","","","-1","439","","","","","","","","","","","","","","","","","","","","","","",""
"","fixation","","html-keyboard-response","259","632452","0.0-209.0","0","0","YHZzx","Scenes","","null","","","null","","","","","","","","","","","","","","","","","","","","","","","","","","","","","","","","","","","","","","","","","","","",""
"","see_reward","","html-keyboard-response","260","632729","0.0-210.0","0","0","YHZzx","Scenes","","275","","","32","","118","","23","","","","-1","","","","","1","","","","","0","275","","","","","","","","","","","","","","","","","","","","","","","","",""
"","reward_outcome","","html-keyboard-response","261","634746","0.0-211.0","0","0","YHZzx","Scenes","","464","","","40","","118","","23","","","","","","","","","","","","","","","","-1","464","","","","","","","","","","","","","","","","","","","","","","",""
"","block_over","","html-keyboard-response","262","636961","0.0-213.0-0.0","0","0","YHZzx","Scenes","","2214","","","78","","","","","","","","","","","","","","","","","","","","","","","","","","","","","","","","","","","","","","","","","","","",""
"","fixation","","html-keyboard-response","263","637970","0.0-214.0","0","0","YHZzx","Scenes","","null","","","null","","","","","","","","","","","","","","","","","","","","","","","","","","","","","","","","","","","","","","","","","","","",""
"","see_reward","","html-keyboard-response","264","638337","0.0-215.0","0","0","YHZzx","Scenes","","367","","","32","","123","","24","","","","-1","","","","","2","","","","","0","367","","","","","","","","","","","","","","","","","","","","","","","","",""
"","reward_outcome","","html-keyboard-response","265","640357","0.0-216.0","0","0","YHZzx","Scenes","","367","","","40","","123","","24","","","","","","","","","","","","","","","","-1","367","","","","","","","","","","","","","","","","","","","","","","",""
"","fixation","","html-keyboard-response","266","641380","0.0-219.0","0","0","YHZzx","Scenes","","null","","","null","","","","","","","","","","","","","","","","","","","","","","","","","","","","","","","","","","","","","","","","","","","",""
"","see_reward","","html-keyboard-response","267","641625","0.0-220.0","0","0","YHZzx","Scenes","","245","","","32","","126","","25","","","","-1","","","","","2","","","","","0","245","","","","","","","","","","","","","","","","","","","","","","","","",""
"","reward_outcome","","html-keyboard-response","268","643643","0.0-221.0","0","0","YHZzx","Scenes","","391","","","40","","126","","25","","","","","","","","","","","","","","","","-1","391","","","","","","","","","","","","","","","","","","","","","","",""
"","fixation","","html-keyboard-response","269","644650","0.0-224.0","0","0","YHZzx","Scenes","","null","","","null","","","","","","","","","","","","","","","","","","","","","","","","","","","","","","","","","","","","","","","","","","","",""
"","see_reward","","html-keyboard-response","270","645129","0.0-225.0","0","0","YHZzx","Scenes","","477","","","32","","146","","26","","","","1","","","","","2","","","","","148","477","","","","","","","","","","","","","","","","","","","","","","","","",""
"","reward_outcome","","html-keyboard-response","271","647146","0.0-226.0","0","0","YHZzx","Scenes","","335","","","38","","146","","26","","","","","","","","","","","","","","","","1","335","","","","","","","","","","","","","","","","","","","","","","",""
"","fixation","","html-keyboard-response","272","648154","0.0-229.0","0","0","YHZzx","Scenes","","null","","","null","","","","","","","","","","","","","","","","","","","","","","","","","","","","","","","","","","","","","","","","","","","",""
"","see_reward","","html-keyboard-response","273","648401","0.0-230.0","0","0","YHZzx","Scenes","","246","","","32","","104","","27","","","","-1","","","","","2","","","","","0","246","","","","","","","","","","","","","","","","","","","","","","","","",""
"","reward_outcome","","html-keyboard-response","274","650416","0.0-231.0","0","0","YHZzx","Scenes","","371","","","40","","104","","27","","","","","","","","","","","","","","","","-1","371","","","","","","","","","","","","","","","","","","","","","","",""
"","fixation","","html-keyboard-response","275","651424","0.0-234.0","0","0","YHZzx","Scenes","","null","","","null","","","","","","","","","","","","","","","","","","","","","","","","","","","","","","","","","","","","","","","","","","","",""
"","see_reward","","html-keyboard-response","276","651689","0.0-235.0","0","0","YHZzx","Scenes","","265","","","32","","145","","28","","","","1","","","","","2","","","","","147","265","","","","","","","","","","","","","","","","","","","","","","","","",""
"","reward_outcome","","html-keyboard-response","277","653703","0.0-236.0","0","0","YHZzx","Scenes","","519","","","38","","145","","28","","","","","","","","","","","","","","","","1","519","","","","","","","","","","","","","","","","","","","","","","",""
"","fixation","","html-keyboard-response","278","654710","0.0-239.0","0","0","YHZzx","Scenes","","null","","","null","","","","","","","","","","","","","","","","","","","","","","","","","","","","","","","","","","","","","","","","","","","",""
"","see_reward","","html-keyboard-response","279","654969","0.0-240.0","0","0","YHZzx","Scenes","","258","","","32","","126","","29","","","","-1","","","","","2","","","","","0","258","","","","","","","","","","","","","","","","","","","","","","","","",""
"","reward_outcome","","html-keyboard-response","280","656988","0.0-241.0","0","0","YHZzx","Scenes","","350","","","40","","126","","29","","","","","","","","","","","","","","","","-1","350","","","","","","","","","","","","","","","","","","","","","","",""
"","fixation","","html-keyboard-response","281","657996","0.0-244.0","0","0","YHZzx","Scenes","","null","","","null","","","","","","","","","","","","","","","","","","","","","","","","","","","","","","","","","","","","","","","","","","","",""
"","see_reward","","html-keyboard-response","282","658297","0.0-245.0","0","0","YHZzx","Scenes","","300","","","32","","118","","30","","","","-1","","","","","2","","","","","0","300","","","","","","","","","","","","","","","","","","","","","","","","",""
"","reward_outcome","","html-keyboard-response","283","660305","0.0-246.0","0","0","YHZzx","Scenes","","375","","","40","","118","","30","","","","","","","","","","","","","","","","-1","375","","","","","","","","","","","","","","","","","","","","","","",""
"","fixation","","html-keyboard-response","284","661313","0.0-249.0","0","0","YHZzx","Scenes","","null","","","null","","","","","","","","","","","","","","","","","","","","","","","","","","","","","","","","","","","","","","","","","","","",""
"","see_reward","","html-keyboard-response","285","661593","0.0-250.0","0","0","YHZzx","Scenes","","280","","","32","","140","","31","","","","-1","","","","","2","","","","","0","280","","","","","","","","","","","","","","","","","","","","","","","","",""
"","reward_outcome","","html-keyboard-response","286","663607","0.0-251.0","0","0","YHZzx","Scenes","","456","","","40","","140","","31","","","","","","","","","","","","","","","","-1","456","","","","","","","","","","","","","","","","","","","","","","",""
"","fixation","","html-keyboard-response","287","664615","0.0-254.0","0","0","YHZzx","Scenes","","null","","","null","","","","","","","","","","","","","","","","","","","","","","","","","","","","","","","","","","","","","","","","","","","",""
"","see_reward","","html-keyboard-response","288","664897","0.0-255.0","0","0","YHZzx","Scenes","","281","","","32","","145","","32","","","","1","","","","","2","","","","","147","281","","","","","","","","","","","","","","","","","","","","","","","","",""
"","reward_outcome","","html-keyboard-response","289","666908","0.0-256.0","0","0","YHZzx","Scenes","","351","","","38","","145","","32","","","","","","","","","","","","","","","","1","351","","","","","","","","","","","","","","","","","","","","","","",""
"","fixation","","html-keyboard-response","290","667916","0.0-259.0","0","0","YHZzx","Scenes","","null","","","null","","","","","","","","","","","","","","","","","","","","","","","","","","","","","","","","","","","","","","","","","","","",""
"","see_reward","","html-keyboard-response","291","668313","0.0-260.0","0","0","YHZzx","Scenes","","396","","","32","","104","","33","","","","-1","","","","","2","","","","","0","396","","","","","","","","","","","","","","","","","","","","","","","","",""
"","reward_outcome","","html-keyboard-response","292","670319","0.0-261.0","0","0","YHZzx","Scenes","","343","","","40","","104","","33","","","","","","","","","","","","","","","","-1","343","","","","","","","","","","","","","","","","","","","","","","",""
"","fixation","","html-keyboard-response","293","671326","0.0-264.0","0","0","YHZzx","Scenes","","null","","","null","","","","","","","","","","","","","","","","","","","","","","","","","","","","","","","","","","","","","","","","","","","",""
"","see_reward","","html-keyboard-response","294","671601","0.0-265.0","0","0","YHZzx","Scenes","","275","","","32","","131","","34","","","","1","","","","","2","","","","","150","275","","","","","","","","","","","","","","","","","","","","","","","","",""
"","reward_outcome","","html-keyboard-response","295","673620","0.0-266.0","0","0","YHZzx","Scenes","","431","","","38","","131","","34","","","","","","","","","","","","","","","","1","431","","","","","","","","","","","","","","","","","","","","","","",""
"","fixation","","html-keyboard-response","296","674628","0.0-269.0","0","0","YHZzx","Scenes","","null","","","null","","","","","","","","","","","","","","","","","","","","","","","","","","","","","","","","","","","","","","","","","","","",""
"","see_reward","","html-keyboard-response","297","674889","0.0-270.0","0","0","YHZzx","Scenes","","261","","","32","","118","","35","","","","-1","","","","","2","","","","","0","261","","","","","","","","","","","","","","","","","","","","","","","","",""
"","reward_outcome","","html-keyboard-response","298","676906","0.0-271.0","0","0","YHZzx","Scenes","","383","","","40","","118","","35","","","","","","","","","","","","","","","","-1","383","","","","","","","","","","","","","","","","","","","","","","",""
"","fixation","","html-keyboard-response","299","677914","0.0-274.0","0","0","YHZzx","Scenes","","null","","","null","","","","","","","","","","","","","","","","","","","","","","","","","","","","","","","","","","","","","","","","","","","",""
"","see_reward","","html-keyboard-response","300","678393","0.0-275.0","0","0","YHZzx","Scenes","","478","","","32","","140","","36","","","","-1","","","","","2","","","","","0","478","","","","","","","","","","","","","","","","","","","","","","","","",""
"","reward_outcome","","html-keyboard-response","301","680409","0.0-276.0","0","0","YHZzx","Scenes","","408","","","40","","140","","36","","","","","","","","","","","","","","","","-1","408","","","","","","","","","","","","","","","","","","","","","","",""
"","fixation","","html-keyboard-response","302","681416","0.0-279.0","0","0","YHZzx","Scenes","","null","","","null","","","","","","","","","","","","","","","","","","","","","","","","","","","","","","","","","","","","","","","","","","","",""
"","see_reward","","html-keyboard-response","303","681737","0.0-280.0","0","0","YHZzx","Scenes","","320","","","32","","131","","37","","","","1","","","","","2","","","","","150","320","","","","","","","","","","","","","","","","","","","","","","","","",""
"","reward_outcome","","html-keyboard-response","304","683741","0.0-281.0","0","0","YHZzx","Scenes","","488","","","38","","131","","37","","","","","","","","","","","","","","","","1","488","","","","","","","","","","","","","","","","","","","","","","",""
"","fixation","","html-keyboard-response","305","684764","0.0-284.0","0","0","YHZzx","Scenes","","null","","","null","","","","","","","","","","","","","","","","","","","","","","","","","","","","","","","","","","","","","","","","","","","",""
"","see_reward","","html-keyboard-response","306","685073","0.0-285.0","0","0","YHZzx","Scenes","","308","","","32","","147","","38","","","","1","","","","","2","","","","","141","308","","","","","","","","","","","","","","","","","","","","","","","","",""
"","reward_outcome","","html-keyboard-response","307","687089","0.0-286.0","0","0","YHZzx","Scenes","","520","","","38","","147","","38","","","","","","","","","","","","","","","","1","520","","","","","","","","","","","","","","","","","","","","","","",""
"","fixation","","html-keyboard-response","308","688097","0.0-289.0","0","0","YHZzx","Scenes","","null","","","null","","","","","","","","","","","","","","","","","","","","","","","","","","","","","","","","","","","","","","","","","","","",""
"","see_reward","","html-keyboard-response","309","688385","0.0-290.0","0","0","YHZzx","Scenes","","287","","","32","","146","","39","","","","1","","","","","2","","","","","148","287","","","","","","","","","","","","","","","","","","","","","","","","",""
"","reward_outcome","","html-keyboard-response","310","690391","0.0-291.0","0","0","YHZzx","Scenes","","328","","","38","","146","","39","","","","","","","","","","","","","","","","1","328","","","","","","","","","","","","","","","","","","","","","","",""
"","fixation","","html-keyboard-response","311","691398","0.0-294.0","0","0","YHZzx","Scenes","","null","","","null","","","","","","","","","","","","","","","","","","","","","","","","","","","","","","","","","","","","","","","","","","","",""
"","see_reward","","html-keyboard-response","312","691641","0.0-295.0","0","0","YHZzx","Scenes","","242","","","32","","141","","40","","","","1","","","","","2","","","","","157","242","","","","","","","","","","","","","","","","","","","","","","","","",""
"","reward_outcome","","html-keyboard-response","313","693661","0.0-296.0","0","0","YHZzx","Scenes","","383","","","38","","141","","40","","","","","","","","","","","","","","","","1","383","","","","","","","","","","","","","","","","","","","","","","",""
"","fixation","","html-keyboard-response","314","694684","0.0-299.0","0","0","YHZzx","Scenes","","null","","","null","","","","","","","","","","","","","","","","","","","","","","","","","","","","","","","","","","","","","","","","","","","",""
"","see_reward","","html-keyboard-response","315","694977","0.0-300.0","0","0","YHZzx","Scenes","","291","","","32","","147","","41","","","","1","","","","","2","","","","","141","291","","","","","","","","","","","","","","","","","","","","","","","","",""
"","reward_outcome","","html-keyboard-response","316","696994","0.0-301.0","0","0","YHZzx","Scenes","","424","","","38","","147","","41","","","","","","","","","","","","","","","","1","424","","","","","","","","","","","","","","","","","","","","","","",""
"","fixation","","html-keyboard-response","317","698001","0.0-304.0","0","0","YHZzx","Scenes","","null","","","null","","","","","","","","","","","","","","","","","","","","","","","","","","","","","","","","","","","","","","","","","","","",""
"","see_reward","","html-keyboard-response","318","698313","0.0-305.0","0","0","YHZzx","Scenes","","310","","","32","","143","","42","","","","-1","","","","","2","","","","","0","310","","","","","","","","","","","","","","","","","","","","","","","","",""
"","reward_outcome","","html-keyboard-response","319","700326","0.0-306.0","0","0","YHZzx","Scenes","","376","","","40","","143","","42","","","","","","","","","","","","","","","","-1","376","","","","","","","","","","","","","","","","","","","","","","",""
"","fixation","","html-keyboard-response","320","701334","0.0-309.0","0","0","YHZzx","Scenes","","null","","","null","","","","","","","","","","","","","","","","","","","","","","","","","","","","","","","","","","","","","","","","","","","",""
"","see_reward","","html-keyboard-response","321","701641","0.0-310.0","0","0","YHZzx","Scenes","","306","","","32","","141","","43","","","","1","","","","","2","","","","","157","306","","","","","","","","","","","","","","","","","","","","","","","","",""
"","reward_outcome","","html-keyboard-response","322","703659","0.0-311.0","0","0","YHZzx","Scenes","","336","","","38","","141","","43","","","","","","","","","","","","","","","","1","336","","","","","","","","","","","","","","","","","","","","","","",""
"","fixation","","html-keyboard-response","323","704668","0.0-314.0","0","0","YHZzx","Scenes","","null","","","null","","","","","","","","","","","","","","","","","","","","","","","","","","","","","","","","","","","","","","","","","","","",""
"","see_reward","","html-keyboard-response","324","704993","0.0-315.0","0","0","YHZzx","Scenes","","324","","","32","","148","","44","","","","1","","","","","2","","","","","145","324","","","","","","","","","","","","","","","","","","","","","","","","",""
"","reward_outcome","","html-keyboard-response","325","707007","0.0-316.0","0","0","YHZzx","Scenes","","368","","","38","","148","","44","","","","","","","","","","","","","","","","1","368","","","","","","","","","","","","","","","","","","","","","","",""
"","fixation","","html-keyboard-response","326","708014","0.0-319.0","0","0","YHZzx","Scenes","","null","","","null","","","","","","","","","","","","","","","","","","","","","","","","","","","","","","","","","","","","","","","","","","","",""
"","see_reward","","html-keyboard-response","327","708289","0.0-320.0","0","0","YHZzx","Scenes","","274","","","32","","143","","45","","","","-1","","","","","2","","","","","0","274","","","","","","","","","","","","","","","","","","","","","","","","",""
"","reward_outcome","","html-keyboard-response","328","710308","0.0-321.0","0","0","YHZzx","Scenes","","415","","","40","","143","","45","","","","","","","","","","","","","","","","-1","415","","","","","","","","","","","","","","","","","","","","","","",""
"","fixation","","html-keyboard-response","329","711316","0.0-324.0","0","0","YHZzx","Scenes","","null","","","null","","","","","","","","","","","","","","","","","","","","","","","","","","","","","","","","","","","","","","","","","","","",""
"","see_reward","","html-keyboard-response","330","711633","0.0-325.0","0","0","YHZzx","Scenes","","316","","","32","","123","","46","","","","-1","","","","","2","","","","","0","316","","","","","","","","","","","","","","","","","","","","","","","","",""
"","reward_outcome","","html-keyboard-response","331","713641","0.0-326.0","0","0","YHZzx","Scenes","","719","","","40","","123","","46","","","","","","","","","","","","","","","","-1","719","","","","","","","","","","","","","","","","","","","","","","",""
"","fixation","","html-keyboard-response","332","714648","0.0-329.0","0","0","YHZzx","Scenes","","null","","","null","","","","","","","","","","","","","","","","","","","","","","","","","","","","","","","","","","","","","","","","","","","",""
"","see_reward","","html-keyboard-response","333","714913","0.0-330.0","0","0","YHZzx","Scenes","","264","","","32","","148","","47","","","","1","","","","","2","","","","","145","264","","","","","","","","","","","","","","","","","","","","","","","","",""
"","reward_outcome","","html-keyboard-response","334","716926","0.0-331.0","0","0","YHZzx","Scenes","","303","","","38","","148","","47","","","","","","","","","","","","","","","","1","303","","","","","","","","","","","","","","","","","","","","","","",""
"","block_over","","html-keyboard-response","335","718081","0.0-333.0-0.0","0","0","YHZzx","Scenes","","1154","","","78","","","","","","","","","","","","","","","","","","","","","","","","","","","","","","","","","","","","","","","","","","","",""
"","fixation","","html-keyboard-response","336","719097","0.0-334.0","0","0","YHZzx","Scenes","","null","","","null","","","","","","","","","","","","","","","","","","","","","","","","","","","","","","","","","","","","","","","","","","","",""
"","see_reward","","html-keyboard-response","337","719601","0.0-335.0","0","0","YHZzx","Scenes","","504","","","32","","141","","48","","","","1","","","","","3","","","","","157","504","","","","","","","","","","","","","","","","","","","","","","","","",""
"","reward_outcome","","html-keyboard-response","338","721607","0.0-336.0","0","0","YHZzx","Scenes","","311","","","38","","141","","48","","","","","","","","","","","","","","","","1","311","","","","","","","","","","","","","","","","","","","","","","",""
"","fixation","","html-keyboard-response","339","722615","0.0-339.0","0","0","YHZzx","Scenes","","null","","","null","","","","","","","","","","","","","","","","","","","","","","","","","","","","","","","","","","","","","","","","","","","",""
"","see_reward","","html-keyboard-response","340","723121","0.0-340.0","0","0","YHZzx","Scenes","","505","","","32","","145","","49","","","","1","","","","","3","","","","","147","505","","","","","","","","","","","","","","","","","","","","","","","","",""
"","reward_outcome","","html-keyboard-response","341","725141","0.0-341.0","0","0","YHZzx","Scenes","","191","","","38","","145","","49","","","","","","","","","","","","","","","","1","191","","","","","","","","","","","","","","","","","","","","","","",""
"","fixation","","html-keyboard-response","342","726164","0.0-344.0","0","0","YHZzx","Scenes","","null","","","null","","","","","","","","","","","","","","","","","","","","","","","","","","","","","","","","","","","","","","","","","","","",""
"","see_reward","","html-keyboard-response","343","726633","0.0-345.0","0","0","YHZzx","Scenes","","468","","","32","","146","","50","","","","1","","","","","3","","","","","148","468","","","","","","","","","","","","","","","","","","","","","","","","",""
"","reward_outcome","","html-keyboard-response","344","728645","0.0-346.0","0","0","YHZzx","Scenes","","206","","","38","","146","","50","","","","","","","","","","","","","","","","1","206","","","","","","","","","","","","","","","","","","","","","","",""
"","fixation","","html-keyboard-response","345","729667","0.0-349.0","0","0","YHZzx","Scenes","","null","","","null","","","","","","","","","","","","","","","","","","","","","","","","","","","","","","","","","","","","","","","","","","","",""
"","see_reward","","html-keyboard-response","346","730161","0.0-350.0","0","0","YHZzx","Scenes","","493","","","32","","126","","51","","","","-1","","","","","3","","","","","0","493","","","","","","","","","","","","","","","","","","","","","","","","",""
"","reward_outcome","","html-keyboard-response","347","732178","0.0-351.0","0","0","YHZzx","Scenes","","159","","","40","","126","","51","","","","","","","","","","","","","","","","-1","159","","","","","","","","","","","","","","","","","","","","","","",""
"","fixation","","html-keyboard-response","348","733186","0.0-354.0","0","0","YHZzx","Scenes","","null","","","null","","","","","","","","","","","","","","","","","","","","","","","","","","","","","","","","","","","","","","","","","","","",""
"","see_reward","","html-keyboard-response","349","733689","0.0-355.0","0","0","YHZzx","Scenes","","503","","","32","","148","","52","","","","1","","","","","3","","","","","145","503","","","","","","","","","","","","","","","","","","","","","","","","",""
"","reward_outcome","","html-keyboard-response","350","735697","0.0-356.0","0","0","YHZzx","Scenes","","151","","","38","","148","","52","","","","","","","","","","","","","","","","1","151","","","","","","","","","","","","","","","","","","","","","","",""
"","fixation","","html-keyboard-response","351","736704","0.0-359.0","0","0","YHZzx","Scenes","","null","","","null","","","","","","","","","","","","","","","","","","","","","","","","","","","","","","","","","","","","","","","","","","","",""
"","see_reward","","html-keyboard-response","352","737401","0.0-360.0","0","0","YHZzx","Scenes","","696","","","32","","104","","53","","","","-1","","","","","3","","","","","0","696","","","","","","","","","","","","","","","","","","","","","","","","",""
"","reward_outcome","","html-keyboard-response","353","739417","0.0-361.0","0","0","YHZzx","Scenes","","158","","","40","","104","","53","","","","","","","","","","","","","","","","-1","158","","","","","","","","","","","","","","","","","","","","","","",""
