"success","ttype","start_time","trial_type","trial_index","time_elapsed","internal_node_id","warning","missed_checkup","PID","stim_type","view_history","rt","responses","repeat_instructions","key_press","response","stimulus_id","painting","index","stimulus_left","stimulus_right","explain_trial","reward_type","rating_left","rating_right","painting_left","painting_right","block","left_chosen","chosen_obj","unchosen_obj","explain_response","reward_amount","see_reward_rt","register_reward_response","register_reward_rt","deliberation_reward_tally","stimulus_left_deliberation_ind","stimulus_right_deliberation_ind","chosen_trial","gain_left","higher_outcome_chosen","old_pair","chosen_object","rt_pairs","left_object_chosen","rt_object","old_response","new_rating","deliberated_stim","initial_rating","outcome_eval_rt","outcome_eval_response","outcome_eval_gain","outcome_eval_acc","preamble","outcome_eval_confidence","outcome_eval_confidence_rt","total_reward_tally"
"true","full_screen","d01192023hr2036","fullscreen","0","13434","0.0-0.0","0","0","aQPax","Scenes","","","","","","","","","","","","","","","","","","","","","","","","","","","","","","","","","","","","","","","","","","","","","","","","",""
"","rating_instructions","","instructions","1","23268","0.0-1.0-0.0","0","0","aQPax","Scenes","[{""page_index"":0,""viewing_time"":8117},{""page_index"":1,""viewing_time"":1714}]","9831","","","","","","","","","","","","","","","","","","","","","","","","","","","","","","","","","","","","","","","","","","","","","","",""
"","rating_comprehension_check","","survey-multi-choice","2","31500","0.0-1.0-1.0","0","0","aQPax","Scenes","","8229","{""Q0"":""True"",""Q1"":""Two optional keys""}","1","","","","","","","","","","","","","","","","","","","","","","","","","","","","","","","","","","","","","","","","","","","","",""
"","missed_instruction_checkup","","html-keyboard-response","3","34260","0.0-1.0-2.0-0.0","0","1","aQPax","Scenes","","2756","","","78","","","","","","","","","","","","","","","","","","","","","","","","","","","","","","","","","","","","","","","","","","","",""
"","rating_instructions","","instructions","4","41648","0.0-1.1-0.1","0","0","aQPax","Scenes","[{""page_index"":0,""viewing_time"":5737},{""page_index"":1,""viewing_time"":1648}]","7385","","","","","","","","","","","","","","","","","","","","","","","","","","","","","","","","","","","","","","","","","","","","","","",""
"","rating_comprehension_check","","survey-multi-choice","5","45160","0.0-1.1-1.1","0","0","aQPax","Scenes","","3510","{""Q0"":""True"",""Q1"":""Mouse""}","0","","","","","","","","","","","","","","","","","","","","","","","","","","","","","","","","","","","","","","","","","","","","",""
"","start_phase","","html-keyboard-response","6","47707","0.0-2.0","0","0","aQPax","Scenes","","2544","","","78","","","","","","","","","","","","","","","","","","","","","","","","","","","","","","","","","","","","","","","","","","","",""
"","rating","","html-slider-response","7","52677","0.0-3.0","0","0","aQPax","Scenes","","4965","","","","87","147","tobias-keller-73F4pKoUkM0-unsplash.jpg","0","","","","","","","","","","","","","","","","","","","","","","","","","","","","","","","","","","","","","","","",""
"","rating","","html-slider-response","8","55380","0.0-4.0","0","0","aQPax","Scenes","","2702","","","","9","105","ashim-d-silva-S2Q5mdOrrVc-unsplash.jpg","1","","","","","","","","","","","","","","","","","","","","","","","","","","","","","","","","","","","","","","","",""
"","rating","","html-slider-response","9","58530","0.0-5.0","0","0","aQPax","Scenes","","3148","","","","70","116","david-marcu-W5MhJ6cy1So-unsplash.jpg","2","","","","","","","","","","","","","","","","","","","","","","","","","","","","","","","","","","","","","","","",""
"","rating","","html-slider-response","10","61376","0.0-6.0","0","0","aQPax","Scenes","","2844","","","","44","113","damian-denis-D8R_txR_0PE-unsplash.jpg","3","","","","","","","","","","","","","","","","","","","","","","","","","","","","","","","","","","","","","","","",""
"","rating","","html-slider-response","11","63778","0.0-7.0","0","0","aQPax","Scenes","","2400","","","","97","125","john-lee-oMneOBYhJxY-unsplash.jpg","4","","","","","","","","","","","","","","","","","","","","","","","","","","","","","","","","","","","","","","","",""
"","rating","","html-slider-response","12","66318","0.0-8.0","0","0","aQPax","Scenes","","2538","","","","89","132","meng-ji-8BH_M-53CyA-unsplash.jpg","5","","","","","","","","","","","","","","","","","","","","","","","","","","","","","","","","","","","","","","","",""
"","rating","","html-slider-response","13","68578","0.0-9.0","0","0","aQPax","Scenes","","2258","","","","96","140","samuele-errico-piccarini-JEBqFu2AOOA-unsplash.jpg","6","","","","","","","","","","","","","","","","","","","","","","","","","","","","","","","","","","","","","","","",""
"","rating","","html-slider-response","14","71358","0.0-10.0","0","0","aQPax","Scenes","","2778","","","","75","103","anton-darius-FBJugtbHsWU-unsplash.jpg","7","","","","","","","","","","","","","","","","","","","","","","","","","","","","","","","","","","","","","","","",""
"","rating","","html-slider-response","15","73788","0.0-11.0","0","0","aQPax","Scenes","","2428","","","","56","120","jarrett-kow-1ZOyYPOBn7I-unsplash.jpg","8","","","","","","","","","","","","","","","","","","","","","","","","","","","","","","","","","","","","","","","",""
"","rating","","html-slider-response","16","75838","0.0-12.0","0","0","aQPax","Scenes","","2048","","","","13","136","nicolas-jehly-LzVB84KkZOE-unsplash.jpg","9","","","","","","","","","","","","","","","","","","","","","","","","","","","","","","","","","","","","","","","",""
"","rating","","html-slider-response","17","77556","0.0-13.0","0","0","aQPax","Scenes","","1716","","","","94","148","tom-gainor-ZqLeQDjY6fY-unsplash.jpg","10","","","","","","","","","","","","","","","","","","","","","","","","","","","","","","","","","","","","","","","",""
"","rating","","html-slider-response","18","80656","0.0-14.0","0","0","aQPax","Scenes","","3098","","","","53","111","claudio-testa-U3F2o6vz3bs-unsplash.jpg","11","","","","","","","","","","","","","","","","","","","","","","","","","","","","","","","","","","","","","","","",""
"","rating","","html-slider-response","19","82682","0.0-15.0","0","0","aQPax","Scenes","","2024","","","","58","126","jordan-mcqueen-PJCZOWuOxbU-unsplash.jpg","12","","","","","","","","","","","","","","","","","","","","","","","","","","","","","","","","","","","","","","","",""
"","rating","","html-slider-response","20","84532","0.0-16.0","0","0","aQPax","Scenes","","1848","","","","58","145","stephen-leonardi-gyIRjKPXupE-unsplash.jpg","13","","","","","","","","","","","","","","","","","","","","","","","","","","","","","","","","","","","","","","","",""
"","rating","","html-slider-response","21","86392","0.0-17.0","0","0","aQPax","Scenes","","1858","","","","88","110","bruno-van-der-kraan-qez8mNJ3ilU-unsplash.jpg","14","","","","","","","","","","","","","","","","","","","","","","","","","","","","","","","","","","","","","","","",""
"","rating","","html-slider-response","22","89218","0.0-18.0","0","0","aQPax","Scenes","","2824","","","","72","141","sebastian-unrau-v4e3JI7DDHI-unsplash.jpg","15","","","","","","","","","","","","","","","","","","","","","","","","","","","","","","","","","","","","","","","",""
"","rating","","html-slider-response","23","91316","0.0-19.0","0","0","aQPax","Scenes","","2096","","","","34","106","ashim-d-silva-WeYamle9fDM-unsplash.jpg","16","","","","","","","","","","","","","","","","","","","","","","","","","","","","","","","","","","","","","","","",""
"","rating","","html-slider-response","24","93212","0.0-20.0","0","0","aQPax","Scenes","","1895","","","","86","119","james-wheeler-AFC0XvICMgs-unsplash.jpg","17","","","","","","","","","","","","","","","","","","","","","","","","","","","","","","","","","","","","","","","",""
"","rating","","html-slider-response","25","95298","0.0-21.0","0","0","aQPax","Scenes","","2084","","","","70","124","johannes-plenio-sPt5RIjKfpk-unsplash.jpg","18","","","","","","","","","","","","","","","","","","","","","","","","","","","","","","","","","","","","","","","",""
"","rating","","html-slider-response","26","97550","0.0-22.0","0","0","aQPax","Scenes","","2250","","","","75","127","kace-rodriguez-p3OzJuT_Dks-unsplash.jpg","19","","","","","","","","","","","","","","","","","","","","","","","","","","","","","","","","","","","","","","","",""
"","rating","","html-slider-response","27","99654","0.0-23.0","0","0","aQPax","Scenes","","2102","","","","1","149","yuriy-bogdanov-W51VK3Obcj0-unsplash.jpg","20","","","","","","","","","","","","","","","","","","","","","","","","","","","","","","","","","","","","","","","",""
"","rating","","html-slider-response","28","103126","0.0-24.0","0","0","aQPax","Scenes","","3470","","","","40","131","luca-bravo-hFzIoD0F_i8-unsplash.jpg","21","","","","","","","","","","","","","","","","","","","","","","","","","","","","","","","","","","","","","","","",""
"","rating","","html-slider-response","29","106536","0.0-25.0","0","0","aQPax","Scenes","","3408","","","","43","104","artem-sapegin-XGDBdSQ70O0-unsplash.jpg","22","","","","","","","","","","","","","","","","","","","","","","","","","","","","","","","","","","","","","","","",""
"","rating","","html-slider-response","30","108896","0.0-26.0","0","0","aQPax","Scenes","","2358","","","","47","122","jeff-king-bJHWJeiHfHc-unsplash.jpg","23","","","","","","","","","","","","","","","","","","","","","","","","","","","","","","","","","","","","","","","",""
"","rating","","html-slider-response","31","111540","0.0-27.0","0","0","aQPax","Scenes","","2643","","","","100","108","benjamin-voros-phIFdC6lA4E-unsplash.jpg","24","","","","","","","","","","","","","","","","","","","","","","","","","","","","","","","","","","","","","","","",""
"","rating","","html-slider-response","32","114718","0.0-28.0","0","0","aQPax","Scenes","","3176","","","","47","115","darrell-cassell-hoCXpPUMCoE-unsplash.jpg","25","","","","","","","","","","","","","","","","","","","","","","","","","","","","","","","","","","","","","","","",""
"","rating","","html-slider-response","33","116525","0.0-29.0","0","0","aQPax","Scenes","","1807","","","","57","121","jean-pierre-brungs-qxCqkbF7tUc-unsplash.jpg","26","","","","","","","","","","","","","","","","","","","","","","","","","","","","","","","","","","","","","","","",""
"","rating","","html-slider-response","34","118756","0.0-30.0","0","0","aQPax","Scenes","","2229","","","","80","135","mohammad-alizade-4wzRuAb-KWs-unsplash.jpg","27","","","","","","","","","","","","","","","","","","","","","","","","","","","","","","","","","","","","","","","",""
"","rating","","html-slider-response","35","120822","0.0-31.0","0","0","aQPax","Scenes","","2065","","","","62","134","milada-vigerova-pQMM63GE7fo-unsplash.jpg","28","","","","","","","","","","","","","","","","","","","","","","","","","","","","","","","","","","","","","","","",""
"","rating","","html-slider-response","36","123951","0.0-32.0","0","0","aQPax","Scenes","","3129","","","","37","118","henry-be-NLF6hTe4PAg-unsplash.jpg","29","","","","","","","","","","","","","","","","","","","","","","","","","","","","","","","","","","","","","","","",""
"","rating","","html-slider-response","37","126532","0.0-33.0","0","0","aQPax","Scenes","","2579","","","","24","107","benjamin-davies-Zm2n2O7Fph4-unsplash.jpg","30","","","","","","","","","","","","","","","","","","","","","","","","","","","","","","","","","","","","","","","",""
"","rating","","html-slider-response","38","128056","0.0-34.0","0","0","aQPax","Scenes","","1523","","","","75","109","brigitta-schneiter-hXXRLtTxXCU-unsplash.jpg","31","","","","","","","","","","","","","","","","","","","","","","","","","","","","","","","","","","","","","","","",""
"","rating","","html-slider-response","39","130642","0.0-35.0","0","0","aQPax","Scenes","","2585","","","","53","112","cosmic-timetraveler-pYyOZ8q7AII-unsplash.jpg","32","","","","","","","","","","","","","","","","","","","","","","","","","","","","","","","","","","","","","","","",""
"","rating","","html-slider-response","40","140320","0.0-36.0","0","0","aQPax","Scenes","","9677","","","","41","123","joel-jasmin-forestbird-efuwb5eBDrI-unsplash.jpg","33","","","","","","","","","","","","","","","","","","","","","","","","","","","","","","","","","","","","","","","",""
"","rating","","html-slider-response","41","143162","0.0-37.0","0","0","aQPax","Scenes","","2841","","","","34","101","aniket-deole-T-tOgjWZ0fQ-unsplash.jpg","34","","","","","","","","","","","","","","","","","","","","","","","","","","","","","","","","","","","","","","","",""
"","rating","","html-slider-response","42","145366","0.0-38.0","0","0","aQPax","Scenes","","2203","","","","35","143","sigurdur-fjalar-jonsson-1KxBabIntpE-unsplash.jpg","35","","","","","","","","","","","","","","","","","","","","","","","","","","","","","","","","","","","","","","","",""
"","rating","","html-slider-response","43","147198","0.0-39.0","0","0","aQPax","Scenes","","1831","","","","64","137","olga-stalska-QaWRyEdlffY-unsplash.jpg","36","","","","","","","","","","","","","","","","","","","","","","","","","","","","","","","","","","","","","","","",""
"","rating","","html-slider-response","44","149494","0.0-40.0","0","0","aQPax","Scenes","","2295","","","","42","128","karsten-wurth-jS0zC2PJ17A-unsplash.jpg","37","","","","","","","","","","","","","","","","","","","","","","","","","","","","","","","","","","","","","","","",""
"","rating","","html-slider-response","45","151650","0.0-41.0","0","0","aQPax","Scenes","","2155","","","","35","146","thomas-morse-cuKKa0vWZSY-unsplash.jpg","38","","","","","","","","","","","","","","","","","","","","","","","","","","","","","","","","","","","","","","","",""
"","rating","","html-slider-response","46","156300","0.0-42.0","0","0","aQPax","Scenes","","4649","","","","40","129","kurt-cotoaga-cqbLg3lZEpk-unsplash.jpg","39","","","","","","","","","","","","","","","","","","","","","","","","","","","","","","","","","","","","","","","",""
"","rating","","html-slider-response","47","158954","0.0-43.0","0","0","aQPax","Scenes","","2653","","","","47","144","solotravelgoals-7kLufxYoqWk-unsplash.jpg","40","","","","","","","","","","","","","","","","","","","","","","","","","","","","","","","","","","","","","","","",""
"","rating","","html-slider-response","48","160354","0.0-44.0","0","0","aQPax","Scenes","","1399","","","","58","102","anisur-rahman-K2b7UDed6uQ-unsplash.jpg","41","","","","","","","","","","","","","","","","","","","","","","","","","","","","","","","","","","","","","","","",""
"","rating","","html-slider-response","49","162074","0.0-45.0","0","0","aQPax","Scenes","","1719","","","","59","142","sergey-pesterev-y-b_FOmJXdg-unsplash.jpg","42","","","","","","","","","","","","","","","","","","","","","","","","","","","","","","","","","","","","","","","",""
"","rating","","html-slider-response","50","164008","0.0-46.0","0","0","aQPax","Scenes","","1933","","","","71","117","frank-mckenna-OD9EOzfSOh0-unsplash.jpg","43","","","","","","","","","","","","","","","","","","","","","","","","","","","","","","","","","","","","","","","",""
"","rating","","html-slider-response","51","166042","0.0-47.0","0","0","aQPax","Scenes","","2033","","","","46","133","mickey-o-neil-xL66l--msXU-unsplash.jpg","44","","","","","","","","","","","","","","","","","","","","","","","","","","","","","","","","","","","","","","","",""
"","rating","","html-slider-response","52","167460","0.0-48.0","0","0","aQPax","Scenes","","1417","","","","55","130","lina-loos-04-C1NZk1hE-unsplash.jpg","45","","","","","","","","","","","","","","","","","","","","","","","","","","","","","","","","","","","","","","","",""
"","rating","","html-slider-response","53","169236","0.0-49.0","0","0","aQPax","Scenes","","1775","","","","64","138","petr-vysohlid-9fqwGqGLUxc-unsplash.jpg","46","","","","","","","","","","","","","","","","","","","","","","","","","","","","","","","","","","","","","","","",""
"","rating","","html-slider-response","54","171266","0.0-50.0","0","0","aQPax","Scenes","","2029","","","","44","100","aleksandra-boguslawska-MS7KD9Ti7FQ-unsplash.jpg","47","","","","","","","","","","","","","","","","","","","","","","","","","","","","","","","","","","","","","","","",""
"","rating","","html-slider-response","55","173522","0.0-51.0","0","0","aQPax","Scenes","","2255","","","","25","114","daniel-sessler-z_9VmsxR8hs-unsplash.jpg","48","","","","","","","","","","","","","","","","","","","","","","","","","","","","","","","","","","","","","","","",""
"","rating","","html-slider-response","56","176804","0.0-52.0","0","0","aQPax","Scenes","","3280","","","","31","139","samsommer-vddccTqwal8-unsplash.jpg","49","","","","","","","","","","","","","","","","","","","","","","","","","","","","","","","","","","","","","","","",""
"","deliberation_instructions","","instructions","57","250142","0.0-53.0-0.0","0","0","aQPax","Scenes","[{""page_index"":0,""viewing_time"":11603},{""page_index"":1,""viewing_time"":23452},{""page_index"":2,""viewing_time"":18813},{""page_index"":3,""viewing_time"":18063},{""page_index"":4,""viewing_time"":1404}]","73336","","","","","","","","","","","","","","","","","","","","","","","","","","","","","","","","","","","","","","","","","","","","","","",""
"","deliberation_comprehension_check","","survey-multi-choice","58","268315","0.0-53.0-1.0","0","0","aQPax","Scenes","","18169","{""Q0"":""True"",""Q1"":""True"",""Q2"":""Consider carefully and take your time (up to 10 seconds)"",""Q3"":""True"",""Q4"":""D""}","0","","","","","","","","","","","","","","","","","","","","","","","","","","","","","","","","","","","","","","","","","","","","",""
"","start_phase","","html-keyboard-response","59","270571","0.0-54.0","0","0","aQPax","Scenes","","2254","","","78","","","","","","","","","","","","","","","","","","","","","","","","","","","","","","","","","","","","","","","","","","","",""
"","first_deliberation_block","","html-keyboard-response","60","274555","0.0-55.0","0","0","aQPax","Scenes","","3981","","","78","","","","","","","","","","","","","","","","","","","","","","","","","","","","","","","","","","","","","","","","","","","",""
"","fixation","","html-keyboard-response","61","275567","0.0-56.0-0.0","0","0","aQPax","Scenes","","null","","","null","","","","","","","","","","","","","","","","","","","","","","","","","","","","","","","","","","","","","","","","","","","",""
"","deliberation","","html-keyboard-response","62","278219","0.0-56.0-1.0","0","0","aQPax","Scenes","","2648","","","68","","","","0","130","144","0","-1","55","47","lina-loos-04-C1NZk1hE-unsplash.jpg","solotravelgoals-7kLufxYoqWk-unsplash.jpg","1","1","130","144","","","","","","","","","","","","","","","","","","","","","","","","","","","",""
"","choice_confirmation","","html-keyboard-response","63","278729","0.0-56.0-2.0-0.0","0","0","aQPax","Scenes","","null","","","null","","","","0","130","144","","","","","","","","","","","","","","","","","","","","","","","","","","","","","","","","","","","","","",""
"","fixation","","html-keyboard-response","64","279741","0.0-57.0-0.0","0","0","aQPax","Scenes","","null","","","null","","","","","","","","","","","","","","","","","","","","","","","","","","","","","","","","","","","","","","","","","","","",""
"","deliberation","","html-keyboard-response","65","280988","0.0-57.0-1.0","0","0","aQPax","Scenes","","1243","","","75","","","","1","104","133","1","-1","43","46","artem-sapegin-XGDBdSQ70O0-unsplash.jpg","mickey-o-neil-xL66l--msXU-unsplash.jpg","1","0","133","104","","","","","","","","","","","","","","","","","","","","","","","","","","","",""
"","choice_confirmation","","html-keyboard-response","66","281498","0.0-57.0-2.0-0.0","0","0","aQPax","Scenes","","null","","","null","","","","1","104","133","","","","","","","","","","","","","","","","","","","","","","","","","","","","","","","","","","","","","",""
"","explain_trial","","survey-text","67","290345","0.0-57.0-5.0-0.0","0","0","aQPax","Scenes","","8843","{""Q0"":""The colors are more vibrant and warm.""}","","","","","","1","104","133","","","","","","","","","","","{""Q0"":""The colors are more vibrant and warm.""}","","","","","","","","","","","","","","","","","","","","","","","","","","",""
"","fixation","","html-keyboard-response","68","291349","0.0-58.0-0.0","0","0","aQPax","Scenes","","null","","","null","","","","","","","","","","","","","","","","","","","","","","","","","","","","","","","","","","","","","","","","","","","",""
"","deliberation","","html-keyboard-response","69","295220","0.0-58.0-1.0","0","0","aQPax","Scenes","","3866","","","75","","","","2","142","121","1","1","59","57","sergey-pesterev-y-b_FOmJXdg-unsplash.jpg","jean-pierre-brungs-qxCqkbF7tUc-unsplash.jpg","1","0","121","142","","","","","","","","","","","","","","","","","","","","","","","","","","","",""
"","choice_confirmation","","html-keyboard-response","70","295733","0.0-58.0-2.0-0.0","0","0","aQPax","Scenes","","null","","","null","","","","2","142","121","","","","","","","","","","","","","","","","","","","","","","","","","","","","","","","","","","","","","",""
"","explain_trial","","survey-text","71","301257","0.0-58.0-5.0-0.0","0","0","aQPax","Scenes","","5521","{""Q0"":""The mountains remind me of home.""}","","","","","","2","142","121","","","","","","","","","","","{""Q0"":""The mountains remind me of home.""}","","","","","","","","","","","","","","","","","","","","","","","","","","",""
"","fixation","","html-keyboard-response","72","302269","0.0-59.0-0.0","0","0","aQPax","Scenes","","null","","","null","","","","","","","","","","","","","","","","","","","","","","","","","","","","","","","","","","","","","","","","","","","",""
"","deliberation","","html-keyboard-response","73","305180","0.0-59.0-1.0","0","0","aQPax","Scenes","","2906","","","68","","","","3","116","100","1","1","70","44","david-marcu-W5MhJ6cy1So-unsplash.jpg","aleksandra-boguslawska-MS7KD9Ti7FQ-unsplash.jpg","1","1","116","100","","","","","","","","","","","","","","","","","","","","","","","","","","","",""
"","choice_confirmation","","html-keyboard-response","74","305696","0.0-59.0-2.0-0.0","0","0","aQPax","Scenes","","null","","","null","","","","3","116","100","","","","","","","","","","","","","","","","","","","","","","","","","","","","","","","","","","","","","",""
"","explain_trial","","survey-text","75","313321","0.0-59.0-5.0-0.0","0","0","aQPax","Scenes","","7622","{""Q0"":""Interesting colors and subject matter.""}","","","","","","3","116","100","","","","","","","","","","","{""Q0"":""Interesting colors and subject matter.""}","","","","","","","","","","","","","","","","","","","","","","","","","","",""
"","fixation","","html-keyboard-response","76","314328","0.0-60.0-0.0","0","0","aQPax","Scenes","","null","","","null","","","","","","","","","","","","","","","","","","","","","","","","","","","","","","","","","","","","","","","","","","","",""
"","deliberation","","html-keyboard-response","77","316739","0.0-60.0-1.0","0","0","aQPax","Scenes","","2407","","","68","","","","4","117","115","1","-1","71","47","frank-mckenna-OD9EOzfSOh0-unsplash.jpg","darrell-cassell-hoCXpPUMCoE-unsplash.jpg","1","1","117","115","","","","","","","","","","","","","","","","","","","","","","","","","","","",""
"","choice_confirmation","","html-keyboard-response","78","317250","0.0-60.0-2.0-0.0","0","0","aQPax","Scenes","","null","","","null","","","","4","117","115","","","","","","","","","","","","","","","","","","","","","","","","","","","","","","","","","","","","","",""
"","explain_trial","","survey-text","79","322593","0.0-60.0-5.0-0.0","0","0","aQPax","Scenes","","5340","{""Q0"":""The birds are incredible.""}","","","","","","4","117","115","","","","","","","","","","","{""Q0"":""The birds are incredible.""}","","","","","","","","","","","","","","","","","","","","","","","","","","",""
"","fixation","","html-keyboard-response","80","323608","0.0-61.0-0.0","0","0","aQPax","Scenes","","null","","","null","","","","","","","","","","","","","","","","","","","","","","","","","","","","","","","","","","","","","","","","","","","",""
"","deliberation","","html-keyboard-response","81","327932","0.0-61.0-1.0","0","0","aQPax","Scenes","","4320","","","68","","","","5","111","102","0","-1","53","58","claudio-testa-U3F2o6vz3bs-unsplash.jpg","anisur-rahman-K2b7UDed6uQ-unsplash.jpg","1","1","111","102","","","","","","","","","","","","","","","","","","","","","","","","","","","",""
"","choice_confirmation","","html-keyboard-response","82","328444","0.0-61.0-2.0-0.0","0","0","aQPax","Scenes","","null","","","null","","","","5","111","102","","","","","","","","","","","","","","","","","","","","","","","","","","","","","","","","","","","","","",""
"","fixation","","html-keyboard-response","83","329453","0.0-62.0-0.0","0","0","aQPax","Scenes","","null","","","null","","","","","","","","","","","","","","","","","","","","","","","","","","","","","","","","","","","","","","","","","","","",""
"","deliberation","","html-keyboard-response","84","331955","0.0-62.0-1.0","0","0","aQPax","Scenes","","2498","","","75","","","","6","113","126","1","-1","44","58","damian-denis-D8R_txR_0PE-unsplash.jpg","jordan-mcqueen-PJCZOWuOxbU-unsplash.jpg","1","0","126","113","","","","","","","","","","","","","","","","","","","","","","","","","","","",""
"","choice_confirmation","","html-keyboard-response","85","332466","0.0-62.0-2.0-0.0","0","0","aQPax","Scenes","","null","","","null","","","","6","113","126","","","","","","","","","","","","","","","","","","","","","","","","","","","","","","","","","","","","","",""
"","explain_trial","","survey-text","86","346833","0.0-62.0-5.0-0.0","0","0","aQPax","Scenes","","14363","{""Q0"":""More visually interesting with capturing the sun in the middle.""}","","","","","","6","113","126","","","","","","","","","","","{""Q0"":""More visually interesting with capturing the sun in the middle.""}","","","","","","","","","","","","","","","","","","","","","","","","","","",""
"","fixation","","html-keyboard-response","87","347843","0.0-63.0-0.0","0","0","aQPax","Scenes","","null","","","null","","","","","","","","","","","","","","","","","","","","","","","","","","","","","","","","","","","","","","","","","","","",""
"","deliberation","","html-keyboard-response","88","350364","0.0-63.0-1.0","0","0","aQPax","Scenes","","2516","","","68","","","","7","120","124","0","-1","56","70","jarrett-kow-1ZOyYPOBn7I-unsplash.jpg","johannes-plenio-sPt5RIjKfpk-unsplash.jpg","1","1","120","124","","","","","","","","","","","","","","","","","","","","","","","","","","","",""
"","choice_confirmation","","html-keyboard-response","89","350880","0.0-63.0-2.0-0.0","0","0","aQPax","Scenes","","null","","","null","","","","7","120","124","","","","","","","","","","","","","","","","","","","","","","","","","","","","","","","","","","","","","",""
"","fixation","","html-keyboard-response","90","351898","0.0-64.0-0.0","0","0","aQPax","Scenes","","null","","","null","","","","","","","","","","","","","","","","","","","","","","","","","","","","","","","","","","","","","","","","","","","",""
"","deliberation","","html-keyboard-response","91","354811","0.0-64.0-1.0","0","0","aQPax","Scenes","","2911","","","68","","","","8","128","122","0","1","42","47","karsten-wurth-jS0zC2PJ17A-unsplash.jpg","jeff-king-bJHWJeiHfHc-unsplash.jpg","1","1","128","122","","","","","","","","","","","","","","","","","","","","","","","","","","","",""
"","choice_confirmation","","html-keyboard-response","92","355320","0.0-64.0-2.0-0.0","0","0","aQPax","Scenes","","null","","","null","","","","8","128","122","","","","","","","","","","","","","","","","","","","","","","","","","","","","","","","","","","","","","",""
"","fixation","","html-keyboard-response","93","356337","0.0-65.0-0.0","0","0","aQPax","Scenes","","null","","","null","","","","","","","","","","","","","","","","","","","","","","","","","","","","","","","","","","","","","","","","","","","",""
"","deliberation","","html-keyboard-response","94","358531","0.0-65.0-1.0","0","0","aQPax","Scenes","","2191","","","68","","","","9","138","123","1","1","64","41","petr-vysohlid-9fqwGqGLUxc-unsplash.jpg","joel-jasmin-forestbird-efuwb5eBDrI-unsplash.jpg","1","1","138","123","","","","","","","","","","","","","","","","","","","","","","","","","","","",""
"","choice_confirmation","","html-keyboard-response","95","359041","0.0-65.0-2.0-0.0","0","0","aQPax","Scenes","","null","","","null","","","","9","138","123","","","","","","","","","","","","","","","","","","","","","","","","","","","","","","","","","","","","","",""
"","explain_trial","","survey-text","96","365785","0.0-65.0-5.0-0.0","0","0","aQPax","Scenes","","6741","{""Q0"":""The colors are warm.""}","","","","","","9","138","123","","","","","","","","","","","{""Q0"":""The colors are warm.""}","","","","","","","","","","","","","","","","","","","","","","","","","","",""
"","fixation","","html-keyboard-response","97","366798","0.0-66.0-0.0","0","0","aQPax","Scenes","","null","","","null","","","","","","","","","","","","","","","","","","","","","","","","","","","","","","","","","","","","","","","","","","","",""
"","deliberation","","html-keyboard-response","98","370020","0.0-66.0-1.0","0","0","aQPax","Scenes","","3218","","","68","","","","10","134","112","0","1","62","53","milada-vigerova-pQMM63GE7fo-unsplash.jpg","cosmic-timetraveler-pYyOZ8q7AII-unsplash.jpg","1","1","134","112","","","","","","","","","","","","","","","","","","","","","","","","","","","",""
"","choice_confirmation","","html-keyboard-response","99","370536","0.0-66.0-2.0-0.0","0","0","aQPax","Scenes","","null","","","null","","","","10","134","112","","","","","","","","","","","","","","","","","","","","","","","","","","","","","","","","","","","","","",""
"","fixation","","html-keyboard-response","100","371554","0.0-67.0-0.0","0","0","aQPax","Scenes","","null","","","null","","","","","","","","","","","","","","","","","","","","","","","","","","","","","","","","","","","","","","","","","","","",""
"","deliberation","","html-keyboard-response","101","373068","0.0-67.0-1.0","0","0","aQPax","Scenes","","1511","","","75","","","","11","145","137","0","1","58","64","stephen-leonardi-gyIRjKPXupE-unsplash.jpg","olga-stalska-QaWRyEdlffY-unsplash.jpg","1","0","137","145","","","","","","","","","","","","","","","","","","","","","","","","","","","",""
"","choice_confirmation","","html-keyboard-response","102","373575","0.0-67.0-2.0-0.0","0","0","aQPax","Scenes","","null","","","null","","","","11","145","137","","","","","","","","","","","","","","","","","","","","","","","","","","","","","","","","","","","","","",""
"","practice_deliberation_again","","html-keyboard-response","103","376459","0.0-67.0-6.0-0.0","0","0","aQPax","Scenes","","2881","","","78","","","","","","","","","","","","","","","","","","","","","","","","","","","","","","","","","","","","","","","","","","","",""
"","fixation","","html-keyboard-response","104","377473","0.0-68.0-0.0","0","0","aQPax","Scenes","","null","","","null","","","","","","","","","","","","","","","","","","","","","","","","","","","","","","","","","","","","","","","","","","","",""
"","deliberation","","html-keyboard-response","105","383796","0.0-68.0-1.0","0","0","aQPax","Scenes","","6319","","","75","","","","12","130","144","1","-1","55","47","lina-loos-04-C1NZk1hE-unsplash.jpg","solotravelgoals-7kLufxYoqWk-unsplash.jpg","2","0","144","130","","","","","","","","","","","","","","","","","","","","","","","","","","","",""
"","choice_confirmation","","html-keyboard-response","106","384304","0.0-68.0-2.0-0.0","0","0","aQPax","Scenes","","null","","","null","","","","12","130","144","","","","","","","","","","","","","","","","","","","","","","","","","","","","","","","","","","","","","",""
"","explain_trial","","survey-text","107","391257","0.0-68.0-5.0-0.0","0","0","aQPax","Scenes","","6950","{""Q0"":""Nice color palette.""}","","","","","","12","130","144","","","","","","","","","","","{""Q0"":""Nice color palette.""}","","","","","","","","","","","","","","","","","","","","","","","","","","",""
"","fixation","","html-keyboard-response","108","392267","0.0-69.0-0.0","0","0","aQPax","Scenes","","null","","","null","","","","","","","","","","","","","","","","","","","","","","","","","","","","","","","","","","","","","","","","","","","",""
"","deliberation","","html-keyboard-response","109","394564","0.0-69.0-1.0","0","0","aQPax","Scenes","","2294","","","68","","","","13","116","100","0","1","70","44","david-marcu-W5MhJ6cy1So-unsplash.jpg","aleksandra-boguslawska-MS7KD9Ti7FQ-unsplash.jpg","2","1","116","100","","","","","","","","","","","","","","","","","","","","","","","","","","","",""
"","choice_confirmation","","html-keyboard-response","110","395084","0.0-69.0-2.0-0.0","0","0","aQPax","Scenes","","null","","","null","","","","13","116","100","","","","","","","","","","","","","","","","","","","","","","","","","","","","","","","","","","","","","",""
"","fixation","","html-keyboard-response","111","396103","0.0-70.0-0.0","0","0","aQPax","Scenes","","null","","","null","","","","","","","","","","","","","","","","","","","","","","","","","","","","","","","","","","","","","","","","","","","",""
"","deliberation","","html-keyboard-response","112","398379","0.0-70.0-1.0","0","0","aQPax","Scenes","","2274","","","75","","","","14","142","121","0","1","59","57","sergey-pesterev-y-b_FOmJXdg-unsplash.jpg","jean-pierre-brungs-qxCqkbF7tUc-unsplash.jpg","2","0","121","142","","","","","","","","","","","","","","","","","","","","","","","","","","","",""
"","choice_confirmation","","html-keyboard-response","113","398899","0.0-70.0-2.0-0.0","0","0","aQPax","Scenes","","null","","","null","","","","14","142","121","","","","","","","","","","","","","","","","","","","","","","","","","","","","","","","","","","","","","",""
"","fixation","","html-keyboard-response","114","399915","0.0-71.0-0.0","0","0","aQPax","Scenes","","null","","","null","","","","","","","","","","","","","","","","","","","","","","","","","","","","","","","","","","","","","","","","","","","",""
"","deliberation","","html-keyboard-response","115","401028","0.0-71.0-1.0","0","0","aQPax","Scenes","","1110","","","75","","","","15","104","133","0","-1","43","46","artem-sapegin-XGDBdSQ70O0-unsplash.jpg","mickey-o-neil-xL66l--msXU-unsplash.jpg","2","0","133","104","","","","","","","","","","","","","","","","","","","","","","","","","","","",""
"","choice_confirmation","","html-keyboard-response","116","401538","0.0-71.0-2.0-0.0","0","0","aQPax","Scenes","","null","","","null","","","","15","104","133","","","","","","","","","","","","","","","","","","","","","","","","","","","","","","","","","","","","","",""
"","fixation","","html-keyboard-response","117","402555","0.0-72.0-0.0","0","0","aQPax","Scenes","","null","","","null","","","","","","","","","","","","","","","","","","","","","","","","","","","","","","","","","","","","","","","","","","","",""
"","deliberation","","html-keyboard-response","118","403747","0.0-72.0-1.0","0","0","aQPax","Scenes","","1188","","","68","","","","16","128","122","1","1","42","47","karsten-wurth-jS0zC2PJ17A-unsplash.jpg","jeff-king-bJHWJeiHfHc-unsplash.jpg","2","1","128","122","","","","","","","","","","","","","","","","","","","","","","","","","","","",""
"","choice_confirmation","","html-keyboard-response","119","404265","0.0-72.0-2.0-0.0","0","0","aQPax","Scenes","","null","","","null","","","","16","128","122","","","","","","","","","","","","","","","","","","","","","","","","","","","","","","","","","","","","","",""
"","explain_trial","","survey-text","120","411169","0.0-72.0-5.0-0.0","0","0","aQPax","Scenes","","6901","{""Q0"":""Beautiful sky.""}","","","","","","16","128","122","","","","","","","","","","","{""Q0"":""Beautiful sky.""}","","","","","","","","","","","","","","","","","","","","","","","","","","",""
"","fixation","","html-keyboard-response","121","412174","0.0-73.0-0.0","0","0","aQPax","Scenes","","null","","","null","","","","","","","","","","","","","","","","","","","","","","","","","","","","","","","","","","","","","","","","","","","",""
"","deliberation","","html-keyboard-response","122","414371","0.0-73.0-1.0","0","0","aQPax","Scenes","","2193","","","75","","","","17","145","137","1","1","58","64","stephen-leonardi-gyIRjKPXupE-unsplash.jpg","olga-stalska-QaWRyEdlffY-unsplash.jpg","2","0","137","145","","","","","","","","","","","","","","","","","","","","","","","","","","","",""
"","choice_confirmation","","html-keyboard-response","123","414890","0.0-73.0-2.0-0.0","0","0","aQPax","Scenes","","null","","","null","","","","17","145","137","","","","","","","","","","","","","","","","","","","","","","","","","","","","","","","","","","","","","",""
"","explain_trial","","survey-text","124","423633","0.0-73.0-5.0-0.0","0","0","aQPax","Scenes","","8740","{""Q0"":""It's very tranquil.""}","","","","","","17","145","137","","","","","","","","","","","{""Q0"":""It's very tranquil.""}","","","","","","","","","","","","","","","","","","","","","","","","","","",""
"","fixation","","html-keyboard-response","125","424648","0.0-74.0-0.0","0","0","aQPax","Scenes","","null","","","null","","","","","","","","","","","","","","","","","","","","","","","","","","","","","","","","","","","","","","","","","","","",""
"","deliberation","","html-keyboard-response","126","426084","0.0-74.0-1.0","0","0","aQPax","Scenes","","1433","","","68","","","","18","117","115","0","-1","71","47","frank-mckenna-OD9EOzfSOh0-unsplash.jpg","darrell-cassell-hoCXpPUMCoE-unsplash.jpg","2","1","117","115","","","","","","","","","","","","","","","","","","","","","","","","","","","",""
"","choice_confirmation","","html-keyboard-response","127","426589","0.0-74.0-2.0-0.0","0","0","aQPax","Scenes","","null","","","null","","","","18","117","115","","","","","","","","","","","","","","","","","","","","","","","","","","","","","","","","","","","","","",""
"","fixation","","html-keyboard-response","128","427603","0.0-75.0-0.0","0","0","aQPax","Scenes","","null","","","null","","","","","","","","","","","","","","","","","","","","","","","","","","","","","","","","","","","","","","","","","","","",""
"","deliberation","","html-keyboard-response","129","429100","0.0-75.0-1.0","0","0","aQPax","Scenes","","1493","","","68","","","","19","111","102","1","-1","53","58","claudio-testa-U3F2o6vz3bs-unsplash.jpg","anisur-rahman-K2b7UDed6uQ-unsplash.jpg","2","1","111","102","","","","","","","","","","","","","","","","","","","","","","","","","","","",""
"","choice_confirmation","","html-keyboard-response","130","429608","0.0-75.0-2.0-0.0","0","0","aQPax","Scenes","","null","","","null","","","","19","111","102","","","","","","","","","","","","","","","","","","","","","","","","","","","","","","","","","","","","","",""
"","explain_trial","","survey-text","131","455841","0.0-75.0-5.0-0.0","0","0","aQPax","Scenes","","26230","{""Q0"":""In all honesty, it reminds me of the default screen on Windows XP, so, it's nostalgic for me and I'm assuming a lot of other people.""}","","","","","","19","111","102","","","","","","","","","","","{""Q0"":""In all honesty, it reminds me of the default screen on Windows XP, so, it's nostalgic for me and I'm assuming a lot of other people.""}","","","","","","","","","","","","","","","","","","","","","","","","","","",""
"","fixation","","html-keyboard-response","132","456859","0.0-76.0-0.0","0","0","aQPax","Scenes","","null","","","null","","","","","","","","","","","","","","","","","","","","","","","","","","","","","","","","","","","","","","","","","","","",""
"","deliberation","","html-keyboard-response","133","459844","0.0-76.0-1.0","0","0","aQPax","Scenes","","2981","","","68","","","","20","134","112","1","1","62","53","milada-vigerova-pQMM63GE7fo-unsplash.jpg","cosmic-timetraveler-pYyOZ8q7AII-unsplash.jpg","2","1","134","112","","","","","","","","","","","","","","","","","","","","","","","","","","","",""
"","choice_confirmation","","html-keyboard-response","134","460359","0.0-76.0-2.0-0.0","0","0","aQPax","Scenes","","null","","","null","","","","20","134","112","","","","","","","","","","","","","","","","","","","","","","","","","","","","","","","","","","","","","",""
"","explain_trial","","survey-text","135","471863","0.0-76.0-5.0-0.0","0","0","aQPax","Scenes","","11501","{""Q0"":""Very serene and relaxing photo.""}","","","","","","20","134","112","","","","","","","","","","","{""Q0"":""Very serene and relaxing photo.""}","","","","","","","","","","","","","","","","","","","","","","","","","","",""
"","fixation","","html-keyboard-response","136","472883","0.0-77.0-0.0","0","0","aQPax","Scenes","","null","","","null","","","","","","","","","","","","","","","","","","","","","","","","","","","","","","","","","","","","","","","","","","","",""
"","deliberation","","html-keyboard-response","137","474316","0.0-77.0-1.0","0","0","aQPax","Scenes","","1429","","","75","","","","21","113","126","0","-1","44","58","damian-denis-D8R_txR_0PE-unsplash.jpg","jordan-mcqueen-PJCZOWuOxbU-unsplash.jpg","2","0","126","113","","","","","","","","","","","","","","","","","","","","","","","","","","","",""
"","choice_confirmation","","html-keyboard-response","138","474825","0.0-77.0-2.0-0.0","0","0","aQPax","Scenes","","null","","","null","","","","21","113","126","","","","","","","","","","","","","","","","","","","","","","","","","","","","","","","","","","","","","",""
"","fixation","","html-keyboard-response","139","475840","0.0-78.0-0.0","0","0","aQPax","Scenes","","null","","","null","","","","","","","","","","","","","","","","","","","","","","","","","","","","","","","","","","","","","","","","","","","",""
"","deliberation","","html-keyboard-response","140","477171","0.0-78.0-1.0","0","0","aQPax","Scenes","","1327","","","68","","","","22","138","123","0","1","64","41","petr-vysohlid-9fqwGqGLUxc-unsplash.jpg","joel-jasmin-forestbird-efuwb5eBDrI-unsplash.jpg","2","1","138","123","","","","","","","","","","","","","","","","","","","","","","","","","","","",""
"","choice_confirmation","","html-keyboard-response","141","477683","0.0-78.0-2.0-0.0","0","0","aQPax","Scenes","","null","","","null","","","","22","138","123","","","","","","","","","","","","","","","","","","","","","","","","","","","","","","","","","","","","","",""
"","fixation","","html-keyboard-response","142","478694","0.0-79.0-0.0","0","0","aQPax","Scenes","","null","","","null","","","","","","","","","","","","","","","","","","","","","","","","","","","","","","","","","","","","","","","","","","","",""
"","deliberation","","html-keyboard-response","143","479891","0.0-79.0-1.0","0","0","aQPax","Scenes","","1192","","","68","","","","23","120","124","1","-1","56","70","jarrett-kow-1ZOyYPOBn7I-unsplash.jpg","johannes-plenio-sPt5RIjKfpk-unsplash.jpg","2","1","120","124","","","","","","","","","","","","","","","","","","","","","","","","","","","",""
"","choice_confirmation","","html-keyboard-response","144","480402","0.0-79.0-2.0-0.0","0","0","aQPax","Scenes","","null","","","null","","","","23","120","124","","","","","","","","","","","","","","","","","","","","","","","","","","","","","","","","","","","","","",""
"","explain_trial","","survey-text","145","492678","0.0-79.0-5.0-0.0","0","0","aQPax","Scenes","","12273","{""Q0"":""The colors pop, it looks almost like a painting.""}","","","","","","23","120","124","","","","","","","","","","","{""Q0"":""The colors pop, it looks almost like a painting.""}","","","","","","","","","","","","","","","","","","","","","","","","","","",""
"","start_critical_deliberation_block","","html-keyboard-response","146","496027","0.0-79.0-7.0-0.0","0","0","aQPax","Scenes","","3346","","","78","","","","","","","","","","","","","","","","","","","","","","","","","","","","","","","","","","","","","","","","","","","",""
"","fixation","","html-keyboard-response","147","497049","0.0-80.0-0.0","0","0","aQPax","Scenes","","null","","","null","","","","","","","","","","","","","","","","","","","","","","","","","","","","","","","","","","","","","","","","","","","",""
"","deliberation","","html-keyboard-response","148","499139","0.0-80.0-1.0","0","0","aQPax","Scenes","","2085","","","75","","","","24","104","133","0","-1","43","46","artem-sapegin-XGDBdSQ70O0-unsplash.jpg","mickey-o-neil-xL66l--msXU-unsplash.jpg","3","0","133","104","","","","","","","","","","","","","","","","","","","","","","","","","","","",""
"","choice_confirmation","","html-keyboard-response","149","499644","0.0-80.0-2.0-0.0","0","0","aQPax","Scenes","","null","","","null","","","","24","104","133","","","","","","","","","","","","","","","","","","","","","","","","","","","","","","","","","","","","","",""
"","fixation","","html-keyboard-response","150","500654","0.0-81.0-0.0","0","0","aQPax","Scenes","","null","","","null","","","","","","","","","","","","","","","","","","","","","","","","","","","","","","","","","","","","","","","","","","","",""
"","deliberation","","html-keyboard-response","151","502139","0.0-81.0-1.0","0","0","aQPax","Scenes","","1481","","","75","","","","25","113","126","0","-1","44","58","damian-denis-D8R_txR_0PE-unsplash.jpg","jordan-mcqueen-PJCZOWuOxbU-unsplash.jpg","3","0","126","113","","","","","","","","","","","","","","","","","","","","","","","","","","","",""
"","choice_confirmation","","html-keyboard-response","152","502654","0.0-81.0-2.0-0.0","0","0","aQPax","Scenes","","null","","","null","","","","25","113","126","","","","","","","","","","","","","","","","","","","","","","","","","","","","","","","","","","","","","",""
"","fixation","","html-keyboard-response","153","503665","0.0-82.0-0.0","0","0","aQPax","Scenes","","null","","","null","","","","","","","","","","","","","","","","","","","","","","","","","","","","","","","","","","","","","","","","","","","",""
"","deliberation","","html-keyboard-response","154","505547","0.0-82.0-1.0","0","0","aQPax","Scenes","","1878","","","75","","","","26","145","137","0","1","58","64","stephen-leonardi-gyIRjKPXupE-unsplash.jpg","olga-stalska-QaWRyEdlffY-unsplash.jpg","3","0","137","145","","","","","","","","","","","","","","","","","","","","","","","","","","","",""
"","choice_confirmation","","html-keyboard-response","155","506059","0.0-82.0-2.0-0.0","0","0","aQPax","Scenes","","null","","","null","","","","26","145","137","","","","","","","","","","","","","","","","","","","","","","","","","","","","","","","","","","","","","",""
"","fixation","","html-keyboard-response","156","507081","0.0-83.0-0.0","0","0","aQPax","Scenes","","null","","","null","","","","","","","","","","","","","","","","","","","","","","","","","","","","","","","","","","","","","","","","","","","",""
"","deliberation","","html-keyboard-response","157","507819","0.0-83.0-1.0","0","0","aQPax","Scenes","","734","","","68","","","","27","134","112","0","1","62","53","milada-vigerova-pQMM63GE7fo-unsplash.jpg","cosmic-timetraveler-pYyOZ8q7AII-unsplash.jpg","3","1","134","112","","","","","","","","","","","","","","","","","","","","","","","","","","","",""
"","choice_confirmation","","html-keyboard-response","158","508337","0.0-83.0-2.0-0.0","0","0","aQPax","Scenes","","null","","","null","","","","27","134","112","","","","","","","","","","","","","","","","","","","","","","","","","","","","","","","","","","","","","",""
"","fixation","","html-keyboard-response","159","509352","0.0-84.0-0.0","0","0","aQPax","Scenes","","null","","","null","","","","","","","","","","","","","","","","","","","","","","","","","","","","","","","","","","","","","","","","","","","",""
"","deliberation","","html-keyboard-response","160","510187","0.0-84.0-1.0","0","0","aQPax","Scenes","","832","","","68","","","","28","116","100","0","1","70","44","david-marcu-W5MhJ6cy1So-unsplash.jpg","aleksandra-boguslawska-MS7KD9Ti7FQ-unsplash.jpg","3","1","116","100","","","","","","","","","","","","","","","","","","","","","","","","","","","",""
"","choice_confirmation","","html-keyboard-response","161","510700","0.0-84.0-2.0-0.0","0","0","aQPax","Scenes","","null","","","null","","","","28","116","100","","","","","","","","","","","","","","","","","","","","","","","","","","","","","","","","","","","","","",""
"","fixation","","html-keyboard-response","162","511723","0.0-85.0-0.0","0","0","aQPax","Scenes","","null","","","null","","","","","","","","","","","","","","","","","","","","","","","","","","","","","","","","","","","","","","","","","","","",""
"","deliberation","","html-keyboard-response","163","512659","0.0-85.0-1.0","0","0","aQPax","Scenes","","933","","","68","","","","29","138","123","0","1","64","41","petr-vysohlid-9fqwGqGLUxc-unsplash.jpg","joel-jasmin-forestbird-efuwb5eBDrI-unsplash.jpg","3","1","138","123","","","","","","","","","","","","","","","","","","","","","","","","","","","",""
"","choice_confirmation","","html-keyboard-response","164","513173","0.0-85.0-2.0-0.0","0","0","aQPax","Scenes","","null","","","null","","","","29","138","123","","","","","","","","","","","","","","","","","","","","","","","","","","","","","","","","","","","","","",""
"","fixation","","html-keyboard-response","165","514182","0.0-86.0-0.0","0","0","aQPax","Scenes","","null","","","null","","","","","","","","","","","","","","","","","","","","","","","","","","","","","","","","","","","","","","","","","","","",""
"","deliberation","","html-keyboard-response","166","515027","0.0-86.0-1.0","0","0","aQPax","Scenes","","841","","","68","","","","30","128","122","0","1","42","47","karsten-wurth-jS0zC2PJ17A-unsplash.jpg","jeff-king-bJHWJeiHfHc-unsplash.jpg","3","1","128","122","","","","","","","","","","","","","","","","","","","","","","","","","","","",""
"","choice_confirmation","","html-keyboard-response","167","515537","0.0-86.0-2.0-0.0","0","0","aQPax","Scenes","","null","","","null","","","","30","128","122","","","","","","","","","","","","","","","","","","","","","","","","","","","","","","","","","","","","","",""
"","fixation","","html-keyboard-response","168","516560","0.0-87.0-0.0","0","0","aQPax","Scenes","","null","","","null","","","","","","","","","","","","","","","","","","","","","","","","","","","","","","","","","","","","","","","","","","","",""
"","deliberation","","html-keyboard-response","169","517499","0.0-87.0-1.0","0","0","aQPax","Scenes","","936","","","75","","","","31","142","121","0","1","59","57","sergey-pesterev-y-b_FOmJXdg-unsplash.jpg","jean-pierre-brungs-qxCqkbF7tUc-unsplash.jpg","3","0","121","142","","","","","","","","","","","","","","","","","","","","","","","","","","","",""
"","choice_confirmation","","html-keyboard-response","170","518008","0.0-87.0-2.0-0.0","0","0","aQPax","Scenes","","null","","","null","","","","31","142","121","","","","","","","","","","","","","","","","","","","","","","","","","","","","","","","","","","","","","",""
"","fixation","","html-keyboard-response","171","519022","0.0-88.0-0.0","0","0","aQPax","Scenes","","null","","","null","","","","","","","","","","","","","","","","","","","","","","","","","","","","","","","","","","","","","","","","","","","",""
"","deliberation","","html-keyboard-response","172","519747","0.0-88.0-1.0","0","0","aQPax","Scenes","","722","","","68","","","","32","120","124","0","-1","56","70","jarrett-kow-1ZOyYPOBn7I-unsplash.jpg","johannes-plenio-sPt5RIjKfpk-unsplash.jpg","3","1","120","124","","","","","","","","","","","","","","","","","","","","","","","","","","","",""
"","choice_confirmation","","html-keyboard-response","173","520252","0.0-88.0-2.0-0.0","0","0","aQPax","Scenes","","null","","","null","","","","32","120","124","","","","","","","","","","","","","","","","","","","","","","","","","","","","","","","","","","","","","",""
"","fixation","","html-keyboard-response","174","521273","0.0-89.0-0.0","0","0","aQPax","Scenes","","null","","","null","","","","","","","","","","","","","","","","","","","","","","","","","","","","","","","","","","","","","","","","","","","",""
"","deliberation","","html-keyboard-response","175","522619","0.0-89.0-1.0","0","0","aQPax","Scenes","","1342","","","68","","","","33","111","102","0","-1","53","58","claudio-testa-U3F2o6vz3bs-unsplash.jpg","anisur-rahman-K2b7UDed6uQ-unsplash.jpg","3","1","111","102","","","","","","","","","","","","","","","","","","","","","","","","","","","",""
"","choice_confirmation","","html-keyboard-response","176","523126","0.0-89.0-2.0-0.0","0","0","aQPax","Scenes","","null","","","null","","","","33","111","102","","","","","","","","","","","","","","","","","","","","","","","","","","","","","","","","","","","","","",""
"","fixation","","html-keyboard-response","177","524138","0.0-90.0-0.0","0","0","aQPax","Scenes","","null","","","null","","","","","","","","","","","","","","","","","","","","","","","","","","","","","","","","","","","","","","","","","","","",""
"","deliberation","","html-keyboard-response","178","525939","0.0-90.0-1.0","0","0","aQPax","Scenes","","1797","","","75","","","","34","130","144","0","-1","55","47","lina-loos-04-C1NZk1hE-unsplash.jpg","solotravelgoals-7kLufxYoqWk-unsplash.jpg","3","0","144","130","","","","","","","","","","","","","","","","","","","","","","","","","","","",""
"","choice_confirmation","","html-keyboard-response","179","526451","0.0-90.0-2.0-0.0","0","0","aQPax","Scenes","","null","","","null","","","","34","130","144","","","","","","","","","","","","","","","","","","","","","","","","","","","","","","","","","","","","","",""
"","fixation","","html-keyboard-response","180","527467","0.0-91.0-0.0","0","0","aQPax","Scenes","","null","","","null","","","","","","","","","","","","","","","","","","","","","","","","","","","","","","","","","","","","","","","","","","","",""
"","deliberation","","html-keyboard-response","181","528387","0.0-91.0-1.0","0","0","aQPax","Scenes","","916","","","68","","","","35","117","115","0","-1","71","47","frank-mckenna-OD9EOzfSOh0-unsplash.jpg","darrell-cassell-hoCXpPUMCoE-unsplash.jpg","3","1","117","115","","","","","","","","","","","","","","","","","","","","","","","","","","","",""
"","choice_confirmation","","html-keyboard-response","182","528930","0.0-91.0-2.0-0.0","0","0","aQPax","Scenes","","null","","","null","","","","35","117","115","","","","","","","","","","","","","","","","","","","","","","","","","","","","","","","","","","","","","",""
"","reward_learning_instructions","","instructions","183","575919","0.0-92.0-0.0","0","0","aQPax","Scenes","[{""page_index"":0,""viewing_time"":19910},{""page_index"":1,""viewing_time"":25756},{""page_index"":2,""viewing_time"":1320}]","46986","","","","","","","","","","","","","","","","","","","","","","","","","","","","","","","","","","","","","","","","","","","","","","",""
"","reward_comprehension_check","","survey-multi-choice","184","584709","0.0-92.0-1.0","0","0","aQPax","Scenes","","8787","{""Q0"":""True"",""Q1"":""True"",""Q2"":""Press the space bar to see its outcome"",""Q3"":""Press the relevant key while the outcome is presented""}","0","","","","","","","","","","","","","","","","","","","","","","","","","","","","","","","","","","","","","","","","","","","","",""
"","start_phase","","html-keyboard-response","185","586603","0.0-93.0","0","0","aQPax","Scenes","","1891","","","78","","","","","","","","","","","","","","","","","","","","","","","","","","","","","","","","","","","","","","","","","","","",""
"","fixation","","html-keyboard-response","186","587617","0.0-94.0","0","0","aQPax","Scenes","","null","","","null","","","","","","","","","","","","","","","","","","","","","","","","","","","","","","","","","","","","","","","","","","","",""
"","see_reward","","html-keyboard-response","187","589067","0.0-95.0","0","0","aQPax","Scenes","","1446","","","32","","126","","0","","","","-1","","","","","1","","","","","0","1446","","","","","","","","","","","","","","","","","","","","","","","","",""
"","reward_outcome","","html-keyboard-response","188","591086","0.0-96.0","0","0","aQPax","Scenes","","1220","","","40","","126","","0","","","","","","","","","","","","","","","","-1","1220","","","","","","","","","","","","","","","","","","","","","","",""
"","fixation","","html-keyboard-response","189","592103","0.0-99.0","0","0","aQPax","Scenes","","null","","","null","","","","","","","","","","","","","","","","","","","","","","","","","","","","","","","","","","","","","","","","","","","",""
"","see_reward","","html-keyboard-response","190","593107","0.0-100.0","0","0","aQPax","Scenes","","1001","","","32","","121","","1","","","","1","","","","","1","","","","","158","1001","","","","","","","","","","","","","","","","","","","","","","","","",""
"","reward_outcome","","html-keyboard-response","191","595124","0.0-101.0","0","0","aQPax","Scenes","","901","","","38","","121","","1","","","","","","","","","","","","","","","","1","901","","","","","","","","","","","","","","","","","","","","","","",""
"","fixation","","html-keyboard-response","192","596144","0.0-104.0","0","0","aQPax","Scenes","","null","","","null","","","","","","","","","","","","","","","","","","","","","","","","","","","","","","","","","","","","","","","","","","","",""
"","see_reward","","html-keyboard-response","193","596860","0.0-105.0","0","0","aQPax","Scenes","","713","","","32","","144","","2","","","","-1","","","","","1","","","","","0","713","","","","","","","","","","","","","","","","","","","","","","","","",""
"","reward_outcome","","html-keyboard-response","194","598868","0.0-106.0","0","0","aQPax","Scenes","","820","","","40","","144","","2","","","","","","","","","","","","","","","","-1","820","","","","","","","","","","","","","","","","","","","","","","",""
"","fixation","","html-keyboard-response","195","599883","0.0-109.0","0","0","aQPax","Scenes","","null","","","null","","","","","","","","","","","","","","","","","","","","","","","","","","","","","","","","","","","","","","","","","","","",""
"","see_reward","","html-keyboard-response","196","600739","0.0-110.0","0","0","aQPax","Scenes","","852","","","32","","137","","3","","","","1","","","","","1","","","","","140","852","","","","","","","","","","","","","","","","","","","","","","","","",""
"","reward_outcome","","html-keyboard-response","197","602753","0.0-111.0","0","0","aQPax","Scenes","","1748","","","38","","137","","3","","","","","","","","","","","","","","","","1","1748","","","","","","","","","","","","","","","","","","","","","","",""
"","fixation","","html-keyboard-response","198","603775","0.0-114.0","0","0","aQPax","Scenes","","null","","","null","","","","","","","","","","","","","","","","","","","","","","","","","","","","","","","","","","","","","","","","","","","",""
"","see_reward","","html-keyboard-response","199","604331","0.0-115.0","0","0","aQPax","Scenes","","552","","","32","","117","","4","","","","-1","","","","","1","","","","","0","552","","","","","","","","","","","","","","","","","","","","","","","","",""
"","reward_outcome","","html-keyboard-response","200","606340","0.0-116.0","0","0","aQPax","Scenes","","748","","","40","","117","","4","","","","","","","","","","","","","","","","-1","748","","","","","","","","","","","","","","","","","","","","","","",""
"","fixation","","html-keyboard-response","201","607363","0.0-119.0","0","0","aQPax","Scenes","","null","","","null","","","","","","","","","","","","","","","","","","","","","","","","","","","","","","","","","","","","","","","","","","","",""
"","see_reward","","html-keyboard-response","202","608100","0.0-120.0","0","0","aQPax","Scenes","","734","","","32","","133","","5","","","","-1","","","","","1","","","","","0","734","","","","","","","","","","","","","","","","","","","","","","","","",""
"","reward_outcome","","html-keyboard-response","203","610116","0.0-121.0","0","0","aQPax","Scenes","","561","","","40","","133","","5","","","","","","","","","","","","","","","","-1","561","","","","","","","","","","","","","","","","","","","","","","",""
"","fixation","","html-keyboard-response","204","611123","0.0-124.0","0","0","aQPax","Scenes","","null","","","null","","","","","","","","","","","","","","","","","","","","","","","","","","","","","","","","","","","","","","","","","","","",""
"","see_reward","","html-keyboard-response","205","611585","0.0-125.0","0","0","aQPax","Scenes","","459","","","32","","137","","6","","","","1","","","","","1","","","","","140","459","","","","","","","","","","","","","","","","","","","","","","","","",""
"","reward_outcome","","html-keyboard-response","206","613610","0.0-126.0","0","0","aQPax","Scenes","","1172","","","38","","137","","6","","","","","","","","","","","","","","","","1","1172","","","","","","","","","","","","","","","","","","","","","","",""
"","fixation","","html-keyboard-response","207","614633","0.0-129.0","0","0","aQPax","Scenes","","null","","","null","","","","","","","","","","","","","","","","","","","","","","","","","","","","","","","","","","","","","","","","","","","",""
"","see_reward","","html-keyboard-response","208","615137","0.0-130.0","0","0","aQPax","Scenes","","501","","","32","","138","","7","","","","1","","","","","1","","","","","145","501","","","","","","","","","","","","","","","","","","","","","","","","",""
"","reward_outcome","","html-keyboard-response","209","617151","0.0-131.0","0","0","aQPax","Scenes","","668","","","38","","138","","7","","","","","","","","","","","","","","","","1","668","","","","","","","","","","","","","","","","","","","","","","",""
"","fixation","","html-keyboard-response","210","618163","0.0-134.0","0","0","aQPax","Scenes","","null","","","null","","","","","","","","","","","","","","","","","","","","","","","","","","","","","","","","","","","","","","","","","","","",""
"","see_reward","","html-keyboard-response","211","619010","0.0-135.0","0","0","aQPax","Scenes","","843","","","32","","128","","8","","","","1","","","","","1","","","","","150","843","","","","","","","","","","","","","","","","","","","","","","","","",""
"","reward_outcome","","html-keyboard-response","212","621032","0.0-136.0","0","0","aQPax","Scenes","","700","","","38","","128","","8","","","","","","","","","","","","","","","","1","700","","","","","","","","","","","","","","","","","","","","","","",""
"","fixation","","html-keyboard-response","213","622055","0.0-139.0","0","0","aQPax","Scenes","","null","","","null","","","","","","","","","","","","","","","","","","","","","","","","","","","","","","","","","","","","","","","","","","","",""
"","see_reward","","html-keyboard-response","214","622577","0.0-140.0","0","0","aQPax","Scenes","","518","","","32","","116","","9","","","","1","","","","","1","","","","","152","518","","","","","","","","","","","","","","","","","","","","","","","","",""
"","reward_outcome","","html-keyboard-response","215","624601","0.0-141.0","0","0","aQPax","Scenes","","508","","","38","","116","","9","","","","","","","","","","","","","","","","1","508","","","","","","","","","","","","","","","","","","","","","","",""
"","fixation","","html-keyboard-response","216","625620","0.0-144.0","0","0","aQPax","Scenes","","null","","","null","","","","","","","","","","","","","","","","","","","","","","","","","","","","","","","","","","","","","","","","","","","",""
"","see_reward","","html-keyboard-response","217","626257","0.0-145.0","0","0","aQPax","Scenes","","634","","","32","","134","","10","","","","1","","","","","1","","","","","154","634","","","","","","","","","","","","","","","","","","","","","","","","",""
"","reward_outcome","","html-keyboard-response","218","628272","0.0-146.0","0","0","aQPax","Scenes","","652","","","38","","134","","10","","","","","","","","","","","","","","","","1","652","","","","","","","","","","","","","","","","","","","","","","",""
"","fixation","","html-keyboard-response","219","629287","0.0-149.0","0","0","aQPax","Scenes","","null","","","null","","","","","","","","","","","","","","","","","","","","","","","","","","","","","","","","","","","","","","","","","","","",""
"","see_reward","","html-keyboard-response","220","629753","0.0-150.0","0","0","aQPax","Scenes","","462","","","32","","121","","11","","","","1","","","","","1","","","","","158","462","","","","","","","","","","","","","","","","","","","","","","","","",""
"","reward_outcome","","html-keyboard-response","221","631771","0.0-151.0","0","0","aQPax","Scenes","","644","","","38","","121","","11","","","","","","","","","","","","","","","","1","644","","","","","","","","","","","","","","","","","","","","","","",""
"","fixation","","html-keyboard-response","222","632784","0.0-154.0","0","0","aQPax","Scenes","","null","","","null","","","","","","","","","","","","","","","","","","","","","","","","","","","","","","","","","","","","","","","","","","","",""
"","see_reward","","html-keyboard-response","223","633409","0.0-155.0","0","0","aQPax","Scenes","","621","","","32","","138","","12","","","","1","","","","","1","","","","","145","621","","","","","","","","","","","","","","","","","","","","","","","","",""
"","reward_outcome","","html-keyboard-response","224","635432","0.0-156.0","0","0","aQPax","Scenes","","340","","","38","","138","","12","","","","","","","","","","","","","","","","1","340","","","","","","","","","","","","","","","","","","","","","","",""
"","fixation","","html-keyboard-response","225","636441","0.0-159.0","0","0","aQPax","Scenes","","null","","","null","","","","","","","","","","","","","","","","","","","","","","","","","","","","","","","","","","","","","","","","","","","",""
"","see_reward","","html-keyboard-response","226","636751","0.0-160.0","0","0","aQPax","Scenes","","309","","","32","","111","","13","","","","-1","","","","","1","","","","","0","309","","","","","","","","","","","","","","","","","","","","","","","","",""
"","reward_outcome","","html-keyboard-response","227","638762","0.0-161.0","0","0","aQPax","Scenes","","855","","","40","","111","","13","","","","","","","","","","","","","","","","-1","855","","","","","","","","","","","","","","","","","","","","","","",""
"","fixation","","html-keyboard-response","228","639778","0.0-164.0","0","0","aQPax","Scenes","","null","","","null","","","","","","","","","","","","","","","","","","","","","","","","","","","","","","","","","","","","","","","","","","","",""
"","see_reward","","html-keyboard-response","229","640305","0.0-165.0","0","0","aQPax","Scenes","","525","","","32","","144","","14","","","","-1","","","","","1","","","","","0","525","","","","","","","","","","","","","","","","","","","","","","","","",""
"","reward_outcome","","html-keyboard-response","230","642329","0.0-166.0","0","0","aQPax","Scenes","","668","","","40","","144","","14","","","","","","","","","","","","","","","","-1","668","","","","","","","","","","","","","","","","","","","","","","",""
"","fixation","","html-keyboard-response","231","643349","0.0-169.0","0","0","aQPax","Scenes","","null","","","null","","","","","","","","","","","","","","","","","","","","","","","","","","","","","","","","","","","","","","","","","","","",""
"","see_reward","","html-keyboard-response","232","643825","0.0-170.0","0","0","aQPax","Scenes","","473","","","32","","116","","15","","","","1","","","","","1","","","","","152","473","","","","","","","","","","","","","","","","","","","","","","","","",""
"","reward_outcome","","html-keyboard-response","233","645834","0.0-171.0","0","0","aQPax","Scenes","","556","","","38","","116","","15","","","","","","","","","","","","","","","","1","556","","","","","","","","","","","","","","","","","","","","","","",""
"","fixation","","html-keyboard-response","234","646853","0.0-174.0","0","0","aQPax","Scenes","","null","","","null","","","","","","","","","","","","","","","","","","","","","","","","","","","","","","","","","","","","","","","","","","","",""
"","see_reward","","html-keyboard-response","235","647329","0.0-175.0","0","0","aQPax","Scenes","","472","","","32","","117","","16","","","","-1","","","","","1","","","","","0","472","","","","","","","","","","","","","","","","","","","","","","","","",""
"","reward_outcome","","html-keyboard-response","236","649343","0.0-176.0","0","0","aQPax","Scenes","","780","","","40","","117","","16","","","","","","","","","","","","","","","","-1","780","","","","","","","","","","","","","","","","","","","","","","",""
"","fixation","","html-keyboard-response","237","650356","0.0-179.0","0","0","aQPax","Scenes","","null","","","null","","","","","","","","","","","","","","","","","","","","","","","","","","","","","","","","","","","","","","","","","","","",""
"","see_reward","","html-keyboard-response","238","650858","0.0-180.0","0","0","aQPax","Scenes","","498","","","32","","133","","17","","","","-1","","","","","1","","","","","0","498","","","","","","","","","","","","","","","","","","","","","","","","",""
"","reward_outcome","","html-keyboard-response","239","652874","0.0-181.0","0","0","aQPax","Scenes","","476","","","40","","133","","17","","","","","","","","","","","","","","","","-1","476","","","","","","","","","","","","","","","","","","","","","","",""
"","fixation","","html-keyboard-response","240","653894","0.0-184.0","0","0","aQPax","Scenes","","null","","","null","","","","","","","","","","","","","","","","","","","","","","","","","","","","","","","","","","","","","","","","","","","",""
"","see_reward","","html-keyboard-response","241","654497","0.0-185.0","0","0","aQPax","Scenes","","599","","","32","","134","","18","","","","1","","","","","1","","","","","154","599","","","","","","","","","","","","","","","","","","","","","","","","",""
"","reward_outcome","","html-keyboard-response","242","656512","0.0-186.0","0","0","aQPax","Scenes","","852","","","38","","134","","18","","","","","","","","","","","","","","","","1","852","","","","","","","","","","","","","","","","","","","","","","",""
"","fixation","","html-keyboard-response","243","657532","0.0-189.0","0","0","aQPax","Scenes","","null","","","null","","","","","","","","","","","","","","","","","","","","","","","","","","","","","","","","","","","","","","","","","","","",""
"","see_reward","","html-keyboard-response","244","658025","0.0-190.0","0","0","aQPax","Scenes","","490","","","32","","120","","19","","","","-1","","","","","1","","","","","0","490","","","","","","","","","","","","","","","","","","","","","","","","",""
"","reward_outcome","","html-keyboard-response","245","660034","0.0-191.0","0","0","aQPax","Scenes","","756","","","40","","120","","19","","","","","","","","","","","","","","","","-1","756","","","","","","","","","","","","","","","","","","","","","","",""
"","fixation","","html-keyboard-response","246","661053","0.0-194.0","0","0","aQPax","Scenes","","null","","","null","","","","","","","","","","","","","","","","","","","","","","","","","","","","","","","","","","","","","","","","","","","",""
"","see_reward","","html-keyboard-response","247","667674","0.0-195.0","0","0","aQPax","Scenes","","6618","","","32","","126","","20","","","","-1","","","","","1","","","","","0","6618","","","","","","","","","","","","","","","","","","","","","","","","",""
"","reward_outcome","","html-keyboard-response","248","669690","0.0-196.0","0","0","aQPax","Scenes","","748","","","40","","126","","20","","","","","","","","","","","","","","","","-1","748","","","","","","","","","","","","","","","","","","","","","","",""
"","fixation","","html-keyboard-response","249","670705","0.0-199.0","0","0","aQPax","Scenes","","null","","","null","","","","","","","","","","","","","","","","","","","","","","","","","","","","","","","","","","","","","","","","","","","",""
"","see_reward","","html-keyboard-response","250","673356","0.0-200.0","0","0","aQPax","Scenes","","2647","","","32","","128","","21","","","","1","","","","","1","","","","","150","2647","","","","","","","","","","","","","","","","","","","","","","","","",""
"","reward_outcome","","html-keyboard-response","251","675368","0.0-201.0","0","0","aQPax","Scenes","","1173","","","38","","128","","21","","","","","","","","","","","","","","","","1","1173","","","","","","","","","","","","","","","","","","","","","","",""
"","fixation","","html-keyboard-response","252","676378","0.0-204.0","0","0","aQPax","Scenes","","null","","","null","","","","","","","","","","","","","","","","","","","","","","","","","","","","","","","","","","","","","","","","","","","",""
"","see_reward","","html-keyboard-response","253","676900","0.0-205.0","0","0","aQPax","Scenes","","518","","","32","","111","","22","","","","-1","","","","","1","","","","","0","518","","","","","","","","","","","","","","","","","","","","","","","","",""
"","reward_outcome","","html-keyboard-response","254","678908","0.0-206.0","0","0","aQPax","Scenes","","1037","","","40","","111","","22","","","","","","","","","","","","","","","","-1","1037","","","","","","","","","","","","","","","","","","","","","","",""
"","fixation","","html-keyboard-response","255","679923","0.0-209.0","0","0","aQPax","Scenes","","null","","","null","","","","","","","","","","","","","","","","","","","","","","","","","","","","","","","","","","","","","","","","","","","",""
"","see_reward","","html-keyboard-response","256","680444","0.0-210.0","0","0","aQPax","Scenes","","518","","","32","","120","","23","","","","-1","","","","","1","","","","","0","518","","","","","","","","","","","","","","","","","","","","","","","","",""
"","reward_outcome","","html-keyboard-response","257","682458","0.0-211.0","0","0","aQPax","Scenes","","499","","","40","","120","","23","","","","","","","","","","","","","","","","-1","499","","","","","","","","","","","","","","","","","","","","","","",""
"","block_over","","html-keyboard-response","258","685100","0.0-213.0-0.0","0","0","aQPax","Scenes","","2639","","","78","","","","","","","","","","","","","","","","","","","","","","","","","","","","","","","","","","","","","","","","","","","",""
"","fixation","","html-keyboard-response","259","686120","0.0-214.0","0","0","aQPax","Scenes","","null","","","null","","","","","","","","","","","","","","","","","","","","","","","","","","","","","","","","","","","","","","","","","","","",""
"","see_reward","","html-keyboard-response","260","686844","0.0-215.0","0","0","aQPax","Scenes","","720","","","32","","116","","24","","","","1","","","","","2","","","","","152","720","","","","","","","","","","","","","","","","","","","","","","","","",""
"","reward_outcome","","html-keyboard-response","261","688859","0.0-216.0","0","0","aQPax","Scenes","","1748","","","38","","116","","24","","","","","","","","","","","","","","","","1","1748","","","","","","","","","","","","","","","","","","","","","","",""
"","fixation","","html-keyboard-response","262","689873","0.0-219.0","0","0","aQPax","Scenes","","null","","","null","","","","","","","","","","","","","","","","","","","","","","","","","","","","","","","","","","","","","","","","","","","",""
"","see_reward","","html-keyboard-response","263","690204","0.0-220.0","0","0","aQPax","Scenes","","328","","","32","","111","","25","","","","-1","","","","","2","","","","","0","328","","","","","","","","","","","","","","","","","","","","","","","","",""
"","reward_outcome","","html-keyboard-response","264","692224","0.0-221.0","0","0","aQPax","Scenes","","548","","","40","","111","","25","","","","","","","","","","","","","","","","-1","548","","","","","","","","","","","","","","","","","","","","","","",""
"","fixation","","html-keyboard-response","265","693232","0.0-224.0","0","0","aQPax","Scenes","","null","","","null","","","","","","","","","","","","","","","","","","","","","","","","","","","","","","","","","","","","","","","","","","","",""
"","see_reward","","html-keyboard-response","266","693700","0.0-225.0","0","0","aQPax","Scenes","","464","","","32","","134","","26","","","","1","","","","","2","","","","","154","464","","","","","","","","","","","","","","","","","","","","","","","","",""
"","reward_outcome","","html-keyboard-response","267","695721","0.0-226.0","0","0","aQPax","Scenes","","653","","","38","","134","","26","","","","","","","","","","","","","","","","1","653","","","","","","","","","","","","","","","","","","","","","","",""
"","fixation","","html-keyboard-response","268","696737","0.0-229.0","0","0","aQPax","Scenes","","null","","","null","","","","","","","","","","","","","","","","","","","","","","","","","","","","","","","","","","","","","","","","","","","",""
"","see_reward","","html-keyboard-response","269","697284","0.0-230.0","0","0","aQPax","Scenes","","543","","","32","","126","","27","","","","-1","","","","","2","","","","","0","543","","","","","","","","","","","","","","","","","","","","","","","","",""
"","reward_outcome","","html-keyboard-response","270","699307","0.0-231.0","0","0","aQPax","Scenes","","468","","","40","","126","","27","","","","","","","","","","","","","","","","-1","468","","","","","","","","","","","","","","","","","","","","","","",""
"","fixation","","html-keyboard-response","271","700329","0.0-234.0","0","0","aQPax","Scenes","","null","","","null","","","","","","","","","","","","","","","","","","","","","","","","","","","","","","","","","","","","","","","","","","","",""
"","see_reward","","html-keyboard-response","272","700580","0.0-235.0","0","0","aQPax","Scenes","","247","","","32","","137","","28","","","","1","","","","","2","","","","","140","247","","","","","","","","","","","","","","","","","","","","","","","","",""
"","reward_outcome","","html-keyboard-response","273","702593","0.0-236.0","0","0","aQPax","Scenes","","499","","","38","","137","","28","","","","","","","","","","","","","","","","1","499","","","","","","","","","","","","","","","","","","","","","","",""
"","fixation","","html-keyboard-response","274","703602","0.0-239.0","0","0","aQPax","Scenes","","null","","","null","","","","","","","","","","","","","","","","","","","","","","","","","","","","","","","","","","","","","","","","","","","",""
"","see_reward","","html-keyboard-response","275","704036","0.0-240.0","0","0","aQPax","Scenes","","430","","","32","","133","","29","","","","-1","","","","","2","","","","","0","430","","","","","","","","","","","","","","","","","","","","","","","","",""
"","reward_outcome","","html-keyboard-response","276","706050","0.0-241.0","0","0","aQPax","Scenes","","811","","","40","","133","","29","","","","","","","","","","","","","","","","-1","811","","","","","","","","","","","","","","","","","","","","","","",""
"","fixation","","html-keyboard-response","277","707072","0.0-244.0","0","0","aQPax","Scenes","","null","","","null","","","","","","","","","","","","","","","","","","","","","","","","","","","","","","","","","","","","","","","","","","","",""
"","see_reward","","html-keyboard-response","278","707620","0.0-245.0","0","0","aQPax","Scenes","","544","","","32","","133","","30","","","","-1","","","","","2","","","","","0","544","","","","","","","","","","","","","","","","","","","","","","","","",""
"","reward_outcome","","html-keyboard-response","279","709636","0.0-246.0","0","0","aQPax","Scenes","","572","","","40","","133","","30","","","","","","","","","","","","","","","","-1","572","","","","","","","","","","","","","","","","","","","","","","",""
"","fixation","","html-keyboard-response","280","710645","0.0-249.0","0","0","aQPax","Scenes","","null","","","null","","","","","","","","","","","","","","","","","","","","","","","","","","","","","","","","","","","","","","","","","","","",""
"","see_reward","","html-keyboard-response","281","711076","0.0-250.0","0","0","aQPax","Scenes","","427","","","32","","120","","31","","","","-1","","","","","2","","","","","0","427","","","","","","","","","","","","","","","","","","","","","","","","",""
"","reward_outcome","","html-keyboard-response","282","713099","0.0-251.0","0","0","aQPax","Scenes","","556","","","40","","120","","31","","","","","","","","","","","","","","","","-1","556","","","","","","","","","","","","","","","","","","","","","","",""
"","fixation","","html-keyboard-response","283","714117","0.0-254.0","0","0","aQPax","Scenes","","null","","","null","","","","","","","","","","","","","","","","","","","","","","","","","","","","","","","","","","","","","","","","","","","",""
"","see_reward","","html-keyboard-response","284","714588","0.0-255.0","0","0","aQPax","Scenes","","468","","","32","","116","","32","","","","1","","","","","2","","","","","152","468","","","","","","","","","","","","","","","","","","","","","","","","",""
"","reward_outcome","","html-keyboard-response","285","716612","0.0-256.0","0","0","aQPax","Scenes","","555","","","38","","116","","32","","","","","","","","","","","","","","","","1","555","","","","","","","","","","","","","","","","","","","","","","",""
"","fixation","","html-keyboard-response","286","717634","0.0-259.0","0","0","aQPax","Scenes","","null","","","null","","","","","","","","","","","","","","","","","","","","","","","","","","","","","","","","","","","","","","","","","","","",""
"","see_reward","","html-keyboard-response","287","718140","0.0-260.0","0","0","aQPax","Scenes","","502","","","32","","144","","33","","","","-1","","","","","2","","","","","0","502","","","","","","","","","","","","","","","","","","","","","","","","",""
"","reward_outcome","","html-keyboard-response","288","720163","0.0-261.0","0","0","aQPax","Scenes","","508","","","40","","144","","33","","","","","","","","","","","","","","","","-1","508","","","","","","","","","","","","","","","","","","","","","","",""
"","fixation","","html-keyboard-response","289","721183","0.0-264.0","0","0","aQPax","Scenes","","null","","","null","","","","","","","","","","","","","","","","","","","","","","","","","","","","","","","","","","","","","","","","","","","",""
"","see_reward","","html-keyboard-response","290","721604","0.0-265.0","0","0","aQPax","Scenes","","417","","","32","","121","","34","","","","1","","","","","2","","","","","158","417","","","","","","","","","","","","","","","","","","","","","","","","",""
"","reward_outcome","","html-keyboard-response","291","723619","0.0-266.0","0","0","aQPax","Scenes","","676","","","38","","121","","34","","","","","","","","","","","","","","","","1","676","","","","","","","","","","","","","","","","","","","","","","",""
"","fixation","","html-keyboard-response","292","724634","0.0-269.0","0","0","aQPax","Scenes","","null","","","null","","","","","","","","","","","","","","","","","","","","","","","","","","","","","","","","","","","","","","","","","","","",""
"","see_reward","","html-keyboard-response","293","725084","0.0-270.0","0","0","aQPax","Scenes","","446","","","32","","111","","35","","","","-1","","","","","2","","","","","0","446","","","","","","","","","","","","","","","","","","","","","","","","",""
"","reward_outcome","","html-keyboard-response","294","727103","0.0-271.0","0","0","aQPax","Scenes","","428","","","40","","111","","35","","","","","","","","","","","","","","","","-1","428","","","","","","","","","","","","","","","","","","","","","","",""
"","fixation","","html-keyboard-response","295","728118","0.0-274.0","0","0","aQPax","Scenes","","null","","","null","","","","","","","","","","","","","","","","","","","","","","","","","","","","","","","","","","","","","","","","","","","",""
"","see_reward","","html-keyboard-response","296","728500","0.0-275.0","0","0","aQPax","Scenes","","379","","","32","","126","","36","","","","-1","","","","","2","","","","","0","379","","","","","","","","","","","","","","","","","","","","","","","","",""
"","reward_outcome","","html-keyboard-response","297","730521","0.0-276.0","0","0","aQPax","Scenes","","700","","","40","","126","","36","","","","","","","","","","","","","","","","-1","700","","","","","","","","","","","","","","","","","","","","","","",""
"","fixation","","html-keyboard-response","298","731542","0.0-279.0","0","0","aQPax","Scenes","","null","","","null","","","","","","","","","","","","","","","","","","","","","","","","","","","","","","","","","","","","","","","","","","","",""
"","see_reward","","html-keyboard-response","299","732220","0.0-280.0","0","0","aQPax","Scenes","","674","","","32","","121","","37","","","","1","","","","","2","","","","","158","674","","","","","","","","","","","","","","","","","","","","","","","","",""
"","reward_outcome","","html-keyboard-response","300","734237","0.0-281.0","0","0","aQPax","Scenes","","788","","","38","","121","","37","","","","","","","","","","","","","","","","1","788","","","","","","","","","","","","","","","","","","","","","","",""
"","fixation","","html-keyboard-response","301","735256","0.0-284.0","0","0","aQPax","Scenes","","null","","","null","","","","","","","","","","","","","","","","","","","","","","","","","","","","","","","","","","","","","","","","","","","",""
"","see_reward","","html-keyboard-response","302","735844","0.0-285.0","0","0","aQPax","Scenes","","584","","","32","","138","","38","","","","1","","","","","2","","","","","145","584","","","","","","","","","","","","","","","","","","","","","","","","",""
"","reward_outcome","","html-keyboard-response","303","737868","0.0-286.0","0","0","aQPax","Scenes","","1029","","","38","","138","","38","","","","","","","","","","","","","","","","1","1029","","","","","","","","","","","","","","","","","","","","","","",""
"","fixation","","html-keyboard-response","304","738881","0.0-289.0","0","0","aQPax","Scenes","","null","","","null","","","","","","","","","","","","","","","","","","","","","","","","","","","","","","","","","","","","","","","","","","","",""
"","see_reward","","html-keyboard-response","305","739684","0.0-290.0","0","0","aQPax","Scenes","","800","","","32","","128","","39","","","","1","","","","","2","","","","","150","800","","","","","","","","","","","","","","","","","","","","","","","","",""
"","reward_outcome","","html-keyboard-response","306","741703","0.0-291.0","0","0","aQPax","Scenes","","692","","","38","","128","","39","","","","","","","","","","","","","","","","1","692","","","","","","","","","","","","","","","","","","","","","","",""
"","fixation","","html-keyboard-response","307","742709","0.0-294.0","0","0","aQPax","Scenes","","null","","","null","","","","","","","","","","","","","","","","","","","","","","","","","","","","","","","","","","","","","","","","","","","",""
"","see_reward","","html-keyboard-response","308","743116","0.0-295.0","0","0","aQPax","Scenes","","403","","","32","","134","","40","","","","1","","","","","2","","","","","154","403","","","","","","","","","","","","","","","","","","","","","","","","",""
"","reward_outcome","","html-keyboard-response","309","745125","0.0-296.0","0","0","aQPax","Scenes","","476","","","38","","134","","40","","","","","","","","","","","","","","","","1","476","","","","","","","","","","","","","","","","","","","","","","",""
"","fixation","","html-keyboard-response","310","746136","0.0-299.0","0","0","aQPax","Scenes","","null","","","null","","","","","","","","","","","","","","","","","","","","","","","","","","","","","","","","","","","","","","","","","","","",""
"","see_reward","","html-keyboard-response","311","746548","0.0-300.0","0","0","aQPax","Scenes","","409","","","32","","120","","41","","","","-1","","","","","2","","","","","0","409","","","","","","","","","","","","","","","","","","","","","","","","",""
"","reward_outcome","","html-keyboard-response","312","748556","0.0-301.0","0","0","aQPax","Scenes","","653","","","40","","120","","41","","","","","","","","","","","","","","","","-1","653","","","","","","","","","","","","","","","","","","","","","","",""
"","fixation","","html-keyboard-response","313","749567","0.0-304.0","0","0","aQPax","Scenes","","null","","","null","","","","","","","","","","","","","","","","","","","","","","","","","","","","","","","","","","","","","","","","","","","",""
"","see_reward","","html-keyboard-response","314","750412","0.0-305.0","0","0","aQPax","Scenes","","842","","","32","","117","","42","","","","-1","","","","","2","","","","","0","842","","","","","","","","","","","","","","","","","","","","","","","","",""
"","reward_outcome","","html-keyboard-response","315","752432","0.0-306.0","0","0","aQPax","Scenes","","397","","","40","","117","","42","","","","","","","","","","","","","","","","-1","397","","","","","","","","","","","","","","","","","","","","","","",""
"","fixation","","html-keyboard-response","316","753448","0.0-309.0","0","0","aQPax","Scenes","","null","","","null","","","","","","","","","","","","","","","","","","","","","","","","","","","","","","","","","","","","","","","","","","","",""
"","see_reward","","html-keyboard-response","317","754524","0.0-310.0","0","0","aQPax","Scenes","","1072","","","32","","117","","43","","","","-1","","","","","2","","","","","0","1072","","","","","","","","","","","","","","","","","","","","","","","","",""
"","reward_outcome","","html-keyboard-response","318","756536","0.0-311.0","0","0","aQPax","Scenes","","260","","","40","","117","","43","","","","","","","","","","","","","","","","-1","260","","","","","","","","","","","","","","","","","","","","","","",""
"","fixation","","html-keyboard-response","319","757550","0.0-314.0","0","0","aQPax","Scenes","","null","","","null","","","","","","","","","","","","","","","","","","","","","","","","","","","","","","","","","","","","","","","","","","","",""
"","see_reward","","html-keyboard-response","320","758731","0.0-315.0","0","0","aQPax","Scenes","","1178","","","32","","128","","44","","","","1","","","","","2","","","","","150","1178","","","","","","","","","","","","","","","","","","","","","","","","",""
"","reward_outcome","","html-keyboard-response","321","760742","0.0-316.0","0","0","aQPax","Scenes","","757","","","38","","128","","44","","","","","","","","","","","","","","","","1","757","","","","","","","","","","","","","","","","","","","","","","",""
"","fixation","","html-keyboard-response","322","761761","0.0-319.0","0","0","aQPax","Scenes","","null","","","null","","","","","","","","","","","","","","","","","","","","","","","","","","","","","","","","","","","","","","","","","","","",""
"","see_reward","","html-keyboard-response","323","762468","0.0-320.0","0","0","aQPax","Scenes","","704","","","32","","138","","45","","","","1","","","","","2","","","","","145","704","","","","","","","","","","","","","","","","","","","","","","","","",""
"","reward_outcome","","html-keyboard-response","324","764483","0.0-321.0","0","0","aQPax","Scenes","","365","","","38","","138","","45","","","","","","","","","","","","","","","","1","365","","","","","","","","","","","","","","","","","","","","","","",""
"","fixation","","html-keyboard-response","325","765501","0.0-324.0","0","0","aQPax","Scenes","","null","","","null","","","","","","","","","","","","","","","","","","","","","","","","","","","","","","","","","","","","","","","","","","","",""
"","see_reward","","html-keyboard-response","326","765852","0.0-325.0","0","0","aQPax","Scenes","","348","","","32","","144","","46","","","","-1","","","","","2","","","","","0","348","","","","","","","","","","","","","","","","","","","","","","","","",""
"","reward_outcome","","html-keyboard-response","327","767875","0.0-326.0","0","0","aQPax","Scenes","","564","","","40","","144","","46","","","","","","","","","","","","","","","","-1","564","","","","","","","","","","","","","","","","","","","","","","",""
"","fixation","","html-keyboard-response","328","768894","0.0-329.0","0","0","aQPax","Scenes","","null","","","null","","","","","","","","","","","","","","","","","","","","","","","","","","","","","","","","","","","","","","","","","","","",""
"","see_reward","","html-keyboard-response","329","769324","0.0-330.0","0","0","aQPax","Scenes","","427","","","32","","137","","47","","","","1","","","","","2","","","","","140","427","","","","","","","","","","","","","","","","","","","","","","","","",""
"","reward_outcome","","html-keyboard-response","330","771348","0.0-331.0","0","0","aQPax","Scenes","","444","","","38","","137","","47","","","","","","","","","","","","","","","","1","444","","","","","","","","","","","","","","","","","","","","","","",""
"","block_over","","html-keyboard-response","331","772972","0.0-333.0-0.0","0","0","aQPax","Scenes","","1621","","","78","","","","","","","","","","","","","","","","","","","","","","","","","","","","","","","","","","","","","","","","","","","",""
"","fixation","","html-keyboard-response","332","773986","0.0-334.0","0","0","aQPax","Scenes","","null","","","null","","","","","","","","","","","","","","","","","","","","","","","","","","","","","","","","","","","","","","","","","","","",""
"","see_reward","","html-keyboard-response","333","774756","0.0-335.0","0","0","aQPax","Scenes","","766","","","32","","128","","48","","","","1","","","","","3","","","","","150","766","","","","","","","","","","","","","","","","","","","","","","","","",""
"","reward_outcome","","html-keyboard-response","334","776766","0.0-336.0","0","0","aQPax","Scenes","","685","","","38","","128","","48","","","","","","","","","","","","","","","","1","685","","","","","","","","","","","","","","","","","","","","","","",""
"","fixation","","html-keyboard-response","335","777774","0.0-339.0","0","0","aQPax","Scenes","","null","","","null","","","","","","","","","","","","","","","","","","","","","","","","","","","","","","","","","","","","","","","","","","","",""
"","see_reward","","html-keyboard-response","336","778044","0.0-340.0","0","0","aQPax","Scenes","","266","","","32","","138","","49","","","","1","","","","","3","","","","","145","266","","","","","","","","","","","","","","","","","","","","","","","","",""
"","reward_outcome","","html-keyboard-response","337","780063","0.0-341.0","0","0","aQPax","Scenes","","412","","","38","","138","","49","","","","","","","","","","","","","","","","1","412","","","","","","","","","","","","","","","","","","","","","","",""
"","fixation","","html-keyboard-response","338","781084","0.0-344.0","0","0","aQPax","Scenes","","null","","","null","","","","","","","","","","","","","","","","","","","","","","","","","","","","","","","","","","","","","","","","","","","",""
"","see_reward","","html-keyboard-response","339","781332","0.0-345.0","0","0","aQPax","Scenes","","245","","","32","","120","","50","","","","-1","","","","","3","","","","","0","245","","","","","","","","","","","","","","","","","","","","","","","","",""
"","reward_outcome","","html-keyboard-response","340","783354","0.0-346.0","0","0","aQPax","Scenes","","613","","","40","","120","","50","","","","","","","","","","","","","","","","-1","613","","","","","","","","","","","","","","","","","","","","","","",""
"","fixation","","html-keyboard-response","341","784373","0.0-349.0","0","0","aQPax","Scenes","","null","","","null","","","","","","","","","","","","","","","","","","","","","","","","","","","","","","","","","","","","","","","","","","","",""
"","see_reward","","html-keyboard-response","342","784748","0.0-350.0","0","0","aQPax","Scenes","","372","","","32","","116","","51","","","","1","","","","","3","","","","","152","372","","","","","","","","","","","","","","","","","","","","","","","","",""
"","reward_outcome","","html-keyboard-response","343","786770","0.0-351.0","0","0","aQPax","Scenes","","452","","","38","","116","","51","","","","","","","","","","","","","","","","1","452","","","","","","","","","","","","","","","","","","","","","","",""
"","fixation","","html-keyboard-response","344","787792","0.0-354.0","0","0","aQPax","Scenes","","null","","","null","","","","","","","","","","","","","","","","","","","","","","","","","","","","","","","","","","","","","","","","","","","",""
"","see_reward","","html-keyboard-response","345","788092","0.0-355.0","0","0","aQPax","Scenes","","297","","","32","","137","","52","","","","1","","","","","3","","","","","140","297","","","","","","","","","","","","","","","","","","","","","","","","",""
"","reward_outcome","","html-keyboard-response","346","790114","0.0-356.0","0","0","aQPax","Scenes","","484","","","38","","137","","52","","","","","","","","","","","","","","","","1","484","","","","","","","","","","","","","","","","","","","","","","",""
"","fixation","","html-keyboard-response","347","791134","0.0-359.0","0","0","aQPax","Scenes","","null","","","null","","","","","","","","","","","","","","","","","","","","","","","","","","","","","","","","","","","","","","","","","","","",""
"","see_reward","","html-keyboard-response","348","791715","0.0-360.0","0","0","aQPax","Scenes","","577","","","32","","144","","53","","","","-1","","","","","3","","","","","0","577","","","","","","","","","","","","","","","","","","","","","","","","",""
"","reward_outcome","","html-keyboard-response","349","793726","0.0-361.0","0","0","aQPax","Scenes","","620","","","40","","144","","53","","","","","","","","","","","","","","","","-1","620","","","","","","","","","","","","","","","","","","","","","","",""
"","fixation","","html-keyboard-response","350","794742","0.0-364.0","0","0","aQPax","Scenes","","null","","","null","","","","","","","","","","","","","","","","","","","","","","","","","","","","","","","","","","","","","","","","","","","",""
"","see_reward","","html-keyboard-response","351","795067","0.0-365.0","0","0","aQPax","Scenes","","322","","","32","","126","","54","","","","-1","","","","","3","","","","","0","322","","","","","","","","","","","","","","","","","","","","","","","","",""
"","reward_outcome","","html-keyboard-response","352","797077","0.0-366.0","0","0","aQPax","Scenes","","589","","","40","","126","","54","","","","","","","","","","","","","","","","-1","589","","","","","","","","","","","","","","","","","","","","","","",""
"","fixation","","html-keyboard-response","353","798096","0.0-369.0","0","0","aQPax","Scenes","","null","","","null","","","","","","","","","","","","","","","","","","","","","","","","","","","","","","","","","","","","","","","","","","","",""
"","see_reward","","html-keyboard-response","354","798387","0.0-370.0","0","0","aQPax","Scenes","","287","","","32","","144","","55","","","","-1","","","","","3","","","","","0","287","","","","","","","","","","","","","","","","","","","","","","","","",""
