"success","ttype","start_time","trial_type","trial_index","time_elapsed","internal_node_id","warning","missed_checkup","PID","stim_type","view_history","rt","responses","repeat_instructions","key_press","response","stimulus_id","painting","index","stimulus_left","stimulus_right","explain_trial","reward_type","rating_left","rating_right","painting_left","painting_right","block","left_chosen","chosen_obj","unchosen_obj","explain_response","reward_amount","see_reward_rt","register_reward_response","register_reward_rt","deliberation_reward_tally","stimulus_left_deliberation_ind","stimulus_right_deliberation_ind","chosen_trial","gain_left","higher_outcome_chosen","old_pair","chosen_object","rt_pairs","left_object_chosen","rt_object","old_response","new_rating","deliberated_stim","initial_rating","outcome_eval_rt","outcome_eval_response","outcome_eval_gain","outcome_eval_acc","preamble","outcome_eval_confidence","outcome_eval_confidence_rt","total_reward_tally"
"true","full_screen","d01192023hr1956","fullscreen","0","67589","0.0-0.0","0","0","R8EJS","Scenes","","","","","","","","","","","","","","","","","","","","","","","","","","","","","","","","","","","","","","","","","","","","","","","","",""
"","rating_instructions","","instructions","1","124576","0.0-1.0-0.0","0","0","R8EJS","Scenes","[{""page_index"":0,""viewing_time"":40253},{""page_index"":1,""viewing_time"":5431},{""page_index"":0,""viewing_time"":4015},{""page_index"":1,""viewing_time"":7284}]","56984","","","","","","","","","","","","","","","","","","","","","","","","","","","","","","","","","","","","","","","","","","","","","","",""
"","rating_comprehension_check","","survey-multi-choice","2","138652","0.0-1.0-1.0","0","0","R8EJS","Scenes","","14072","{""Q0"":""True"",""Q1"":""Mouse""}","0","","","","","","","","","","","","","","","","","","","","","","","","","","","","","","","","","","","","","","","","","","","","",""
"","start_phase","","html-keyboard-response","3","145869","0.0-2.0","0","0","R8EJS","Scenes","","7213","","","78","","","","","","","","","","","","","","","","","","","","","","","","","","","","","","","","","","","","","","","","","","","",""
"","rating","","html-slider-response","4","150665","0.0-3.0","0","0","R8EJS","Scenes","","4791","","","","74","141","sebastian-unrau-v4e3JI7DDHI-unsplash.jpg","0","","","","","","","","","","","","","","","","","","","","","","","","","","","","","","","","","","","","","","","",""
"","rating","","html-slider-response","5","154059","0.0-4.0","0","0","R8EJS","Scenes","","3391","","","","43","101","aniket-deole-T-tOgjWZ0fQ-unsplash.jpg","1","","","","","","","","","","","","","","","","","","","","","","","","","","","","","","","","","","","","","","","",""
"","rating","","html-slider-response","6","158213","0.0-5.0","0","0","R8EJS","Scenes","","4151","","","","78","142","sergey-pesterev-y-b_FOmJXdg-unsplash.jpg","2","","","","","","","","","","","","","","","","","","","","","","","","","","","","","","","","","","","","","","","",""
"","rating","","html-slider-response","7","161834","0.0-6.0","0","0","R8EJS","Scenes","","3619","","","","59","110","bruno-van-der-kraan-qez8mNJ3ilU-unsplash.jpg","3","","","","","","","","","","","","","","","","","","","","","","","","","","","","","","","","","","","","","","","",""
"","rating","","html-slider-response","8","166947","0.0-7.0","0","0","R8EJS","Scenes","","5111","","","","62","145","stephen-leonardi-gyIRjKPXupE-unsplash.jpg","4","","","","","","","","","","","","","","","","","","","","","","","","","","","","","","","","","","","","","","","",""
"","rating","","html-slider-response","9","171043","0.0-8.0","0","0","R8EJS","Scenes","","4094","","","","79","121","jean-pierre-brungs-qxCqkbF7tUc-unsplash.jpg","5","","","","","","","","","","","","","","","","","","","","","","","","","","","","","","","","","","","","","","","",""
"","rating","","html-slider-response","10","174880","0.0-9.0","0","0","R8EJS","Scenes","","3834","","","","34","128","karsten-wurth-jS0zC2PJ17A-unsplash.jpg","6","","","","","","","","","","","","","","","","","","","","","","","","","","","","","","","","","","","","","","","",""
"","rating","","html-slider-response","11","178664","0.0-10.0","0","0","R8EJS","Scenes","","3782","","","","73","147","tobias-keller-73F4pKoUkM0-unsplash.jpg","7","","","","","","","","","","","","","","","","","","","","","","","","","","","","","","","","","","","","","","","",""
"","rating","","html-slider-response","12","182094","0.0-11.0","0","0","R8EJS","Scenes","","3429","","","","58","104","artem-sapegin-XGDBdSQ70O0-unsplash.jpg","8","","","","","","","","","","","","","","","","","","","","","","","","","","","","","","","","","","","","","","","",""
"","rating","","html-slider-response","13","185530","0.0-12.0","0","0","R8EJS","Scenes","","3434","","","","58","135","mohammad-alizade-4wzRuAb-KWs-unsplash.jpg","9","","","","","","","","","","","","","","","","","","","","","","","","","","","","","","","","","","","","","","","",""
"","rating","","html-slider-response","14","188430","0.0-13.0","0","0","R8EJS","Scenes","","2897","","","","82","123","joel-jasmin-forestbird-efuwb5eBDrI-unsplash.jpg","10","","","","","","","","","","","","","","","","","","","","","","","","","","","","","","","","","","","","","","","",""
"","rating","","html-slider-response","15","190945","0.0-14.0","0","0","R8EJS","Scenes","","2513","","","","57","124","johannes-plenio-sPt5RIjKfpk-unsplash.jpg","11","","","","","","","","","","","","","","","","","","","","","","","","","","","","","","","","","","","","","","","",""
"","rating","","html-slider-response","16","195675","0.0-15.0","0","0","R8EJS","Scenes","","4726","","","","56","113","damian-denis-D8R_txR_0PE-unsplash.jpg","12","","","","","","","","","","","","","","","","","","","","","","","","","","","","","","","","","","","","","","","",""
"","rating","","html-slider-response","17","200029","0.0-16.0","0","0","R8EJS","Scenes","","4351","","","","70","130","lina-loos-04-C1NZk1hE-unsplash.jpg","13","","","","","","","","","","","","","","","","","","","","","","","","","","","","","","","","","","","","","","","",""
"","rating","","html-slider-response","18","203149","0.0-17.0","0","0","R8EJS","Scenes","","3118","","","","78","137","olga-stalska-QaWRyEdlffY-unsplash.jpg","14","","","","","","","","","","","","","","","","","","","","","","","","","","","","","","","","","","","","","","","",""
"","rating","","html-slider-response","19","205930","0.0-18.0","0","0","R8EJS","Scenes","","2778","","","","26","132","meng-ji-8BH_M-53CyA-unsplash.jpg","15","","","","","","","","","","","","","","","","","","","","","","","","","","","","","","","","","","","","","","","",""
"","rating","","html-slider-response","20","209023","0.0-19.0","0","0","R8EJS","Scenes","","3090","","","","68","120","jarrett-kow-1ZOyYPOBn7I-unsplash.jpg","16","","","","","","","","","","","","","","","","","","","","","","","","","","","","","","","","","","","","","","","",""
"","rating","","html-slider-response","21","214151","0.0-20.0","0","0","R8EJS","Scenes","","5125","","","","58","105","ashim-d-silva-S2Q5mdOrrVc-unsplash.jpg","17","","","","","","","","","","","","","","","","","","","","","","","","","","","","","","","","","","","","","","","",""
"","rating","","html-slider-response","22","217383","0.0-21.0","0","0","R8EJS","Scenes","","3229","","","","65","102","anisur-rahman-K2b7UDed6uQ-unsplash.jpg","18","","","","","","","","","","","","","","","","","","","","","","","","","","","","","","","","","","","","","","","",""
"","rating","","html-slider-response","23","222266","0.0-22.0","0","0","R8EJS","Scenes","","4881","","","","77","134","milada-vigerova-pQMM63GE7fo-unsplash.jpg","19","","","","","","","","","","","","","","","","","","","","","","","","","","","","","","","","","","","","","","","",""
"","rating","","html-slider-response","24","227130","0.0-23.0","0","0","R8EJS","Scenes","","4862","","","","76","119","james-wheeler-AFC0XvICMgs-unsplash.jpg","20","","","","","","","","","","","","","","","","","","","","","","","","","","","","","","","","","","","","","","","",""
"","rating","","html-slider-response","25","229624","0.0-24.0","0","0","R8EJS","Scenes","","2491","","","","55","136","nicolas-jehly-LzVB84KkZOE-unsplash.jpg","21","","","","","","","","","","","","","","","","","","","","","","","","","","","","","","","","","","","","","","","",""
"","rating","","html-slider-response","26","232339","0.0-25.0","0","0","R8EJS","Scenes","","2713","","","","76","133","mickey-o-neil-xL66l--msXU-unsplash.jpg","22","","","","","","","","","","","","","","","","","","","","","","","","","","","","","","","","","","","","","","","",""
"","rating","","html-slider-response","27","237555","0.0-26.0","0","0","R8EJS","Scenes","","5215","","","","25","129","kurt-cotoaga-cqbLg3lZEpk-unsplash.jpg","23","","","","","","","","","","","","","","","","","","","","","","","","","","","","","","","","","","","","","","","",""
"","rating","","html-slider-response","28","240470","0.0-27.0","0","0","R8EJS","Scenes","","2913","","","","72","108","benjamin-voros-phIFdC6lA4E-unsplash.jpg","24","","","","","","","","","","","","","","","","","","","","","","","","","","","","","","","","","","","","","","","",""
"","rating","","html-slider-response","29","242995","0.0-28.0","0","0","R8EJS","Scenes","","2521","","","","59","143","sigurdur-fjalar-jonsson-1KxBabIntpE-unsplash.jpg","25","","","","","","","","","","","","","","","","","","","","","","","","","","","","","","","","","","","","","","","",""
"","rating","","html-slider-response","30","245841","0.0-29.0","0","0","R8EJS","Scenes","","2844","","","","74","148","tom-gainor-ZqLeQDjY6fY-unsplash.jpg","26","","","","","","","","","","","","","","","","","","","","","","","","","","","","","","","","","","","","","","","",""
"","rating","","html-slider-response","31","249523","0.0-30.0","0","0","R8EJS","Scenes","","3680","","","","81","114","daniel-sessler-z_9VmsxR8hs-unsplash.jpg","27","","","","","","","","","","","","","","","","","","","","","","","","","","","","","","","","","","","","","","","",""
"","rating","","html-slider-response","32","252378","0.0-31.0","0","0","R8EJS","Scenes","","2853","","","","67","127","kace-rodriguez-p3OzJuT_Dks-unsplash.jpg","28","","","","","","","","","","","","","","","","","","","","","","","","","","","","","","","","","","","","","","","",""
"","rating","","html-slider-response","33","259964","0.0-32.0","0","0","R8EJS","Scenes","","7584","","","","75","112","cosmic-timetraveler-pYyOZ8q7AII-unsplash.jpg","29","","","","","","","","","","","","","","","","","","","","","","","","","","","","","","","","","","","","","","","",""
"","rating","","html-slider-response","34","264413","0.0-33.0","0","0","R8EJS","Scenes","","4447","","","","40","149","yuriy-bogdanov-W51VK3Obcj0-unsplash.jpg","30","","","","","","","","","","","","","","","","","","","","","","","","","","","","","","","","","","","","","","","",""
"","rating","","html-slider-response","35","266936","0.0-34.0","0","0","R8EJS","Scenes","","2522","","","","71","109","brigitta-schneiter-hXXRLtTxXCU-unsplash.jpg","31","","","","","","","","","","","","","","","","","","","","","","","","","","","","","","","","","","","","","","","",""
"","rating","","html-slider-response","36","270147","0.0-35.0","0","0","R8EJS","Scenes","","3209","","","","58","126","jordan-mcqueen-PJCZOWuOxbU-unsplash.jpg","32","","","","","","","","","","","","","","","","","","","","","","","","","","","","","","","","","","","","","","","",""
"","rating","","html-slider-response","37","276788","0.0-36.0","0","0","R8EJS","Scenes","","6639","","","","60","144","solotravelgoals-7kLufxYoqWk-unsplash.jpg","33","","","","","","","","","","","","","","","","","","","","","","","","","","","","","","","","","","","","","","","",""
"","rating","","html-slider-response","38","279799","0.0-37.0","0","0","R8EJS","Scenes","","3008","","","","65","138","petr-vysohlid-9fqwGqGLUxc-unsplash.jpg","34","","","","","","","","","","","","","","","","","","","","","","","","","","","","","","","","","","","","","","","",""
"","rating","","html-slider-response","39","283392","0.0-38.0","0","0","R8EJS","Scenes","","3591","","","","55","107","benjamin-davies-Zm2n2O7Fph4-unsplash.jpg","35","","","","","","","","","","","","","","","","","","","","","","","","","","","","","","","","","","","","","","","",""
"","rating","","html-slider-response","40","287981","0.0-39.0","0","0","R8EJS","Scenes","","4586","","","","40","100","aleksandra-boguslawska-MS7KD9Ti7FQ-unsplash.jpg","36","","","","","","","","","","","","","","","","","","","","","","","","","","","","","","","","","","","","","","","",""
"","rating","","html-slider-response","41","290836","0.0-40.0","0","0","R8EJS","Scenes","","2852","","","","58","115","darrell-cassell-hoCXpPUMCoE-unsplash.jpg","37","","","","","","","","","","","","","","","","","","","","","","","","","","","","","","","","","","","","","","","",""
"","rating","","html-slider-response","42","293706","0.0-41.0","0","0","R8EJS","Scenes","","2868","","","","62","139","samsommer-vddccTqwal8-unsplash.jpg","38","","","","","","","","","","","","","","","","","","","","","","","","","","","","","","","","","","","","","","","",""
"","rating","","html-slider-response","43","297653","0.0-42.0","0","0","R8EJS","Scenes","","3945","","","","69","125","john-lee-oMneOBYhJxY-unsplash.jpg","39","","","","","","","","","","","","","","","","","","","","","","","","","","","","","","","","","","","","","","","",""
"","rating","","html-slider-response","44","301121","0.0-43.0","0","0","R8EJS","Scenes","","3465","","","","60","111","claudio-testa-U3F2o6vz3bs-unsplash.jpg","40","","","","","","","","","","","","","","","","","","","","","","","","","","","","","","","","","","","","","","","",""
"","rating","","html-slider-response","45","305863","0.0-44.0","0","0","R8EJS","Scenes","","4740","","","","57","131","luca-bravo-hFzIoD0F_i8-unsplash.jpg","41","","","","","","","","","","","","","","","","","","","","","","","","","","","","","","","","","","","","","","","",""
"","rating","","html-slider-response","46","309116","0.0-45.0","0","0","R8EJS","Scenes","","3250","","","","40","117","frank-mckenna-OD9EOzfSOh0-unsplash.jpg","42","","","","","","","","","","","","","","","","","","","","","","","","","","","","","","","","","","","","","","","",""
"","rating","","html-slider-response","47","311920","0.0-46.0","0","0","R8EJS","Scenes","","2803","","","","67","116","david-marcu-W5MhJ6cy1So-unsplash.jpg","43","","","","","","","","","","","","","","","","","","","","","","","","","","","","","","","","","","","","","","","",""
"","rating","","html-slider-response","48","315461","0.0-47.0","0","0","R8EJS","Scenes","","3538","","","","76","106","ashim-d-silva-WeYamle9fDM-unsplash.jpg","44","","","","","","","","","","","","","","","","","","","","","","","","","","","","","","","","","","","","","","","",""
"","rating","","html-slider-response","49","318597","0.0-48.0","0","0","R8EJS","Scenes","","3134","","","","57","140","samuele-errico-piccarini-JEBqFu2AOOA-unsplash.jpg","45","","","","","","","","","","","","","","","","","","","","","","","","","","","","","","","","","","","","","","","",""
"","rating","","html-slider-response","50","320721","0.0-49.0","0","0","R8EJS","Scenes","","2122","","","","70","146","thomas-morse-cuKKa0vWZSY-unsplash.jpg","46","","","","","","","","","","","","","","","","","","","","","","","","","","","","","","","","","","","","","","","",""
"","rating","","html-slider-response","51","323450","0.0-50.0","0","0","R8EJS","Scenes","","2727","","","","80","103","anton-darius-FBJugtbHsWU-unsplash.jpg","47","","","","","","","","","","","","","","","","","","","","","","","","","","","","","","","","","","","","","","","",""
"","rating","","html-slider-response","52","327944","0.0-51.0","0","0","R8EJS","Scenes","","4490","","","","32","122","jeff-king-bJHWJeiHfHc-unsplash.jpg","48","","","","","","","","","","","","","","","","","","","","","","","","","","","","","","","","","","","","","","","",""
"","rating","","html-slider-response","53","330180","0.0-52.0","0","0","R8EJS","Scenes","","2234","","","","69","118","henry-be-NLF6hTe4PAg-unsplash.jpg","49","","","","","","","","","","","","","","","","","","","","","","","","","","","","","","","","","","","","","","","",""
"","deliberation_instructions","","instructions","54","755370","0.0-53.0-0.0","0","0","R8EJS","Scenes","[{""page_index"":0,""viewing_time"":201589},{""page_index"":1,""viewing_time"":16305},{""page_index"":2,""viewing_time"":121799},{""page_index"":3,""viewing_time"":20560},{""page_index"":4,""viewing_time"":64929}]","425183","","","","","","","","","","","","","","","","","","","","","","","","","","","","","","","","","","","","","","","","","","","","","","",""
"","deliberation_comprehension_check","","survey-multi-choice","55","880065","0.0-53.0-1.0","0","0","R8EJS","Scenes","","124688","{""Q0"":""True"",""Q1"":""True"",""Q2"":""Do it as quickly as possible"",""Q3"":""True"",""Q4"":""D""}","1","","","","","","","","","","","","","","","","","","","","","","","","","","","","","","","","","","","","","","","","","","","","",""
"","missed_instruction_checkup","","html-keyboard-response","56","883313","0.0-53.0-2.0-0.0","0","1","R8EJS","Scenes","","3243","","","78","","","","","","","","","","","","","","","","","","","","","","","","","","","","","","","","","","","","","","","","","","","",""
"","deliberation_instructions","","instructions","57","894737","0.0-53.1-0.1","0","0","R8EJS","Scenes","[{""page_index"":0,""viewing_time"":3591},{""page_index"":1,""viewing_time"":4900},{""page_index"":2,""viewing_time"":1144},{""page_index"":3,""viewing_time"":819},{""page_index"":4,""viewing_time"":968}]","11422","","","","","","","","","","","","","","","","","","","","","","","","","","","","","","","","","","","","","","","","","","","","","","",""
"","deliberation_comprehension_check","","survey-multi-choice","58","981895","0.0-53.1-1.1","0","0","R8EJS","Scenes","","87153","{""Q0"":""True"",""Q1"":""True"",""Q2"":""Do it as quickly as possible"",""Q3"":""True"",""Q4"":""D""}","1","","","","","","","","","","","","","","","","","","","","","","","","","","","","","","","","","","","","","","","","","","","","",""
"","missed_instruction_checkup","","html-keyboard-response","59","983642","0.0-53.1-2.1-0.1","0","1","R8EJS","Scenes","","1744","","","78","","","","","","","","","","","","","","","","","","","","","","","","","","","","","","","","","","","","","","","","","","","",""
"","deliberation_instructions","","instructions","60","1014653","0.0-53.2-0.2","0","0","R8EJS","Scenes","[{""page_index"":0,""viewing_time"":10288},{""page_index"":1,""viewing_time"":6987},{""page_index"":2,""viewing_time"":4184},{""page_index"":3,""viewing_time"":8886},{""page_index"":4,""viewing_time"":664}]","31009","","","","","","","","","","","","","","","","","","","","","","","","","","","","","","","","","","","","","","","","","","","","","","",""
"","deliberation_comprehension_check","","survey-multi-choice","61","1022461","0.0-53.2-1.2","0","0","R8EJS","Scenes","","7803","{""Q0"":""True"",""Q1"":""True"",""Q2"":""Consider carefully and take your time (up to 10 seconds)"",""Q3"":""True"",""Q4"":""D""}","0","","","","","","","","","","","","","","","","","","","","","","","","","","","","","","","","","","","","","","","","","","","","",""
"","start_phase","","html-keyboard-response","62","1024627","0.0-54.0","0","0","R8EJS","Scenes","","2163","","","78","","","","","","","","","","","","","","","","","","","","","","","","","","","","","","","","","","","","","","","","","","","",""
"","first_deliberation_block","","html-keyboard-response","63","1028239","0.0-55.0","0","0","R8EJS","Scenes","","3611","","","78","","","","","","","","","","","","","","","","","","","","","","","","","","","","","","","","","","","","","","","","","","","",""
"","fixation","","html-keyboard-response","64","1029254","0.0-56.0-0.0","0","0","R8EJS","Scenes","","null","","","null","","","","","","","","","","","","","","","","","","","","","","","","","","","","","","","","","","","","","","","","","","","",""
"","deliberation","","html-keyboard-response","65","1031048","0.0-56.0-1.0","0","0","R8EJS","Scenes","","1792","","","75","","","","0","104","138","0","1","58","65","artem-sapegin-XGDBdSQ70O0-unsplash.jpg","petr-vysohlid-9fqwGqGLUxc-unsplash.jpg","1","0","138","104","","","","","","","","","","","","","","","","","","","","","","","","","","","",""
"","choice_confirmation","","html-keyboard-response","66","1031558","0.0-56.0-2.0-0.0","0","0","R8EJS","Scenes","","null","","","null","","","","0","104","138","","","","","","","","","","","","","","","","","","","","","","","","","","","","","","","","","","","","","",""
"","fixation","","html-keyboard-response","67","1032571","0.0-57.0-0.0","0","0","R8EJS","Scenes","","null","","","null","","","","","","","","","","","","","","","","","","","","","","","","","","","","","","","","","","","","","","","","","","","",""
"","deliberation","","html-keyboard-response","68","1033950","0.0-57.0-1.0","0","0","R8EJS","Scenes","","1377","","","68","","","","1","147","116","0","-1","73","67","tobias-keller-73F4pKoUkM0-unsplash.jpg","david-marcu-W5MhJ6cy1So-unsplash.jpg","1","1","147","116","","","","","","","","","","","","","","","","","","","","","","","","","","","",""
"","choice_confirmation","","html-keyboard-response","69","1034465","0.0-57.0-2.0-0.0","0","0","R8EJS","Scenes","","null","","","null","","","","1","147","116","","","","","","","","","","","","","","","","","","","","","","","","","","","","","","","","","","","","","",""
"","fixation","","html-keyboard-response","70","1035471","0.0-58.0-0.0","0","0","R8EJS","Scenes","","null","","","null","","","","","","","","","","","","","","","","","","","","","","","","","","","","","","","","","","","","","","","","","","","",""
"","deliberation","","html-keyboard-response","71","1036513","0.0-58.0-1.0","0","0","R8EJS","Scenes","","1040","","","68","","","","2","130","102","0","1","70","65","lina-loos-04-C1NZk1hE-unsplash.jpg","anisur-rahman-K2b7UDed6uQ-unsplash.jpg","1","1","130","102","","","","","","","","","","","","","","","","","","","","","","","","","","","",""
"","choice_confirmation","","html-keyboard-response","72","1037033","0.0-58.0-2.0-0.0","0","0","R8EJS","Scenes","","null","","","null","","","","2","130","102","","","","","","","","","","","","","","","","","","","","","","","","","","","","","","","","","","","","","",""
"","fixation","","html-keyboard-response","73","1038050","0.0-59.0-0.0","0","0","R8EJS","Scenes","","null","","","null","","","","","","","","","","","","","","","","","","","","","","","","","","","","","","","","","","","","","","","","","","","",""
"","deliberation","","html-keyboard-response","74","1039125","0.0-59.0-1.0","0","0","R8EJS","Scenes","","1072","","","75","","","","3","139","109","1","1","62","71","samsommer-vddccTqwal8-unsplash.jpg","brigitta-schneiter-hXXRLtTxXCU-unsplash.jpg","1","0","109","139","","","","","","","","","","","","","","","","","","","","","","","","","","","",""
"","choice_confirmation","","html-keyboard-response","75","1039643","0.0-59.0-2.0-0.0","0","0","R8EJS","Scenes","","null","","","null","","","","3","139","109","","","","","","","","","","","","","","","","","","","","","","","","","","","","","","","","","","","","","",""
"","explain_trial","","survey-text","76","1124398","0.0-59.0-5.0-0.0","0","0","R8EJS","Scenes","","84751","{""Q0"":""I choose to sell this photograph in the auction because I liked the deep colors and shading.  ""}","","","","","","3","139","109","","","","","","","","","","","{""Q0"":""I choose to sell this photograph in the auction because I liked the deep colors and shading.  ""}","","","","","","","","","","","","","","","","","","","","","","","","","","",""
"","fixation","","html-keyboard-response","77","1125414","0.0-60.0-0.0","0","0","R8EJS","Scenes","","null","","","null","","","","","","","","","","","","","","","","","","","","","","","","","","","","","","","","","","","","","","","","","","","",""
"","deliberation","","html-keyboard-response","78","1127629","0.0-60.0-1.0","0","0","R8EJS","Scenes","","2213","","","68","","","","4","111","105","1","1","60","58","claudio-testa-U3F2o6vz3bs-unsplash.jpg","ashim-d-silva-S2Q5mdOrrVc-unsplash.jpg","1","1","111","105","","","","","","","","","","","","","","","","","","","","","","","","","","","",""
"","choice_confirmation","","html-keyboard-response","79","1128146","0.0-60.0-2.0-0.0","0","0","R8EJS","Scenes","","null","","","null","","","","4","111","105","","","","","","","","","","","","","","","","","","","","","","","","","","","","","","","","","","","","","",""
"","explain_trial","","survey-text","80","1181362","0.0-60.0-5.0-0.0","0","0","R8EJS","Scenes","","53213","{""Q0"":""I choose to sell this photograph because it's calming and relaxing.""}","","","","","","4","111","105","","","","","","","","","","","{""Q0"":""I choose to sell this photograph because it's calming and relaxing.""}","","","","","","","","","","","","","","","","","","","","","","","","","","",""
"","fixation","","html-keyboard-response","81","1182373","0.0-61.0-0.0","0","0","R8EJS","Scenes","","null","","","null","","","","","","","","","","","","","","","","","","","","","","","","","","","","","","","","","","","","","","","","","","","",""
"","deliberation","","html-keyboard-response","82","1185526","0.0-61.0-1.0","0","0","R8EJS","Scenes","","3151","","","68","","","","5","140","143","0","-1","57","59","samuele-errico-piccarini-JEBqFu2AOOA-unsplash.jpg","sigurdur-fjalar-jonsson-1KxBabIntpE-unsplash.jpg","1","1","140","143","","","","","","","","","","","","","","","","","","","","","","","","","","","",""
"","choice_confirmation","","html-keyboard-response","83","1186044","0.0-61.0-2.0-0.0","0","0","R8EJS","Scenes","","null","","","null","","","","5","140","143","","","","","","","","","","","","","","","","","","","","","","","","","","","","","","","","","","","","","",""
"","fixation","","html-keyboard-response","84","1187059","0.0-62.0-0.0","0","0","R8EJS","Scenes","","null","","","null","","","","","","","","","","","","","","","","","","","","","","","","","","","","","","","","","","","","","","","","","","","",""
"","deliberation","","html-keyboard-response","85","1189200","0.0-62.0-1.0","0","0","R8EJS","Scenes","","2139","","","68","","","","6","145","144","1","-1","62","60","stephen-leonardi-gyIRjKPXupE-unsplash.jpg","solotravelgoals-7kLufxYoqWk-unsplash.jpg","1","1","145","144","","","","","","","","","","","","","","","","","","","","","","","","","","","",""
"","choice_confirmation","","html-keyboard-response","86","1189704","0.0-62.0-2.0-0.0","0","0","R8EJS","Scenes","","null","","","null","","","","6","145","144","","","","","","","","","","","","","","","","","","","","","","","","","","","","","","","","","","","","","",""
"","explain_trial","","survey-text","87","1255953","0.0-62.0-5.0-0.0","0","0","R8EJS","Scenes","","66247","{""Q0"":""I choose to sell this photograph because the image is kind of whimsical. ""}","","","","","","6","145","144","","","","","","","","","","","{""Q0"":""I choose to sell this photograph because the image is kind of whimsical. ""}","","","","","","","","","","","","","","","","","","","","","","","","","","",""
"","fixation","","html-keyboard-response","88","1256969","0.0-63.0-0.0","0","0","R8EJS","Scenes","","null","","","null","","","","","","","","","","","","","","","","","","","","","","","","","","","","","","","","","","","","","","","","","","","",""
"","deliberation","","html-keyboard-response","89","1258741","0.0-63.0-1.0","0","0","R8EJS","Scenes","","1770","","","75","","","","7","115","108","1","-1","58","72","darrell-cassell-hoCXpPUMCoE-unsplash.jpg","benjamin-voros-phIFdC6lA4E-unsplash.jpg","1","0","108","115","","","","","","","","","","","","","","","","","","","","","","","","","","","",""
"","choice_confirmation","","html-keyboard-response","90","1259258","0.0-63.0-2.0-0.0","0","0","R8EJS","Scenes","","null","","","null","","","","7","115","108","","","","","","","","","","","","","","","","","","","","","","","","","","","","","","","","","","","","","",""
"","explain_trial","","survey-text","91","1306156","0.0-63.0-5.0-0.0","0","0","R8EJS","Scenes","","46895","{""Q0"":""I choose to sell this photograph because the image reminded me of a starry night at a campsite. ""}","","","","","","7","115","108","","","","","","","","","","","{""Q0"":""I choose to sell this photograph because the image reminded me of a starry night at a campsite. ""}","","","","","","","","","","","","","","","","","","","","","","","","","","",""
"","fixation","","html-keyboard-response","92","1307173","0.0-64.0-0.0","0","0","R8EJS","Scenes","","null","","","null","","","","","","","","","","","","","","","","","","","","","","","","","","","","","","","","","","","","","","","","","","","",""
"","deliberation","","html-keyboard-response","93","1308134","0.0-64.0-1.0","0","0","R8EJS","Scenes","","959","","","75","","","","8","125","110","1","1","69","59","john-lee-oMneOBYhJxY-unsplash.jpg","bruno-van-der-kraan-qez8mNJ3ilU-unsplash.jpg","1","0","110","125","","","","","","","","","","","","","","","","","","","","","","","","","","","",""
"","choice_confirmation","","html-keyboard-response","94","1308639","0.0-64.0-2.0-0.0","0","0","R8EJS","Scenes","","null","","","null","","","","8","125","110","","","","","","","","","","","","","","","","","","","","","","","","","","","","","","","","","","","","","",""
"","explain_trial","","survey-text","95","1373406","0.0-64.0-5.0-0.0","0","0","R8EJS","Scenes","","64765","{""Q0"":""I choose to sell this photograph because I thought the landscape was rich in color and casual. ""}","","","","","","8","125","110","","","","","","","","","","","{""Q0"":""I choose to sell this photograph because I thought the landscape was rich in color and casual. ""}","","","","","","","","","","","","","","","","","","","","","","","","","","",""
"","fixation","","html-keyboard-response","96","1374416","0.0-65.0-0.0","0","0","R8EJS","Scenes","","null","","","null","","","","","","","","","","","","","","","","","","","","","","","","","","","","","","","","","","","","","","","","","","","",""
"","deliberation","","html-keyboard-response","97","1384431","0.0-65.0-1.0","0","0","R8EJS","Scenes","","null","","","null","","","","9","118","146","0","-1","69","70","henry-be-NLF6hTe4PAg-unsplash.jpg","thomas-morse-cuKKa0vWZSY-unsplash.jpg","1","","","","","","","","","","","","","","","","","","","","","","","","","","","","","","",""
"","deliberation_too_slow","","html-keyboard-response","98","1385941","0.0-65.0-4.0-0.0","1","0","R8EJS","Scenes","","null","","","null","","","","9","","","","","","","","","","","","","","","","","","","","","","","","","","","","","","","","","","","","","","","",""
"","fixation","","html-keyboard-response","99","1386961","0.0-65.1-0.1","0","0","R8EJS","Scenes","","null","","","null","","","","","","","","","","","","","","","","","","","","","","","","","","","","","","","","","","","","","","","","","","","",""
"","deliberation","","html-keyboard-response","100","1387755","0.0-65.1-1.1","0","0","R8EJS","Scenes","","793","","","75","","","","9","118","146","0","-1","69","70","henry-be-NLF6hTe4PAg-unsplash.jpg","thomas-morse-cuKKa0vWZSY-unsplash.jpg","1","0","146","118","","","","","","","","","","","","","","","","","","","","","","","","","","","",""
"","choice_confirmation","","html-keyboard-response","101","1388262","0.0-65.1-2.1-0.1","0","0","R8EJS","Scenes","","null","","","null","","","","9","118","146","","","","","","","","","","","","","","","","","","","","","","","","","","","","","","","","","","","","","",""
"","fixation","","html-keyboard-response","102","1389280","0.0-66.0-0.0","0","0","R8EJS","Scenes","","null","","","null","","","","","","","","","","","","","","","","","","","","","","","","","","","","","","","","","","","","","","","","","","","",""
"","deliberation","","html-keyboard-response","103","1390529","0.0-66.0-1.0","0","0","R8EJS","Scenes","","1248","","","75","","","","10","126","135","1","1","58","58","jordan-mcqueen-PJCZOWuOxbU-unsplash.jpg","mohammad-alizade-4wzRuAb-KWs-unsplash.jpg","1","0","135","126","","","","","","","","","","","","","","","","","","","","","","","","","","","",""
"","choice_confirmation","","html-keyboard-response","104","1391039","0.0-66.0-2.0-0.0","0","0","R8EJS","Scenes","","null","","","null","","","","10","126","135","","","","","","","","","","","","","","","","","","","","","","","","","","","","","","","","","","","","","",""
"","explain_trial","","survey-text","105","1462399","0.0-66.0-5.0-0.0","0","0","R8EJS","Scenes","","71357","{""Q0"":""I choose to sell this photograph because the image inspiring like the landscape you see before an adventure. ""}","","","","","","10","126","135","","","","","","","","","","","{""Q0"":""I choose to sell this photograph because the image inspiring like the landscape you see before an adventure. ""}","","","","","","","","","","","","","","","","","","","","","","","","","","",""
"","fixation","","html-keyboard-response","106","1463404","0.0-67.0-0.0","0","0","R8EJS","Scenes","","null","","","null","","","","","","","","","","","","","","","","","","","","","","","","","","","","","","","","","","","","","","","","","","","",""
"","deliberation","","html-keyboard-response","107","1465799","0.0-67.0-1.0","0","0","R8EJS","Scenes","","2393","","","75","","","","11","120","127","0","-1","68","67","jarrett-kow-1ZOyYPOBn7I-unsplash.jpg","kace-rodriguez-p3OzJuT_Dks-unsplash.jpg","1","0","127","120","","","","","","","","","","","","","","","","","","","","","","","","","","","",""
"","choice_confirmation","","html-keyboard-response","108","1466318","0.0-67.0-2.0-0.0","0","0","R8EJS","Scenes","","null","","","null","","","","11","120","127","","","","","","","","","","","","","","","","","","","","","","","","","","","","","","","","","","","","","",""
"","practice_deliberation_again","","html-keyboard-response","109","1470642","0.0-67.0-6.0-0.0","0","0","R8EJS","Scenes","","4322","","","78","","","","","","","","","","","","","","","","","","","","","","","","","","","","","","","","","","","","","","","","","","","",""
"","fixation","","html-keyboard-response","110","1471656","0.0-68.0-0.0","0","0","R8EJS","Scenes","","null","","","null","","","","","","","","","","","","","","","","","","","","","","","","","","","","","","","","","","","","","","","","","","","",""
"","deliberation","","html-keyboard-response","111","1473013","0.0-68.0-1.0","0","0","R8EJS","Scenes","","1356","","","75","","","","12","115","108","0","-1","58","72","darrell-cassell-hoCXpPUMCoE-unsplash.jpg","benjamin-voros-phIFdC6lA4E-unsplash.jpg","2","0","108","115","","","","","","","","","","","","","","","","","","","","","","","","","","","",""
"","choice_confirmation","","html-keyboard-response","112","1473523","0.0-68.0-2.0-0.0","0","0","R8EJS","Scenes","","null","","","null","","","","12","115","108","","","","","","","","","","","","","","","","","","","","","","","","","","","","","","","","","","","","","",""
"","fixation","","html-keyboard-response","113","1474531","0.0-69.0-0.0","0","0","R8EJS","Scenes","","null","","","null","","","","","","","","","","","","","","","","","","","","","","","","","","","","","","","","","","","","","","","","","","","",""
"","deliberation","","html-keyboard-response","114","1475799","0.0-69.0-1.0","0","0","R8EJS","Scenes","","1266","","","68","","","","13","139","109","0","1","62","71","samsommer-vddccTqwal8-unsplash.jpg","brigitta-schneiter-hXXRLtTxXCU-unsplash.jpg","2","1","139","109","","","","","","","","","","","","","","","","","","","","","","","","","","","",""
"","choice_confirmation","","html-keyboard-response","115","1476306","0.0-69.0-2.0-0.0","0","0","R8EJS","Scenes","","null","","","null","","","","13","139","109","","","","","","","","","","","","","","","","","","","","","","","","","","","","","","","","","","","","","",""
"","fixation","","html-keyboard-response","116","1477318","0.0-70.0-0.0","0","0","R8EJS","Scenes","","null","","","null","","","","","","","","","","","","","","","","","","","","","","","","","","","","","","","","","","","","","","","","","","","",""
"","deliberation","","html-keyboard-response","117","1478073","0.0-70.0-1.0","0","0","R8EJS","Scenes","","753","","","75","","","","14","111","105","0","1","60","58","claudio-testa-U3F2o6vz3bs-unsplash.jpg","ashim-d-silva-S2Q5mdOrrVc-unsplash.jpg","2","0","105","111","","","","","","","","","","","","","","","","","","","","","","","","","","","",""
"","choice_confirmation","","html-keyboard-response","118","1478590","0.0-70.0-2.0-0.0","0","0","R8EJS","Scenes","","null","","","null","","","","14","111","105","","","","","","","","","","","","","","","","","","","","","","","","","","","","","","","","","","","","","",""
"","fixation","","html-keyboard-response","119","1479602","0.0-71.0-0.0","0","0","R8EJS","Scenes","","null","","","null","","","","","","","","","","","","","","","","","","","","","","","","","","","","","","","","","","","","","","","","","","","",""
"","deliberation","","html-keyboard-response","120","1481116","0.0-71.0-1.0","0","0","R8EJS","Scenes","","1512","","","75","","","","15","130","102","1","1","70","65","lina-loos-04-C1NZk1hE-unsplash.jpg","anisur-rahman-K2b7UDed6uQ-unsplash.jpg","2","0","102","130","","","","","","","","","","","","","","","","","","","","","","","","","","","",""
"","choice_confirmation","","html-keyboard-response","121","1481624","0.0-71.0-2.0-0.0","0","0","R8EJS","Scenes","","null","","","null","","","","15","130","102","","","","","","","","","","","","","","","","","","","","","","","","","","","","","","","","","","","","","",""
"","explain_trial","","survey-text","122","1522900","0.0-71.0-5.0-0.0","0","0","R8EJS","Scenes","","41274","{""Q0"":""I choose to sell this photograph because I though in liked like a seen out of a fairytale.""}","","","","","","15","130","102","","","","","","","","","","","{""Q0"":""I choose to sell this photograph because I though in liked like a seen out of a fairytale.""}","","","","","","","","","","","","","","","","","","","","","","","","","","",""
"","fixation","","html-keyboard-response","123","1523921","0.0-72.0-0.0","0","0","R8EJS","Scenes","","null","","","null","","","","","","","","","","","","","","","","","","","","","","","","","","","","","","","","","","","","","","","","","","","",""
"","deliberation","","html-keyboard-response","124","1525160","0.0-72.0-1.0","0","0","R8EJS","Scenes","","1237","","","75","","","","16","118","146","1","-1","69","70","henry-be-NLF6hTe4PAg-unsplash.jpg","thomas-morse-cuKKa0vWZSY-unsplash.jpg","2","0","146","118","","","","","","","","","","","","","","","","","","","","","","","","","","","",""
"","choice_confirmation","","html-keyboard-response","125","1525667","0.0-72.0-2.0-0.0","0","0","R8EJS","Scenes","","null","","","null","","","","16","118","146","","","","","","","","","","","","","","","","","","","","","","","","","","","","","","","","","","","","","",""
"","explain_trial","","survey-text","126","1573335","0.0-72.0-5.0-0.0","0","0","R8EJS","Scenes","","47665","{""Q0"":""I choose to sell this photograph because the image was bright in color and gave character to the scene.""}","","","","","","16","118","146","","","","","","","","","","","{""Q0"":""I choose to sell this photograph because the image was bright in color and gave character to the scene.""}","","","","","","","","","","","","","","","","","","","","","","","","","","",""
"","fixation","","html-keyboard-response","127","1574345","0.0-73.0-0.0","0","0","R8EJS","Scenes","","null","","","null","","","","","","","","","","","","","","","","","","","","","","","","","","","","","","","","","","","","","","","","","","","",""
"","deliberation","","html-keyboard-response","128","1575984","0.0-73.0-1.0","0","0","R8EJS","Scenes","","1638","","","68","","","","17","147","116","1","-1","73","67","tobias-keller-73F4pKoUkM0-unsplash.jpg","david-marcu-W5MhJ6cy1So-unsplash.jpg","2","1","147","116","","","","","","","","","","","","","","","","","","","","","","","","","","","",""
"","choice_confirmation","","html-keyboard-response","129","1576501","0.0-73.0-2.0-0.0","0","0","R8EJS","Scenes","","null","","","null","","","","17","147","116","","","","","","","","","","","","","","","","","","","","","","","","","","","","","","","","","","","","","",""
"","explain_trial","","survey-text","130","1663980","0.0-73.0-5.0-0.0","0","0","R8EJS","Scenes","","87475","{""Q0"":""The reason why I choose to sell this photograph because the image is rustic like to scene you see when you come our of a log cabin. ""}","","","","","","17","147","116","","","","","","","","","","","{""Q0"":""The reason why I choose to sell this photograph because the image is rustic like to scene you see when you come our of a log cabin. ""}","","","","","","","","","","","","","","","","","","","","","","","","","","",""
"","fixation","","html-keyboard-response","131","1664993","0.0-74.0-0.0","0","0","R8EJS","Scenes","","null","","","null","","","","","","","","","","","","","","","","","","","","","","","","","","","","","","","","","","","","","","","","","","","",""
"","deliberation","","html-keyboard-response","132","1665840","0.0-74.0-1.0","0","0","R8EJS","Scenes","","845","","","75","","","","18","145","144","0","-1","62","60","stephen-leonardi-gyIRjKPXupE-unsplash.jpg","solotravelgoals-7kLufxYoqWk-unsplash.jpg","2","0","144","145","","","","","","","","","","","","","","","","","","","","","","","","","","","",""
"","choice_confirmation","","html-keyboard-response","133","1666343","0.0-74.0-2.0-0.0","0","0","R8EJS","Scenes","","null","","","null","","","","18","145","144","","","","","","","","","","","","","","","","","","","","","","","","","","","","","","","","","","","","","",""
"","fixation","","html-keyboard-response","134","1667364","0.0-75.0-0.0","0","0","R8EJS","Scenes","","null","","","null","","","","","","","","","","","","","","","","","","","","","","","","","","","","","","","","","","","","","","","","","","","",""
"","deliberation","","html-keyboard-response","135","1668579","0.0-75.0-1.0","0","0","R8EJS","Scenes","","1213","","","68","","","","19","126","135","0","1","58","58","jordan-mcqueen-PJCZOWuOxbU-unsplash.jpg","mohammad-alizade-4wzRuAb-KWs-unsplash.jpg","2","1","126","135","","","","","","","","","","","","","","","","","","","","","","","","","","","",""
"","choice_confirmation","","html-keyboard-response","136","1669097","0.0-75.0-2.0-0.0","0","0","R8EJS","Scenes","","null","","","null","","","","19","126","135","","","","","","","","","","","","","","","","","","","","","","","","","","","","","","","","","","","","","",""
"","fixation","","html-keyboard-response","137","1670110","0.0-76.0-0.0","0","0","R8EJS","Scenes","","null","","","null","","","","","","","","","","","","","","","","","","","","","","","","","","","","","","","","","","","","","","","","","","","",""
"","deliberation","","html-keyboard-response","138","1671286","0.0-76.0-1.0","0","0","R8EJS","Scenes","","1174","","","68","","","","20","125","110","0","1","69","59","john-lee-oMneOBYhJxY-unsplash.jpg","bruno-van-der-kraan-qez8mNJ3ilU-unsplash.jpg","2","1","125","110","","","","","","","","","","","","","","","","","","","","","","","","","","","",""
"","choice_confirmation","","html-keyboard-response","139","1671793","0.0-76.0-2.0-0.0","0","0","R8EJS","Scenes","","null","","","null","","","","20","125","110","","","","","","","","","","","","","","","","","","","","","","","","","","","","","","","","","","","","","",""
"","fixation","","html-keyboard-response","140","1672814","0.0-77.0-0.0","0","0","R8EJS","Scenes","","null","","","null","","","","","","","","","","","","","","","","","","","","","","","","","","","","","","","","","","","","","","","","","","","",""
"","deliberation","","html-keyboard-response","141","1673755","0.0-77.0-1.0","0","0","R8EJS","Scenes","","938","","","68","","","","21","120","127","1","-1","68","67","jarrett-kow-1ZOyYPOBn7I-unsplash.jpg","kace-rodriguez-p3OzJuT_Dks-unsplash.jpg","2","1","120","127","","","","","","","","","","","","","","","","","","","","","","","","","","","",""
"","choice_confirmation","","html-keyboard-response","142","1674262","0.0-77.0-2.0-0.0","0","0","R8EJS","Scenes","","null","","","null","","","","21","120","127","","","","","","","","","","","","","","","","","","","","","","","","","","","","","","","","","","","","","",""
"","explain_trial","","survey-text","143","1715258","0.0-77.0-5.0-0.0","0","0","R8EJS","Scenes","","40994","{""Q0"":""I choose to sell this photograph because the image is kind of whimsical like a fairytale book.""}","","","","","","21","120","127","","","","","","","","","","","{""Q0"":""I choose to sell this photograph because the image is kind of whimsical like a fairytale book.""}","","","","","","","","","","","","","","","","","","","","","","","","","","",""
"","fixation","","html-keyboard-response","144","1716271","0.0-78.0-0.0","0","0","R8EJS","Scenes","","null","","","null","","","","","","","","","","","","","","","","","","","","","","","","","","","","","","","","","","","","","","","","","","","",""
"","deliberation","","html-keyboard-response","145","1717462","0.0-78.0-1.0","0","0","R8EJS","Scenes","","1189","","","68","","","","22","104","138","1","1","58","65","artem-sapegin-XGDBdSQ70O0-unsplash.jpg","petr-vysohlid-9fqwGqGLUxc-unsplash.jpg","2","1","104","138","","","","","","","","","","","","","","","","","","","","","","","","","","","",""
"","choice_confirmation","","html-keyboard-response","146","1717977","0.0-78.0-2.0-0.0","0","0","R8EJS","Scenes","","null","","","null","","","","22","104","138","","","","","","","","","","","","","","","","","","","","","","","","","","","","","","","","","","","","","",""
"","explain_trial","","survey-text","147","1823523","0.0-78.0-5.0-0.0","0","0","R8EJS","Scenes","","105545","{""Q0"":""I choose to sell this photograph because the scene calming and cozy to picture.""}","","","","","","22","104","138","","","","","","","","","","","{""Q0"":""I choose to sell this photograph because the scene calming and cozy to picture.""}","","","","","","","","","","","","","","","","","","","","","","","","","","",""
"","fixation","","html-keyboard-response","148","1824533","0.0-79.0-0.0","0","0","R8EJS","Scenes","","null","","","null","","","","","","","","","","","","","","","","","","","","","","","","","","","","","","","","","","","","","","","","","","","",""
"","deliberation","","html-keyboard-response","149","1826596","0.0-79.0-1.0","0","0","R8EJS","Scenes","","2061","","","75","","","","23","140","143","1","-1","57","59","samuele-errico-piccarini-JEBqFu2AOOA-unsplash.jpg","sigurdur-fjalar-jonsson-1KxBabIntpE-unsplash.jpg","2","0","143","140","","","","","","","","","","","","","","","","","","","","","","","","","","","",""
"","choice_confirmation","","html-keyboard-response","150","1827112","0.0-79.0-2.0-0.0","0","0","R8EJS","Scenes","","null","","","null","","","","23","140","143","","","","","","","","","","","","","","","","","","","","","","","","","","","","","","","","","","","","","",""
"","explain_trial","","survey-text","151","1858622","0.0-79.0-5.0-0.0","0","0","R8EJS","Scenes","","31508","{""Q0"":""I choose to sell this photograph because the image because it was rich in color.""}","","","","","","23","140","143","","","","","","","","","","","{""Q0"":""I choose to sell this photograph because the image because it was rich in color.""}","","","","","","","","","","","","","","","","","","","","","","","","","","",""
"","start_critical_deliberation_block","","html-keyboard-response","152","1877049","0.0-79.0-7.0-0.0","0","0","R8EJS","Scenes","","18425","","","78","","","","","","","","","","","","","","","","","","","","","","","","","","","","","","","","","","","","","","","","","","","",""
"","fixation","","html-keyboard-response","153","1878057","0.0-80.0-0.0","0","0","R8EJS","Scenes","","null","","","null","","","","","","","","","","","","","","","","","","","","","","","","","","","","","","","","","","","","","","","","","","","",""
"","deliberation","","html-keyboard-response","154","1879452","0.0-80.0-1.0","0","0","R8EJS","Scenes","","1393","","","68","","","","24","115","108","0","-1","58","72","darrell-cassell-hoCXpPUMCoE-unsplash.jpg","benjamin-voros-phIFdC6lA4E-unsplash.jpg","3","1","115","108","","","","","","","","","","","","","","","","","","","","","","","","","","","",""
"","choice_confirmation","","html-keyboard-response","155","1879972","0.0-80.0-2.0-0.0","0","0","R8EJS","Scenes","","null","","","null","","","","24","115","108","","","","","","","","","","","","","","","","","","","","","","","","","","","","","","","","","","","","","",""
"","fixation","","html-keyboard-response","156","1880983","0.0-81.0-0.0","0","0","R8EJS","Scenes","","null","","","null","","","","","","","","","","","","","","","","","","","","","","","","","","","","","","","","","","","","","","","","","","","",""
"","deliberation","","html-keyboard-response","157","1882024","0.0-81.0-1.0","0","0","R8EJS","Scenes","","1039","","","68","","","","25","130","102","0","1","70","65","lina-loos-04-C1NZk1hE-unsplash.jpg","anisur-rahman-K2b7UDed6uQ-unsplash.jpg","3","1","130","102","","","","","","","","","","","","","","","","","","","","","","","","","","","",""
"","choice_confirmation","","html-keyboard-response","158","1882528","0.0-81.0-2.0-0.0","0","0","R8EJS","Scenes","","null","","","null","","","","25","130","102","","","","","","","","","","","","","","","","","","","","","","","","","","","","","","","","","","","","","",""
"","fixation","","html-keyboard-response","159","1883547","0.0-82.0-0.0","0","0","R8EJS","Scenes","","null","","","null","","","","","","","","","","","","","","","","","","","","","","","","","","","","","","","","","","","","","","","","","","","",""
"","deliberation","","html-keyboard-response","160","1884354","0.0-82.0-1.0","0","0","R8EJS","Scenes","","805","","","75","","","","26","104","138","0","1","58","65","artem-sapegin-XGDBdSQ70O0-unsplash.jpg","petr-vysohlid-9fqwGqGLUxc-unsplash.jpg","3","0","138","104","","","","","","","","","","","","","","","","","","","","","","","","","","","",""
"","choice_confirmation","","html-keyboard-response","161","1884865","0.0-82.0-2.0-0.0","0","0","R8EJS","Scenes","","null","","","null","","","","26","104","138","","","","","","","","","","","","","","","","","","","","","","","","","","","","","","","","","","","","","",""
"","fixation","","html-keyboard-response","162","1885878","0.0-83.0-0.0","0","0","R8EJS","Scenes","","null","","","null","","","","","","","","","","","","","","","","","","","","","","","","","","","","","","","","","","","","","","","","","","","",""
"","deliberation","","html-keyboard-response","163","1886624","0.0-83.0-1.0","0","0","R8EJS","Scenes","","744","","","68","","","","27","140","143","0","-1","57","59","samuele-errico-piccarini-JEBqFu2AOOA-unsplash.jpg","sigurdur-fjalar-jonsson-1KxBabIntpE-unsplash.jpg","3","1","140","143","","","","","","","","","","","","","","","","","","","","","","","","","","","",""
"","choice_confirmation","","html-keyboard-response","164","1887138","0.0-83.0-2.0-0.0","0","0","R8EJS","Scenes","","null","","","null","","","","27","140","143","","","","","","","","","","","","","","","","","","","","","","","","","","","","","","","","","","","","","",""
"","fixation","","html-keyboard-response","165","1888151","0.0-84.0-0.0","0","0","R8EJS","Scenes","","null","","","null","","","","","","","","","","","","","","","","","","","","","","","","","","","","","","","","","","","","","","","","","","","",""
"","deliberation","","html-keyboard-response","166","1889138","0.0-84.0-1.0","0","0","R8EJS","Scenes","","986","","","68","","","","28","118","146","0","-1","69","70","henry-be-NLF6hTe4PAg-unsplash.jpg","thomas-morse-cuKKa0vWZSY-unsplash.jpg","3","1","118","146","","","","","","","","","","","","","","","","","","","","","","","","","","","",""
"","choice_confirmation","","html-keyboard-response","167","1889650","0.0-84.0-2.0-0.0","0","0","R8EJS","Scenes","","null","","","null","","","","28","118","146","","","","","","","","","","","","","","","","","","","","","","","","","","","","","","","","","","","","","",""
"","fixation","","html-keyboard-response","168","1890654","0.0-85.0-0.0","0","0","R8EJS","Scenes","","null","","","null","","","","","","","","","","","","","","","","","","","","","","","","","","","","","","","","","","","","","","","","","","","",""
"","deliberation","","html-keyboard-response","169","1891428","0.0-85.0-1.0","0","0","R8EJS","Scenes","","772","","","75","","","","29","111","105","0","1","60","58","claudio-testa-U3F2o6vz3bs-unsplash.jpg","ashim-d-silva-S2Q5mdOrrVc-unsplash.jpg","3","0","105","111","","","","","","","","","","","","","","","","","","","","","","","","","","","",""
"","choice_confirmation","","html-keyboard-response","170","1891941","0.0-85.0-2.0-0.0","0","0","R8EJS","Scenes","","null","","","null","","","","29","111","105","","","","","","","","","","","","","","","","","","","","","","","","","","","","","","","","","","","","","",""
"","fixation","","html-keyboard-response","171","1892963","0.0-86.0-0.0","0","0","R8EJS","Scenes","","null","","","null","","","","","","","","","","","","","","","","","","","","","","","","","","","","","","","","","","","","","","","","","","","",""
"","deliberation","","html-keyboard-response","172","1894109","0.0-86.0-1.0","0","0","R8EJS","Scenes","","1144","","","68","","","","30","126","135","0","1","58","58","jordan-mcqueen-PJCZOWuOxbU-unsplash.jpg","mohammad-alizade-4wzRuAb-KWs-unsplash.jpg","3","1","126","135","","","","","","","","","","","","","","","","","","","","","","","","","","","",""
"","choice_confirmation","","html-keyboard-response","173","1894622","0.0-86.0-2.0-0.0","0","0","R8EJS","Scenes","","null","","","null","","","","30","126","135","","","","","","","","","","","","","","","","","","","","","","","","","","","","","","","","","","","","","",""
"","fixation","","html-keyboard-response","174","1895636","0.0-87.0-0.0","0","0","R8EJS","Scenes","","null","","","null","","","","","","","","","","","","","","","","","","","","","","","","","","","","","","","","","","","","","","","","","","","",""
"","deliberation","","html-keyboard-response","175","1896904","0.0-87.0-1.0","0","0","R8EJS","Scenes","","1266","","","75","","","","31","147","116","0","-1","73","67","tobias-keller-73F4pKoUkM0-unsplash.jpg","david-marcu-W5MhJ6cy1So-unsplash.jpg","3","0","116","147","","","","","","","","","","","","","","","","","","","","","","","","","","","",""
"","choice_confirmation","","html-keyboard-response","176","1897409","0.0-87.0-2.0-0.0","0","0","R8EJS","Scenes","","null","","","null","","","","31","147","116","","","","","","","","","","","","","","","","","","","","","","","","","","","","","","","","","","","","","",""
"","fixation","","html-keyboard-response","177","1898425","0.0-88.0-0.0","0","0","R8EJS","Scenes","","null","","","null","","","","","","","","","","","","","","","","","","","","","","","","","","","","","","","","","","","","","","","","","","","",""
"","deliberation","","html-keyboard-response","178","1899356","0.0-88.0-1.0","0","0","R8EJS","Scenes","","929","","","68","","","","32","139","109","0","1","62","71","samsommer-vddccTqwal8-unsplash.jpg","brigitta-schneiter-hXXRLtTxXCU-unsplash.jpg","3","1","139","109","","","","","","","","","","","","","","","","","","","","","","","","","","","",""
"","choice_confirmation","","html-keyboard-response","179","1899867","0.0-88.0-2.0-0.0","0","0","R8EJS","Scenes","","null","","","null","","","","32","139","109","","","","","","","","","","","","","","","","","","","","","","","","","","","","","","","","","","","","","",""
"","fixation","","html-keyboard-response","180","1900872","0.0-89.0-0.0","0","0","R8EJS","Scenes","","null","","","null","","","","","","","","","","","","","","","","","","","","","","","","","","","","","","","","","","","","","","","","","","","",""
"","deliberation","","html-keyboard-response","181","1901856","0.0-89.0-1.0","0","0","R8EJS","Scenes","","983","","","75","","","","33","120","127","0","-1","68","67","jarrett-kow-1ZOyYPOBn7I-unsplash.jpg","kace-rodriguez-p3OzJuT_Dks-unsplash.jpg","3","0","127","120","","","","","","","","","","","","","","","","","","","","","","","","","","","",""
"","choice_confirmation","","html-keyboard-response","182","1902368","0.0-89.0-2.0-0.0","0","0","R8EJS","Scenes","","null","","","null","","","","33","120","127","","","","","","","","","","","","","","","","","","","","","","","","","","","","","","","","","","","","","",""
"","fixation","","html-keyboard-response","183","1903387","0.0-90.0-0.0","0","0","R8EJS","Scenes","","null","","","null","","","","","","","","","","","","","","","","","","","","","","","","","","","","","","","","","","","","","","","","","","","",""
"","deliberation","","html-keyboard-response","184","1904367","0.0-90.0-1.0","0","0","R8EJS","Scenes","","978","","","68","","","","34","145","144","0","-1","62","60","stephen-leonardi-gyIRjKPXupE-unsplash.jpg","solotravelgoals-7kLufxYoqWk-unsplash.jpg","3","1","145","144","","","","","","","","","","","","","","","","","","","","","","","","","","","",""
"","choice_confirmation","","html-keyboard-response","185","1904878","0.0-90.0-2.0-0.0","0","0","R8EJS","Scenes","","null","","","null","","","","34","145","144","","","","","","","","","","","","","","","","","","","","","","","","","","","","","","","","","","","","","",""
"","fixation","","html-keyboard-response","186","1905889","0.0-91.0-0.0","0","0","R8EJS","Scenes","","null","","","null","","","","","","","","","","","","","","","","","","","","","","","","","","","","","","","","","","","","","","","","","","","",""
"","deliberation","","html-keyboard-response","187","1907215","0.0-91.0-1.0","0","0","R8EJS","Scenes","","1325","","","68","","","","35","125","110","0","1","69","59","john-lee-oMneOBYhJxY-unsplash.jpg","bruno-van-der-kraan-qez8mNJ3ilU-unsplash.jpg","3","1","125","110","","","","","","","","","","","","","","","","","","","","","","","","","","","",""
"","choice_confirmation","","html-keyboard-response","188","1907740","0.0-91.0-2.0-0.0","0","0","R8EJS","Scenes","","null","","","null","","","","35","125","110","","","","","","","","","","","","","","","","","","","","","","","","","","","","","","","","","","","","","",""
"","reward_learning_instructions","","instructions","189","2032824","0.0-92.0-0.0","0","0","R8EJS","Scenes","[{""page_index"":0,""viewing_time"":30366},{""page_index"":1,""viewing_time"":92259},{""page_index"":2,""viewing_time"":2457}]","125082","","","","","","","","","","","","","","","","","","","","","","","","","","","","","","","","","","","","","","","","","","","","","","",""
"","reward_comprehension_check","","survey-multi-choice","190","2065805","0.0-92.0-1.0","0","0","R8EJS","Scenes","","32978","{""Q0"":""True"",""Q1"":""True"",""Q2"":""Press the space bar to see its outcome"",""Q3"":""Press the relevant key while the outcome is presented""}","0","","","","","","","","","","","","","","","","","","","","","","","","","","","","","","","","","","","","","","","","","","","","",""
"","start_phase","","html-keyboard-response","191","2068322","0.0-93.0","0","0","R8EJS","Scenes","","2514","","","78","","","","","","","","","","","","","","","","","","","","","","","","","","","","","","","","","","","","","","","","","","","",""
"","fixation","","html-keyboard-response","192","2069346","0.0-94.0","0","0","R8EJS","Scenes","","null","","","null","","","","","","","","","","","","","","","","","","","","","","","","","","","","","","","","","","","","","","","","","","","",""
"","see_reward","","html-keyboard-response","193","2070116","0.0-95.0","0","0","R8EJS","Scenes","","768","","","32","","139","","0","","","","1","","","","","1","","","","","148","768","","","","","","","","","","","","","","","","","","","","","","","","",""
"","reward_outcome","","html-keyboard-response","194","2072126","0.0-96.0","0","0","R8EJS","Scenes","","691","","","38","","139","","0","","","","","","","","","","","","","","","","1","691","","","","","","","","","","","","","","","","","","","","","","",""
"","fixation","","html-keyboard-response","195","2073134","0.0-99.0","0","0","R8EJS","Scenes","","null","","","null","","","","","","","","","","","","","","","","","","","","","","","","","","","","","","","","","","","","","","","","","","","",""
"","see_reward","","html-keyboard-response","196","2074002","0.0-100.0","0","0","R8EJS","Scenes","","866","","","32","","145","","1","","","","-1","","","","","1","","","","","0","866","","","","","","","","","","","","","","","","","","","","","","","","",""
"","reward_outcome","","html-keyboard-response","197","2076018","0.0-101.0","0","0","R8EJS","Scenes","","696","","","40","","145","","1","","","","","","","","","","","","","","","","-1","696","","","","","","","","","","","","","","","","","","","","","","",""
"","fixation","","html-keyboard-response","198","2077029","0.0-104.0","0","0","R8EJS","Scenes","","null","","","null","","","","","","","","","","","","","","","","","","","","","","","","","","","","","","","","","","","","","","","","","","","",""
"","see_reward","","html-keyboard-response","199","2077642","0.0-105.0","0","0","R8EJS","Scenes","","612","","","32","","118","","2","","","","-1","","","","","1","","","","","0","612","","","","","","","","","","","","","","","","","","","","","","","","",""
"","reward_outcome","","html-keyboard-response","200","2079653","0.0-106.0","0","0","R8EJS","Scenes","","762","","","40","","118","","2","","","","","","","","","","","","","","","","-1","762","","","","","","","","","","","","","","","","","","","","","","",""
"","fixation","","html-keyboard-response","201","2080669","0.0-109.0","0","0","R8EJS","Scenes","","null","","","null","","","","","","","","","","","","","","","","","","","","","","","","","","","","","","","","","","","","","","","","","","","",""
"","see_reward","","html-keyboard-response","202","2081303","0.0-110.0","0","0","R8EJS","Scenes","","632","","","32","","127","","3","","","","-1","","","","","1","","","","","0","632","","","","","","","","","","","","","","","","","","","","","","","","",""
"","reward_outcome","","html-keyboard-response","203","2083312","0.0-111.0","0","0","R8EJS","Scenes","","745","","","40","","127","","3","","","","","","","","","","","","","","","","-1","745","","","","","","","","","","","","","","","","","","","","","","",""
"","fixation","","html-keyboard-response","204","2084327","0.0-114.0","0","0","R8EJS","Scenes","","null","","","null","","","","","","","","","","","","","","","","","","","","","","","","","","","","","","","","","","","","","","","","","","","",""
"","see_reward","","html-keyboard-response","205","2084980","0.0-115.0","0","0","R8EJS","Scenes","","651","","","32","","139","","4","","","","1","","","","","1","","","","","148","651","","","","","","","","","","","","","","","","","","","","","","","","",""
"","reward_outcome","","html-keyboard-response","206","2086993","0.0-116.0","0","0","R8EJS","Scenes","","645","","","38","","139","","4","","","","","","","","","","","","","","","","1","645","","","","","","","","","","","","","","","","","","","","","","",""
"","fixation","","html-keyboard-response","207","2088004","0.0-119.0","0","0","R8EJS","Scenes","","null","","","null","","","","","","","","","","","","","","","","","","","","","","","","","","","","","","","","","","","","","","","","","","","",""
"","see_reward","","html-keyboard-response","208","2088805","0.0-120.0","0","0","R8EJS","Scenes","","800","","","32","","116","","5","","","","-1","","","","","1","","","","","0","800","","","","","","","","","","","","","","","","","","","","","","","","",""
"","reward_outcome","","html-keyboard-response","209","2090814","0.0-121.0","0","0","R8EJS","Scenes","","830","","","40","","116","","5","","","","","","","","","","","","","","","","-1","830","","","","","","","","","","","","","","","","","","","","","","",""
"","fixation","","html-keyboard-response","210","2091823","0.0-124.0","0","0","R8EJS","Scenes","","null","","","null","","","","","","","","","","","","","","","","","","","","","","","","","","","","","","","","","","","","","","","","","","","",""
"","see_reward","","html-keyboard-response","211","2092652","0.0-125.0","0","0","R8EJS","Scenes","","827","","","32","","105","","6","","","","1","","","","","1","","","","","154","827","","","","","","","","","","","","","","","","","","","","","","","","",""
"","reward_outcome","","html-keyboard-response","212","2094671","0.0-126.0","0","0","R8EJS","Scenes","","907","","","38","","105","","6","","","","","","","","","","","","","","","","1","907","","","","","","","","","","","","","","","","","","","","","","",""
"","fixation","","html-keyboard-response","213","2095686","0.0-129.0","0","0","R8EJS","Scenes","","null","","","null","","","","","","","","","","","","","","","","","","","","","","","","","","","","","","","","","","","","","","","","","","","",""
"","see_reward","","html-keyboard-response","214","2096381","0.0-130.0","0","0","R8EJS","Scenes","","693","","","32","","126","","7","","","","1","","","","","1","","","","","148","693","","","","","","","","","","","","","","","","","","","","","","","","",""
"","reward_outcome","","html-keyboard-response","215","2098394","0.0-131.0","0","0","R8EJS","Scenes","","723","","","38","","126","","7","","","","","","","","","","","","","","","","1","723","","","","","","","","","","","","","","","","","","","","","","",""
"","fixation","","html-keyboard-response","216","2099411","0.0-134.0","0","0","R8EJS","Scenes","","null","","","null","","","","","","","","","","","","","","","","","","","","","","","","","","","","","","","","","","","","","","","","","","","",""
"","see_reward","","html-keyboard-response","217","2100037","0.0-135.0","0","0","R8EJS","Scenes","","624","","","32","","145","","8","","","","-1","","","","","1","","","","","0","624","","","","","","","","","","","","","","","","","","","","","","","","",""
"","reward_outcome","","html-keyboard-response","218","2102054","0.0-136.0","0","0","R8EJS","Scenes","","678","","","40","","145","","8","","","","","","","","","","","","","","","","-1","678","","","","","","","","","","","","","","","","","","","","","","",""
"","fixation","","html-keyboard-response","219","2103062","0.0-139.0","0","0","R8EJS","Scenes","","null","","","null","","","","","","","","","","","","","","","","","","","","","","","","","","","","","","","","","","","","","","","","","","","",""
"","see_reward","","html-keyboard-response","220","2103511","0.0-140.0","0","0","R8EJS","Scenes","","448","","","32","","138","","9","","","","1","","","","","1","","","","","143","448","","","","","","","","","","","","","","","","","","","","","","","","",""
"","reward_outcome","","html-keyboard-response","221","2105530","0.0-141.0","0","0","R8EJS","Scenes","","706","","","38","","138","","9","","","","","","","","","","","","","","","","1","706","","","","","","","","","","","","","","","","","","","","","","",""
"","fixation","","html-keyboard-response","222","2106536","0.0-144.0","0","0","R8EJS","Scenes","","null","","","null","","","","","","","","","","","","","","","","","","","","","","","","","","","","","","","","","","","","","","","","","","","",""
"","see_reward","","html-keyboard-response","223","2106985","0.0-145.0","0","0","R8EJS","Scenes","","446","","","32","","130","","10","","","","1","","","","","1","","","","","150","446","","","","","","","","","","","","","","","","","","","","","","","","",""
"","reward_outcome","","html-keyboard-response","224","2108991","0.0-146.0","0","0","R8EJS","Scenes","","710","","","38","","130","","10","","","","","","","","","","","","","","","","1","710","","","","","","","","","","","","","","","","","","","","","","",""
"","fixation","","html-keyboard-response","225","2110006","0.0-149.0","0","0","R8EJS","Scenes","","null","","","null","","","","","","","","","","","","","","","","","","","","","","","","","","","","","","","","","","","","","","","","","","","",""
"","see_reward","","html-keyboard-response","226","2110411","0.0-150.0","0","0","R8EJS","Scenes","","403","","","32","","115","","11","","","","-1","","","","","1","","","","","0","403","","","","","","","","","","","","","","","","","","","","","","","","",""
"","reward_outcome","","html-keyboard-response","227","2112430","0.0-151.0","0","0","R8EJS","Scenes","","656","","","40","","115","","11","","","","","","","","","","","","","","","","-1","656","","","","","","","","","","","","","","","","","","","","","","",""
"","fixation","","html-keyboard-response","228","2113441","0.0-154.0","0","0","R8EJS","Scenes","","null","","","null","","","","","","","","","","","","","","","","","","","","","","","","","","","","","","","","","","","","","","","","","","","",""
"","see_reward","","html-keyboard-response","229","2113913","0.0-155.0","0","0","R8EJS","Scenes","","471","","","32","","105","","12","","","","1","","","","","1","","","","","154","471","","","","","","","","","","","","","","","","","","","","","","","","",""
"","reward_outcome","","html-keyboard-response","230","2115917","0.0-156.0","0","0","R8EJS","Scenes","","683","","","38","","105","","12","","","","","","","","","","","","","","","","1","683","","","","","","","","","","","","","","","","","","","","","","",""
"","fixation","","html-keyboard-response","231","2116924","0.0-159.0","0","0","R8EJS","Scenes","","null","","","null","","","","","","","","","","","","","","","","","","","","","","","","","","","","","","","","","","","","","","","","","","","",""
"","see_reward","","html-keyboard-response","232","2117362","0.0-160.0","0","0","R8EJS","Scenes","","436","","","32","","127","","13","","","","-1","","","","","1","","","","","0","436","","","","","","","","","","","","","","","","","","","","","","","","",""
"","reward_outcome","","html-keyboard-response","233","2119374","0.0-161.0","0","0","R8EJS","Scenes","","633","","","40","","127","","13","","","","","","","","","","","","","","","","-1","633","","","","","","","","","","","","","","","","","","","","","","",""
"","fixation","","html-keyboard-response","234","2120382","0.0-164.0","0","0","R8EJS","Scenes","","null","","","null","","","","","","","","","","","","","","","","","","","","","","","","","","","","","","","","","","","","","","","","","","","",""
"","see_reward","","html-keyboard-response","235","2120833","0.0-165.0","0","0","R8EJS","Scenes","","450","","","32","","140","","14","","","","-1","","","","","1","","","","","0","450","","","","","","","","","","","","","","","","","","","","","","","","",""
"","reward_outcome","","html-keyboard-response","236","2122839","0.0-166.0","0","0","R8EJS","Scenes","","642","","","40","","140","","14","","","","","","","","","","","","","","","","-1","642","","","","","","","","","","","","","","","","","","","","","","",""
"","fixation","","html-keyboard-response","237","2123844","0.0-169.0","0","0","R8EJS","Scenes","","null","","","null","","","","","","","","","","","","","","","","","","","","","","","","","","","","","","","","","","","","","","","","","","","",""
"","see_reward","","html-keyboard-response","238","2124201","0.0-170.0","0","0","R8EJS","Scenes","","355","","","32","","115","","15","","","","-1","","","","","1","","","","","0","355","","","","","","","","","","","","","","","","","","","","","","","","",""
"","reward_outcome","","html-keyboard-response","239","2126204","0.0-171.0","0","0","R8EJS","Scenes","","685","","","40","","115","","15","","","","","","","","","","","","","","","","-1","685","","","","","","","","","","","","","","","","","","","","","","",""
"","fixation","","html-keyboard-response","240","2127212","0.0-174.0","0","0","R8EJS","Scenes","","null","","","null","","","","","","","","","","","","","","","","","","","","","","","","","","","","","","","","","","","","","","","","","","","",""
"","see_reward","","html-keyboard-response","241","2127669","0.0-175.0","0","0","R8EJS","Scenes","","455","","","32","","118","","16","","","","-1","","","","","1","","","","","0","455","","","","","","","","","","","","","","","","","","","","","","","","",""
"","reward_outcome","","html-keyboard-response","242","2129680","0.0-176.0","0","0","R8EJS","Scenes","","682","","","40","","118","","16","","","","","","","","","","","","","","","","-1","682","","","","","","","","","","","","","","","","","","","","","","",""
"","fixation","","html-keyboard-response","243","2130692","0.0-179.0","0","0","R8EJS","Scenes","","null","","","null","","","","","","","","","","","","","","","","","","","","","","","","","","","","","","","","","","","","","","","","","","","",""
"","see_reward","","html-keyboard-response","244","2131312","0.0-180.0","0","0","R8EJS","Scenes","","618","","","32","","125","","17","","","","1","","","","","1","","","","","145","618","","","","","","","","","","","","","","","","","","","","","","","","",""
"","reward_outcome","","html-keyboard-response","245","2133330","0.0-181.0","0","0","R8EJS","Scenes","","636","","","38","","125","","17","","","","","","","","","","","","","","","","1","636","","","","","","","","","","","","","","","","","","","","","","",""
"","fixation","","html-keyboard-response","246","2134363","0.0-184.0","0","0","R8EJS","Scenes","","null","","","null","","","","","","","","","","","","","","","","","","","","","","","","","","","","","","","","","","","","","","","","","","","",""
"","see_reward","","html-keyboard-response","247","2135258","0.0-185.0","0","0","R8EJS","Scenes","","893","","","32","","140","","18","","","","-1","","","","","1","","","","","0","893","","","","","","","","","","","","","","","","","","","","","","","","",""
"","reward_outcome","","html-keyboard-response","248","2137280","0.0-186.0","0","0","R8EJS","Scenes","","811","","","40","","140","","18","","","","","","","","","","","","","","","","-1","811","","","","","","","","","","","","","","","","","","","","","","",""
"","fixation","","html-keyboard-response","249","2138301","0.0-189.0","0","0","R8EJS","Scenes","","null","","","null","","","","","","","","","","","","","","","","","","","","","","","","","","","","","","","","","","","","","","","","","","","",""
"","see_reward","","html-keyboard-response","250","2138901","0.0-190.0","0","0","R8EJS","Scenes","","598","","","32","","125","","19","","","","1","","","","","1","","","","","145","598","","","","","","","","","","","","","","","","","","","","","","","","",""
"","reward_outcome","","html-keyboard-response","251","2140919","0.0-191.0","0","0","R8EJS","Scenes","","610","","","38","","125","","19","","","","","","","","","","","","","","","","1","610","","","","","","","","","","","","","","","","","","","","","","",""
"","fixation","","html-keyboard-response","252","2141934","0.0-194.0","0","0","R8EJS","Scenes","","null","","","null","","","","","","","","","","","","","","","","","","","","","","","","","","","","","","","","","","","","","","","","","","","",""
"","see_reward","","html-keyboard-response","253","2142353","0.0-195.0","0","0","R8EJS","Scenes","","417","","","32","","126","","20","","","","1","","","","","1","","","","","148","417","","","","","","","","","","","","","","","","","","","","","","","","",""
"","reward_outcome","","html-keyboard-response","254","2144359","0.0-196.0","0","0","R8EJS","Scenes","","747","","","38","","126","","20","","","","","","","","","","","","","","","","1","747","","","","","","","","","","","","","","","","","","","","","","",""
"","fixation","","html-keyboard-response","255","2145370","0.0-199.0","0","0","R8EJS","Scenes","","null","","","null","","","","","","","","","","","","","","","","","","","","","","","","","","","","","","","","","","","","","","","","","","","",""
"","see_reward","","html-keyboard-response","256","2145776","0.0-200.0","0","0","R8EJS","Scenes","","404","","","32","","138","","21","","","","1","","","","","1","","","","","143","404","","","","","","","","","","","","","","","","","","","","","","","","",""
"","reward_outcome","","html-keyboard-response","257","2147786","0.0-201.0","0","0","R8EJS","Scenes","","647","","","38","","138","","21","","","","","","","","","","","","","","","","1","647","","","","","","","","","","","","","","","","","","","","","","",""
"","fixation","","html-keyboard-response","258","2148792","0.0-204.0","0","0","R8EJS","Scenes","","null","","","null","","","","","","","","","","","","","","","","","","","","","","","","","","","","","","","","","","","","","","","","","","","",""
"","see_reward","","html-keyboard-response","259","2149281","0.0-205.0","0","0","R8EJS","Scenes","","487","","","32","","130","","22","","","","1","","","","","1","","","","","150","487","","","","","","","","","","","","","","","","","","","","","","","","",""
"","reward_outcome","","html-keyboard-response","260","2151295","0.0-206.0","0","0","R8EJS","Scenes","","676","","","38","","130","","22","","","","","","","","","","","","","","","","1","676","","","","","","","","","","","","","","","","","","","","","","",""
"","fixation","","html-keyboard-response","261","2152305","0.0-209.0","0","0","R8EJS","Scenes","","null","","","null","","","","","","","","","","","","","","","","","","","","","","","","","","","","","","","","","","","","","","","","","","","",""
"","see_reward","","html-keyboard-response","262","2152748","0.0-210.0","0","0","R8EJS","Scenes","","441","","","32","","116","","23","","","","-1","","","","","1","","","","","0","441","","","","","","","","","","","","","","","","","","","","","","","","",""
"","reward_outcome","","html-keyboard-response","263","2154759","0.0-211.0","0","0","R8EJS","Scenes","","678","","","40","","116","","23","","","","","","","","","","","","","","","","-1","678","","","","","","","","","","","","","","","","","","","","","","",""
"","block_over","","html-keyboard-response","264","2158858","0.0-213.0-0.0","0","0","R8EJS","Scenes","","4097","","","78","","","","","","","","","","","","","","","","","","","","","","","","","","","","","","","","","","","","","","","","","","","",""
"","fixation","","html-keyboard-response","265","2159865","0.0-214.0","0","0","R8EJS","Scenes","","null","","","null","","","","","","","","","","","","","","","","","","","","","","","","","","","","","","","","","","","","","","","","","","","",""
"","see_reward","","html-keyboard-response","266","2160704","0.0-215.0","0","0","R8EJS","Scenes","","836","","","32","","130","","24","","","","1","","","","","2","","","","","150","836","","","","","","","","","","","","","","","","","","","","","","","","",""
"","reward_outcome","","html-keyboard-response","267","2162709","0.0-216.0","0","0","R8EJS","Scenes","","618","","","38","","130","","24","","","","","","","","","","","","","","","","1","618","","","","","","","","","","","","","","","","","","","","","","",""
"","fixation","","html-keyboard-response","268","2163721","0.0-219.0","0","0","R8EJS","Scenes","","null","","","null","","","","","","","","","","","","","","","","","","","","","","","","","","","","","","","","","","","","","","","","","","","",""
"","see_reward","","html-keyboard-response","269","2164123","0.0-220.0","0","0","R8EJS","Scenes","","400","","","32","","130","","25","","","","1","","","","","2","","","","","150","400","","","","","","","","","","","","","","","","","","","","","","","","",""
"","reward_outcome","","html-keyboard-response","270","2166139","0.0-221.0","0","0","R8EJS","Scenes","","749","","","38","","130","","25","","","","","","","","","","","","","","","","1","749","","","","","","","","","","","","","","","","","","","","","","",""
"","fixation","","html-keyboard-response","271","2167154","0.0-224.0","0","0","R8EJS","Scenes","","null","","","null","","","","","","","","","","","","","","","","","","","","","","","","","","","","","","","","","","","","","","","","","","","",""
"","see_reward","","html-keyboard-response","272","2167477","0.0-225.0","0","0","R8EJS","Scenes","","322","","","32","","116","","26","","","","-1","","","","","2","","","","","0","322","","","","","","","","","","","","","","","","","","","","","","","","",""
"","reward_outcome","","html-keyboard-response","273","2169492","0.0-226.0","0","0","R8EJS","Scenes","","637","","","40","","116","","26","","","","","","","","","","","","","","","","-1","637","","","","","","","","","","","","","","","","","","","","","","",""
"","fixation","","html-keyboard-response","274","2170505","0.0-229.0","0","0","R8EJS","Scenes","","null","","","null","","","","","","","","","","","","","","","","","","","","","","","","","","","","","","","","","","","","","","","","","","","",""
"","see_reward","","html-keyboard-response","275","2170916","0.0-230.0","0","0","R8EJS","Scenes","","409","","","32","","138","","27","","","","1","","","","","2","","","","","143","409","","","","","","","","","","","","","","","","","","","","","","","","",""
"","reward_outcome","","html-keyboard-response","276","2172931","0.0-231.0","0","0","R8EJS","Scenes","","674","","","38","","138","","27","","","","","","","","","","","","","","","","1","674","","","","","","","","","","","","","","","","","","","","","","",""
"","fixation","","html-keyboard-response","277","2173950","0.0-234.0","0","0","R8EJS","Scenes","","null","","","null","","","","","","","","","","","","","","","","","","","","","","","","","","","","","","","","","","","","","","","","","","","",""
"","see_reward","","html-keyboard-response","278","2174326","0.0-235.0","0","0","R8EJS","Scenes","","374","","","32","","126","","28","","","","1","","","","","2","","","","","148","374","","","","","","","","","","","","","","","","","","","","","","","","",""
"","reward_outcome","","html-keyboard-response","279","2176346","0.0-236.0","0","0","R8EJS","Scenes","","695","","","38","","126","","28","","","","","","","","","","","","","","","","1","695","","","","","","","","","","","","","","","","","","","","","","",""
"","fixation","","html-keyboard-response","280","2177364","0.0-239.0","0","0","R8EJS","Scenes","","null","","","null","","","","","","","","","","","","","","","","","","","","","","","","","","","","","","","","","","","","","","","","","","","",""
"","see_reward","","html-keyboard-response","281","2177843","0.0-240.0","0","0","R8EJS","Scenes","","477","","","32","","105","","29","","","","1","","","","","2","","","","","154","477","","","","","","","","","","","","","","","","","","","","","","","","",""
"","reward_outcome","","html-keyboard-response","282","2179859","0.0-241.0","0","0","R8EJS","Scenes","","637","","","38","","105","","29","","","","","","","","","","","","","","","","1","637","","","","","","","","","","","","","","","","","","","","","","",""
"","fixation","","html-keyboard-response","283","2180873","0.0-244.0","0","0","R8EJS","Scenes","","null","","","null","","","","","","","","","","","","","","","","","","","","","","","","","","","","","","","","","","","","","","","","","","","",""
"","see_reward","","html-keyboard-response","284","2181218","0.0-245.0","0","0","R8EJS","Scenes","","343","","","32","","138","","30","","","","1","","","","","2","","","","","143","343","","","","","","","","","","","","","","","","","","","","","","","","",""
"","reward_outcome","","html-keyboard-response","285","2183228","0.0-246.0","0","0","R8EJS","Scenes","","570","","","38","","138","","30","","","","","","","","","","","","","","","","1","570","","","","","","","","","","","","","","","","","","","","","","",""
"","fixation","","html-keyboard-response","286","2184239","0.0-249.0","0","0","R8EJS","Scenes","","null","","","null","","","","","","","","","","","","","","","","","","","","","","","","","","","","","","","","","","","","","","","","","","","",""
"","see_reward","","html-keyboard-response","287","2185015","0.0-250.0","0","0","R8EJS","Scenes","","774","","","32","","126","","31","","","","1","","","","","2","","","","","148","774","","","","","","","","","","","","","","","","","","","","","","","","",""
"","reward_outcome","","html-keyboard-response","288","2187025","0.0-251.0","0","0","R8EJS","Scenes","","751","","","38","","126","","31","","","","","","","","","","","","","","","","1","751","","","","","","","","","","","","","","","","","","","","","","",""
"","fixation","","html-keyboard-response","289","2188040","0.0-254.0","0","0","R8EJS","Scenes","","null","","","null","","","","","","","","","","","","","","","","","","","","","","","","","","","","","","","","","","","","","","","","","","","",""
"","see_reward","","html-keyboard-response","290","2188666","0.0-255.0","0","0","R8EJS","Scenes","","624","","","32","","140","","32","","","","-1","","","","","2","","","","","0","624","","","","","","","","","","","","","","","","","","","","","","","","",""
"","reward_outcome","","html-keyboard-response","291","2190677","0.0-256.0","0","0","R8EJS","Scenes","","978","","","40","","140","","32","","","","","","","","","","","","","","","","-1","978","","","","","","","","","","","","","","","","","","","","","","",""
"","fixation","","html-keyboard-response","292","2191686","0.0-259.0","0","0","R8EJS","Scenes","","null","","","null","","","","","","","","","","","","","","","","","","","","","","","","","","","","","","","","","","","","","","","","","","","",""
"","see_reward","","html-keyboard-response","293","2192482","0.0-260.0","0","0","R8EJS","Scenes","","794","","","32","","139","","33","","","","1","","","","","2","","","","","148","794","","","","","","","","","","","","","","","","","","","","","","","","",""
"","reward_outcome","","html-keyboard-response","294","2194497","0.0-261.0","0","0","R8EJS","Scenes","","571","","","38","","139","","33","","","","","","","","","","","","","","","","1","571","","","","","","","","","","","","","","","","","","","","","","",""
"","fixation","","html-keyboard-response","295","2195505","0.0-264.0","0","0","R8EJS","Scenes","","null","","","null","","","","","","","","","","","","","","","","","","","","","","","","","","","","","","","","","","","","","","","","","","","",""
"","see_reward","","html-keyboard-response","296","2195906","0.0-265.0","0","0","R8EJS","Scenes","","399","","","32","","125","","34","","","","1","","","","","2","","","","","145","399","","","","","","","","","","","","","","","","","","","","","","","","",""
"","reward_outcome","","html-keyboard-response","297","2197916","0.0-266.0","0","0","R8EJS","Scenes","","527","","","38","","125","","34","","","","","","","","","","","","","","","","1","527","","","","","","","","","","","","","","","","","","","","","","",""
"","fixation","","html-keyboard-response","298","2198957","0.0-269.0","0","0","R8EJS","Scenes","","null","","","null","","","","","","","","","","","","","","","","","","","","","","","","","","","","","","","","","","","","","","","","","","","",""
"","see_reward","","html-keyboard-response","299","2199284","0.0-270.0","0","0","R8EJS","Scenes","","325","","","32","","140","","35","","","","-1","","","","","2","","","","","0","325","","","","","","","","","","","","","","","","","","","","","","","","",""
"","reward_outcome","","html-keyboard-response","300","2201295","0.0-271.0","0","0","R8EJS","Scenes","","730","","","40","","140","","35","","","","","","","","","","","","","","","","-1","730","","","","","","","","","","","","","","","","","","","","","","",""
"","fixation","","html-keyboard-response","301","2202312","0.0-274.0","0","0","R8EJS","Scenes","","null","","","null","","","","","","","","","","","","","","","","","","","","","","","","","","","","","","","","","","","","","","","","","","","",""
"","see_reward","","html-keyboard-response","302","2202575","0.0-275.0","0","0","R8EJS","Scenes","","262","","","32","","115","","36","","","","-1","","","","","2","","","","","0","262","","","","","","","","","","","","","","","","","","","","","","","","",""
"","reward_outcome","","html-keyboard-response","303","2204590","0.0-276.0","0","0","R8EJS","Scenes","","884","","","40","","115","","36","","","","","","","","","","","","","","","","-1","884","","","","","","","","","","","","","","","","","","","","","","",""
"","fixation","","html-keyboard-response","304","2205611","0.0-279.0","0","0","R8EJS","Scenes","","null","","","null","","","","","","","","","","","","","","","","","","","","","","","","","","","","","","","","","","","","","","","","","","","",""
"","see_reward","","html-keyboard-response","305","2205939","0.0-280.0","0","0","R8EJS","Scenes","","326","","","32","","118","","37","","","","-1","","","","","2","","","","","0","326","","","","","","","","","","","","","","","","","","","","","","","","",""
"","reward_outcome","","html-keyboard-response","306","2207959","0.0-281.0","0","0","R8EJS","Scenes","","513","","","38","","118","","37","","","","","","","","","","","","","","","","1","513","","","","","","","","","","","","","","","","","","","","","","",""
"","fixation","","html-keyboard-response","307","2208965","0.0-284.0","0","0","R8EJS","Scenes","","null","","","null","","","","","","","","","","","","","","","","","","","","","","","","","","","","","","","","","","","","","","","","","","","",""
"","see_reward","","html-keyboard-response","308","2209140","0.0-285.0","0","0","R8EJS","Scenes","","173","","","32","","127","","38","","","","-1","","","","","2","","","","","0","173","","","","","","","","","","","","","","","","","","","","","","","","",""
"","reward_outcome","","html-keyboard-response","309","2211159","0.0-286.0","0","0","R8EJS","Scenes","","685","","","40","","127","","38","","","","","","","","","","","","","","","","-1","685","","","","","","","","","","","","","","","","","","","","","","",""
"","fixation","","html-keyboard-response","310","2212169","0.0-289.0","0","0","R8EJS","Scenes","","null","","","null","","","","","","","","","","","","","","","","","","","","","","","","","","","","","","","","","","","","","","","","","","","",""
"","see_reward","","html-keyboard-response","311","2212566","0.0-290.0","0","0","R8EJS","Scenes","","395","","","32","","127","","39","","","","-1","","","","","2","","","","","0","395","","","","","","","","","","","","","","","","","","","","","","","","",""
"","reward_outcome","","html-keyboard-response","312","2214588","0.0-291.0","0","0","R8EJS","Scenes","","564","","","40","","127","","39","","","","","","","","","","","","","","","","-1","564","","","","","","","","","","","","","","","","","","","","","","",""
"","fixation","","html-keyboard-response","313","2215599","0.0-294.0","0","0","R8EJS","Scenes","","null","","","null","","","","","","","","","","","","","","","","","","","","","","","","","","","","","","","","","","","","","","","","","","","",""
"","see_reward","","html-keyboard-response","314","2216282","0.0-295.0","0","0","R8EJS","Scenes","","681","","","32","","118","","40","","","","-1","","","","","2","","","","","0","681","","","","","","","","","","","","","","","","","","","","","","","","",""
"","reward_outcome","","html-keyboard-response","315","2218297","0.0-296.0","0","0","R8EJS","Scenes","","699","","","40","","118","","40","","","","","","","","","","","","","","","","-1","699","","","","","","","","","","","","","","","","","","","","","","",""
"","fixation","","html-keyboard-response","316","2219319","0.0-299.0","0","0","R8EJS","Scenes","","null","","","null","","","","","","","","","","","","","","","","","","","","","","","","","","","","","","","","","","","","","","","","","","","",""
"","see_reward","","html-keyboard-response","317","2219882","0.0-300.0","0","0","R8EJS","Scenes","","562","","","32","","116","","41","","","","-1","","","","","2","","","","","0","562","","","","","","","","","","","","","","","","","","","","","","","","",""
"","reward_outcome","","html-keyboard-response","318","2221894","0.0-301.0","0","0","R8EJS","Scenes","","1179","","","40","","116","","41","","","","","","","","","","","","","","","","-1","1179","","","","","","","","","","","","","","","","","","","","","","",""
"","fixation","","html-keyboard-response","319","2222905","0.0-304.0","0","0","R8EJS","Scenes","","null","","","null","","","","","","","","","","","","","","","","","","","","","","","","","","","","","","","","","","","","","","","","","","","",""
"","see_reward","","html-keyboard-response","320","2223358","0.0-305.0","0","0","R8EJS","Scenes","","451","","","32","","125","","42","","","","1","","","","","2","","","","","145","451","","","","","","","","","","","","","","","","","","","","","","","","",""
"","reward_outcome","","html-keyboard-response","321","2225381","0.0-306.0","0","0","R8EJS","Scenes","","860","","","38","","125","","42","","","","","","","","","","","","","","","","1","860","","","","","","","","","","","","","","","","","","","","","","",""
"","fixation","","html-keyboard-response","322","2226407","0.0-309.0","0","0","R8EJS","Scenes","","null","","","null","","","","","","","","","","","","","","","","","","","","","","","","","","","","","","","","","","","","","","","","","","","",""
"","see_reward","","html-keyboard-response","323","2226840","0.0-310.0","0","0","R8EJS","Scenes","","431","","","32","","145","","43","","","","-1","","","","","2","","","","","0","431","","","","","","","","","","","","","","","","","","","","","","","","",""
"","reward_outcome","","html-keyboard-response","324","2228855","0.0-311.0","0","0","R8EJS","Scenes","","765","","","40","","145","","43","","","","","","","","","","","","","","","","-1","765","","","","","","","","","","","","","","","","","","","","","","",""
"","fixation","","html-keyboard-response","325","2229868","0.0-314.0","0","0","R8EJS","Scenes","","null","","","null","","","","","","","","","","","","","","","","","","","","","","","","","","","","","","","","","","","","","","","","","","","",""
"","see_reward","","html-keyboard-response","326","2230226","0.0-315.0","0","0","R8EJS","Scenes","","356","","","32","","115","","44","","","","-1","","","","","2","","","","","0","356","","","","","","","","","","","","","","","","","","","","","","","","",""
"","reward_outcome","","html-keyboard-response","327","2232235","0.0-316.0","0","0","R8EJS","Scenes","","801","","","40","","115","","44","","","","","","","","","","","","","","","","-1","801","","","","","","","","","","","","","","","","","","","","","","",""
"","fixation","","html-keyboard-response","328","2233256","0.0-319.0","0","0","R8EJS","Scenes","","null","","","null","","","","","","","","","","","","","","","","","","","","","","","","","","","","","","","","","","","","","","","","","","","",""
"","see_reward","","html-keyboard-response","329","2233644","0.0-320.0","0","0","R8EJS","Scenes","","386","","","32","","145","","45","","","","-1","","","","","2","","","","","0","386","","","","","","","","","","","","","","","","","","","","","","","","",""
"","reward_outcome","","html-keyboard-response","330","2235655","0.0-321.0","0","0","R8EJS","Scenes","","519","","","40","","145","","45","","","","","","","","","","","","","","","","-1","519","","","","","","","","","","","","","","","","","","","","","","",""
"","fixation","","html-keyboard-response","331","2236672","0.0-324.0","0","0","R8EJS","Scenes","","null","","","null","","","","","","","","","","","","","","","","","","","","","","","","","","","","","","","","","","","","","","","","","","","",""
"","see_reward","","html-keyboard-response","332","2237095","0.0-325.0","0","0","R8EJS","Scenes","","422","","","32","","105","","46","","","","1","","","","","2","","","","","154","422","","","","","","","","","","","","","","","","","","","","","","","","",""
"","reward_outcome","","html-keyboard-response","333","2239103","0.0-326.0","0","0","R8EJS","Scenes","","470","","","40","","105","","46","","","","","","","","","","","","","","","","-1","470","","","","","","","","","","","","","","","","","","","","","","",""
"","fixation","","html-keyboard-response","334","2240111","0.0-329.0","0","0","R8EJS","Scenes","","null","","","null","","","","","","","","","","","","","","","","","","","","","","","","","","","","","","","","","","","","","","","","","","","",""
"","see_reward","","html-keyboard-response","335","2240688","0.0-330.0","0","0","R8EJS","Scenes","","575","","","32","","139","","47","","","","1","","","","","2","","","","","148","575","","","","","","","","","","","","","","","","","","","","","","","","",""
"","reward_outcome","","html-keyboard-response","336","2242708","0.0-331.0","0","0","R8EJS","Scenes","","924","","","38","","139","","47","","","","","","","","","","","","","","","","1","924","","","","","","","","","","","","","","","","","","","","","","",""
"","block_over","","html-keyboard-response","337","2244977","0.0-333.0-0.0","0","0","R8EJS","Scenes","","2269","","","78","","","","","","","","","","","","","","","","","","","","","","","","","","","","","","","","","","","","","","","","","","","",""
"","fixation","","html-keyboard-response","338","2245990","0.0-334.0","0","0","R8EJS","Scenes","","null","","","null","","","","","","","","","","","","","","","","","","","","","","","","","","","","","","","","","","","","","","","","","","","",""
"","see_reward","","html-keyboard-response","339","2246545","0.0-335.0","0","0","R8EJS","Scenes","","553","","","32","","127","","48","","","","-1","","","","","3","","","","","0","553","","","","","","","","","","","","","","","","","","","","","","","","",""
"","reward_outcome","","html-keyboard-response","340","2248557","0.0-336.0","0","0","R8EJS","Scenes","","773","","","40","","127","","48","","","","","","","","","","","","","","","","-1","773","","","","","","","","","","","","","","","","","","","","","","",""
"","fixation","","html-keyboard-response","341","2249573","0.0-339.0","0","0","R8EJS","Scenes","","null","","","null","","","","","","","","","","","","","","","","","","","","","","","","","","","","","","","","","","","","","","","","","","","",""
"","see_reward","","html-keyboard-response","342","2250248","0.0-340.0","0","0","R8EJS","Scenes","","673","","","32","","145","","49","","","","-1","","","","","3","","","","","0","673","","","","","","","","","","","","","","","","","","","","","","","","",""
"","reward_outcome","","html-keyboard-response","343","2252253","0.0-341.0","0","0","R8EJS","Scenes","","978","","","40","","145","","49","","","","","","","","","","","","","","","","-1","978","","","","","","","","","","","","","","","","","","","","","","",""
"","fixation","","html-keyboard-response","344","2253270","0.0-344.0","0","0","R8EJS","Scenes","","null","","","null","","","","","","","","","","","","","","","","","","","","","","","","","","","","","","","","","","","","","","","","","","","",""
"","see_reward","","html-keyboard-response","345","2254075","0.0-345.0","0","0","R8EJS","Scenes","","803","","","32","","140","","50","","","","-1","","","","","3","","","","","0","803","","","","","","","","","","","","","","","","","","","","","","","","",""
