"success","ttype","start_time","trial_type","trial_index","time_elapsed","internal_node_id","warning","missed_checkup","PID","stim_type","view_history","rt","responses","repeat_instructions","key_press","response","stimulus_id","painting","index","stimulus_left","stimulus_right","explain_trial","reward_type","rating_left","rating_right","painting_left","painting_right","block","left_chosen","chosen_obj","unchosen_obj","explain_response","reward_amount","see_reward_rt","register_reward_response","register_reward_rt","deliberation_reward_tally","stimulus_left_deliberation_ind","stimulus_right_deliberation_ind","chosen_trial","gain_left","higher_outcome_chosen","old_pair","chosen_object","rt_pairs","left_object_chosen","rt_object","old_response","new_rating","deliberated_stim","initial_rating","outcome_eval_rt","outcome_eval_response","outcome_eval_gain","outcome_eval_acc","preamble","outcome_eval_confidence","outcome_eval_confidence_rt","total_reward_tally"
"true","full_screen","d01192023hr2040","fullscreen","0","4838","0.0-0.0","0","0","UR7JL","Scenes","","","","","","","","","","","","","","","","","","","","","","","","","","","","","","","","","","","","","","","","","","","","","","","","",""
"","rating_instructions","","instructions","1","19442","0.0-1.0-0.0","0","0","UR7JL","Scenes","[{""page_index"":0,""viewing_time"":9566},{""page_index"":1,""viewing_time"":5030}]","14598","","","","","","","","","","","","","","","","","","","","","","","","","","","","","","","","","","","","","","","","","","","","","","",""
"","rating_comprehension_check","","survey-multi-choice","2","30067","0.0-1.0-1.0","0","0","UR7JL","Scenes","","10621","{""Q0"":""True"",""Q1"":""Mouse""}","0","","","","","","","","","","","","","","","","","","","","","","","","","","","","","","","","","","","","","","","","","","","","",""
"","start_phase","","html-keyboard-response","3","33566","0.0-2.0","0","0","UR7JL","Scenes","","3496","","","78","","","","","","","","","","","","","","","","","","","","","","","","","","","","","","","","","","","","","","","","","","","",""
"","rating","","html-slider-response","4","37314","0.0-3.0","0","0","UR7JL","Scenes","","3745","","","","71","131","luca-bravo-hFzIoD0F_i8-unsplash.jpg","0","","","","","","","","","","","","","","","","","","","","","","","","","","","","","","","","","","","","","","","",""
"","rating","","html-slider-response","5","41187","0.0-4.0","0","0","UR7JL","Scenes","","3868","","","","93","122","jeff-king-bJHWJeiHfHc-unsplash.jpg","1","","","","","","","","","","","","","","","","","","","","","","","","","","","","","","","","","","","","","","","",""
"","rating","","html-slider-response","6","45517","0.0-5.0","0","0","UR7JL","Scenes","","4330","","","","95","113","damian-denis-D8R_txR_0PE-unsplash.jpg","2","","","","","","","","","","","","","","","","","","","","","","","","","","","","","","","","","","","","","","","",""
"","rating","","html-slider-response","7","49287","0.0-6.0","0","0","UR7JL","Scenes","","3768","","","","91","102","anisur-rahman-K2b7UDed6uQ-unsplash.jpg","3","","","","","","","","","","","","","","","","","","","","","","","","","","","","","","","","","","","","","","","",""
"","rating","","html-slider-response","8","52671","0.0-7.0","0","0","UR7JL","Scenes","","3382","","","","72","125","john-lee-oMneOBYhJxY-unsplash.jpg","4","","","","","","","","","","","","","","","","","","","","","","","","","","","","","","","","","","","","","","","",""
"","rating","","html-slider-response","9","58519","0.0-8.0","0","0","UR7JL","Scenes","","5846","","","","83","114","daniel-sessler-z_9VmsxR8hs-unsplash.jpg","5","","","","","","","","","","","","","","","","","","","","","","","","","","","","","","","","","","","","","","","",""
"","rating","","html-slider-response","10","63005","0.0-9.0","0","0","UR7JL","Scenes","","4484","","","","87","140","samuele-errico-piccarini-JEBqFu2AOOA-unsplash.jpg","6","","","","","","","","","","","","","","","","","","","","","","","","","","","","","","","","","","","","","","","",""
"","rating","","html-slider-response","11","67315","0.0-10.0","0","0","UR7JL","Scenes","","4308","","","","89","137","olga-stalska-QaWRyEdlffY-unsplash.jpg","7","","","","","","","","","","","","","","","","","","","","","","","","","","","","","","","","","","","","","","","",""
"","rating","","html-slider-response","12","75129","0.0-11.0","0","0","UR7JL","Scenes","","7813","","","","55","119","james-wheeler-AFC0XvICMgs-unsplash.jpg","8","","","","","","","","","","","","","","","","","","","","","","","","","","","","","","","","","","","","","","","",""
"","rating","","html-slider-response","13","79829","0.0-12.0","0","0","UR7JL","Scenes","","4697","","","","76","117","frank-mckenna-OD9EOzfSOh0-unsplash.jpg","9","","","","","","","","","","","","","","","","","","","","","","","","","","","","","","","","","","","","","","","",""
"","rating","","html-slider-response","14","82665","0.0-13.0","0","0","UR7JL","Scenes","","2834","","","","66","144","solotravelgoals-7kLufxYoqWk-unsplash.jpg","10","","","","","","","","","","","","","","","","","","","","","","","","","","","","","","","","","","","","","","","",""
"","rating","","html-slider-response","15","86743","0.0-14.0","0","0","UR7JL","Scenes","","4077","","","","82","141","sebastian-unrau-v4e3JI7DDHI-unsplash.jpg","11","","","","","","","","","","","","","","","","","","","","","","","","","","","","","","","","","","","","","","","",""
"","rating","","html-slider-response","16","89776","0.0-15.0","0","0","UR7JL","Scenes","","3031","","","","69","138","petr-vysohlid-9fqwGqGLUxc-unsplash.jpg","12","","","","","","","","","","","","","","","","","","","","","","","","","","","","","","","","","","","","","","","",""
"","rating","","html-slider-response","17","91951","0.0-16.0","0","0","UR7JL","Scenes","","2173","","","","78","110","bruno-van-der-kraan-qez8mNJ3ilU-unsplash.jpg","13","","","","","","","","","","","","","","","","","","","","","","","","","","","","","","","","","","","","","","","",""
"","rating","","html-slider-response","18","94463","0.0-17.0","0","0","UR7JL","Scenes","","2510","","","","72","108","benjamin-voros-phIFdC6lA4E-unsplash.jpg","14","","","","","","","","","","","","","","","","","","","","","","","","","","","","","","","","","","","","","","","",""
"","rating","","html-slider-response","19","97191","0.0-18.0","0","0","UR7JL","Scenes","","2726","","","","72","106","ashim-d-silva-WeYamle9fDM-unsplash.jpg","15","","","","","","","","","","","","","","","","","","","","","","","","","","","","","","","","","","","","","","","",""
"","rating","","html-slider-response","20","100182","0.0-19.0","0","0","UR7JL","Scenes","","2989","","","","83","123","joel-jasmin-forestbird-efuwb5eBDrI-unsplash.jpg","16","","","","","","","","","","","","","","","","","","","","","","","","","","","","","","","","","","","","","","","",""
"","rating","","html-slider-response","21","103800","0.0-20.0","0","0","UR7JL","Scenes","","3616","","","","77","133","mickey-o-neil-xL66l--msXU-unsplash.jpg","17","","","","","","","","","","","","","","","","","","","","","","","","","","","","","","","","","","","","","","","",""
"","rating","","html-slider-response","22","107063","0.0-21.0","0","0","UR7JL","Scenes","","3259","","","","77","146","thomas-morse-cuKKa0vWZSY-unsplash.jpg","18","","","","","","","","","","","","","","","","","","","","","","","","","","","","","","","","","","","","","","","",""
"","rating","","html-slider-response","23","110110","0.0-22.0","0","0","UR7JL","Scenes","","3044","","","","77","130","lina-loos-04-C1NZk1hE-unsplash.jpg","19","","","","","","","","","","","","","","","","","","","","","","","","","","","","","","","","","","","","","","","",""
"","rating","","html-slider-response","24","114502","0.0-23.0","0","0","UR7JL","Scenes","","4389","","","","80","129","kurt-cotoaga-cqbLg3lZEpk-unsplash.jpg","20","","","","","","","","","","","","","","","","","","","","","","","","","","","","","","","","","","","","","","","",""
"","rating","","html-slider-response","25","118068","0.0-24.0","0","0","UR7JL","Scenes","","3564","","","","67","127","kace-rodriguez-p3OzJuT_Dks-unsplash.jpg","21","","","","","","","","","","","","","","","","","","","","","","","","","","","","","","","","","","","","","","","",""
"","rating","","html-slider-response","26","125439","0.0-25.0","0","0","UR7JL","Scenes","","7368","","","","84","149","yuriy-bogdanov-W51VK3Obcj0-unsplash.jpg","22","","","","","","","","","","","","","","","","","","","","","","","","","","","","","","","","","","","","","","","",""
"","rating","","html-slider-response","27","128770","0.0-26.0","0","0","UR7JL","Scenes","","3329","","","","77","126","jordan-mcqueen-PJCZOWuOxbU-unsplash.jpg","23","","","","","","","","","","","","","","","","","","","","","","","","","","","","","","","","","","","","","","","",""
"","rating","","html-slider-response","28","133248","0.0-27.0","0","0","UR7JL","Scenes","","4476","","","","32","101","aniket-deole-T-tOgjWZ0fQ-unsplash.jpg","24","","","","","","","","","","","","","","","","","","","","","","","","","","","","","","","","","","","","","","","",""
"","rating","","html-slider-response","29","135833","0.0-28.0","0","0","UR7JL","Scenes","","2583","","","","73","121","jean-pierre-brungs-qxCqkbF7tUc-unsplash.jpg","25","","","","","","","","","","","","","","","","","","","","","","","","","","","","","","","","","","","","","","","",""
"","rating","","html-slider-response","30","139344","0.0-29.0","0","0","UR7JL","Scenes","","3508","","","","63","103","anton-darius-FBJugtbHsWU-unsplash.jpg","26","","","","","","","","","","","","","","","","","","","","","","","","","","","","","","","","","","","","","","","",""
"","rating","","html-slider-response","31","142710","0.0-30.0","0","0","UR7JL","Scenes","","3365","","","","68","135","mohammad-alizade-4wzRuAb-KWs-unsplash.jpg","27","","","","","","","","","","","","","","","","","","","","","","","","","","","","","","","","","","","","","","","",""
"","rating","","html-slider-response","32","145943","0.0-31.0","0","0","UR7JL","Scenes","","3230","","","","80","139","samsommer-vddccTqwal8-unsplash.jpg","28","","","","","","","","","","","","","","","","","","","","","","","","","","","","","","","","","","","","","","","",""
"","rating","","html-slider-response","33","151182","0.0-32.0","0","0","UR7JL","Scenes","","5236","","","","79","118","henry-be-NLF6hTe4PAg-unsplash.jpg","29","","","","","","","","","","","","","","","","","","","","","","","","","","","","","","","","","","","","","","","",""
"","rating","","html-slider-response","34","155285","0.0-33.0","0","0","UR7JL","Scenes","","4101","","","","36","105","ashim-d-silva-S2Q5mdOrrVc-unsplash.jpg","30","","","","","","","","","","","","","","","","","","","","","","","","","","","","","","","","","","","","","","","",""
"","rating","","html-slider-response","35","159003","0.0-34.0","0","0","UR7JL","Scenes","","3715","","","","60","124","johannes-plenio-sPt5RIjKfpk-unsplash.jpg","31","","","","","","","","","","","","","","","","","","","","","","","","","","","","","","","","","","","","","","","",""
"","rating","","html-slider-response","36","162659","0.0-35.0","0","0","UR7JL","Scenes","","3653","","","","63","134","milada-vigerova-pQMM63GE7fo-unsplash.jpg","32","","","","","","","","","","","","","","","","","","","","","","","","","","","","","","","","","","","","","","","",""
"","rating","","html-slider-response","37","166476","0.0-36.0","0","0","UR7JL","Scenes","","3815","","","","77","142","sergey-pesterev-y-b_FOmJXdg-unsplash.jpg","33","","","","","","","","","","","","","","","","","","","","","","","","","","","","","","","","","","","","","","","",""
"","rating","","html-slider-response","38","169965","0.0-37.0","0","0","UR7JL","Scenes","","3486","","","","74","145","stephen-leonardi-gyIRjKPXupE-unsplash.jpg","34","","","","","","","","","","","","","","","","","","","","","","","","","","","","","","","","","","","","","","","",""
"","rating","","html-slider-response","39","172899","0.0-38.0","0","0","UR7JL","Scenes","","2931","","","","80","111","claudio-testa-U3F2o6vz3bs-unsplash.jpg","35","","","","","","","","","","","","","","","","","","","","","","","","","","","","","","","","","","","","","","","",""
"","rating","","html-slider-response","40","178034","0.0-39.0","0","0","UR7JL","Scenes","","5133","","","","72","107","benjamin-davies-Zm2n2O7Fph4-unsplash.jpg","36","","","","","","","","","","","","","","","","","","","","","","","","","","","","","","","","","","","","","","","",""
"","rating","","html-slider-response","41","198749","0.0-40.0","0","0","UR7JL","Scenes","","20714","","","","50","148","tom-gainor-ZqLeQDjY6fY-unsplash.jpg","37","","","","","","","","","","","","","","","","","","","","","","","","","","","","","","","","","","","","","","","",""
"","rating","","html-slider-response","42","563589","0.0-41.0","0","0","UR7JL","Scenes","","364837","","","","59","136","nicolas-jehly-LzVB84KkZOE-unsplash.jpg","38","","","","","","","","","","","","","","","","","","","","","","","","","","","","","","","","","","","","","","","",""
"","rating","","html-slider-response","43","566620","0.0-42.0","0","0","UR7JL","Scenes","","3030","","","","69","132","meng-ji-8BH_M-53CyA-unsplash.jpg","39","","","","","","","","","","","","","","","","","","","","","","","","","","","","","","","","","","","","","","","",""
"","rating","","html-slider-response","44","570946","0.0-43.0","0","0","UR7JL","Scenes","","4325","","","","40","112","cosmic-timetraveler-pYyOZ8q7AII-unsplash.jpg","40","","","","","","","","","","","","","","","","","","","","","","","","","","","","","","","","","","","","","","","",""
"","rating","","html-slider-response","45","617322","0.0-44.0","0","0","UR7JL","Scenes","","46375","","","","61","100","aleksandra-boguslawska-MS7KD9Ti7FQ-unsplash.jpg","41","","","","","","","","","","","","","","","","","","","","","","","","","","","","","","","","","","","","","","","",""
"","rating","","html-slider-response","46","619630","0.0-45.0","0","0","UR7JL","Scenes","","2307","","","","72","147","tobias-keller-73F4pKoUkM0-unsplash.jpg","42","","","","","","","","","","","","","","","","","","","","","","","","","","","","","","","","","","","","","","","",""
"","rating","","html-slider-response","47","621924","0.0-46.0","0","0","UR7JL","Scenes","","2292","","","","39","109","brigitta-schneiter-hXXRLtTxXCU-unsplash.jpg","43","","","","","","","","","","","","","","","","","","","","","","","","","","","","","","","","","","","","","","","",""
"","rating","","html-slider-response","48","623905","0.0-47.0","0","0","UR7JL","Scenes","","1979","","","","76","128","karsten-wurth-jS0zC2PJ17A-unsplash.jpg","44","","","","","","","","","","","","","","","","","","","","","","","","","","","","","","","","","","","","","","","",""
"","rating","","html-slider-response","49","626163","0.0-48.0","0","0","UR7JL","Scenes","","2255","","","","65","115","darrell-cassell-hoCXpPUMCoE-unsplash.jpg","45","","","","","","","","","","","","","","","","","","","","","","","","","","","","","","","","","","","","","","","",""
"","rating","","html-slider-response","50","628185","0.0-49.0","0","0","UR7JL","Scenes","","2021","","","","85","104","artem-sapegin-XGDBdSQ70O0-unsplash.jpg","46","","","","","","","","","","","","","","","","","","","","","","","","","","","","","","","","","","","","","","","",""
"","rating","","html-slider-response","51","629953","0.0-50.0","0","0","UR7JL","Scenes","","1766","","","","46","116","david-marcu-W5MhJ6cy1So-unsplash.jpg","47","","","","","","","","","","","","","","","","","","","","","","","","","","","","","","","","","","","","","","","",""
"","rating","","html-slider-response","52","631853","0.0-51.0","0","0","UR7JL","Scenes","","1898","","","","84","143","sigurdur-fjalar-jonsson-1KxBabIntpE-unsplash.jpg","48","","","","","","","","","","","","","","","","","","","","","","","","","","","","","","","","","","","","","","","",""
"","rating","","html-slider-response","53","633721","0.0-52.0","0","0","UR7JL","Scenes","","1866","","","","58","120","jarrett-kow-1ZOyYPOBn7I-unsplash.jpg","49","","","","","","","","","","","","","","","","","","","","","","","","","","","","","","","","","","","","","","","",""
"","deliberation_instructions","","instructions","54","681497","0.0-53.0-0.0","0","0","UR7JL","Scenes","[{""page_index"":0,""viewing_time"":6248},{""page_index"":1,""viewing_time"":15313},{""page_index"":2,""viewing_time"":1694},{""page_index"":3,""viewing_time"":22892},{""page_index"":4,""viewing_time"":1624}]","47772","","","","","","","","","","","","","","","","","","","","","","","","","","","","","","","","","","","","","","","","","","","","","","",""
"","deliberation_comprehension_check","","survey-multi-choice","55","717499","0.0-53.0-1.0","0","0","UR7JL","Scenes","","35992","{""Q0"":""True"",""Q1"":""True"",""Q2"":""Consider carefully and take your time (up to 10 seconds)"",""Q3"":""True"",""Q4"":""D""}","0","","","","","","","","","","","","","","","","","","","","","","","","","","","","","","","","","","","","","","","","","","","","",""
"","start_phase","","html-keyboard-response","56","720489","0.0-54.0","0","0","UR7JL","Scenes","","2988","","","78","","","","","","","","","","","","","","","","","","","","","","","","","","","","","","","","","","","","","","","","","","","",""
"","first_deliberation_block","","html-keyboard-response","57","722810","0.0-55.0","0","0","UR7JL","Scenes","","2311","","","78","","","","","","","","","","","","","","","","","","","","","","","","","","","","","","","","","","","","","","","","","","","",""
"","fixation","","html-keyboard-response","58","723821","0.0-56.0-0.0","0","0","UR7JL","Scenes","","null","","","null","","","","","","","","","","","","","","","","","","","","","","","","","","","","","","","","","","","","","","","","","","","",""
"","deliberation","","html-keyboard-response","59","725471","0.0-56.0-1.0","0","0","UR7JL","Scenes","","1643","","","68","","","","0","108","110","0","1","72","78","benjamin-voros-phIFdC6lA4E-unsplash.jpg","bruno-van-der-kraan-qez8mNJ3ilU-unsplash.jpg","1","1","108","110","","","","","","","","","","","","","","","","","","","","","","","","","","","",""
"","choice_confirmation","","html-keyboard-response","60","725973","0.0-56.0-2.0-0.0","0","0","UR7JL","Scenes","","null","","","null","","","","0","108","110","","","","","","","","","","","","","","","","","","","","","","","","","","","","","","","","","","","","","",""
"","fixation","","html-keyboard-response","61","726993","0.0-57.0-0.0","0","0","UR7JL","Scenes","","null","","","null","","","","","","","","","","","","","","","","","","","","","","","","","","","","","","","","","","","","","","","","","","","",""
"","deliberation","","html-keyboard-response","62","729234","0.0-57.0-1.0","0","0","UR7JL","Scenes","","2234","","","75","","","","1","126","125","1","-1","77","72","jordan-mcqueen-PJCZOWuOxbU-unsplash.jpg","john-lee-oMneOBYhJxY-unsplash.jpg","1","0","125","126","","","","","","","","","","","","","","","","","","","","","","","","","","","",""
"","choice_confirmation","","html-keyboard-response","63","729740","0.0-57.0-2.0-0.0","0","0","UR7JL","Scenes","","null","","","null","","","","1","126","125","","","","","","","","","","","","","","","","","","","","","","","","","","","","","","","","","","","","","",""
"","explain_trial","","survey-text","64","785823","0.0-57.0-5.0-0.0","0","0","UR7JL","Scenes","","56072","{""Q0"":""Nice climate""}","","","","","","1","126","125","","","","","","","","","","","{""Q0"":""Nice climate""}","","","","","","","","","","","","","","","","","","","","","","","","","","",""
"","fixation","","html-keyboard-response","65","786831","0.0-58.0-0.0","0","0","UR7JL","Scenes","","null","","","null","","","","","","","","","","","","","","","","","","","","","","","","","","","","","","","","","","","","","","","","","","","",""
"","deliberation","","html-keyboard-response","66","788539","0.0-58.0-1.0","0","0","UR7JL","Scenes","","1707","","","68","","","","2","128","138","0","-1","76","69","karsten-wurth-jS0zC2PJ17A-unsplash.jpg","petr-vysohlid-9fqwGqGLUxc-unsplash.jpg","1","1","128","138","","","","","","","","","","","","","","","","","","","","","","","","","","","",""
"","choice_confirmation","","html-keyboard-response","67","789055","0.0-58.0-2.0-0.0","0","0","UR7JL","Scenes","","null","","","null","","","","2","128","138","","","","","","","","","","","","","","","","","","","","","","","","","","","","","","","","","","","","","",""
"","fixation","","html-keyboard-response","68","790070","0.0-59.0-0.0","0","0","UR7JL","Scenes","","null","","","null","","","","","","","","","","","","","","","","","","","","","","","","","","","","","","","","","","","","","","","","","","","",""
"","deliberation","","html-keyboard-response","69","791040","0.0-59.0-1.0","0","0","UR7JL","Scenes","","957","","","68","","","","3","121","132","0","-1","73","69","jean-pierre-brungs-qxCqkbF7tUc-unsplash.jpg","meng-ji-8BH_M-53CyA-unsplash.jpg","1","1","121","132","","","","","","","","","","","","","","","","","","","","","","","","","","","",""
"","choice_confirmation","","html-keyboard-response","70","791553","0.0-59.0-2.0-0.0","0","0","UR7JL","Scenes","","null","","","null","","","","3","121","132","","","","","","","","","","","","","","","","","","","","","","","","","","","","","","","","","","","","","",""
"","fixation","","html-keyboard-response","71","792569","0.0-60.0-0.0","0","0","UR7JL","Scenes","","null","","","null","","","","","","","","","","","","","","","","","","","","","","","","","","","","","","","","","","","","","","","","","","","",""
"","deliberation","","html-keyboard-response","72","793599","0.0-60.0-1.0","0","0","UR7JL","Scenes","","1017","","","68","","","","4","131","133","0","1","71","77","luca-bravo-hFzIoD0F_i8-unsplash.jpg","mickey-o-neil-xL66l--msXU-unsplash.jpg","1","1","131","133","","","","","","","","","","","","","","","","","","","","","","","","","","","",""
"","choice_confirmation","","html-keyboard-response","73","794102","0.0-60.0-2.0-0.0","0","0","UR7JL","Scenes","","null","","","null","","","","4","131","133","","","","","","","","","","","","","","","","","","","","","","","","","","","","","","","","","","","","","",""
"","fixation","","html-keyboard-response","74","795118","0.0-61.0-0.0","0","0","UR7JL","Scenes","","null","","","null","","","","","","","","","","","","","","","","","","","","","","","","","","","","","","","","","","","","","","","","","","","",""
"","deliberation","","html-keyboard-response","75","795540","0.0-61.0-1.0","0","0","UR7JL","Scenes","","414","","","75","","","","5","130","142","1","-1","77","77","lina-loos-04-C1NZk1hE-unsplash.jpg","sergey-pesterev-y-b_FOmJXdg-unsplash.jpg","1","0","142","130","","","","","","","","","","","","","","","","","","","","","","","","","","","",""
"","choice_confirmation","","html-keyboard-response","76","796052","0.0-61.0-2.0-0.0","0","0","UR7JL","Scenes","","null","","","null","","","","5","130","142","","","","","","","","","","","","","","","","","","","","","","","","","","","","","","","","","","","","","",""
"","explain_trial","","survey-text","77","846830","0.0-61.0-5.0-0.0","0","0","UR7JL","Scenes","","50776","{""Q0"":""water waves are seeing good""}","","","","","","5","130","142","","","","","","","","","","","{""Q0"":""water waves are seeing good""}","","","","","","","","","","","","","","","","","","","","","","","","","","",""
"","fixation","","html-keyboard-response","78","847833","0.0-62.0-0.0","0","0","UR7JL","Scenes","","null","","","null","","","","","","","","","","","","","","","","","","","","","","","","","","","","","","","","","","","","","","","","","","","",""
"","deliberation","","html-keyboard-response","79","849729","0.0-62.0-1.0","0","0","UR7JL","Scenes","","1895","","","68","","","","6","144","127","1","-1","66","67","solotravelgoals-7kLufxYoqWk-unsplash.jpg","kace-rodriguez-p3OzJuT_Dks-unsplash.jpg","1","1","144","127","","","","","","","","","","","","","","","","","","","","","","","","","","","",""
"","choice_confirmation","","html-keyboard-response","80","850289","0.0-62.0-2.0-0.0","0","0","UR7JL","Scenes","","null","","","null","","","","6","144","127","","","","","","","","","","","","","","","","","","","","","","","","","","","","","","","","","","","","","",""
"","explain_trial","","survey-text","81","860570","0.0-62.0-5.0-0.0","0","0","UR7JL","Scenes","","10279","{""Q0"":""looking good""}","","","","","","6","144","127","","","","","","","","","","","{""Q0"":""looking good""}","","","","","","","","","","","","","","","","","","","","","","","","","","",""
"","fixation","","html-keyboard-response","82","861584","0.0-63.0-0.0","0","0","UR7JL","Scenes","","null","","","null","","","","","","","","","","","","","","","","","","","","","","","","","","","","","","","","","","","","","","","","","","","",""
"","deliberation","","html-keyboard-response","83","862508","0.0-63.0-1.0","0","0","UR7JL","Scenes","","923","","","68","","","","7","118","135","1","1","79","68","henry-be-NLF6hTe4PAg-unsplash.jpg","mohammad-alizade-4wzRuAb-KWs-unsplash.jpg","1","1","118","135","","","","","","","","","","","","","","","","","","","","","","","","","","","",""
"","choice_confirmation","","html-keyboard-response","84","863016","0.0-63.0-2.0-0.0","0","0","UR7JL","Scenes","","null","","","null","","","","7","118","135","","","","","","","","","","","","","","","","","","","","","","","","","","","","","","","","","","","","","",""
"","explain_trial","","survey-text","85","880058","0.0-63.0-5.0-0.0","0","0","UR7JL","Scenes","","17040","{""Q0"":""awesome capture""}","","","","","","7","118","135","","","","","","","","","","","{""Q0"":""awesome capture""}","","","","","","","","","","","","","","","","","","","","","","","","","","",""
"","fixation","","html-keyboard-response","86","881067","0.0-64.0-0.0","0","0","UR7JL","Scenes","","null","","","null","","","","","","","","","","","","","","","","","","","","","","","","","","","","","","","","","","","","","","","","","","","",""
"","deliberation","","html-keyboard-response","87","882038","0.0-64.0-1.0","0","0","UR7JL","Scenes","","969","","","68","","","","8","145","106","1","-1","74","72","stephen-leonardi-gyIRjKPXupE-unsplash.jpg","ashim-d-silva-WeYamle9fDM-unsplash.jpg","1","1","145","106","","","","","","","","","","","","","","","","","","","","","","","","","","","",""
"","choice_confirmation","","html-keyboard-response","88","882550","0.0-64.0-2.0-0.0","0","0","UR7JL","Scenes","","null","","","null","","","","8","145","106","","","","","","","","","","","","","","","","","","","","","","","","","","","","","","","","","","","","","",""
"","explain_trial","","survey-text","89","896359","0.0-64.0-5.0-0.0","0","0","UR7JL","Scenes","","13807","{""Q0"":""sun light nice""}","","","","","","8","145","106","","","","","","","","","","","{""Q0"":""sun light nice""}","","","","","","","","","","","","","","","","","","","","","","","","","","",""
"","fixation","","html-keyboard-response","90","897361","0.0-65.0-0.0","0","0","UR7JL","Scenes","","null","","","null","","","","","","","","","","","","","","","","","","","","","","","","","","","","","","","","","","","","","","","","","","","",""
"","deliberation","","html-keyboard-response","91","898357","0.0-65.0-1.0","0","0","UR7JL","Scenes","","984","","","75","","","","9","147","129","1","1","72","80","tobias-keller-73F4pKoUkM0-unsplash.jpg","kurt-cotoaga-cqbLg3lZEpk-unsplash.jpg","1","0","129","147","","","","","","","","","","","","","","","","","","","","","","","","","","","",""
"","choice_confirmation","","html-keyboard-response","92","898868","0.0-65.0-2.0-0.0","0","0","UR7JL","Scenes","","null","","","null","","","","9","147","129","","","","","","","","","","","","","","","","","","","","","","","","","","","","","","","","","","","","","",""
"","explain_trial","","survey-text","93","912052","0.0-65.0-5.0-0.0","0","0","UR7JL","Scenes","","13182","{""Q0"":""lighting good""}","","","","","","9","147","129","","","","","","","","","","","{""Q0"":""lighting good""}","","","","","","","","","","","","","","","","","","","","","","","","","","",""
"","fixation","","html-keyboard-response","94","913067","0.0-66.0-0.0","0","0","UR7JL","Scenes","","null","","","null","","","","","","","","","","","","","","","","","","","","","","","","","","","","","","","","","","","","","","","","","","","",""
"","deliberation","","html-keyboard-response","95","913948","0.0-66.0-1.0","0","0","UR7JL","Scenes","","881","","","68","","","","10","107","146","0","1","72","77","benjamin-davies-Zm2n2O7Fph4-unsplash.jpg","thomas-morse-cuKKa0vWZSY-unsplash.jpg","1","1","107","146","","","","","","","","","","","","","","","","","","","","","","","","","","","",""
"","choice_confirmation","","html-keyboard-response","96","914466","0.0-66.0-2.0-0.0","0","0","UR7JL","Scenes","","null","","","null","","","","10","107","146","","","","","","","","","","","","","","","","","","","","","","","","","","","","","","","","","","","","","",""
"","fixation","","html-keyboard-response","97","915482","0.0-67.0-0.0","0","0","UR7JL","Scenes","","null","","","null","","","","","","","","","","","","","","","","","","","","","","","","","","","","","","","","","","","","","","","","","","","",""
"","deliberation","","html-keyboard-response","98","916549","0.0-67.0-1.0","0","0","UR7JL","Scenes","","1065","","","68","","","","11","117","115","0","1","76","65","frank-mckenna-OD9EOzfSOh0-unsplash.jpg","darrell-cassell-hoCXpPUMCoE-unsplash.jpg","1","1","117","115","","","","","","","","","","","","","","","","","","","","","","","","","","","",""
"","choice_confirmation","","html-keyboard-response","99","917055","0.0-67.0-2.0-0.0","0","0","UR7JL","Scenes","","null","","","null","","","","11","117","115","","","","","","","","","","","","","","","","","","","","","","","","","","","","","","","","","","","","","",""
"","practice_deliberation_again","","html-keyboard-response","100","919499","0.0-67.0-6.0-0.0","0","0","UR7JL","Scenes","","2430","","","78","","","","","","","","","","","","","","","","","","","","","","","","","","","","","","","","","","","","","","","","","","","",""
"","fixation","","html-keyboard-response","101","920514","0.0-68.0-0.0","0","0","UR7JL","Scenes","","null","","","null","","","","","","","","","","","","","","","","","","","","","","","","","","","","","","","","","","","","","","","","","","","",""
"","deliberation","","html-keyboard-response","102","921462","0.0-68.0-1.0","0","0","UR7JL","Scenes","","942","","","68","","","","12","131","133","1","1","71","77","luca-bravo-hFzIoD0F_i8-unsplash.jpg","mickey-o-neil-xL66l--msXU-unsplash.jpg","2","1","131","133","","","","","","","","","","","","","","","","","","","","","","","","","","","",""
"","choice_confirmation","","html-keyboard-response","103","921966","0.0-68.0-2.0-0.0","0","0","UR7JL","Scenes","","null","","","null","","","","12","131","133","","","","","","","","","","","","","","","","","","","","","","","","","","","","","","","","","","","","","",""
"","explain_trial","","survey-text","104","940119","0.0-68.0-5.0-0.0","0","0","UR7JL","Scenes","","18151","{""Q0"":""home location is very nice""}","","","","","","12","131","133","","","","","","","","","","","{""Q0"":""home location is very nice""}","","","","","","","","","","","","","","","","","","","","","","","","","","",""
"","fixation","","html-keyboard-response","105","941121","0.0-69.0-0.0","0","0","UR7JL","Scenes","","null","","","null","","","","","","","","","","","","","","","","","","","","","","","","","","","","","","","","","","","","","","","","","","","",""
"","deliberation","","html-keyboard-response","106","942453","0.0-69.0-1.0","0","0","UR7JL","Scenes","","1330","","","68","","","","13","118","135","0","1","79","68","henry-be-NLF6hTe4PAg-unsplash.jpg","mohammad-alizade-4wzRuAb-KWs-unsplash.jpg","2","1","118","135","","","","","","","","","","","","","","","","","","","","","","","","","","","",""
"","choice_confirmation","","html-keyboard-response","107","942964","0.0-69.0-2.0-0.0","0","0","UR7JL","Scenes","","null","","","null","","","","13","118","135","","","","","","","","","","","","","","","","","","","","","","","","","","","","","","","","","","","","","",""
"","fixation","","html-keyboard-response","108","943991","0.0-70.0-0.0","0","0","UR7JL","Scenes","","null","","","null","","","","","","","","","","","","","","","","","","","","","","","","","","","","","","","","","","","","","","","","","","","",""
"","deliberation","","html-keyboard-response","109","945448","0.0-70.0-1.0","0","0","UR7JL","Scenes","","1443","","","68","","","","14","126","125","0","-1","77","72","jordan-mcqueen-PJCZOWuOxbU-unsplash.jpg","john-lee-oMneOBYhJxY-unsplash.jpg","2","1","126","125","","","","","","","","","","","","","","","","","","","","","","","","","","","",""
"","choice_confirmation","","html-keyboard-response","110","945948","0.0-70.0-2.0-0.0","0","0","UR7JL","Scenes","","null","","","null","","","","14","126","125","","","","","","","","","","","","","","","","","","","","","","","","","","","","","","","","","","","","","",""
"","fixation","","html-keyboard-response","111","946987","0.0-71.0-0.0","0","0","UR7JL","Scenes","","null","","","null","","","","","","","","","","","","","","","","","","","","","","","","","","","","","","","","","","","","","","","","","","","",""
"","deliberation","","html-keyboard-response","112","948259","0.0-71.0-1.0","0","0","UR7JL","Scenes","","1258","","","75","","","","15","108","110","1","1","72","78","benjamin-voros-phIFdC6lA4E-unsplash.jpg","bruno-van-der-kraan-qez8mNJ3ilU-unsplash.jpg","2","0","110","108","","","","","","","","","","","","","","","","","","","","","","","","","","","",""
"","choice_confirmation","","html-keyboard-response","113","948766","0.0-71.0-2.0-0.0","0","0","UR7JL","Scenes","","null","","","null","","","","15","108","110","","","","","","","","","","","","","","","","","","","","","","","","","","","","","","","","","","","","","",""
"","explain_trial","","survey-text","114","961745","0.0-71.0-5.0-0.0","0","0","UR7JL","Scenes","","12975","{""Q0"":""location good""}","","","","","","15","108","110","","","","","","","","","","","{""Q0"":""location good""}","","","","","","","","","","","","","","","","","","","","","","","","","","",""
"","fixation","","html-keyboard-response","115","962762","0.0-72.0-0.0","0","0","UR7JL","Scenes","","null","","","null","","","","","","","","","","","","","","","","","","","","","","","","","","","","","","","","","","","","","","","","","","","",""
"","deliberation","","html-keyboard-response","116","963779","0.0-72.0-1.0","0","0","UR7JL","Scenes","","1016","","","68","","","","16","128","138","1","-1","76","69","karsten-wurth-jS0zC2PJ17A-unsplash.jpg","petr-vysohlid-9fqwGqGLUxc-unsplash.jpg","2","1","128","138","","","","","","","","","","","","","","","","","","","","","","","","","","","",""
"","choice_confirmation","","html-keyboard-response","117","964283","0.0-72.0-2.0-0.0","0","0","UR7JL","Scenes","","null","","","null","","","","16","128","138","","","","","","","","","","","","","","","","","","","","","","","","","","","","","","","","","","","","","",""
"","explain_trial","","survey-text","118","979314","0.0-72.0-5.0-0.0","0","0","UR7JL","Scenes","","15029","{""Q0"":""nice""}","","","","","","16","128","138","","","","","","","","","","","{""Q0"":""nice""}","","","","","","","","","","","","","","","","","","","","","","","","","","",""
"","fixation","","html-keyboard-response","119","980333","0.0-73.0-0.0","0","0","UR7JL","Scenes","","null","","","null","","","","","","","","","","","","","","","","","","","","","","","","","","","","","","","","","","","","","","","","","","","",""
"","deliberation","","html-keyboard-response","120","981567","0.0-73.0-1.0","0","0","UR7JL","Scenes","","1232","","","68","","","","17","121","132","1","-1","73","69","jean-pierre-brungs-qxCqkbF7tUc-unsplash.jpg","meng-ji-8BH_M-53CyA-unsplash.jpg","2","1","121","132","","","","","","","","","","","","","","","","","","","","","","","","","","","",""
"","choice_confirmation","","html-keyboard-response","121","982083","0.0-73.0-2.0-0.0","0","0","UR7JL","Scenes","","null","","","null","","","","17","121","132","","","","","","","","","","","","","","","","","","","","","","","","","","","","","","","","","","","","","",""
"","explain_trial","","survey-text","122","993152","0.0-73.0-5.0-0.0","0","0","UR7JL","Scenes","","11065","{""Q0"":""good""}","","","","","","17","121","132","","","","","","","","","","","{""Q0"":""good""}","","","","","","","","","","","","","","","","","","","","","","","","","","",""
"","fixation","","html-keyboard-response","123","994167","0.0-74.0-0.0","0","0","UR7JL","Scenes","","null","","","null","","","","","","","","","","","","","","","","","","","","","","","","","","","","","","","","","","","","","","","","","","","",""
"","deliberation","","html-keyboard-response","124","995439","0.0-74.0-1.0","0","0","UR7JL","Scenes","","1270","","","68","","","","18","144","127","0","-1","66","67","solotravelgoals-7kLufxYoqWk-unsplash.jpg","kace-rodriguez-p3OzJuT_Dks-unsplash.jpg","2","1","144","127","","","","","","","","","","","","","","","","","","","","","","","","","","","",""
"","choice_confirmation","","html-keyboard-response","125","995947","0.0-74.0-2.0-0.0","0","0","UR7JL","Scenes","","null","","","null","","","","18","144","127","","","","","","","","","","","","","","","","","","","","","","","","","","","","","","","","","","","","","",""
"","fixation","","html-keyboard-response","126","996962","0.0-75.0-0.0","0","0","UR7JL","Scenes","","null","","","null","","","","","","","","","","","","","","","","","","","","","","","","","","","","","","","","","","","","","","","","","","","",""
"","deliberation","","html-keyboard-response","127","998183","0.0-75.0-1.0","0","0","UR7JL","Scenes","","1205","","","75","","","","19","147","129","0","1","72","80","tobias-keller-73F4pKoUkM0-unsplash.jpg","kurt-cotoaga-cqbLg3lZEpk-unsplash.jpg","2","0","129","147","","","","","","","","","","","","","","","","","","","","","","","","","","","",""
"","choice_confirmation","","html-keyboard-response","128","998741","0.0-75.0-2.0-0.0","0","0","UR7JL","Scenes","","null","","","null","","","","19","147","129","","","","","","","","","","","","","","","","","","","","","","","","","","","","","","","","","","","","","",""
"","fixation","","html-keyboard-response","129","999747","0.0-76.0-0.0","0","0","UR7JL","Scenes","","null","","","null","","","","","","","","","","","","","","","","","","","","","","","","","","","","","","","","","","","","","","","","","","","",""
"","deliberation","","html-keyboard-response","130","1000780","0.0-76.0-1.0","0","0","UR7JL","Scenes","","1031","","","68","","","","20","117","115","1","1","76","65","frank-mckenna-OD9EOzfSOh0-unsplash.jpg","darrell-cassell-hoCXpPUMCoE-unsplash.jpg","2","1","117","115","","","","","","","","","","","","","","","","","","","","","","","","","","","",""
"","choice_confirmation","","html-keyboard-response","131","1001295","0.0-76.0-2.0-0.0","0","0","UR7JL","Scenes","","null","","","null","","","","20","117","115","","","","","","","","","","","","","","","","","","","","","","","","","","","","","","","","","","","","","",""
"","explain_trial","","survey-text","132","1013989","0.0-76.0-5.0-0.0","0","0","UR7JL","Scenes","","12692","{""Q0"":""birds flying is good""}","","","","","","20","117","115","","","","","","","","","","","{""Q0"":""birds flying is good""}","","","","","","","","","","","","","","","","","","","","","","","","","","",""
"","fixation","","html-keyboard-response","133","1014993","0.0-77.0-0.0","0","0","UR7JL","Scenes","","null","","","null","","","","","","","","","","","","","","","","","","","","","","","","","","","","","","","","","","","","","","","","","","","",""
"","deliberation","","html-keyboard-response","134","1016303","0.0-77.0-1.0","0","0","UR7JL","Scenes","","1308","","","75","","","","21","145","106","0","-1","74","72","stephen-leonardi-gyIRjKPXupE-unsplash.jpg","ashim-d-silva-WeYamle9fDM-unsplash.jpg","2","0","106","145","","","","","","","","","","","","","","","","","","","","","","","","","","","",""
"","choice_confirmation","","html-keyboard-response","135","1016808","0.0-77.0-2.0-0.0","0","0","UR7JL","Scenes","","null","","","null","","","","21","145","106","","","","","","","","","","","","","","","","","","","","","","","","","","","","","","","","","","","","","",""
"","fixation","","html-keyboard-response","136","1017821","0.0-78.0-0.0","0","0","UR7JL","Scenes","","null","","","null","","","","","","","","","","","","","","","","","","","","","","","","","","","","","","","","","","","","","","","","","","","",""
"","deliberation","","html-keyboard-response","137","1018810","0.0-78.0-1.0","0","0","UR7JL","Scenes","","975","","","68","","","","22","107","146","1","1","72","77","benjamin-davies-Zm2n2O7Fph4-unsplash.jpg","thomas-morse-cuKKa0vWZSY-unsplash.jpg","2","1","107","146","","","","","","","","","","","","","","","","","","","","","","","","","","","",""
"","choice_confirmation","","html-keyboard-response","138","1019311","0.0-78.0-2.0-0.0","0","0","UR7JL","Scenes","","null","","","null","","","","22","107","146","","","","","","","","","","","","","","","","","","","","","","","","","","","","","","","","","","","","","",""
"","explain_trial","","survey-text","139","1035105","0.0-78.0-5.0-0.0","0","0","UR7JL","Scenes","","15792","{""Q0"":""sun light super""}","","","","","","22","107","146","","","","","","","","","","","{""Q0"":""sun light super""}","","","","","","","","","","","","","","","","","","","","","","","","","","",""
"","fixation","","html-keyboard-response","140","1036127","0.0-79.0-0.0","0","0","UR7JL","Scenes","","null","","","null","","","","","","","","","","","","","","","","","","","","","","","","","","","","","","","","","","","","","","","","","","","",""
"","deliberation","","html-keyboard-response","141","1037339","0.0-79.0-1.0","0","0","UR7JL","Scenes","","1211","","","68","","","","23","130","142","0","-1","77","77","lina-loos-04-C1NZk1hE-unsplash.jpg","sergey-pesterev-y-b_FOmJXdg-unsplash.jpg","2","1","130","142","","","","","","","","","","","","","","","","","","","","","","","","","","","",""
"","choice_confirmation","","html-keyboard-response","142","1037857","0.0-79.0-2.0-0.0","0","0","UR7JL","Scenes","","null","","","null","","","","23","130","142","","","","","","","","","","","","","","","","","","","","","","","","","","","","","","","","","","","","","",""
"","start_critical_deliberation_block","","html-keyboard-response","143","1041806","0.0-79.0-7.0-0.0","0","0","UR7JL","Scenes","","3943","","","78","","","","","","","","","","","","","","","","","","","","","","","","","","","","","","","","","","","","","","","","","","","",""
"","fixation","","html-keyboard-response","144","1042810","0.0-80.0-0.0","0","0","UR7JL","Scenes","","null","","","null","","","","","","","","","","","","","","","","","","","","","","","","","","","","","","","","","","","","","","","","","","","",""
"","deliberation","","html-keyboard-response","145","1043622","0.0-80.0-1.0","0","0","UR7JL","Scenes","","796","","","68","","","","24","130","142","0","-1","77","77","lina-loos-04-C1NZk1hE-unsplash.jpg","sergey-pesterev-y-b_FOmJXdg-unsplash.jpg","3","1","130","142","","","","","","","","","","","","","","","","","","","","","","","","","","","",""
"","choice_confirmation","","html-keyboard-response","146","1044128","0.0-80.0-2.0-0.0","0","0","UR7JL","Scenes","","null","","","null","","","","24","130","142","","","","","","","","","","","","","","","","","","","","","","","","","","","","","","","","","","","","","",""
"","fixation","","html-keyboard-response","147","1045144","0.0-81.0-0.0","0","0","UR7JL","Scenes","","null","","","null","","","","","","","","","","","","","","","","","","","","","","","","","","","","","","","","","","","","","","","","","","","",""
"","deliberation","","html-keyboard-response","148","1045907","0.0-81.0-1.0","0","0","UR7JL","Scenes","","754","","","68","","","","25","126","125","0","-1","77","72","jordan-mcqueen-PJCZOWuOxbU-unsplash.jpg","john-lee-oMneOBYhJxY-unsplash.jpg","3","1","126","125","","","","","","","","","","","","","","","","","","","","","","","","","","","",""
"","choice_confirmation","","html-keyboard-response","149","1046418","0.0-81.0-2.0-0.0","0","0","UR7JL","Scenes","","null","","","null","","","","25","126","125","","","","","","","","","","","","","","","","","","","","","","","","","","","","","","","","","","","","","",""
"","fixation","","html-keyboard-response","150","1047446","0.0-82.0-0.0","0","0","UR7JL","Scenes","","null","","","null","","","","","","","","","","","","","","","","","","","","","","","","","","","","","","","","","","","","","","","","","","","",""
"","deliberation","","html-keyboard-response","151","1049127","0.0-82.0-1.0","0","0","UR7JL","Scenes","","1676","","","68","","","","26","147","129","0","1","72","80","tobias-keller-73F4pKoUkM0-unsplash.jpg","kurt-cotoaga-cqbLg3lZEpk-unsplash.jpg","3","1","147","129","","","","","","","","","","","","","","","","","","","","","","","","","","","",""
"","choice_confirmation","","html-keyboard-response","152","1049628","0.0-82.0-2.0-0.0","0","0","UR7JL","Scenes","","null","","","null","","","","26","147","129","","","","","","","","","","","","","","","","","","","","","","","","","","","","","","","","","","","","","",""
"","fixation","","html-keyboard-response","153","1050643","0.0-83.0-0.0","0","0","UR7JL","Scenes","","null","","","null","","","","","","","","","","","","","","","","","","","","","","","","","","","","","","","","","","","","","","","","","","","",""
"","deliberation","","html-keyboard-response","154","1051842","0.0-83.0-1.0","0","0","UR7JL","Scenes","","1188","","","68","","","","27","117","115","0","1","76","65","frank-mckenna-OD9EOzfSOh0-unsplash.jpg","darrell-cassell-hoCXpPUMCoE-unsplash.jpg","3","1","117","115","","","","","","","","","","","","","","","","","","","","","","","","","","","",""
"","choice_confirmation","","html-keyboard-response","155","1052344","0.0-83.0-2.0-0.0","0","0","UR7JL","Scenes","","null","","","null","","","","27","117","115","","","","","","","","","","","","","","","","","","","","","","","","","","","","","","","","","","","","","",""
"","fixation","","html-keyboard-response","156","1053360","0.0-84.0-0.0","0","0","UR7JL","Scenes","","null","","","null","","","","","","","","","","","","","","","","","","","","","","","","","","","","","","","","","","","","","","","","","","","",""
"","deliberation","","html-keyboard-response","157","1054855","0.0-84.0-1.0","0","0","UR7JL","Scenes","","1489","","","68","","","","28","108","110","0","1","72","78","benjamin-voros-phIFdC6lA4E-unsplash.jpg","bruno-van-der-kraan-qez8mNJ3ilU-unsplash.jpg","3","1","108","110","","","","","","","","","","","","","","","","","","","","","","","","","","","",""
"","choice_confirmation","","html-keyboard-response","158","1055366","0.0-84.0-2.0-0.0","0","0","UR7JL","Scenes","","null","","","null","","","","28","108","110","","","","","","","","","","","","","","","","","","","","","","","","","","","","","","","","","","","","","",""
"","fixation","","html-keyboard-response","159","1056377","0.0-85.0-0.0","0","0","UR7JL","Scenes","","null","","","null","","","","","","","","","","","","","","","","","","","","","","","","","","","","","","","","","","","","","","","","","","","",""
"","deliberation","","html-keyboard-response","160","1057695","0.0-85.0-1.0","0","0","UR7JL","Scenes","","1313","","","68","","","","29","107","146","0","1","72","77","benjamin-davies-Zm2n2O7Fph4-unsplash.jpg","thomas-morse-cuKKa0vWZSY-unsplash.jpg","3","1","107","146","","","","","","","","","","","","","","","","","","","","","","","","","","","",""
"","choice_confirmation","","html-keyboard-response","161","1058212","0.0-85.0-2.0-0.0","0","0","UR7JL","Scenes","","null","","","null","","","","29","107","146","","","","","","","","","","","","","","","","","","","","","","","","","","","","","","","","","","","","","",""
"","fixation","","html-keyboard-response","162","1059226","0.0-86.0-0.0","0","0","UR7JL","Scenes","","null","","","null","","","","","","","","","","","","","","","","","","","","","","","","","","","","","","","","","","","","","","","","","","","",""
"","deliberation","","html-keyboard-response","163","1060307","0.0-86.0-1.0","0","0","UR7JL","Scenes","","1079","","","68","","","","30","144","127","0","-1","66","67","solotravelgoals-7kLufxYoqWk-unsplash.jpg","kace-rodriguez-p3OzJuT_Dks-unsplash.jpg","3","1","144","127","","","","","","","","","","","","","","","","","","","","","","","","","","","",""
"","choice_confirmation","","html-keyboard-response","164","1060819","0.0-86.0-2.0-0.0","0","0","UR7JL","Scenes","","null","","","null","","","","30","144","127","","","","","","","","","","","","","","","","","","","","","","","","","","","","","","","","","","","","","",""
"","fixation","","html-keyboard-response","165","1061829","0.0-87.0-0.0","0","0","UR7JL","Scenes","","null","","","null","","","","","","","","","","","","","","","","","","","","","","","","","","","","","","","","","","","","","","","","","","","",""
"","deliberation","","html-keyboard-response","166","1063129","0.0-87.0-1.0","0","0","UR7JL","Scenes","","1295","","","68","","","","31","131","133","0","1","71","77","luca-bravo-hFzIoD0F_i8-unsplash.jpg","mickey-o-neil-xL66l--msXU-unsplash.jpg","3","1","131","133","","","","","","","","","","","","","","","","","","","","","","","","","","","",""
"","choice_confirmation","","html-keyboard-response","167","1063643","0.0-87.0-2.0-0.0","0","0","UR7JL","Scenes","","null","","","null","","","","31","131","133","","","","","","","","","","","","","","","","","","","","","","","","","","","","","","","","","","","","","",""
"","fixation","","html-keyboard-response","168","1064659","0.0-88.0-0.0","0","0","UR7JL","Scenes","","null","","","null","","","","","","","","","","","","","","","","","","","","","","","","","","","","","","","","","","","","","","","","","","","",""
"","deliberation","","html-keyboard-response","169","1065737","0.0-88.0-1.0","0","0","UR7JL","Scenes","","1074","","","68","","","","32","121","132","0","-1","73","69","jean-pierre-brungs-qxCqkbF7tUc-unsplash.jpg","meng-ji-8BH_M-53CyA-unsplash.jpg","3","1","121","132","","","","","","","","","","","","","","","","","","","","","","","","","","","",""
"","choice_confirmation","","html-keyboard-response","170","1066241","0.0-88.0-2.0-0.0","0","0","UR7JL","Scenes","","null","","","null","","","","32","121","132","","","","","","","","","","","","","","","","","","","","","","","","","","","","","","","","","","","","","",""
"","fixation","","html-keyboard-response","171","1067250","0.0-89.0-0.0","0","0","UR7JL","Scenes","","null","","","null","","","","","","","","","","","","","","","","","","","","","","","","","","","","","","","","","","","","","","","","","","","",""
"","deliberation","","html-keyboard-response","172","1068494","0.0-89.0-1.0","0","0","UR7JL","Scenes","","1241","","","75","","","","33","145","106","0","-1","74","72","stephen-leonardi-gyIRjKPXupE-unsplash.jpg","ashim-d-silva-WeYamle9fDM-unsplash.jpg","3","0","106","145","","","","","","","","","","","","","","","","","","","","","","","","","","","",""
"","choice_confirmation","","html-keyboard-response","173","1069046","0.0-89.0-2.0-0.0","0","0","UR7JL","Scenes","","null","","","null","","","","33","145","106","","","","","","","","","","","","","","","","","","","","","","","","","","","","","","","","","","","","","",""
"","fixation","","html-keyboard-response","174","1070062","0.0-90.0-0.0","0","0","UR7JL","Scenes","","null","","","null","","","","","","","","","","","","","","","","","","","","","","","","","","","","","","","","","","","","","","","","","","","",""
"","deliberation","","html-keyboard-response","175","1070700","0.0-90.0-1.0","0","0","UR7JL","Scenes","","626","","","68","","","","34","118","135","0","1","79","68","henry-be-NLF6hTe4PAg-unsplash.jpg","mohammad-alizade-4wzRuAb-KWs-unsplash.jpg","3","1","118","135","","","","","","","","","","","","","","","","","","","","","","","","","","","",""
"","choice_confirmation","","html-keyboard-response","176","1071209","0.0-90.0-2.0-0.0","0","0","UR7JL","Scenes","","null","","","null","","","","34","118","135","","","","","","","","","","","","","","","","","","","","","","","","","","","","","","","","","","","","","",""
"","fixation","","html-keyboard-response","177","1072228","0.0-91.0-0.0","0","0","UR7JL","Scenes","","null","","","null","","","","","","","","","","","","","","","","","","","","","","","","","","","","","","","","","","","","","","","","","","","",""
"","deliberation","","html-keyboard-response","178","1073094","0.0-91.0-1.0","0","0","UR7JL","Scenes","","861","","","68","","","","35","128","138","0","-1","76","69","karsten-wurth-jS0zC2PJ17A-unsplash.jpg","petr-vysohlid-9fqwGqGLUxc-unsplash.jpg","3","1","128","138","","","","","","","","","","","","","","","","","","","","","","","","","","","",""
"","choice_confirmation","","html-keyboard-response","179","1073610","0.0-91.0-2.0-0.0","0","0","UR7JL","Scenes","","null","","","null","","","","35","128","138","","","","","","","","","","","","","","","","","","","","","","","","","","","","","","","","","","","","","",""
"","reward_learning_instructions","","instructions","180","1124171","0.0-92.0-0.0","0","0","UR7JL","Scenes","[{""page_index"":0,""viewing_time"":24732},{""page_index"":1,""viewing_time"":23867},{""page_index"":2,""viewing_time"":1960}]","50559","","","","","","","","","","","","","","","","","","","","","","","","","","","","","","","","","","","","","","","","","","","","","","",""
"","reward_comprehension_check","","survey-multi-choice","181","1149430","0.0-92.0-1.0","0","0","UR7JL","Scenes","","25254","{""Q0"":""True"",""Q1"":""True"",""Q2"":""Press the space bar to see its outcome"",""Q3"":""Press the relevant key while the outcome is presented""}","0","","","","","","","","","","","","","","","","","","","","","","","","","","","","","","","","","","","","","","","","","","","","",""
"","start_phase","","html-keyboard-response","182","1151256","0.0-93.0","0","0","UR7JL","Scenes","","1823","","","78","","","","","","","","","","","","","","","","","","","","","","","","","","","","","","","","","","","","","","","","","","","",""
"","fixation","","html-keyboard-response","183","1152264","0.0-94.0","0","0","UR7JL","Scenes","","null","","","null","","","","","","","","","","","","","","","","","","","","","","","","","","","","","","","","","","","","","","","","","","","",""
"","see_reward","","html-keyboard-response","184","1155206","0.0-95.0","0","0","UR7JL","Scenes","","2932","","","32","","130","","0","","","","-1","","","","","1","","","","","0","2932","","","","","","","","","","","","","","","","","","","","","","","","",""
"","reward_outcome","","html-keyboard-response","185","1157207","0.0-96.0","0","0","UR7JL","Scenes","","1281","","","38","","130","","0","","","","","","","","","","","","","","","","1","1281","","","","","","","","","","","","","","","","","","","","","","",""
"","fixation","","html-keyboard-response","186","1158263","0.0-99.0","0","0","UR7JL","Scenes","","null","","","null","","","","","","","","","","","","","","","","","","","","","","","","","","","","","","","","","","","","","","","","","","","",""
"","see_reward","","html-keyboard-response","187","1159142","0.0-100.0","0","0","UR7JL","Scenes","","870","","","32","","121","","1","","","","-1","","","","","1","","","","","0","870","","","","","","","","","","","","","","","","","","","","","","","","",""
"","reward_outcome","","html-keyboard-response","188","1161155","0.0-101.0","0","0","UR7JL","Scenes","","935","","","40","","121","","1","","","","","","","","","","","","","","","","-1","935","","","","","","","","","","","","","","","","","","","","","","",""
"","fixation","","html-keyboard-response","189","1162171","0.0-104.0","0","0","UR7JL","Scenes","","null","","","null","","","","","","","","","","","","","","","","","","","","","","","","","","","","","","","","","","","","","","","","","","","",""
"","see_reward","","html-keyboard-response","190","1162902","0.0-105.0","0","0","UR7JL","Scenes","","720","","","32","","108","","2","","","","1","","","","","1","","","","","150","720","","","","","","","","","","","","","","","","","","","","","","","","",""
"","reward_outcome","","html-keyboard-response","191","1164907","0.0-106.0","0","0","UR7JL","Scenes","","753","","","38","","108","","2","","","","","","","","","","","","","","","","1","753","","","","","","","","","","","","","","","","","","","","","","",""
"","fixation","","html-keyboard-response","192","1165921","0.0-109.0","0","0","UR7JL","Scenes","","null","","","null","","","","","","","","","","","","","","","","","","","","","","","","","","","","","","","","","","","","","","","","","","","",""
"","see_reward","","html-keyboard-response","193","1167281","0.0-110.0","0","0","UR7JL","Scenes","","1346","","","32","","147","","3","","","","1","","","","","1","","","","","150","1346","","","","","","","","","","","","","","","","","","","","","","","","",""
"","reward_outcome","","html-keyboard-response","194","1169290","0.0-111.0","0","0","UR7JL","Scenes","","915","","","38","","147","","3","","","","","","","","","","","","","","","","1","915","","","","","","","","","","","","","","","","","","","","","","",""
"","fixation","","html-keyboard-response","195","1170307","0.0-114.0","0","0","UR7JL","Scenes","","null","","","null","","","","","","","","","","","","","","","","","","","","","","","","","","","","","","","","","","","","","","","","","","","",""
"","see_reward","","html-keyboard-response","196","1171142","0.0-115.0","0","0","UR7JL","Scenes","","827","","","32","","117","","4","","","","1","","","","","1","","","","","158","827","","","","","","","","","","","","","","","","","","","","","","","","",""
"","reward_outcome","","html-keyboard-response","197","1173154","0.0-116.0","0","0","UR7JL","Scenes","","777","","","38","","117","","4","","","","","","","","","","","","","","","","1","777","","","","","","","","","","","","","","","","","","","","","","",""
"","fixation","","html-keyboard-response","198","1174163","0.0-119.0","0","0","UR7JL","Scenes","","null","","","null","","","","","","","","","","","","","","","","","","","","","","","","","","","","","","","","","","","","","","","","","","","",""
"","see_reward","","html-keyboard-response","199","1174924","0.0-120.0","0","0","UR7JL","Scenes","","745","","","32","","118","","5","","","","1","","","","","1","","","","","149","745","","","","","","","","","","","","","","","","","","","","","","","","",""
"","reward_outcome","","html-keyboard-response","200","1176938","0.0-121.0","0","0","UR7JL","Scenes","","747","","","38","","118","","5","","","","","","","","","","","","","","","","1","747","","","","","","","","","","","","","","","","","","","","","","",""
"","fixation","","html-keyboard-response","201","1177955","0.0-124.0","0","0","UR7JL","Scenes","","null","","","null","","","","","","","","","","","","","","","","","","","","","","","","","","","","","","","","","","","","","","","","","","","",""
"","see_reward","","html-keyboard-response","202","1178607","0.0-125.0","0","0","UR7JL","Scenes","","641","","","32","","144","","6","","","","-1","","","","","1","","","","","0","641","","","","","","","","","","","","","","","","","","","","","","","","",""
"","reward_outcome","","html-keyboard-response","203","1180622","0.0-126.0","0","0","UR7JL","Scenes","","748","","","40","","144","","6","","","","","","","","","","","","","","","","-1","748","","","","","","","","","","","","","","","","","","","","","","",""
"","fixation","","html-keyboard-response","204","1181637","0.0-129.0","0","0","UR7JL","Scenes","","null","","","null","","","","","","","","","","","","","","","","","","","","","","","","","","","","","","","","","","","","","","","","","","","",""
"","see_reward","","html-keyboard-response","205","1182812","0.0-130.0","0","0","UR7JL","Scenes","","1157","","","32","","117","","7","","","","1","","","","","1","","","","","158","1157","","","","","","","","","","","","","","","","","","","","","","","","",""
"","reward_outcome","","html-keyboard-response","206","1184822","0.0-131.0","0","0","UR7JL","Scenes","","664","","","38","","117","","7","","","","","","","","","","","","","","","","1","664","","","","","","","","","","","","","","","","","","","","","","",""
"","fixation","","html-keyboard-response","207","1185887","0.0-134.0","0","0","UR7JL","Scenes","","null","","","null","","","","","","","","","","","","","","","","","","","","","","","","","","","","","","","","","","","","","","","","","","","",""
"","see_reward","","html-keyboard-response","208","1186448","0.0-135.0","0","0","UR7JL","Scenes","","552","","","32","","107","","8","","","","1","","","","","1","","","","","142","552","","","","","","","","","","","","","","","","","","","","","","","","",""
"","reward_outcome","","html-keyboard-response","209","1188456","0.0-136.0","0","0","UR7JL","Scenes","","959","","","38","","107","","8","","","","","","","","","","","","","","","","1","959","","","","","","","","","","","","","","","","","","","","","","",""
"","fixation","","html-keyboard-response","210","1189473","0.0-139.0","0","0","UR7JL","Scenes","","null","","","null","","","","","","","","","","","","","","","","","","","","","","","","","","","","","","","","","","","","","","","","","","","",""
"","see_reward","","html-keyboard-response","211","1190223","0.0-140.0","0","0","UR7JL","Scenes","","734","","","32","","126","","9","","","","-1","","","","","1","","","","","0","734","","","","","","","","","","","","","","","","","","","","","","","","",""
"","reward_outcome","","html-keyboard-response","212","1192267","0.0-141.0","0","0","UR7JL","Scenes","","904","","","40","","126","","9","","","","","","","","","","","","","","","","-1","904","","","","","","","","","","","","","","","","","","","","","","",""
"","fixation","","html-keyboard-response","213","1193289","0.0-144.0","0","0","UR7JL","Scenes","","null","","","null","","","","","","","","","","","","","","","","","","","","","","","","","","","","","","","","","","","","","","","","","","","",""
"","see_reward","","html-keyboard-response","214","1194285","0.0-145.0","0","0","UR7JL","Scenes","","981","","","32","","107","","10","","","","1","","","","","1","","","","","142","981","","","","","","","","","","","","","","","","","","","","","","","","",""
"","reward_outcome","","html-keyboard-response","215","1196305","0.0-146.0","0","0","UR7JL","Scenes","","642","","","38","","107","","10","","","","","","","","","","","","","","","","1","642","","","","","","","","","","","","","","","","","","","","","","",""
"","fixation","","html-keyboard-response","216","1197320","0.0-149.0","0","0","UR7JL","Scenes","","null","","","null","","","","","","","","","","","","","","","","","","","","","","","","","","","","","","","","","","","","","","","","","","","",""
"","see_reward","","html-keyboard-response","217","1198124","0.0-150.0","0","0","UR7JL","Scenes","","799","","","32","","131","","11","","","","1","","","","","1","","","","","152","799","","","","","","","","","","","","","","","","","","","","","","","","",""
"","reward_outcome","","html-keyboard-response","218","1200136","0.0-151.0","0","0","UR7JL","Scenes","","494","","","40","","131","","11","","","","","","","","","","","","","","","","-1","494","","","","","","","","","","","","","","","","","","","","","","",""
"","fixation","","html-keyboard-response","219","1201139","0.0-154.0","0","0","UR7JL","Scenes","","null","","","null","","","","","","","","","","","","","","","","","","","","","","","","","","","","","","","","","","","","","","","","","","","",""
"","see_reward","","html-keyboard-response","220","1202520","0.0-155.0","0","0","UR7JL","Scenes","","1375","","","32","","128","","12","","","","-1","","","","","1","","","","","0","1375","","","","","","","","","","","","","","","","","","","","","","","","",""
"","reward_outcome","","html-keyboard-response","221","1204558","0.0-156.0","0","0","UR7JL","Scenes","","null","","","null","","128","","12","","","","","","","","","","","","","","","","NaN","null","","","","","","","","","","","","","","","","","","","","","","",""
"","respond_faster","","html-keyboard-response","222","1206079","0.0-157.0-0.0","1","0","UR7JL","Scenes","","null","","","null","","","","","","","","","","","","","","","","","","","","","","","","","","","","","","","","","","","","","","","","","","","",""
"","fixation","","html-keyboard-response","223","1207086","0.0-159.0","0","0","UR7JL","Scenes","","null","","","null","","","","","","","","","","","","","","","","","","","","","","","","","","","","","","","","","","","","","","","","","","","",""
"","see_reward","","html-keyboard-response","224","1208142","0.0-160.0","0","0","UR7JL","Scenes","","1049","","","32","","106","","13","","","","-1","","","","","1","","","","","0","1049","","","","","","","","","","","","","","","","","","","","","","","","",""
"","reward_outcome","","html-keyboard-response","225","1210154","0.0-161.0","0","0","UR7JL","Scenes","","542","","","38","","106","","13","","","","","","","","","","","","","","","","1","542","","","","","","","","","","","","","","","","","","","","","","",""
"","fixation","","html-keyboard-response","226","1211170","0.0-164.0","0","0","UR7JL","Scenes","","null","","","null","","","","","","","","","","","","","","","","","","","","","","","","","","","","","","","","","","","","","","","","","","","",""
"","see_reward","","html-keyboard-response","227","1211708","0.0-165.0","0","0","UR7JL","Scenes","","532","","","32","","128","","14","","","","-1","","","","","1","","","","","0","532","","","","","","","","","","","","","","","","","","","","","","","","",""
"","reward_outcome","","html-keyboard-response","228","1213719","0.0-166.0","0","0","UR7JL","Scenes","","838","","","40","","128","","14","","","","","","","","","","","","","","","","-1","838","","","","","","","","","","","","","","","","","","","","","","",""
"","fixation","","html-keyboard-response","229","1214738","0.0-169.0","0","0","UR7JL","Scenes","","null","","","null","","","","","","","","","","","","","","","","","","","","","","","","","","","","","","","","","","","","","","","","","","","",""
"","see_reward","","html-keyboard-response","230","1215634","0.0-170.0","0","0","UR7JL","Scenes","","889","","","32","","130","","15","","","","-1","","","","","1","","","","","0","889","","","","","","","","","","","","","","","","","","","","","","","","",""
"","reward_outcome","","html-keyboard-response","231","1217653","0.0-171.0","0","0","UR7JL","Scenes","","847","","","40","","130","","15","","","","","","","","","","","","","","","","-1","847","","","","","","","","","","","","","","","","","","","","","","",""
"","fixation","","html-keyboard-response","232","1218672","0.0-174.0","0","0","UR7JL","Scenes","","null","","","null","","","","","","","","","","","","","","","","","","","","","","","","","","","","","","","","","","","","","","","","","","","",""
"","see_reward","","html-keyboard-response","233","1219513","0.0-175.0","0","0","UR7JL","Scenes","","810","","","32","","121","","16","","","","-1","","","","","1","","","","","0","810","","","","","","","","","","","","","","","","","","","","","","","","",""
"","reward_outcome","","html-keyboard-response","234","1221536","0.0-176.0","0","0","UR7JL","Scenes","","849","","","40","","121","","16","","","","","","","","","","","","","","","","-1","849","","","","","","","","","","","","","","","","","","","","","","",""
"","fixation","","html-keyboard-response","235","1222552","0.0-179.0","0","0","UR7JL","Scenes","","null","","","null","","","","","","","","","","","","","","","","","","","","","","","","","","","","","","","","","","","","","","","","","","","",""
"","see_reward","","html-keyboard-response","236","1223338","0.0-180.0","0","0","UR7JL","Scenes","","781","","","32","","131","","17","","","","1","","","","","1","","","","","152","781","","","","","","","","","","","","","","","","","","","","","","","","",""
"","reward_outcome","","html-keyboard-response","237","1225352","0.0-181.0","0","0","UR7JL","Scenes","","794","","","38","","131","","17","","","","","","","","","","","","","","","","1","794","","","","","","","","","","","","","","","","","","","","","","",""
"","fixation","","html-keyboard-response","238","1226370","0.0-184.0","0","0","UR7JL","Scenes","","null","","","null","","","","","","","","","","","","","","","","","","","","","","","","","","","","","","","","","","","","","","","","","","","",""
"","see_reward","","html-keyboard-response","239","1227208","0.0-185.0","0","0","UR7JL","Scenes","","826","","","32","","106","","18","","","","-1","","","","","1","","","","","0","826","","","","","","","","","","","","","","","","","","","","","","","","",""
"","reward_outcome","","html-keyboard-response","240","1229218","0.0-186.0","0","0","UR7JL","Scenes","","791","","","40","","106","","18","","","","","","","","","","","","","","","","-1","791","","","","","","","","","","","","","","","","","","","","","","",""
"","fixation","","html-keyboard-response","241","1230235","0.0-189.0","0","0","UR7JL","Scenes","","null","","","null","","","","","","","","","","","","","","","","","","","","","","","","","","","","","","","","","","","","","","","","","","","",""
"","see_reward","","html-keyboard-response","242","1231069","0.0-190.0","0","0","UR7JL","Scenes","","831","","","32","","147","","19","","","","1","","","","","1","","","","","150","831","","","","","","","","","","","","","","","","","","","","","","","","",""
"","reward_outcome","","html-keyboard-response","243","1233089","0.0-191.0","0","0","UR7JL","Scenes","","858","","","38","","147","","19","","","","","","","","","","","","","","","","1","858","","","","","","","","","","","","","","","","","","","","","","",""
"","fixation","","html-keyboard-response","244","1234102","0.0-194.0","0","0","UR7JL","Scenes","","null","","","null","","","","","","","","","","","","","","","","","","","","","","","","","","","","","","","","","","","","","","","","","","","",""
"","see_reward","","html-keyboard-response","245","1234934","0.0-195.0","0","0","UR7JL","Scenes","","829","","","32","","144","","20","","","","-1","","","","","1","","","","","0","829","","","","","","","","","","","","","","","","","","","","","","","","",""
"","reward_outcome","","html-keyboard-response","246","1236967","0.0-196.0","0","0","UR7JL","Scenes","","829","","","40","","144","","20","","","","","","","","","","","","","","","","-1","829","","","","","","","","","","","","","","","","","","","","","","",""
"","fixation","","html-keyboard-response","247","1237970","0.0-199.0","0","0","UR7JL","Scenes","","null","","","null","","","","","","","","","","","","","","","","","","","","","","","","","","","","","","","","","","","","","","","","","","","",""
"","see_reward","","html-keyboard-response","248","1238651","0.0-200.0","0","0","UR7JL","Scenes","","671","","","32","","118","","21","","","","1","","","","","1","","","","","149","671","","","","","","","","","","","","","","","","","","","","","","","","",""
"","reward_outcome","","html-keyboard-response","249","1240668","0.0-201.0","0","0","UR7JL","Scenes","","859","","","38","","118","","21","","","","","","","","","","","","","","","","1","859","","","","","","","","","","","","","","","","","","","","","","",""
"","fixation","","html-keyboard-response","250","1241685","0.0-204.0","0","0","UR7JL","Scenes","","null","","","null","","","","","","","","","","","","","","","","","","","","","","","","","","","","","","","","","","","","","","","","","","","",""
"","see_reward","","html-keyboard-response","251","1242899","0.0-205.0","0","0","UR7JL","Scenes","","1204","","","32","","126","","22","","","","-1","","","","","1","","","","","0","1204","","","","","","","","","","","","","","","","","","","","","","","","",""
"","reward_outcome","","html-keyboard-response","252","1244917","0.0-206.0","0","0","UR7JL","Scenes","","672","","","40","","126","","22","","","","","","","","","","","","","","","","-1","672","","","","","","","","","","","","","","","","","","","","","","",""
"","fixation","","html-keyboard-response","253","1245961","0.0-209.0","0","0","UR7JL","Scenes","","null","","","null","","","","","","","","","","","","","","","","","","","","","","","","","","","","","","","","","","","","","","","","","","","",""
"","see_reward","","html-keyboard-response","254","1246689","0.0-210.0","0","0","UR7JL","Scenes","","726","","","32","","108","","23","","","","1","","","","","1","","","","","150","726","","","","","","","","","","","","","","","","","","","","","","","","",""
"","reward_outcome","","html-keyboard-response","255","1248702","0.0-211.0","0","0","UR7JL","Scenes","","761","","","38","","108","","23","","","","","","","","","","","","","","","","1","761","","","","","","","","","","","","","","","","","","","","","","",""
"","block_over","","html-keyboard-response","256","1251405","0.0-213.0-0.0","0","0","UR7JL","Scenes","","2686","","","78","","","","","","","","","","","","","","","","","","","","","","","","","","","","","","","","","","","","","","","","","","","",""
"","fixation","","html-keyboard-response","257","1252418","0.0-214.0","0","0","UR7JL","Scenes","","null","","","null","","","","","","","","","","","","","","","","","","","","","","","","","","","","","","","","","","","","","","","","","","","",""
"","see_reward","","html-keyboard-response","258","1253157","0.0-215.0","0","0","UR7JL","Scenes","","721","","","32","","107","","24","","","","1","","","","","2","","","","","142","721","","","","","","","","","","","","","","","","","","","","","","","","",""
"","reward_outcome","","html-keyboard-response","259","1255167","0.0-216.0","0","0","UR7JL","Scenes","","696","","","38","","107","","24","","","","","","","","","","","","","","","","1","696","","","","","","","","","","","","","","","","","","","","","","",""
"","fixation","","html-keyboard-response","260","1256183","0.0-219.0","0","0","UR7JL","Scenes","","null","","","null","","","","","","","","","","","","","","","","","","","","","","","","","","","","","","","","","","","","","","","","","","","",""
"","see_reward","","html-keyboard-response","261","1256855","0.0-220.0","0","0","UR7JL","Scenes","","657","","","32","","118","","25","","","","1","","","","","2","","","","","149","657","","","","","","","","","","","","","","","","","","","","","","","","",""
"","reward_outcome","","html-keyboard-response","262","1258866","0.0-221.0","0","0","UR7JL","Scenes","","791","","","38","","118","","25","","","","","","","","","","","","","","","","1","791","","","","","","","","","","","","","","","","","","","","","","",""
"","fixation","","html-keyboard-response","263","1259886","0.0-224.0","0","0","UR7JL","Scenes","","null","","","null","","","","","","","","","","","","","","","","","","","","","","","","","","","","","","","","","","","","","","","","","","","",""
"","see_reward","","html-keyboard-response","264","1260600","0.0-225.0","0","0","UR7JL","Scenes","","700","","","32","","126","","26","","","","-1","","","","","2","","","","","0","700","","","","","","","","","","","","","","","","","","","","","","","","",""
"","reward_outcome","","html-keyboard-response","265","1262618","0.0-226.0","0","0","UR7JL","Scenes","","781","","","40","","126","","26","","","","","","","","","","","","","","","","-1","781","","","","","","","","","","","","","","","","","","","","","","",""
"","fixation","","html-keyboard-response","266","1263634","0.0-229.0","0","0","UR7JL","Scenes","","null","","","null","","","","","","","","","","","","","","","","","","","","","","","","","","","","","","","","","","","","","","","","","","","",""
"","see_reward","","html-keyboard-response","267","1264344","0.0-230.0","0","0","UR7JL","Scenes","","703","","","32","","121","","27","","","","-1","","","","","2","","","","","0","703","","","","","","","","","","","","","","","","","","","","","","","","",""
"","reward_outcome","","html-keyboard-response","268","1266410","0.0-231.0","0","0","UR7JL","Scenes","","818","","","40","","121","","27","","","","","","","","","","","","","","","","-1","818","","","","","","","","","","","","","","","","","","","","","","",""
"","fixation","","html-keyboard-response","269","1267418","0.0-234.0","0","0","UR7JL","Scenes","","null","","","null","","","","","","","","","","","","","","","","","","","","","","","","","","","","","","","","","","","","","","","","","","","",""
"","see_reward","","html-keyboard-response","270","1268281","0.0-235.0","0","0","UR7JL","Scenes","","859","","","32","","126","","28","","","","-1","","","","","2","","","","","0","859","","","","","","","","","","","","","","","","","","","","","","","","",""
"","reward_outcome","","html-keyboard-response","271","1270286","0.0-236.0","0","0","UR7JL","Scenes","","642","","","40","","126","","28","","","","","","","","","","","","","","","","-1","642","","","","","","","","","","","","","","","","","","","","","","",""
"","fixation","","html-keyboard-response","272","1271300","0.0-239.0","0","0","UR7JL","Scenes","","null","","","null","","","","","","","","","","","","","","","","","","","","","","","","","","","","","","","","","","","","","","","","","","","",""
"","see_reward","","html-keyboard-response","273","1272026","0.0-240.0","0","0","UR7JL","Scenes","","717","","","32","","108","","29","","","","1","","","","","2","","","","","150","717","","","","","","","","","","","","","","","","","","","","","","","","",""
"","reward_outcome","","html-keyboard-response","274","1274045","0.0-241.0","0","0","UR7JL","Scenes","","647","","","38","","108","","29","","","","","","","","","","","","","","","","1","647","","","","","","","","","","","","","","","","","","","","","","",""
"","fixation","","html-keyboard-response","275","1275051","0.0-244.0","0","0","UR7JL","Scenes","","null","","","null","","","","","","","","","","","","","","","","","","","","","","","","","","","","","","","","","","","","","","","","","","","",""
"","see_reward","","html-keyboard-response","276","1275719","0.0-245.0","0","0","UR7JL","Scenes","","656","","","32","","117","","30","","","","1","","","","","2","","","","","158","656","","","","","","","","","","","","","","","","","","","","","","","","",""
"","reward_outcome","","html-keyboard-response","277","1277733","0.0-246.0","0","0","UR7JL","Scenes","","855","","","38","","117","","30","","","","","","","","","","","","","","","","1","855","","","","","","","","","","","","","","","","","","","","","","",""
"","fixation","","html-keyboard-response","278","1278750","0.0-249.0","0","0","UR7JL","Scenes","","null","","","null","","","","","","","","","","","","","","","","","","","","","","","","","","","","","","","","","","","","","","","","","","","",""
"","see_reward","","html-keyboard-response","279","1279551","0.0-250.0","0","0","UR7JL","Scenes","","796","","","32","","147","","31","","","","1","","","","","2","","","","","150","796","","","","","","","","","","","","","","","","","","","","","","","","",""
"","reward_outcome","","html-keyboard-response","280","1281568","0.0-251.0","0","0","UR7JL","Scenes","","685","","","38","","147","","31","","","","","","","","","","","","","","","","1","685","","","","","","","","","","","","","","","","","","","","","","",""
"","fixation","","html-keyboard-response","281","1282568","0.0-254.0","0","0","UR7JL","Scenes","","null","","","null","","","","","","","","","","","","","","","","","","","","","","","","","","","","","","","","","","","","","","","","","","","",""
"","see_reward","","html-keyboard-response","282","1283370","0.0-255.0","0","0","UR7JL","Scenes","","801","","","32","","128","","32","","","","-1","","","","","2","","","","","0","801","","","","","","","","","","","","","","","","","","","","","","","","",""
"","reward_outcome","","html-keyboard-response","283","1285377","0.0-256.0","0","0","UR7JL","Scenes","","851","","","40","","128","","32","","","","","","","","","","","","","","","","-1","851","","","","","","","","","","","","","","","","","","","","","","",""
"","fixation","","html-keyboard-response","284","1286387","0.0-259.0","0","0","UR7JL","Scenes","","null","","","null","","","","","","","","","","","","","","","","","","","","","","","","","","","","","","","","","","","","","","","","","","","",""
"","see_reward","","html-keyboard-response","285","1287788","0.0-260.0","0","0","UR7JL","Scenes","","1399","","","32","","128","","33","","","","-1","","","","","2","","","","","0","1399","","","","","","","","","","","","","","","","","","","","","","","","",""
"","reward_outcome","","html-keyboard-response","286","1289805","0.0-261.0","0","0","UR7JL","Scenes","","942","","","40","","128","","33","","","","","","","","","","","","","","","","-1","942","","","","","","","","","","","","","","","","","","","","","","",""
"","fixation","","html-keyboard-response","287","1290816","0.0-264.0","0","0","UR7JL","Scenes","","null","","","null","","","","","","","","","","","","","","","","","","","","","","","","","","","","","","","","","","","","","","","","","","","",""
"","see_reward","","html-keyboard-response","288","1291712","0.0-265.0","0","0","UR7JL","Scenes","","891","","","32","","144","","34","","","","-1","","","","","2","","","","","0","891","","","","","","","","","","","","","","","","","","","","","","","","",""
"","reward_outcome","","html-keyboard-response","289","1293718","0.0-266.0","0","0","UR7JL","Scenes","","895","","","40","","144","","34","","","","","","","","","","","","","","","","-1","895","","","","","","","","","","","","","","","","","","","","","","",""
"","fixation","","html-keyboard-response","290","1294755","0.0-269.0","0","0","UR7JL","Scenes","","null","","","null","","","","","","","","","","","","","","","","","","","","","","","","","","","","","","","","","","","","","","","","","","","",""
"","see_reward","","html-keyboard-response","291","1295525","0.0-270.0","0","0","UR7JL","Scenes","","760","","","32","","131","","35","","","","1","","","","","2","","","","","152","760","","","","","","","","","","","","","","","","","","","","","","","","",""
"","reward_outcome","","html-keyboard-response","292","1297529","0.0-271.0","0","0","UR7JL","Scenes","","773","","","40","","131","","35","","","","","","","","","","","","","","","","-1","773","","","","","","","","","","","","","","","","","","","","","","",""
"","fixation","","html-keyboard-response","293","1298543","0.0-274.0","0","0","UR7JL","Scenes","","null","","","null","","","","","","","","","","","","","","","","","","","","","","","","","","","","","","","","","","","","","","","","","","","",""
"","see_reward","","html-keyboard-response","294","1299102","0.0-275.0","0","0","UR7JL","Scenes","","557","","","32","","147","","36","","","","1","","","","","2","","","","","150","557","","","","","","","","","","","","","","","","","","","","","","","","",""
"","reward_outcome","","html-keyboard-response","295","1301105","0.0-276.0","0","0","UR7JL","Scenes","","773","","","38","","147","","36","","","","","","","","","","","","","","","","1","773","","","","","","","","","","","","","","","","","","","","","","",""
"","fixation","","html-keyboard-response","296","1302141","0.0-279.0","0","0","UR7JL","Scenes","","null","","","null","","","","","","","","","","","","","","","","","","","","","","","","","","","","","","","","","","","","","","","","","","","",""
"","see_reward","","html-keyboard-response","297","1302861","0.0-280.0","0","0","UR7JL","Scenes","","718","","","32","","117","","37","","","","1","","","","","2","","","","","158","718","","","","","","","","","","","","","","","","","","","","","","","","",""
"","reward_outcome","","html-keyboard-response","298","1304881","0.0-281.0","0","0","UR7JL","Scenes","","656","","","38","","117","","37","","","","","","","","","","","","","","","","1","656","","","","","","","","","","","","","","","","","","","","","","",""
"","fixation","","html-keyboard-response","299","1305900","0.0-284.0","0","0","UR7JL","Scenes","","null","","","null","","","","","","","","","","","","","","","","","","","","","","","","","","","","","","","","","","","","","","","","","","","",""
"","see_reward","","html-keyboard-response","300","1306687","0.0-285.0","0","0","UR7JL","Scenes","","782","","","32","","118","","38","","","","1","","","","","2","","","","","149","782","","","","","","","","","","","","","","","","","","","","","","","","",""
"","reward_outcome","","html-keyboard-response","301","1308703","0.0-286.0","0","0","UR7JL","Scenes","","639","","","38","","118","","38","","","","","","","","","","","","","","","","1","639","","","","","","","","","","","","","","","","","","","","","","",""
"","fixation","","html-keyboard-response","302","1309721","0.0-289.0","0","0","UR7JL","Scenes","","null","","","null","","","","","","","","","","","","","","","","","","","","","","","","","","","","","","","","","","","","","","","","","","","",""
"","see_reward","","html-keyboard-response","303","1310476","0.0-290.0","0","0","UR7JL","Scenes","","748","","","32","","107","","39","","","","1","","","","","2","","","","","142","748","","","","","","","","","","","","","","","","","","","","","","","","",""
"","reward_outcome","","html-keyboard-response","304","1312483","0.0-291.0","0","0","UR7JL","Scenes","","601","","","38","","107","","39","","","","","","","","","","","","","","","","1","601","","","","","","","","","","","","","","","","","","","","","","",""
"","fixation","","html-keyboard-response","305","1313499","0.0-294.0","0","0","UR7JL","Scenes","","null","","","null","","","","","","","","","","","","","","","","","","","","","","","","","","","","","","","","","","","","","","","","","","","",""
"","see_reward","","html-keyboard-response","306","1314720","0.0-295.0","0","0","UR7JL","Scenes","","1205","","","32","","108","","40","","","","1","","","","","2","","","","","150","1205","","","","","","","","","","","","","","","","","","","","","","","","",""
"","reward_outcome","","html-keyboard-response","307","1316734","0.0-296.0","0","0","UR7JL","Scenes","","647","","","38","","108","","40","","","","","","","","","","","","","","","","1","647","","","","","","","","","","","","","","","","","","","","","","",""
"","fixation","","html-keyboard-response","308","1317785","0.0-299.0","0","0","UR7JL","Scenes","","null","","","null","","","","","","","","","","","","","","","","","","","","","","","","","","","","","","","","","","","","","","","","","","","",""
"","see_reward","","html-keyboard-response","309","1318368","0.0-300.0","0","0","UR7JL","Scenes","","577","","","32","","144","","41","","","","-1","","","","","2","","","","","0","577","","","","","","","","","","","","","","","","","","","","","","","","",""
"","reward_outcome","","html-keyboard-response","310","1320383","0.0-301.0","0","0","UR7JL","Scenes","","873","","","40","","144","","41","","","","","","","","","","","","","","","","-1","873","","","","","","","","","","","","","","","","","","","","","","",""
"","fixation","","html-keyboard-response","311","1321399","0.0-304.0","0","0","UR7JL","Scenes","","null","","","null","","","","","","","","","","","","","","","","","","","","","","","","","","","","","","","","","","","","","","","","","","","",""
"","see_reward","","html-keyboard-response","312","1322341","0.0-305.0","0","0","UR7JL","Scenes","","939","","","32","","106","","42","","","","-1","","","","","2","","","","","0","939","","","","","","","","","","","","","","","","","","","","","","","","",""
"","reward_outcome","","html-keyboard-response","313","1324348","0.0-306.0","0","0","UR7JL","Scenes","","616","","","40","","106","","42","","","","","","","","","","","","","","","","-1","616","","","","","","","","","","","","","","","","","","","","","","",""
"","fixation","","html-keyboard-response","314","1325367","0.0-309.0","0","0","UR7JL","Scenes","","null","","","null","","","","","","","","","","","","","","","","","","","","","","","","","","","","","","","","","","","","","","","","","","","",""
"","see_reward","","html-keyboard-response","315","1325490","0.0-310.0","0","0","UR7JL","Scenes","","113","","","32","","130","","43","","","","-1","","","","","2","","","","","0","113","","","","","","","","","","","","","","","","","","","","","","","","",""
"","reward_outcome","","html-keyboard-response","316","1327498","0.0-311.0","0","0","UR7JL","Scenes","","803","","","40","","130","","43","","","","","","","","","","","","","","","","-1","803","","","","","","","","","","","","","","","","","","","","","","",""
"","fixation","","html-keyboard-response","317","1328521","0.0-314.0","0","0","UR7JL","Scenes","","null","","","null","","","","","","","","","","","","","","","","","","","","","","","","","","","","","","","","","","","","","","","","","","","",""
"","see_reward","","html-keyboard-response","318","1328580","0.0-315.0","0","0","UR7JL","Scenes","","57","","","32","","106","","44","","","","-1","","","","","2","","","","","0","57","","","","","","","","","","","","","","","","","","","","","","","","",""
"","reward_outcome","","html-keyboard-response","319","1330598","0.0-316.0","0","0","UR7JL","Scenes","","1158","","","40","","106","","44","","","","","","","","","","","","","","","","-1","1158","","","","","","","","","","","","","","","","","","","","","","",""
"","fixation","","html-keyboard-response","320","1331614","0.0-319.0","0","0","UR7JL","Scenes","","null","","","null","","","","","","","","","","","","","","","","","","","","","","","","","","","","","","","","","","","","","","","","","","","",""
"","see_reward","","html-keyboard-response","321","1332823","0.0-320.0","0","0","UR7JL","Scenes","","1204","","","32","","130","","45","","","","-1","","","","","2","","","","","0","1204","","","","","","","","","","","","","","","","","","","","","","","","",""
"","reward_outcome","","html-keyboard-response","322","1334835","0.0-321.0","0","0","UR7JL","Scenes","","820","","","40","","130","","45","","","","","","","","","","","","","","","","-1","820","","","","","","","","","","","","","","","","","","","","","","",""
"","fixation","","html-keyboard-response","323","1335849","0.0-324.0","0","0","UR7JL","Scenes","","null","","","null","","","","","","","","","","","","","","","","","","","","","","","","","","","","","","","","","","","","","","","","","","","",""
"","see_reward","","html-keyboard-response","324","1337864","0.0-325.0","0","0","UR7JL","Scenes","","2001","","","32","","121","","46","","","","-1","","","","","2","","","","","0","2001","","","","","","","","","","","","","","","","","","","","","","","","",""
"","reward_outcome","","html-keyboard-response","325","1339866","0.0-326.0","0","0","UR7JL","Scenes","","673","","","40","","121","","46","","","","","","","","","","","","","","","","-1","673","","","","","","","","","","","","","","","","","","","","","","",""
"","fixation","","html-keyboard-response","326","1340894","0.0-329.0","0","0","UR7JL","Scenes","","null","","","null","","","","","","","","","","","","","","","","","","","","","","","","","","","","","","","","","","","","","","","","","","","",""
"","see_reward","","html-keyboard-response","327","1341712","0.0-330.0","0","0","UR7JL","Scenes","","803","","","32","","131","","47","","","","1","","","","","2","","","","","152","803","","","","","","","","","","","","","","","","","","","","","","","","",""
"","reward_outcome","","html-keyboard-response","328","1343716","0.0-331.0","0","0","UR7JL","Scenes","","799","","","38","","131","","47","","","","","","","","","","","","","","","","1","799","","","","","","","","","","","","","","","","","","","","","","",""
"","block_over","","html-keyboard-response","329","1391982","0.0-333.0-0.0","0","0","UR7JL","Scenes","","48261","","","78","","","","","","","","","","","","","","","","","","","","","","","","","","","","","","","","","","","","","","","","","","","",""
"","fixation","","html-keyboard-response","330","1392996","0.0-334.0","0","0","UR7JL","Scenes","","null","","","null","","","","","","","","","","","","","","","","","","","","","","","","","","","","","","","","","","","","","","","","","","","",""
"","see_reward","","html-keyboard-response","331","1393817","0.0-335.0","0","0","UR7JL","Scenes","","813","","","32","","144","","48","","","","-1","","","","","3","","","","","0","813","","","","","","","","","","","","","","","","","","","","","","","","",""
"","reward_outcome","","html-keyboard-response","332","1395833","0.0-336.0","0","0","UR7JL","Scenes","","949","","","40","","144","","48","","","","","","","","","","","","","","","","-1","949","","","","","","","","","","","","","","","","","","","","","","",""
"","fixation","","html-keyboard-response","333","1396846","0.0-339.0","0","0","UR7JL","Scenes","","null","","","null","","","","","","","","","","","","","","","","","","","","","","","","","","","","","","","","","","","","","","","","","","","",""
"","see_reward","","html-keyboard-response","334","1397641","0.0-340.0","0","0","UR7JL","Scenes","","783","","","32","","126","","49","","","","-1","","","","","3","","","","","0","783","","","","","","","","","","","","","","","","","","","","","","","","",""
"","reward_outcome","","html-keyboard-response","335","1399647","0.0-341.0","0","0","UR7JL","Scenes","","614","","","40","","126","","49","","","","","","","","","","","","","","","","-1","614","","","","","","","","","","","","","","","","","","","","","","",""
"","fixation","","html-keyboard-response","336","1400664","0.0-344.0","0","0","UR7JL","Scenes","","null","","","null","","","","","","","","","","","","","","","","","","","","","","","","","","","","","","","","","","","","","","","","","","","",""
"","see_reward","","html-keyboard-response","337","1401403","0.0-345.0","0","0","UR7JL","Scenes","","733","","","32","","126","","50","","","","-1","","","","","3","","","","","0","733","","","","","","","","","","","","","","","","","","","","","","","","",""
"","reward_outcome","","html-keyboard-response","338","1403414","0.0-346.0","0","0","UR7JL","Scenes","","806","","","40","","126","","50","","","","","","","","","","","","","","","","-1","806","","","","","","","","","","","","","","","","","","","","","","",""
"","fixation","","html-keyboard-response","339","1404429","0.0-349.0","0","0","UR7JL","Scenes","","null","","","null","","","","","","","","","","","","","","","","","","","","","","","","","","","","","","","","","","","","","","","","","","","",""
"","see_reward","","html-keyboard-response","340","1405127","0.0-350.0","0","0","UR7JL","Scenes","","691","","","32","","128","","51","","","","-1","","","","","3","","","","","0","691","","","","","","","","","","","","","","","","","","","","","","","","",""
"","reward_outcome","","html-keyboard-response","341","1407130","0.0-351.0","0","0","UR7JL","Scenes","","846","","","40","","128","","51","","","","","","","","","","","","","","","","-1","846","","","","","","","","","","","","","","","","","","","","","","",""
"","fixation","","html-keyboard-response","342","1408146","0.0-354.0","0","0","UR7JL","Scenes","","null","","","null","","","","","","","","","","","","","","","","","","","","","","","","","","","","","","","","","","","","","","","","","","","",""
"","see_reward","","html-keyboard-response","343","1408987","0.0-355.0","0","0","UR7JL","Scenes","","830","","","32","","107","","52","","","","1","","","","","3","","","","","142","830","","","","","","","","","","","","","","","","","","","","","","","","",""
"","reward_outcome","","html-keyboard-response","344","1410997","0.0-356.0","0","0","UR7JL","Scenes","","914","","","38","","107","","52","","","","","","","","","","","","","","","","1","914","","","","","","","","","","","","","","","","","","","","","","",""
"","fixation","","html-keyboard-response","345","1412013","0.0-359.0","0","0","UR7JL","Scenes","","null","","","null","","","","","","","","","","","","","","","","","","","","","","","","","","","","","","","","","","","","","","","","","","","",""
"","see_reward","","html-keyboard-response","346","1412865","0.0-360.0","0","0","UR7JL","Scenes","","844","","","32","","147","","53","","","","1","","","","","3","","","","","150","844","","","","","","","","","","","","","","","","","","","","","","","","",""
"","reward_outcome","","html-keyboard-response","347","1414877","0.0-361.0","0","0","UR7JL","Scenes","","683","","","38","","147","","53","","","","","","","","","","","","","","","","1","683","","","","","","","","","","","","","","","","","","","","","","",""
"","fixation","","html-keyboard-response","348","1415895","0.0-364.0","0","0","UR7JL","Scenes","","null","","","null","","","","","","","","","","","","","","","","","","","","","","","","","","","","","","","","","","","","","","","","","","","",""
"","see_reward","","html-keyboard-response","349","1416719","0.0-365.0","0","0","UR7JL","Scenes","","813","","","32","","118","","54","","","","1","","","","","3","","","","","149","813","","","","","","","","","","","","","","","","","","","","","","","","",""
"","reward_outcome","","html-keyboard-response","350","1418728","0.0-366.0","0","0","UR7JL","Scenes","","758","","","38","","118","","54","","","","","","","","","","","","","","","","1","758","","","","","","","","","","","","","","","","","","","","","","",""
"","fixation","","html-keyboard-response","351","1419744","0.0-369.0","0","0","UR7JL","Scenes","","null","","","null","","","","","","","","","","","","","","","","","","","","","","","","","","","","","","","","","","","","","","","","","","","",""
"","see_reward","","html-keyboard-response","352","1420608","0.0-370.0","0","0","UR7JL","Scenes","","849","","","32","","106","","55","","","","-1","","","","","3","","","","","0","849","","","","","","","","","","","","","","","","","","","","","","","","",""
"","reward_outcome","","html-keyboard-response","353","1422617","0.0-371.0","0","0","UR7JL","Scenes","","934","","","40","","106","","55","","","","","","","","","","","","","","","","-1","934","","","","","","","","","","","","","","","","","","","","","","",""
"","fixation","","html-keyboard-response","354","1423624","0.0-374.0","0","0","UR7JL","Scenes","","null","","","null","","","","","","","","","","","","","","","","","","","","","","","","","","","","","","","","","","","","","","","","","","","",""
"","see_reward","","html-keyboard-response","355","1424283","0.0-375.0","0","0","UR7JL","Scenes","","657","","","32","","147","","56","","","","1","","","","","3","","","","","150","657","","","","","","","","","","","","","","","","","","","","","","","","",""
"","reward_outcome","","html-keyboard-response","356","1426289","0.0-376.0","0","0","UR7JL","Scenes","","678","","","38","","147","","56","","","","","","","","","","","","","","","","1","678","","","","","","","","","","","","","","","","","","","","","","",""
