"success","ttype","start_time","trial_type","trial_index","time_elapsed","internal_node_id","warning","missed_checkup","PID","stim_type","view_history","rt","responses","repeat_instructions","key_press","response","stimulus_id","painting","index","stimulus_left","stimulus_right","explain_trial","reward_type","rating_left","rating_right","painting_left","painting_right","block","left_chosen","chosen_obj","unchosen_obj","explain_response","reward_amount","see_reward_rt","register_reward_response","register_reward_rt","deliberation_reward_tally","stimulus_left_deliberation_ind","stimulus_right_deliberation_ind","chosen_trial","gain_left","higher_outcome_chosen","old_pair","chosen_object","rt_pairs","left_object_chosen","rt_object","old_response","new_rating","deliberated_stim","initial_rating","outcome_eval_rt","outcome_eval_response","outcome_eval_gain","outcome_eval_acc","preamble","outcome_eval_confidence","outcome_eval_confidence_rt","total_reward_tally"
"true","full_screen","d01192023hr2337","fullscreen","0","24961","0.0-0.0","0","0","2dtBc","Scenes","","","","","","","","","","","","","","","","","","","","","","","","","","","","","","","","","","","","","","","","","","","","","","","","",""
"","rating_instructions","","instructions","1","38047","0.0-1.0-0.0","0","0","2dtBc","Scenes","[{""page_index"":0,""viewing_time"":11055},{""page_index"":1,""viewing_time"":2028}]","13083","","","","","","","","","","","","","","","","","","","","","","","","","","","","","","","","","","","","","","","","","","","","","","",""
"","rating_comprehension_check","","survey-multi-choice","2","43496","0.0-1.0-1.0","0","0","2dtBc","Scenes","","5446","{""Q0"":""True"",""Q1"":""Mouse""}","0","","","","","","","","","","","","","","","","","","","","","","","","","","","","","","","","","","","","","","","","","","","","",""
"","start_phase","","html-keyboard-response","3","47556","0.0-2.0","0","0","2dtBc","Scenes","","4058","","","78","","","","","","","","","","","","","","","","","","","","","","","","","","","","","","","","","","","","","","","","","","","",""
"","rating","","html-slider-response","4","50794","0.0-3.0","0","0","2dtBc","Scenes","","3236","","","","86","149","yuriy-bogdanov-W51VK3Obcj0-unsplash.jpg","0","","","","","","","","","","","","","","","","","","","","","","","","","","","","","","","","","","","","","","","",""
"","rating","","html-slider-response","5","54420","0.0-4.0","0","0","2dtBc","Scenes","","3624","","","","94","140","samuele-errico-piccarini-JEBqFu2AOOA-unsplash.jpg","1","","","","","","","","","","","","","","","","","","","","","","","","","","","","","","","","","","","","","","","",""
"","rating","","html-slider-response","6","56650","0.0-5.0","0","0","2dtBc","Scenes","","2227","","","","100","106","ashim-d-silva-WeYamle9fDM-unsplash.jpg","2","","","","","","","","","","","","","","","","","","","","","","","","","","","","","","","","","","","","","","","",""
"","rating","","html-slider-response","7","60281","0.0-6.0","0","0","2dtBc","Scenes","","3630","","","","71","142","sergey-pesterev-y-b_FOmJXdg-unsplash.jpg","3","","","","","","","","","","","","","","","","","","","","","","","","","","","","","","","","","","","","","","","",""
"","rating","","html-slider-response","8","63189","0.0-7.0","0","0","2dtBc","Scenes","","2907","","","","73","136","nicolas-jehly-LzVB84KkZOE-unsplash.jpg","4","","","","","","","","","","","","","","","","","","","","","","","","","","","","","","","","","","","","","","","",""
"","rating","","html-slider-response","9","66224","0.0-8.0","0","0","2dtBc","Scenes","","3033","","","","82","139","samsommer-vddccTqwal8-unsplash.jpg","5","","","","","","","","","","","","","","","","","","","","","","","","","","","","","","","","","","","","","","","",""
"","rating","","html-slider-response","10","69209","0.0-9.0","0","0","2dtBc","Scenes","","2984","","","","23","141","sebastian-unrau-v4e3JI7DDHI-unsplash.jpg","6","","","","","","","","","","","","","","","","","","","","","","","","","","","","","","","","","","","","","","","",""
"","rating","","html-slider-response","11","71666","0.0-10.0","0","0","2dtBc","Scenes","","2455","","","","81","128","karsten-wurth-jS0zC2PJ17A-unsplash.jpg","7","","","","","","","","","","","","","","","","","","","","","","","","","","","","","","","","","","","","","","","",""
"","rating","","html-slider-response","12","74058","0.0-11.0","0","0","2dtBc","Scenes","","2391","","","","95","119","james-wheeler-AFC0XvICMgs-unsplash.jpg","8","","","","","","","","","","","","","","","","","","","","","","","","","","","","","","","","","","","","","","","",""
"","rating","","html-slider-response","13","76599","0.0-12.0","0","0","2dtBc","Scenes","","2539","","","","100","137","olga-stalska-QaWRyEdlffY-unsplash.jpg","9","","","","","","","","","","","","","","","","","","","","","","","","","","","","","","","","","","","","","","","",""
"","rating","","html-slider-response","14","79056","0.0-13.0","0","0","2dtBc","Scenes","","2455","","","","71","131","luca-bravo-hFzIoD0F_i8-unsplash.jpg","10","","","","","","","","","","","","","","","","","","","","","","","","","","","","","","","","","","","","","","","",""
"","rating","","html-slider-response","15","81340","0.0-14.0","0","0","2dtBc","Scenes","","2282","","","","100","132","meng-ji-8BH_M-53CyA-unsplash.jpg","11","","","","","","","","","","","","","","","","","","","","","","","","","","","","","","","","","","","","","","","",""
"","rating","","html-slider-response","16","83965","0.0-15.0","0","0","2dtBc","Scenes","","2624","","","","78","123","joel-jasmin-forestbird-efuwb5eBDrI-unsplash.jpg","12","","","","","","","","","","","","","","","","","","","","","","","","","","","","","","","","","","","","","","","",""
"","rating","","html-slider-response","17","87857","0.0-16.0","0","0","2dtBc","Scenes","","3891","","","","75","133","mickey-o-neil-xL66l--msXU-unsplash.jpg","13","","","","","","","","","","","","","","","","","","","","","","","","","","","","","","","","","","","","","","","",""
"","rating","","html-slider-response","18","90524","0.0-17.0","0","0","2dtBc","Scenes","","2665","","","","68","105","ashim-d-silva-S2Q5mdOrrVc-unsplash.jpg","14","","","","","","","","","","","","","","","","","","","","","","","","","","","","","","","","","","","","","","","",""
"","rating","","html-slider-response","19","93267","0.0-18.0","0","0","2dtBc","Scenes","","2742","","","","86","126","jordan-mcqueen-PJCZOWuOxbU-unsplash.jpg","15","","","","","","","","","","","","","","","","","","","","","","","","","","","","","","","","","","","","","","","",""
"","rating","","html-slider-response","20","95325","0.0-19.0","0","0","2dtBc","Scenes","","2057","","","","85","127","kace-rodriguez-p3OzJuT_Dks-unsplash.jpg","16","","","","","","","","","","","","","","","","","","","","","","","","","","","","","","","","","","","","","","","",""
"","rating","","html-slider-response","21","97524","0.0-20.0","0","0","2dtBc","Scenes","","2197","","","","94","103","anton-darius-FBJugtbHsWU-unsplash.jpg","17","","","","","","","","","","","","","","","","","","","","","","","","","","","","","","","","","","","","","","","",""
"","rating","","html-slider-response","22","99869","0.0-21.0","0","0","2dtBc","Scenes","","2345","","","","87","115","darrell-cassell-hoCXpPUMCoE-unsplash.jpg","18","","","","","","","","","","","","","","","","","","","","","","","","","","","","","","","","","","","","","","","",""
"","rating","","html-slider-response","23","103417","0.0-22.0","0","0","2dtBc","Scenes","","3546","","","","93","122","jeff-king-bJHWJeiHfHc-unsplash.jpg","19","","","","","","","","","","","","","","","","","","","","","","","","","","","","","","","","","","","","","","","",""
"","rating","","html-slider-response","24","106458","0.0-23.0","0","0","2dtBc","Scenes","","3038","","","","62","143","sigurdur-fjalar-jonsson-1KxBabIntpE-unsplash.jpg","20","","","","","","","","","","","","","","","","","","","","","","","","","","","","","","","","","","","","","","","",""
"","rating","","html-slider-response","25","109155","0.0-24.0","0","0","2dtBc","Scenes","","2697","","","","95","107","benjamin-davies-Zm2n2O7Fph4-unsplash.jpg","21","","","","","","","","","","","","","","","","","","","","","","","","","","","","","","","","","","","","","","","",""
"","rating","","html-slider-response","26","112508","0.0-25.0","0","0","2dtBc","Scenes","","3351","","","","32","100","aleksandra-boguslawska-MS7KD9Ti7FQ-unsplash.jpg","22","","","","","","","","","","","","","","","","","","","","","","","","","","","","","","","","","","","","","","","",""
"","rating","","html-slider-response","27","114815","0.0-26.0","0","0","2dtBc","Scenes","","2306","","","","90","102","anisur-rahman-K2b7UDed6uQ-unsplash.jpg","23","","","","","","","","","","","","","","","","","","","","","","","","","","","","","","","","","","","","","","","",""
"","rating","","html-slider-response","28","118215","0.0-27.0","0","0","2dtBc","Scenes","","3398","","","","15","101","aniket-deole-T-tOgjWZ0fQ-unsplash.jpg","24","","","","","","","","","","","","","","","","","","","","","","","","","","","","","","","","","","","","","","","",""
"","rating","","html-slider-response","29","120639","0.0-28.0","0","0","2dtBc","Scenes","","2423","","","","84","118","henry-be-NLF6hTe4PAg-unsplash.jpg","25","","","","","","","","","","","","","","","","","","","","","","","","","","","","","","","","","","","","","","","",""
"","rating","","html-slider-response","30","123741","0.0-29.0","0","0","2dtBc","Scenes","","3100","","","","94","147","tobias-keller-73F4pKoUkM0-unsplash.jpg","26","","","","","","","","","","","","","","","","","","","","","","","","","","","","","","","","","","","","","","","",""
"","rating","","html-slider-response","31","126016","0.0-30.0","0","0","2dtBc","Scenes","","2274","","","","100","135","mohammad-alizade-4wzRuAb-KWs-unsplash.jpg","27","","","","","","","","","","","","","","","","","","","","","","","","","","","","","","","","","","","","","","","",""
"","rating","","html-slider-response","32","137018","0.0-31.0","0","0","2dtBc","Scenes","","11001","","","","75","113","damian-denis-D8R_txR_0PE-unsplash.jpg","28","","","","","","","","","","","","","","","","","","","","","","","","","","","","","","","","","","","","","","","",""
"","rating","","html-slider-response","33","140245","0.0-32.0","0","0","2dtBc","Scenes","","3225","","","","85","111","claudio-testa-U3F2o6vz3bs-unsplash.jpg","29","","","","","","","","","","","","","","","","","","","","","","","","","","","","","","","","","","","","","","","",""
"","rating","","html-slider-response","34","142786","0.0-33.0","0","0","2dtBc","Scenes","","2541","","","","72","148","tom-gainor-ZqLeQDjY6fY-unsplash.jpg","30","","","","","","","","","","","","","","","","","","","","","","","","","","","","","","","","","","","","","","","",""
"","rating","","html-slider-response","35","145469","0.0-34.0","0","0","2dtBc","Scenes","","2681","","","","88","138","petr-vysohlid-9fqwGqGLUxc-unsplash.jpg","31","","","","","","","","","","","","","","","","","","","","","","","","","","","","","","","","","","","","","","","",""
"","rating","","html-slider-response","36","149140","0.0-35.0","0","0","2dtBc","Scenes","","3671","","","","75","129","kurt-cotoaga-cqbLg3lZEpk-unsplash.jpg","32","","","","","","","","","","","","","","","","","","","","","","","","","","","","","","","","","","","","","","","",""
"","rating","","html-slider-response","37","154333","0.0-36.0","0","0","2dtBc","Scenes","","5191","","","","95","144","solotravelgoals-7kLufxYoqWk-unsplash.jpg","33","","","","","","","","","","","","","","","","","","","","","","","","","","","","","","","","","","","","","","","",""
"","rating","","html-slider-response","38","157452","0.0-37.0","0","0","2dtBc","Scenes","","3117","","","","14","120","jarrett-kow-1ZOyYPOBn7I-unsplash.jpg","34","","","","","","","","","","","","","","","","","","","","","","","","","","","","","","","","","","","","","","","",""
"","rating","","html-slider-response","39","160046","0.0-38.0","0","0","2dtBc","Scenes","","2593","","","","72","145","stephen-leonardi-gyIRjKPXupE-unsplash.jpg","35","","","","","","","","","","","","","","","","","","","","","","","","","","","","","","","","","","","","","","","",""
"","rating","","html-slider-response","40","162432","0.0-39.0","0","0","2dtBc","Scenes","","2385","","","","78","121","jean-pierre-brungs-qxCqkbF7tUc-unsplash.jpg","36","","","","","","","","","","","","","","","","","","","","","","","","","","","","","","","","","","","","","","","",""
"","rating","","html-slider-response","41","164649","0.0-40.0","0","0","2dtBc","Scenes","","2215","","","","85","124","johannes-plenio-sPt5RIjKfpk-unsplash.jpg","37","","","","","","","","","","","","","","","","","","","","","","","","","","","","","","","","","","","","","","","",""
"","rating","","html-slider-response","42","167049","0.0-41.0","0","0","2dtBc","Scenes","","2399","","","","95","146","thomas-morse-cuKKa0vWZSY-unsplash.jpg","38","","","","","","","","","","","","","","","","","","","","","","","","","","","","","","","","","","","","","","","",""
"","rating","","html-slider-response","43","170129","0.0-42.0","0","0","2dtBc","Scenes","","3079","","","","46","110","bruno-van-der-kraan-qez8mNJ3ilU-unsplash.jpg","39","","","","","","","","","","","","","","","","","","","","","","","","","","","","","","","","","","","","","","","",""
"","rating","","html-slider-response","44","172499","0.0-43.0","0","0","2dtBc","Scenes","","2368","","","","75","125","john-lee-oMneOBYhJxY-unsplash.jpg","40","","","","","","","","","","","","","","","","","","","","","","","","","","","","","","","","","","","","","","","",""
"","rating","","html-slider-response","45","177231","0.0-44.0","0","0","2dtBc","Scenes","","4731","","","","6","104","artem-sapegin-XGDBdSQ70O0-unsplash.jpg","41","","","","","","","","","","","","","","","","","","","","","","","","","","","","","","","","","","","","","","","",""
"","rating","","html-slider-response","46","179562","0.0-45.0","0","0","2dtBc","Scenes","","2331","","","","94","108","benjamin-voros-phIFdC6lA4E-unsplash.jpg","42","","","","","","","","","","","","","","","","","","","","","","","","","","","","","","","","","","","","","","","",""
"","rating","","html-slider-response","47","182065","0.0-46.0","0","0","2dtBc","Scenes","","2501","","","","72","114","daniel-sessler-z_9VmsxR8hs-unsplash.jpg","43","","","","","","","","","","","","","","","","","","","","","","","","","","","","","","","","","","","","","","","",""
"","rating","","html-slider-response","48","185136","0.0-47.0","0","0","2dtBc","Scenes","","3071","","","","88","134","milada-vigerova-pQMM63GE7fo-unsplash.jpg","44","","","","","","","","","","","","","","","","","","","","","","","","","","","","","","","","","","","","","","","",""
"","rating","","html-slider-response","49","187687","0.0-48.0","0","0","2dtBc","Scenes","","2549","","","","90","130","lina-loos-04-C1NZk1hE-unsplash.jpg","45","","","","","","","","","","","","","","","","","","","","","","","","","","","","","","","","","","","","","","","",""
"","rating","","html-slider-response","50","190485","0.0-49.0","0","0","2dtBc","Scenes","","2796","","","","100","112","cosmic-timetraveler-pYyOZ8q7AII-unsplash.jpg","46","","","","","","","","","","","","","","","","","","","","","","","","","","","","","","","","","","","","","","","",""
"","rating","","html-slider-response","51","192465","0.0-50.0","0","0","2dtBc","Scenes","","1979","","","","56","116","david-marcu-W5MhJ6cy1So-unsplash.jpg","47","","","","","","","","","","","","","","","","","","","","","","","","","","","","","","","","","","","","","","","",""
"","rating","","html-slider-response","52","194680","0.0-51.0","0","0","2dtBc","Scenes","","2213","","","","94","117","frank-mckenna-OD9EOzfSOh0-unsplash.jpg","48","","","","","","","","","","","","","","","","","","","","","","","","","","","","","","","","","","","","","","","",""
"","rating","","html-slider-response","53","197091","0.0-52.0","0","0","2dtBc","Scenes","","2409","","","","16","109","brigitta-schneiter-hXXRLtTxXCU-unsplash.jpg","49","","","","","","","","","","","","","","","","","","","","","","","","","","","","","","","","","","","","","","","",""
"","deliberation_instructions","","instructions","54","271875","0.0-53.0-0.0","0","0","2dtBc","Scenes","[{""page_index"":0,""viewing_time"":30529},{""page_index"":1,""viewing_time"":10854},{""page_index"":2,""viewing_time"":14924},{""page_index"":3,""viewing_time"":16026},{""page_index"":4,""viewing_time"":2448}]","74781","","","","","","","","","","","","","","","","","","","","","","","","","","","","","","","","","","","","","","","","","","","","","","",""
"","deliberation_comprehension_check","","survey-multi-choice","55","295329","0.0-53.0-1.0","0","0","2dtBc","Scenes","","23450","{""Q0"":""True"",""Q1"":""True"",""Q2"":""Consider carefully and take your time (up to 10 seconds)"",""Q3"":""True"",""Q4"":""D""}","0","","","","","","","","","","","","","","","","","","","","","","","","","","","","","","","","","","","","","","","","","","","","",""
"","start_phase","","html-keyboard-response","56","300171","0.0-54.0","0","0","2dtBc","Scenes","","4840","","","78","","","","","","","","","","","","","","","","","","","","","","","","","","","","","","","","","","","","","","","","","","","",""
"","first_deliberation_block","","html-keyboard-response","57","305395","0.0-55.0","0","0","2dtBc","Scenes","","5223","","","78","","","","","","","","","","","","","","","","","","","","","","","","","","","","","","","","","","","","","","","","","","","",""
"","fixation","","html-keyboard-response","58","306414","0.0-56.0-0.0","0","0","2dtBc","Scenes","","null","","","null","","","","","","","","","","","","","","","","","","","","","","","","","","","","","","","","","","","","","","","","","","","",""
"","deliberation","","html-keyboard-response","59","308163","0.0-56.0-1.0","0","0","2dtBc","Scenes","","1748","","","75","","","","0","140","127","1","-1","94","85","samuele-errico-piccarini-JEBqFu2AOOA-unsplash.jpg","kace-rodriguez-p3OzJuT_Dks-unsplash.jpg","1","0","127","140","","","","","","","","","","","","","","","","","","","","","","","","","","","",""
"","choice_confirmation","","html-keyboard-response","60","308668","0.0-56.0-2.0-0.0","0","0","2dtBc","Scenes","","null","","","null","","","","0","140","127","","","","","","","","","","","","","","","","","","","","","","","","","","","","","","","","","","","","","",""
"","explain_trial","","survey-text","61","325042","0.0-56.0-5.0-0.0","0","0","2dtBc","Scenes","","16372","{""Q0"":""I like the look of it, it's almost as if I could feel the motion of the tide.""}","","","","","","0","140","127","","","","","","","","","","","{""Q0"":""I like the look of it, it's almost as if I could feel the motion of the tide.""}","","","","","","","","","","","","","","","","","","","","","","","","","","",""
"","fixation","","html-keyboard-response","62","326054","0.0-57.0-0.0","0","0","2dtBc","Scenes","","null","","","null","","","","","","","","","","","","","","","","","","","","","","","","","","","","","","","","","","","","","","","","","","","",""
"","deliberation","","html-keyboard-response","63","327755","0.0-57.0-1.0","0","0","2dtBc","Scenes","","1699","","","68","","","","1","102","114","1","-1","90","72","anisur-rahman-K2b7UDed6uQ-unsplash.jpg","daniel-sessler-z_9VmsxR8hs-unsplash.jpg","1","1","102","114","","","","","","","","","","","","","","","","","","","","","","","","","","","",""
"","choice_confirmation","","html-keyboard-response","64","328266","0.0-57.0-2.0-0.0","0","0","2dtBc","Scenes","","null","","","null","","","","1","102","114","","","","","","","","","","","","","","","","","","","","","","","","","","","","","","","","","","","","","",""
"","explain_trial","","survey-text","65","342971","0.0-57.0-5.0-0.0","0","0","2dtBc","Scenes","","14703","{""Q0"":""This looks idealistic, almost dream like WHILE very vibrant.""}","","","","","","1","102","114","","","","","","","","","","","{""Q0"":""This looks idealistic, almost dream like WHILE very vibrant.""}","","","","","","","","","","","","","","","","","","","","","","","","","","",""
"","fixation","","html-keyboard-response","66","343985","0.0-58.0-0.0","0","0","2dtBc","Scenes","","null","","","null","","","","","","","","","","","","","","","","","","","","","","","","","","","","","","","","","","","","","","","","","","","",""
"","deliberation","","html-keyboard-response","67","345771","0.0-58.0-1.0","0","0","2dtBc","Scenes","","1785","","","68","","","","2","139","128","0","1","82","81","samsommer-vddccTqwal8-unsplash.jpg","karsten-wurth-jS0zC2PJ17A-unsplash.jpg","1","1","139","128","","","","","","","","","","","","","","","","","","","","","","","","","","","",""
"","choice_confirmation","","html-keyboard-response","68","346274","0.0-58.0-2.0-0.0","0","0","2dtBc","Scenes","","null","","","null","","","","2","139","128","","","","","","","","","","","","","","","","","","","","","","","","","","","","","","","","","","","","","",""
"","fixation","","html-keyboard-response","69","347283","0.0-59.0-0.0","0","0","2dtBc","Scenes","","null","","","null","","","","","","","","","","","","","","","","","","","","","","","","","","","","","","","","","","","","","","","","","","","",""
"","deliberation","","html-keyboard-response","70","349323","0.0-59.0-1.0","0","0","2dtBc","Scenes","","2039","","","75","","","","3","145","115","0","1","72","87","stephen-leonardi-gyIRjKPXupE-unsplash.jpg","darrell-cassell-hoCXpPUMCoE-unsplash.jpg","1","0","115","145","","","","","","","","","","","","","","","","","","","","","","","","","","","",""
"","choice_confirmation","","html-keyboard-response","71","349830","0.0-59.0-2.0-0.0","0","0","2dtBc","Scenes","","null","","","null","","","","3","145","115","","","","","","","","","","","","","","","","","","","","","","","","","","","","","","","","","","","","","",""
"","fixation","","html-keyboard-response","72","350843","0.0-60.0-0.0","0","0","2dtBc","Scenes","","null","","","null","","","","","","","","","","","","","","","","","","","","","","","","","","","","","","","","","","","","","","","","","","","",""
"","deliberation","","html-keyboard-response","73","352571","0.0-60.0-1.0","0","0","2dtBc","Scenes","","1727","","","75","","","","4","133","149","1","-1","75","86","mickey-o-neil-xL66l--msXU-unsplash.jpg","yuriy-bogdanov-W51VK3Obcj0-unsplash.jpg","1","0","149","133","","","","","","","","","","","","","","","","","","","","","","","","","","","",""
"","choice_confirmation","","html-keyboard-response","74","353074","0.0-60.0-2.0-0.0","0","0","2dtBc","Scenes","","null","","","null","","","","4","133","149","","","","","","","","","","","","","","","","","","","","","","","","","","","","","","","","","","","","","",""
"","explain_trial","","survey-text","75","371689","0.0-60.0-5.0-0.0","0","0","2dtBc","Scenes","","18613","{""Q0"":""I feel as though the field is endless, it almost looks like a painting and it's just beautiful.""}","","","","","","4","133","149","","","","","","","","","","","{""Q0"":""I feel as though the field is endless, it almost looks like a painting and it's just beautiful.""}","","","","","","","","","","","","","","","","","","","","","","","","","","",""
"","fixation","","html-keyboard-response","76","372710","0.0-61.0-0.0","0","0","2dtBc","Scenes","","null","","","null","","","","","","","","","","","","","","","","","","","","","","","","","","","","","","","","","","","","","","","","","","","",""
"","deliberation","","html-keyboard-response","77","374059","0.0-61.0-1.0","0","0","2dtBc","Scenes","","1347","","","68","","","","5","138","122","0","1","88","93","petr-vysohlid-9fqwGqGLUxc-unsplash.jpg","jeff-king-bJHWJeiHfHc-unsplash.jpg","1","1","138","122","","","","","","","","","","","","","","","","","","","","","","","","","","","",""
"","choice_confirmation","","html-keyboard-response","78","374564","0.0-61.0-2.0-0.0","0","0","2dtBc","Scenes","","null","","","null","","","","5","138","122","","","","","","","","","","","","","","","","","","","","","","","","","","","","","","","","","","","","","",""
"","fixation","","html-keyboard-response","79","375577","0.0-62.0-0.0","0","0","2dtBc","Scenes","","null","","","null","","","","","","","","","","","","","","","","","","","","","","","","","","","","","","","","","","","","","","","","","","","",""
"","deliberation","","html-keyboard-response","80","376947","0.0-62.0-1.0","0","0","2dtBc","Scenes","","1369","","","75","","","","6","121","134","1","1","78","88","jean-pierre-brungs-qxCqkbF7tUc-unsplash.jpg","milada-vigerova-pQMM63GE7fo-unsplash.jpg","1","0","134","121","","","","","","","","","","","","","","","","","","","","","","","","","","","",""
"","choice_confirmation","","html-keyboard-response","81","377464","0.0-62.0-2.0-0.0","0","0","2dtBc","Scenes","","null","","","null","","","","6","121","134","","","","","","","","","","","","","","","","","","","","","","","","","","","","","","","","","","","","","",""
"","explain_trial","","survey-text","82","399962","0.0-62.0-5.0-0.0","0","0","2dtBc","Scenes","","22497","{""Q0"":""This choice feels a bit more primal, and I like the sense that it's almost like I'm looking back in time to when dinosaurs still roamed.""}","","","","","","6","121","134","","","","","","","","","","","{""Q0"":""This choice feels a bit more primal, and I like the sense that it's almost like I'm looking back in time to when dinosaurs still roamed.""}","","","","","","","","","","","","","","","","","","","","","","","","","","",""
"","fixation","","html-keyboard-response","83","400974","0.0-63.0-0.0","0","0","2dtBc","Scenes","","null","","","null","","","","","","","","","","","","","","","","","","","","","","","","","","","","","","","","","","","","","","","","","","","",""
"","deliberation","","html-keyboard-response","84","402396","0.0-63.0-1.0","0","0","2dtBc","Scenes","","1420","","","75","","","","7","123","113","0","-1","78","75","joel-jasmin-forestbird-efuwb5eBDrI-unsplash.jpg","damian-denis-D8R_txR_0PE-unsplash.jpg","1","0","113","123","","","","","","","","","","","","","","","","","","","","","","","","","","","",""
"","choice_confirmation","","html-keyboard-response","85","402908","0.0-63.0-2.0-0.0","0","0","2dtBc","Scenes","","null","","","null","","","","7","123","113","","","","","","","","","","","","","","","","","","","","","","","","","","","","","","","","","","","","","",""
"","fixation","","html-keyboard-response","86","403920","0.0-64.0-0.0","0","0","2dtBc","Scenes","","null","","","null","","","","","","","","","","","","","","","","","","","","","","","","","","","","","","","","","","","","","","","","","","","",""
"","deliberation","","html-keyboard-response","87","405307","0.0-64.0-1.0","0","0","2dtBc","Scenes","","1386","","","68","","","","8","124","129","1","-1","85","75","johannes-plenio-sPt5RIjKfpk-unsplash.jpg","kurt-cotoaga-cqbLg3lZEpk-unsplash.jpg","1","1","124","129","","","","","","","","","","","","","","","","","","","","","","","","","","","",""
"","choice_confirmation","","html-keyboard-response","88","405809","0.0-64.0-2.0-0.0","0","0","2dtBc","Scenes","","null","","","null","","","","8","124","129","","","","","","","","","","","","","","","","","","","","","","","","","","","","","","","","","","","","","",""
"","explain_trial","","survey-text","89","437546","0.0-64.0-5.0-0.0","0","0","2dtBc","Scenes","","31736","{""Q0"":""This photo looks like the perfect autumn photo. It's got vibrant colors and a light at the end of the tunnel so to speak. I feel it would be sought after.""}","","","","","","8","124","129","","","","","","","","","","","{""Q0"":""This photo looks like the perfect autumn photo. It's got vibrant colors and a light at the end of the tunnel so to speak. I feel it would be sought after.""}","","","","","","","","","","","","","","","","","","","","","","","","","","",""
"","fixation","","html-keyboard-response","90","438564","0.0-65.0-0.0","0","0","2dtBc","Scenes","","null","","","null","","","","","","","","","","","","","","","","","","","","","","","","","","","","","","","","","","","","","","","","","","","",""
"","deliberation","","html-keyboard-response","91","440531","0.0-65.0-1.0","0","0","2dtBc","Scenes","","1966","","","68","","","","9","130","111","1","1","90","85","lina-loos-04-C1NZk1hE-unsplash.jpg","claudio-testa-U3F2o6vz3bs-unsplash.jpg","1","1","130","111","","","","","","","","","","","","","","","","","","","","","","","","","","","",""
"","choice_confirmation","","html-keyboard-response","92","441042","0.0-65.0-2.0-0.0","0","0","2dtBc","Scenes","","null","","","null","","","","9","130","111","","","","","","","","","","","","","","","","","","","","","","","","","","","","","","","","","","","","","",""
"","explain_trial","","survey-text","93","458072","0.0-65.0-5.0-0.0","0","0","2dtBc","Scenes","","17029","{""Q0"":""This is a beautiful landscape, and I feel someone would appreciate it's beauty.""}","","","","","","9","130","111","","","","","","","","","","","{""Q0"":""This is a beautiful landscape, and I feel someone would appreciate it's beauty.""}","","","","","","","","","","","","","","","","","","","","","","","","","","",""
"","fixation","","html-keyboard-response","94","459077","0.0-66.0-0.0","0","0","2dtBc","Scenes","","null","","","null","","","","","","","","","","","","","","","","","","","","","","","","","","","","","","","","","","","","","","","","","","","",""
"","deliberation","","html-keyboard-response","95","461979","0.0-66.0-1.0","0","0","2dtBc","Scenes","","2901","","","75","","","","10","125","118","0","-1","75","84","john-lee-oMneOBYhJxY-unsplash.jpg","henry-be-NLF6hTe4PAg-unsplash.jpg","1","0","118","125","","","","","","","","","","","","","","","","","","","","","","","","","","","",""
"","choice_confirmation","","html-keyboard-response","96","462484","0.0-66.0-2.0-0.0","0","0","2dtBc","Scenes","","null","","","null","","","","10","125","118","","","","","","","","","","","","","","","","","","","","","","","","","","","","","","","","","","","","","",""
"","fixation","","html-keyboard-response","97","463492","0.0-67.0-0.0","0","0","2dtBc","Scenes","","null","","","null","","","","","","","","","","","","","","","","","","","","","","","","","","","","","","","","","","","","","","","","","","","",""
"","deliberation","","html-keyboard-response","98","464859","0.0-67.0-1.0","0","0","2dtBc","Scenes","","1366","","","68","","","","11","136","126","0","1","73","86","nicolas-jehly-LzVB84KkZOE-unsplash.jpg","jordan-mcqueen-PJCZOWuOxbU-unsplash.jpg","1","1","136","126","","","","","","","","","","","","","","","","","","","","","","","","","","","",""
"","choice_confirmation","","html-keyboard-response","99","465375","0.0-67.0-2.0-0.0","0","0","2dtBc","Scenes","","null","","","null","","","","11","136","126","","","","","","","","","","","","","","","","","","","","","","","","","","","","","","","","","","","","","",""
"","practice_deliberation_again","","html-keyboard-response","100","469387","0.0-67.0-6.0-0.0","0","0","2dtBc","Scenes","","4011","","","78","","","","","","","","","","","","","","","","","","","","","","","","","","","","","","","","","","","","","","","","","","","",""
"","fixation","","html-keyboard-response","101","470405","0.0-68.0-0.0","0","0","2dtBc","Scenes","","null","","","null","","","","","","","","","","","","","","","","","","","","","","","","","","","","","","","","","","","","","","","","","","","",""
"","deliberation","","html-keyboard-response","102","471739","0.0-68.0-1.0","0","0","2dtBc","Scenes","","1333","","","68","","","","12","130","111","0","1","90","85","lina-loos-04-C1NZk1hE-unsplash.jpg","claudio-testa-U3F2o6vz3bs-unsplash.jpg","2","1","130","111","","","","","","","","","","","","","","","","","","","","","","","","","","","",""
"","choice_confirmation","","html-keyboard-response","103","472248","0.0-68.0-2.0-0.0","0","0","2dtBc","Scenes","","null","","","null","","","","12","130","111","","","","","","","","","","","","","","","","","","","","","","","","","","","","","","","","","","","","","",""
"","fixation","","html-keyboard-response","104","473259","0.0-69.0-0.0","0","0","2dtBc","Scenes","","null","","","null","","","","","","","","","","","","","","","","","","","","","","","","","","","","","","","","","","","","","","","","","","","",""
"","deliberation","","html-keyboard-response","105","474258","0.0-69.0-1.0","0","0","2dtBc","Scenes","","998","","","68","","","","13","102","114","0","-1","90","72","anisur-rahman-K2b7UDed6uQ-unsplash.jpg","daniel-sessler-z_9VmsxR8hs-unsplash.jpg","2","1","102","114","","","","","","","","","","","","","","","","","","","","","","","","","","","",""
"","choice_confirmation","","html-keyboard-response","106","474777","0.0-69.0-2.0-0.0","0","0","2dtBc","Scenes","","null","","","null","","","","13","102","114","","","","","","","","","","","","","","","","","","","","","","","","","","","","","","","","","","","","","",""
"","fixation","","html-keyboard-response","107","475793","0.0-70.0-0.0","0","0","2dtBc","Scenes","","null","","","null","","","","","","","","","","","","","","","","","","","","","","","","","","","","","","","","","","","","","","","","","","","",""
"","deliberation","","html-keyboard-response","108","476707","0.0-70.0-1.0","0","0","2dtBc","Scenes","","913","","","68","","","","14","136","126","1","1","73","86","nicolas-jehly-LzVB84KkZOE-unsplash.jpg","jordan-mcqueen-PJCZOWuOxbU-unsplash.jpg","2","1","136","126","","","","","","","","","","","","","","","","","","","","","","","","","","","",""
"","choice_confirmation","","html-keyboard-response","109","477210","0.0-70.0-2.0-0.0","0","0","2dtBc","Scenes","","null","","","null","","","","14","136","126","","","","","","","","","","","","","","","","","","","","","","","","","","","","","","","","","","","","","",""
"","explain_trial","","survey-text","110","489988","0.0-70.0-5.0-0.0","0","0","2dtBc","Scenes","","12777","{""Q0"":""The sand dunes give me a real sense of adventure and wonder.""}","","","","","","14","136","126","","","","","","","","","","","{""Q0"":""The sand dunes give me a real sense of adventure and wonder.""}","","","","","","","","","","","","","","","","","","","","","","","","","","",""
"","fixation","","html-keyboard-response","111","491002","0.0-71.0-0.0","0","0","2dtBc","Scenes","","null","","","null","","","","","","","","","","","","","","","","","","","","","","","","","","","","","","","","","","","","","","","","","","","",""
"","deliberation","","html-keyboard-response","112","492698","0.0-71.0-1.0","0","0","2dtBc","Scenes","","1695","","","75","","","","15","123","113","1","-1","78","75","joel-jasmin-forestbird-efuwb5eBDrI-unsplash.jpg","damian-denis-D8R_txR_0PE-unsplash.jpg","2","0","113","123","","","","","","","","","","","","","","","","","","","","","","","","","","","",""
"","choice_confirmation","","html-keyboard-response","113","493215","0.0-71.0-2.0-0.0","0","0","2dtBc","Scenes","","null","","","null","","","","15","123","113","","","","","","","","","","","","","","","","","","","","","","","","","","","","","","","","","","","","","",""
"","explain_trial","","survey-text","114","518112","0.0-71.0-5.0-0.0","0","0","2dtBc","Scenes","","24896","{""Q0"":""The desert is spare and contrasting with the busy nature of the other pieces, I feel it's artistically pleasing.""}","","","","","","15","123","113","","","","","","","","","","","{""Q0"":""The desert is spare and contrasting with the busy nature of the other pieces, I feel it's artistically pleasing.""}","","","","","","","","","","","","","","","","","","","","","","","","","","",""
"","fixation","","html-keyboard-response","115","519119","0.0-72.0-0.0","0","0","2dtBc","Scenes","","null","","","null","","","","","","","","","","","","","","","","","","","","","","","","","","","","","","","","","","","","","","","","","","","",""
"","deliberation","","html-keyboard-response","116","520074","0.0-72.0-1.0","0","0","2dtBc","Scenes","","955","","","68","","","","16","124","129","0","-1","85","75","johannes-plenio-sPt5RIjKfpk-unsplash.jpg","kurt-cotoaga-cqbLg3lZEpk-unsplash.jpg","2","1","124","129","","","","","","","","","","","","","","","","","","","","","","","","","","","",""
"","choice_confirmation","","html-keyboard-response","117","520589","0.0-72.0-2.0-0.0","0","0","2dtBc","Scenes","","null","","","null","","","","16","124","129","","","","","","","","","","","","","","","","","","","","","","","","","","","","","","","","","","","","","",""
"","fixation","","html-keyboard-response","118","521595","0.0-73.0-0.0","0","0","2dtBc","Scenes","","null","","","null","","","","","","","","","","","","","","","","","","","","","","","","","","","","","","","","","","","","","","","","","","","",""
"","deliberation","","html-keyboard-response","119","522370","0.0-73.0-1.0","0","0","2dtBc","Scenes","","773","","","75","","","","17","133","149","0","-1","75","86","mickey-o-neil-xL66l--msXU-unsplash.jpg","yuriy-bogdanov-W51VK3Obcj0-unsplash.jpg","2","0","149","133","","","","","","","","","","","","","","","","","","","","","","","","","","","",""
"","choice_confirmation","","html-keyboard-response","120","522883","0.0-73.0-2.0-0.0","0","0","2dtBc","Scenes","","null","","","null","","","","17","133","149","","","","","","","","","","","","","","","","","","","","","","","","","","","","","","","","","","","","","",""
"","fixation","","html-keyboard-response","121","523899","0.0-74.0-0.0","0","0","2dtBc","Scenes","","null","","","null","","","","","","","","","","","","","","","","","","","","","","","","","","","","","","","","","","","","","","","","","","","",""
"","deliberation","","html-keyboard-response","122","525091","0.0-74.0-1.0","0","0","2dtBc","Scenes","","1191","","","75","","","","18","121","134","0","1","78","88","jean-pierre-brungs-qxCqkbF7tUc-unsplash.jpg","milada-vigerova-pQMM63GE7fo-unsplash.jpg","2","0","134","121","","","","","","","","","","","","","","","","","","","","","","","","","","","",""
"","choice_confirmation","","html-keyboard-response","123","525600","0.0-74.0-2.0-0.0","0","0","2dtBc","Scenes","","null","","","null","","","","18","121","134","","","","","","","","","","","","","","","","","","","","","","","","","","","","","","","","","","","","","",""
"","fixation","","html-keyboard-response","124","526607","0.0-75.0-0.0","0","0","2dtBc","Scenes","","null","","","null","","","","","","","","","","","","","","","","","","","","","","","","","","","","","","","","","","","","","","","","","","","",""
"","deliberation","","html-keyboard-response","125","528794","0.0-75.0-1.0","0","0","2dtBc","Scenes","","2187","","","68","","","","19","138","122","1","1","88","93","petr-vysohlid-9fqwGqGLUxc-unsplash.jpg","jeff-king-bJHWJeiHfHc-unsplash.jpg","2","1","138","122","","","","","","","","","","","","","","","","","","","","","","","","","","","",""
"","choice_confirmation","","html-keyboard-response","126","529303","0.0-75.0-2.0-0.0","0","0","2dtBc","Scenes","","null","","","null","","","","19","138","122","","","","","","","","","","","","","","","","","","","","","","","","","","","","","","","","","","","","","",""
"","explain_trial","","survey-text","127","548864","0.0-75.0-5.0-0.0","0","0","2dtBc","Scenes","","19559","{""Q0"":""The shore has a light to it that makes it hard to tell if it's sunrise or sunset, so I think someone would appreciate that mystery.""}","","","","","","19","138","122","","","","","","","","","","","{""Q0"":""The shore has a light to it that makes it hard to tell if it's sunrise or sunset, so I think someone would appreciate that mystery.""}","","","","","","","","","","","","","","","","","","","","","","","","","","",""
"","fixation","","html-keyboard-response","128","549868","0.0-76.0-0.0","0","0","2dtBc","Scenes","","null","","","null","","","","","","","","","","","","","","","","","","","","","","","","","","","","","","","","","","","","","","","","","","","",""
"","deliberation","","html-keyboard-response","129","551011","0.0-76.0-1.0","0","0","2dtBc","Scenes","","1140","","","75","","","","20","140","127","0","-1","94","85","samuele-errico-piccarini-JEBqFu2AOOA-unsplash.jpg","kace-rodriguez-p3OzJuT_Dks-unsplash.jpg","2","0","127","140","","","","","","","","","","","","","","","","","","","","","","","","","","","",""
"","choice_confirmation","","html-keyboard-response","130","551515","0.0-76.0-2.0-0.0","0","0","2dtBc","Scenes","","null","","","null","","","","20","140","127","","","","","","","","","","","","","","","","","","","","","","","","","","","","","","","","","","","","","",""
"","fixation","","html-keyboard-response","131","552531","0.0-77.0-0.0","0","0","2dtBc","Scenes","","null","","","null","","","","","","","","","","","","","","","","","","","","","","","","","","","","","","","","","","","","","","","","","","","",""
"","deliberation","","html-keyboard-response","132","554578","0.0-77.0-1.0","0","0","2dtBc","Scenes","","2045","","","75","","","","21","145","115","1","1","72","87","stephen-leonardi-gyIRjKPXupE-unsplash.jpg","darrell-cassell-hoCXpPUMCoE-unsplash.jpg","2","0","115","145","","","","","","","","","","","","","","","","","","","","","","","","","","","",""
"","choice_confirmation","","html-keyboard-response","133","555087","0.0-77.0-2.0-0.0","0","0","2dtBc","Scenes","","null","","","null","","","","21","145","115","","","","","","","","","","","","","","","","","","","","","","","","","","","","","","","","","","","","","",""
"","explain_trial","","survey-text","134","576700","0.0-77.0-5.0-0.0","0","0","2dtBc","Scenes","","21611","{""Q0"":""Ocean scenes are often sold for much more, and it'd make a great background to a phone if someone were thinking of that.""}","","","","","","21","145","115","","","","","","","","","","","{""Q0"":""Ocean scenes are often sold for much more, and it'd make a great background to a phone if someone were thinking of that.""}","","","","","","","","","","","","","","","","","","","","","","","","","","",""
"","fixation","","html-keyboard-response","135","577709","0.0-78.0-0.0","0","0","2dtBc","Scenes","","null","","","null","","","","","","","","","","","","","","","","","","","","","","","","","","","","","","","","","","","","","","","","","","","",""
"","deliberation","","html-keyboard-response","136","578930","0.0-78.0-1.0","0","0","2dtBc","Scenes","","1219","","","75","","","","22","125","118","1","-1","75","84","john-lee-oMneOBYhJxY-unsplash.jpg","henry-be-NLF6hTe4PAg-unsplash.jpg","2","0","118","125","","","","","","","","","","","","","","","","","","","","","","","","","","","",""
"","choice_confirmation","","html-keyboard-response","137","579444","0.0-78.0-2.0-0.0","0","0","2dtBc","Scenes","","null","","","null","","","","22","125","118","","","","","","","","","","","","","","","","","","","","","","","","","","","","","","","","","","","","","",""
"","explain_trial","","survey-text","138","600956","0.0-78.0-5.0-0.0","0","0","2dtBc","Scenes","","21511","{""Q0"":""The flowers are vibrant, and eye catching. They're wonderful, and I love them over the cold landscape in the other photo.""}","","","","","","22","125","118","","","","","","","","","","","{""Q0"":""The flowers are vibrant, and eye catching. They're wonderful, and I love them over the cold landscape in the other photo.""}","","","","","","","","","","","","","","","","","","","","","","","","","","",""
"","fixation","","html-keyboard-response","139","601965","0.0-79.0-0.0","0","0","2dtBc","Scenes","","null","","","null","","","","","","","","","","","","","","","","","","","","","","","","","","","","","","","","","","","","","","","","","","","",""
"","deliberation","","html-keyboard-response","140","605098","0.0-79.0-1.0","0","0","2dtBc","Scenes","","3133","","","68","","","","23","139","128","1","1","82","81","samsommer-vddccTqwal8-unsplash.jpg","karsten-wurth-jS0zC2PJ17A-unsplash.jpg","2","1","139","128","","","","","","","","","","","","","","","","","","","","","","","","","","","",""
"","choice_confirmation","","html-keyboard-response","141","605607","0.0-79.0-2.0-0.0","0","0","2dtBc","Scenes","","null","","","null","","","","23","139","128","","","","","","","","","","","","","","","","","","","","","","","","","","","","","","","","","","","","","",""
"","explain_trial","","survey-text","142","624595","0.0-79.0-5.0-0.0","0","0","2dtBc","Scenes","","18987","{""Q0"":""The mountains are mysterious and feel high above everything else. I like it more.""}","","","","","","23","139","128","","","","","","","","","","","{""Q0"":""The mountains are mysterious and feel high above everything else. I like it more.""}","","","","","","","","","","","","","","","","","","","","","","","","","","",""
"","start_critical_deliberation_block","","html-keyboard-response","143","627834","0.0-79.0-7.0-0.0","0","0","2dtBc","Scenes","","3237","","","78","","","","","","","","","","","","","","","","","","","","","","","","","","","","","","","","","","","","","","","","","","","",""
"","fixation","","html-keyboard-response","144","628857","0.0-80.0-0.0","0","0","2dtBc","Scenes","","null","","","null","","","","","","","","","","","","","","","","","","","","","","","","","","","","","","","","","","","","","","","","","","","",""
"","deliberation","","html-keyboard-response","145","629594","0.0-80.0-1.0","0","0","2dtBc","Scenes","","736","","","68","","","","24","124","129","0","-1","85","75","johannes-plenio-sPt5RIjKfpk-unsplash.jpg","kurt-cotoaga-cqbLg3lZEpk-unsplash.jpg","3","1","124","129","","","","","","","","","","","","","","","","","","","","","","","","","","","",""
"","choice_confirmation","","html-keyboard-response","146","630098","0.0-80.0-2.0-0.0","0","0","2dtBc","Scenes","","null","","","null","","","","24","124","129","","","","","","","","","","","","","","","","","","","","","","","","","","","","","","","","","","","","","",""
"","fixation","","html-keyboard-response","147","631115","0.0-81.0-0.0","0","0","2dtBc","Scenes","","null","","","null","","","","","","","","","","","","","","","","","","","","","","","","","","","","","","","","","","","","","","","","","","","",""
"","deliberation","","html-keyboard-response","148","632882","0.0-81.0-1.0","0","0","2dtBc","Scenes","","1766","","","68","","","","25","138","122","0","1","88","93","petr-vysohlid-9fqwGqGLUxc-unsplash.jpg","jeff-king-bJHWJeiHfHc-unsplash.jpg","3","1","138","122","","","","","","","","","","","","","","","","","","","","","","","","","","","",""
"","choice_confirmation","","html-keyboard-response","149","633384","0.0-81.0-2.0-0.0","0","0","2dtBc","Scenes","","null","","","null","","","","25","138","122","","","","","","","","","","","","","","","","","","","","","","","","","","","","","","","","","","","","","",""
"","fixation","","html-keyboard-response","150","634397","0.0-82.0-0.0","0","0","2dtBc","Scenes","","null","","","null","","","","","","","","","","","","","","","","","","","","","","","","","","","","","","","","","","","","","","","","","","","",""
"","deliberation","","html-keyboard-response","151","635474","0.0-82.0-1.0","0","0","2dtBc","Scenes","","1076","","","68","","","","26","139","128","0","1","82","81","samsommer-vddccTqwal8-unsplash.jpg","karsten-wurth-jS0zC2PJ17A-unsplash.jpg","3","1","139","128","","","","","","","","","","","","","","","","","","","","","","","","","","","",""
"","choice_confirmation","","html-keyboard-response","152","635978","0.0-82.0-2.0-0.0","0","0","2dtBc","Scenes","","null","","","null","","","","26","139","128","","","","","","","","","","","","","","","","","","","","","","","","","","","","","","","","","","","","","",""
"","fixation","","html-keyboard-response","153","636990","0.0-83.0-0.0","0","0","2dtBc","Scenes","","null","","","null","","","","","","","","","","","","","","","","","","","","","","","","","","","","","","","","","","","","","","","","","","","",""
"","deliberation","","html-keyboard-response","154","637842","0.0-83.0-1.0","0","0","2dtBc","Scenes","","850","","","75","","","","27","133","149","0","-1","75","86","mickey-o-neil-xL66l--msXU-unsplash.jpg","yuriy-bogdanov-W51VK3Obcj0-unsplash.jpg","3","0","149","133","","","","","","","","","","","","","","","","","","","","","","","","","","","",""
"","choice_confirmation","","html-keyboard-response","155","638347","0.0-83.0-2.0-0.0","0","0","2dtBc","Scenes","","null","","","null","","","","27","133","149","","","","","","","","","","","","","","","","","","","","","","","","","","","","","","","","","","","","","",""
"","fixation","","html-keyboard-response","156","639356","0.0-84.0-0.0","0","0","2dtBc","Scenes","","null","","","null","","","","","","","","","","","","","","","","","","","","","","","","","","","","","","","","","","","","","","","","","","","",""
"","deliberation","","html-keyboard-response","157","640026","0.0-84.0-1.0","0","0","2dtBc","Scenes","","669","","","75","","","","28","125","118","0","-1","75","84","john-lee-oMneOBYhJxY-unsplash.jpg","henry-be-NLF6hTe4PAg-unsplash.jpg","3","0","118","125","","","","","","","","","","","","","","","","","","","","","","","","","","","",""
"","choice_confirmation","","html-keyboard-response","158","640531","0.0-84.0-2.0-0.0","0","0","2dtBc","Scenes","","null","","","null","","","","28","125","118","","","","","","","","","","","","","","","","","","","","","","","","","","","","","","","","","","","","","",""
"","fixation","","html-keyboard-response","159","641543","0.0-85.0-0.0","0","0","2dtBc","Scenes","","null","","","null","","","","","","","","","","","","","","","","","","","","","","","","","","","","","","","","","","","","","","","","","","","",""
"","deliberation","","html-keyboard-response","160","642362","0.0-85.0-1.0","0","0","2dtBc","Scenes","","817","","","68","","","","29","102","114","0","-1","90","72","anisur-rahman-K2b7UDed6uQ-unsplash.jpg","daniel-sessler-z_9VmsxR8hs-unsplash.jpg","3","1","102","114","","","","","","","","","","","","","","","","","","","","","","","","","","","",""
"","choice_confirmation","","html-keyboard-response","161","642869","0.0-85.0-2.0-0.0","0","0","2dtBc","Scenes","","null","","","null","","","","29","102","114","","","","","","","","","","","","","","","","","","","","","","","","","","","","","","","","","","","","","",""
"","fixation","","html-keyboard-response","162","643880","0.0-86.0-0.0","0","0","2dtBc","Scenes","","null","","","null","","","","","","","","","","","","","","","","","","","","","","","","","","","","","","","","","","","","","","","","","","","",""
"","deliberation","","html-keyboard-response","163","644970","0.0-86.0-1.0","0","0","2dtBc","Scenes","","1090","","","75","","","","30","145","115","0","1","72","87","stephen-leonardi-gyIRjKPXupE-unsplash.jpg","darrell-cassell-hoCXpPUMCoE-unsplash.jpg","3","0","115","145","","","","","","","","","","","","","","","","","","","","","","","","","","","",""
"","choice_confirmation","","html-keyboard-response","164","645486","0.0-86.0-2.0-0.0","0","0","2dtBc","Scenes","","null","","","null","","","","30","145","115","","","","","","","","","","","","","","","","","","","","","","","","","","","","","","","","","","","","","",""
"","fixation","","html-keyboard-response","165","646498","0.0-87.0-0.0","0","0","2dtBc","Scenes","","null","","","null","","","","","","","","","","","","","","","","","","","","","","","","","","","","","","","","","","","","","","","","","","","",""
"","deliberation","","html-keyboard-response","166","647642","0.0-87.0-1.0","0","0","2dtBc","Scenes","","1144","","","75","","","","31","121","134","0","1","78","88","jean-pierre-brungs-qxCqkbF7tUc-unsplash.jpg","milada-vigerova-pQMM63GE7fo-unsplash.jpg","3","0","134","121","","","","","","","","","","","","","","","","","","","","","","","","","","","",""
"","choice_confirmation","","html-keyboard-response","167","648151","0.0-87.0-2.0-0.0","0","0","2dtBc","Scenes","","null","","","null","","","","31","121","134","","","","","","","","","","","","","","","","","","","","","","","","","","","","","","","","","","","","","",""
"","fixation","","html-keyboard-response","168","649164","0.0-88.0-0.0","0","0","2dtBc","Scenes","","null","","","null","","","","","","","","","","","","","","","","","","","","","","","","","","","","","","","","","","","","","","","","","","","",""
"","deliberation","","html-keyboard-response","169","650066","0.0-88.0-1.0","0","0","2dtBc","Scenes","","900","","","68","","","","32","136","126","0","1","73","86","nicolas-jehly-LzVB84KkZOE-unsplash.jpg","jordan-mcqueen-PJCZOWuOxbU-unsplash.jpg","3","1","136","126","","","","","","","","","","","","","","","","","","","","","","","","","","","",""
"","choice_confirmation","","html-keyboard-response","170","650577","0.0-88.0-2.0-0.0","0","0","2dtBc","Scenes","","null","","","null","","","","32","136","126","","","","","","","","","","","","","","","","","","","","","","","","","","","","","","","","","","","","","",""
"","fixation","","html-keyboard-response","171","651591","0.0-89.0-0.0","0","0","2dtBc","Scenes","","null","","","null","","","","","","","","","","","","","","","","","","","","","","","","","","","","","","","","","","","","","","","","","","","",""
"","deliberation","","html-keyboard-response","172","652658","0.0-89.0-1.0","0","0","2dtBc","Scenes","","1065","","","75","","","","33","140","127","0","-1","94","85","samuele-errico-piccarini-JEBqFu2AOOA-unsplash.jpg","kace-rodriguez-p3OzJuT_Dks-unsplash.jpg","3","0","127","140","","","","","","","","","","","","","","","","","","","","","","","","","","","",""
"","choice_confirmation","","html-keyboard-response","173","653174","0.0-89.0-2.0-0.0","0","0","2dtBc","Scenes","","null","","","null","","","","33","140","127","","","","","","","","","","","","","","","","","","","","","","","","","","","","","","","","","","","","","",""
"","fixation","","html-keyboard-response","174","654184","0.0-90.0-0.0","0","0","2dtBc","Scenes","","null","","","null","","","","","","","","","","","","","","","","","","","","","","","","","","","","","","","","","","","","","","","","","","","",""
"","deliberation","","html-keyboard-response","175","654994","0.0-90.0-1.0","0","0","2dtBc","Scenes","","809","","","75","","","","34","123","113","0","-1","78","75","joel-jasmin-forestbird-efuwb5eBDrI-unsplash.jpg","damian-denis-D8R_txR_0PE-unsplash.jpg","3","0","113","123","","","","","","","","","","","","","","","","","","","","","","","","","","","",""
"","choice_confirmation","","html-keyboard-response","176","655500","0.0-90.0-2.0-0.0","0","0","2dtBc","Scenes","","null","","","null","","","","34","123","113","","","","","","","","","","","","","","","","","","","","","","","","","","","","","","","","","","","","","",""
"","fixation","","html-keyboard-response","177","656509","0.0-91.0-0.0","0","0","2dtBc","Scenes","","null","","","null","","","","","","","","","","","","","","","","","","","","","","","","","","","","","","","","","","","","","","","","","","","",""
"","deliberation","","html-keyboard-response","178","657491","0.0-91.0-1.0","0","0","2dtBc","Scenes","","979","","","68","","","","35","130","111","0","1","90","85","lina-loos-04-C1NZk1hE-unsplash.jpg","claudio-testa-U3F2o6vz3bs-unsplash.jpg","3","1","130","111","","","","","","","","","","","","","","","","","","","","","","","","","","","",""
"","choice_confirmation","","html-keyboard-response","179","658008","0.0-91.0-2.0-0.0","0","0","2dtBc","Scenes","","null","","","null","","","","35","130","111","","","","","","","","","","","","","","","","","","","","","","","","","","","","","","","","","","","","","",""
"","reward_learning_instructions","","instructions","180","701458","0.0-92.0-0.0","0","0","2dtBc","Scenes","[{""page_index"":0,""viewing_time"":11735},{""page_index"":1,""viewing_time"":29764},{""page_index"":2,""viewing_time"":1950}]","43449","","","","","","","","","","","","","","","","","","","","","","","","","","","","","","","","","","","","","","","","","","","","","","",""
"","reward_comprehension_check","","survey-multi-choice","181","713534","0.0-92.0-1.0","0","0","2dtBc","Scenes","","12072","{""Q0"":""True"",""Q1"":""True"",""Q2"":""Press the space bar to see its outcome"",""Q3"":""Press the relevant key while the outcome is presented""}","0","","","","","","","","","","","","","","","","","","","","","","","","","","","","","","","","","","","","","","","","","","","","",""
"","start_phase","","html-keyboard-response","182","715474","0.0-93.0","0","0","2dtBc","Scenes","","1939","","","78","","","","","","","","","","","","","","","","","","","","","","","","","","","","","","","","","","","","","","","","","","","",""
"","fixation","","html-keyboard-response","183","716484","0.0-94.0","0","0","2dtBc","Scenes","","null","","","null","","","","","","","","","","","","","","","","","","","","","","","","","","","","","","","","","","","","","","","","","","","",""
"","see_reward","","html-keyboard-response","184","717914","0.0-95.0","0","0","2dtBc","Scenes","","1428","","","32","","139","","0","","","","1","","","","","1","","","","","155","1428","","","","","","","","","","","","","","","","","","","","","","","","",""
"","reward_outcome","","html-keyboard-response","185","719937","0.0-96.0","0","0","2dtBc","Scenes","","1055","","","38","","139","","0","","","","","","","","","","","","","","","","1","1055","","","","","","","","","","","","","","","","","","","","","","",""
"","fixation","","html-keyboard-response","186","720949","0.0-99.0","0","0","2dtBc","Scenes","","null","","","null","","","","","","","","","","","","","","","","","","","","","","","","","","","","","","","","","","","","","","","","","","","",""
"","see_reward","","html-keyboard-response","187","722195","0.0-100.0","0","0","2dtBc","Scenes","","1245","","","32","","127","","1","","","","-1","","","","","1","","","","","0","1245","","","","","","","","","","","","","","","","","","","","","","","","",""
"","reward_outcome","","html-keyboard-response","188","724203","0.0-101.0","0","0","2dtBc","Scenes","","983","","","40","","127","","1","","","","","","","","","","","","","","","","-1","983","","","","","","","","","","","","","","","","","","","","","","",""
"","fixation","","html-keyboard-response","189","725212","0.0-104.0","0","0","2dtBc","Scenes","","null","","","null","","","","","","","","","","","","","","","","","","","","","","","","","","","","","","","","","","","","","","","","","","","",""
"","see_reward","","html-keyboard-response","190","726162","0.0-105.0","0","0","2dtBc","Scenes","","949","","","32","","115","","2","","","","1","","","","","1","","","","","143","949","","","","","","","","","","","","","","","","","","","","","","","","",""
"","reward_outcome","","html-keyboard-response","191","728182","0.0-106.0","0","0","2dtBc","Scenes","","1062","","","38","","115","","2","","","","","","","","","","","","","","","","1","1062","","","","","","","","","","","","","","","","","","","","","","",""
"","fixation","","html-keyboard-response","192","729191","0.0-109.0","0","0","2dtBc","Scenes","","null","","","null","","","","","","","","","","","","","","","","","","","","","","","","","","","","","","","","","","","","","","","","","","","",""
"","see_reward","","html-keyboard-response","193","730362","0.0-110.0","0","0","2dtBc","Scenes","","1169","","","32","","113","","3","","","","-1","","","","","1","","","","","0","1169","","","","","","","","","","","","","","","","","","","","","","","","",""
"","reward_outcome","","html-keyboard-response","194","732383","0.0-111.0","0","0","2dtBc","Scenes","","927","","","40","","113","","3","","","","","","","","","","","","","","","","-1","927","","","","","","","","","","","","","","","","","","","","","","",""
"","fixation","","html-keyboard-response","195","733392","0.0-114.0","0","0","2dtBc","Scenes","","null","","","null","","","","","","","","","","","","","","","","","","","","","","","","","","","","","","","","","","","","","","","","","","","",""
"","see_reward","","html-keyboard-response","196","734362","0.0-115.0","0","0","2dtBc","Scenes","","969","","","32","","134","","4","","","","1","","","","","1","","","","","146","969","","","","","","","","","","","","","","","","","","","","","","","","",""
"","reward_outcome","","html-keyboard-response","197","736384","0.0-116.0","0","0","2dtBc","Scenes","","887","","","38","","134","","4","","","","","","","","","","","","","","","","1","887","","","","","","","","","","","","","","","","","","","","","","",""
"","fixation","","html-keyboard-response","198","737398","0.0-119.0","0","0","2dtBc","Scenes","","null","","","null","","","","","","","","","","","","","","","","","","","","","","","","","","","","","","","","","","","","","","","","","","","",""
"","see_reward","","html-keyboard-response","199","738411","0.0-120.0","0","0","2dtBc","Scenes","","1011","","","32","","115","","5","","","","1","","","","","1","","","","","143","1011","","","","","","","","","","","","","","","","","","","","","","","","",""
"","reward_outcome","","html-keyboard-response","200","740431","0.0-121.0","0","0","2dtBc","Scenes","","1366","","","38","","115","","5","","","","","","","","","","","","","","","","1","1366","","","","","","","","","","","","","","","","","","","","","","",""
"","fixation","","html-keyboard-response","201","741445","0.0-124.0","0","0","2dtBc","Scenes","","null","","","null","","","","","","","","","","","","","","","","","","","","","","","","","","","","","","","","","","","","","","","","","","","",""
"","see_reward","","html-keyboard-response","202","742626","0.0-125.0","0","0","2dtBc","Scenes","","1179","","","32","","124","","6","","","","-1","","","","","1","","","","","0","1179","","","","","","","","","","","","","","","","","","","","","","","","",""
"","reward_outcome","","html-keyboard-response","203","744637","0.0-126.0","0","0","2dtBc","Scenes","","1686","","","40","","124","","6","","","","","","","","","","","","","","","","-1","1686","","","","","","","","","","","","","","","","","","","","","","",""
"","fixation","","html-keyboard-response","204","745650","0.0-129.0","0","0","2dtBc","Scenes","","null","","","null","","","","","","","","","","","","","","","","","","","","","","","","","","","","","","","","","","","","","","","","","","","",""
"","see_reward","","html-keyboard-response","205","746394","0.0-130.0","0","0","2dtBc","Scenes","","744","","","32","","102","","7","","","","-1","","","","","1","","","","","0","744","","","","","","","","","","","","","","","","","","","","","","","","",""
"","reward_outcome","","html-keyboard-response","206","748402","0.0-131.0","0","0","2dtBc","Scenes","","1439","","","40","","102","","7","","","","","","","","","","","","","","","","-1","1439","","","","","","","","","","","","","","","","","","","","","","",""
"","fixation","","html-keyboard-response","207","749417","0.0-134.0","0","0","2dtBc","Scenes","","null","","","null","","","","","","","","","","","","","","","","","","","","","","","","","","","","","","","","","","","","","","","","","","","",""
"","see_reward","","html-keyboard-response","208","750106","0.0-135.0","0","0","2dtBc","Scenes","","688","","","32","","134","","8","","","","1","","","","","1","","","","","146","688","","","","","","","","","","","","","","","","","","","","","","","","",""
"","reward_outcome","","html-keyboard-response","209","752128","0.0-136.0","0","0","2dtBc","Scenes","","1751","","","38","","134","","8","","","","","","","","","","","","","","","","1","1751","","","","","","","","","","","","","","","","","","","","","","",""
"","fixation","","html-keyboard-response","210","753135","0.0-139.0","0","0","2dtBc","Scenes","","null","","","null","","","","","","","","","","","","","","","","","","","","","","","","","","","","","","","","","","","","","","","","","","","",""
"","see_reward","","html-keyboard-response","211","753931","0.0-140.0","0","0","2dtBc","Scenes","","794","","","32","","136","","9","","","","1","","","","","1","","","","","148","794","","","","","","","","","","","","","","","","","","","","","","","","",""
"","reward_outcome","","html-keyboard-response","212","755949","0.0-141.0","0","0","2dtBc","Scenes","","965","","","38","","136","","9","","","","","","","","","","","","","","","","1","965","","","","","","","","","","","","","","","","","","","","","","",""
"","fixation","","html-keyboard-response","213","756958","0.0-144.0","0","0","2dtBc","Scenes","","null","","","null","","","","","","","","","","","","","","","","","","","","","","","","","","","","","","","","","","","","","","","","","","","",""
"","see_reward","","html-keyboard-response","214","757674","0.0-145.0","0","0","2dtBc","Scenes","","714","","","32","","130","","10","","","","1","","","","","1","","","","","155","714","","","","","","","","","","","","","","","","","","","","","","","","",""
"","reward_outcome","","html-keyboard-response","215","759686","0.0-146.0","0","0","2dtBc","Scenes","","958","","","38","","130","","10","","","","","","","","","","","","","","","","1","958","","","","","","","","","","","","","","","","","","","","","","",""
"","fixation","","html-keyboard-response","216","760698","0.0-149.0","0","0","2dtBc","Scenes","","null","","","null","","","","","","","","","","","","","","","","","","","","","","","","","","","","","","","","","","","","","","","","","","","",""
"","see_reward","","html-keyboard-response","217","761307","0.0-150.0","0","0","2dtBc","Scenes","","608","","","32","","149","","11","","","","-1","","","","","1","","","","","0","608","","","","","","","","","","","","","","","","","","","","","","","","",""
"","reward_outcome","","html-keyboard-response","218","763316","0.0-151.0","0","0","2dtBc","Scenes","","943","","","40","","149","","11","","","","","","","","","","","","","","","","-1","943","","","","","","","","","","","","","","","","","","","","","","",""
"","fixation","","html-keyboard-response","219","764332","0.0-154.0","0","0","2dtBc","Scenes","","null","","","null","","","","","","","","","","","","","","","","","","","","","","","","","","","","","","","","","","","","","","","","","","","",""
"","see_reward","","html-keyboard-response","220","764818","0.0-155.0","0","0","2dtBc","Scenes","","486","","","32","","118","","12","","","","-1","","","","","1","","","","","0","486","","","","","","","","","","","","","","","","","","","","","","","","",""
"","reward_outcome","","html-keyboard-response","221","766835","0.0-156.0","0","0","2dtBc","Scenes","","1246","","","40","","118","","12","","","","","","","","","","","","","","","","-1","1246","","","","","","","","","","","","","","","","","","","","","","",""
"","fixation","","html-keyboard-response","222","767850","0.0-159.0","0","0","2dtBc","Scenes","","null","","","null","","","","","","","","","","","","","","","","","","","","","","","","","","","","","","","","","","","","","","","","","","","",""
"","see_reward","","html-keyboard-response","223","768570","0.0-160.0","0","0","2dtBc","Scenes","","719","","","32","","124","","13","","","","-1","","","","","1","","","","","0","719","","","","","","","","","","","","","","","","","","","","","","","","",""
"","reward_outcome","","html-keyboard-response","224","770585","0.0-161.0","0","0","2dtBc","Scenes","","768","","","40","","124","","13","","","","","","","","","","","","","","","","-1","768","","","","","","","","","","","","","","","","","","","","","","",""
"","fixation","","html-keyboard-response","225","771587","0.0-164.0","0","0","2dtBc","Scenes","","null","","","null","","","","","","","","","","","","","","","","","","","","","","","","","","","","","","","","","","","","","","","","","","","",""
"","see_reward","","html-keyboard-response","226","772538","0.0-165.0","0","0","2dtBc","Scenes","","950","","","32","","139","","14","","","","1","","","","","1","","","","","155","950","","","","","","","","","","","","","","","","","","","","","","","","",""
"","reward_outcome","","html-keyboard-response","227","774552","0.0-166.0","0","0","2dtBc","Scenes","","982","","","38","","139","","14","","","","","","","","","","","","","","","","1","982","","","","","","","","","","","","","","","","","","","","","","",""
"","fixation","","html-keyboard-response","228","775569","0.0-169.0","0","0","2dtBc","Scenes","","null","","","null","","","","","","","","","","","","","","","","","","","","","","","","","","","","","","","","","","","","","","","","","","","",""
"","see_reward","","html-keyboard-response","229","776250","0.0-170.0","0","0","2dtBc","Scenes","","681","","","32","","136","","15","","","","1","","","","","1","","","","","148","681","","","","","","","","","","","","","","","","","","","","","","","","",""
"","reward_outcome","","html-keyboard-response","230","778258","0.0-171.0","0","0","2dtBc","Scenes","","1094","","","38","","136","","15","","","","","","","","","","","","","","","","1","1094","","","","","","","","","","","","","","","","","","","","","","",""
"","fixation","","html-keyboard-response","231","779270","0.0-174.0","0","0","2dtBc","Scenes","","null","","","null","","","","","","","","","","","","","","","","","","","","","","","","","","","","","","","","","","","","","","","","","","","",""
"","see_reward","","html-keyboard-response","232","779842","0.0-175.0","0","0","2dtBc","Scenes","","570","","","32","","130","","16","","","","1","","","","","1","","","","","155","570","","","","","","","","","","","","","","","","","","","","","","","","",""
"","reward_outcome","","html-keyboard-response","233","781862","0.0-176.0","0","0","2dtBc","Scenes","","799","","","38","","130","","16","","","","","","","","","","","","","","","","1","799","","","","","","","","","","","","","","","","","","","","","","",""
"","fixation","","html-keyboard-response","234","782872","0.0-179.0","0","0","2dtBc","Scenes","","null","","","null","","","","","","","","","","","","","","","","","","","","","","","","","","","","","","","","","","","","","","","","","","","",""
"","see_reward","","html-keyboard-response","235","783121","0.0-180.0","0","0","2dtBc","Scenes","","248","","","32","","138","","17","","","","1","","","","","1","","","","","150","248","","","","","","","","","","","","","","","","","","","","","","","","",""
"","reward_outcome","","html-keyboard-response","236","785135","0.0-181.0","0","0","2dtBc","Scenes","","440","","","38","","138","","17","","","","","","","","","","","","","","","","1","440","","","","","","","","","","","","","","","","","","","","","","",""
"","fixation","","html-keyboard-response","237","786143","0.0-184.0","0","0","2dtBc","Scenes","","null","","","null","","","","","","","","","","","","","","","","","","","","","","","","","","","","","","","","","","","","","","","","","","","",""
"","see_reward","","html-keyboard-response","238","786602","0.0-185.0","0","0","2dtBc","Scenes","","458","","","32","","127","","18","","","","-1","","","","","1","","","","","0","458","","","","","","","","","","","","","","","","","","","","","","","","",""
"","reward_outcome","","html-keyboard-response","239","788619","0.0-186.0","0","0","2dtBc","Scenes","","423","","","40","","127","","18","","","","","","","","","","","","","","","","-1","423","","","","","","","","","","","","","","","","","","","","","","",""
"","fixation","","html-keyboard-response","240","789634","0.0-189.0","0","0","2dtBc","Scenes","","null","","","null","","","","","","","","","","","","","","","","","","","","","","","","","","","","","","","","","","","","","","","","","","","",""
"","see_reward","","html-keyboard-response","241","790594","0.0-190.0","0","0","2dtBc","Scenes","","958","","","32","","118","","19","","","","-1","","","","","1","","","","","0","958","","","","","","","","","","","","","","","","","","","","","","","","",""
"","reward_outcome","","html-keyboard-response","242","792603","0.0-191.0","0","0","2dtBc","Scenes","","727","","","40","","118","","19","","","","","","","","","","","","","","","","-1","727","","","","","","","","","","","","","","","","","","","","","","",""
"","fixation","","html-keyboard-response","243","793617","0.0-194.0","0","0","2dtBc","Scenes","","null","","","null","","","","","","","","","","","","","","","","","","","","","","","","","","","","","","","","","","","","","","","","","","","",""
"","see_reward","","html-keyboard-response","244","794194","0.0-195.0","0","0","2dtBc","Scenes","","576","","","32","","138","","20","","","","1","","","","","1","","","","","150","576","","","","","","","","","","","","","","","","","","","","","","","","",""
"","reward_outcome","","html-keyboard-response","245","796196","0.0-196.0","0","0","2dtBc","Scenes","","662","","","38","","138","","20","","","","","","","","","","","","","","","","1","662","","","","","","","","","","","","","","","","","","","","","","",""
"","fixation","","html-keyboard-response","246","797217","0.0-199.0","0","0","2dtBc","Scenes","","null","","","null","","","","","","","","","","","","","","","","","","","","","","","","","","","","","","","","","","","","","","","","","","","",""
"","see_reward","","html-keyboard-response","247","797706","0.0-200.0","0","0","2dtBc","Scenes","","488","","","32","","113","","21","","","","-1","","","","","1","","","","","0","488","","","","","","","","","","","","","","","","","","","","","","","","",""
"","reward_outcome","","html-keyboard-response","248","799714","0.0-201.0","0","0","2dtBc","Scenes","","559","","","40","","113","","21","","","","","","","","","","","","","","","","-1","559","","","","","","","","","","","","","","","","","","","","","","",""
"","fixation","","html-keyboard-response","249","800722","0.0-204.0","0","0","2dtBc","Scenes","","null","","","null","","","","","","","","","","","","","","","","","","","","","","","","","","","","","","","","","","","","","","","","","","","",""
"","see_reward","","html-keyboard-response","250","801113","0.0-205.0","0","0","2dtBc","Scenes","","391","","","32","","102","","22","","","","-1","","","","","1","","","","","0","391","","","","","","","","","","","","","","","","","","","","","","","","",""
"","reward_outcome","","html-keyboard-response","251","803133","0.0-206.0","0","0","2dtBc","Scenes","","759","","","40","","102","","22","","","","","","","","","","","","","","","","-1","759","","","","","","","","","","","","","","","","","","","","","","",""
"","fixation","","html-keyboard-response","252","804139","0.0-209.0","0","0","2dtBc","Scenes","","null","","","null","","","","","","","","","","","","","","","","","","","","","","","","","","","","","","","","","","","","","","","","","","","",""
"","see_reward","","html-keyboard-response","253","804649","0.0-210.0","0","0","2dtBc","Scenes","","508","","","32","","149","","23","","","","-1","","","","","1","","","","","0","508","","","","","","","","","","","","","","","","","","","","","","","","",""
"","reward_outcome","","html-keyboard-response","254","806667","0.0-211.0","0","0","2dtBc","Scenes","","919","","","40","","149","","23","","","","","","","","","","","","","","","","-1","919","","","","","","","","","","","","","","","","","","","","","","",""
"","block_over","","html-keyboard-response","255","809098","0.0-213.0-0.0","0","0","2dtBc","Scenes","","2430","","","78","","","","","","","","","","","","","","","","","","","","","","","","","","","","","","","","","","","","","","","","","","","",""
"","fixation","","html-keyboard-response","256","810107","0.0-214.0","0","0","2dtBc","Scenes","","null","","","null","","","","","","","","","","","","","","","","","","","","","","","","","","","","","","","","","","","","","","","","","","","",""
"","see_reward","","html-keyboard-response","257","810978","0.0-215.0","0","0","2dtBc","Scenes","","870","","","32","","115","","24","","","","1","","","","","2","","","","","143","870","","","","","","","","","","","","","","","","","","","","","","","","",""
"","reward_outcome","","html-keyboard-response","258","812989","0.0-216.0","0","0","2dtBc","Scenes","","831","","","38","","115","","24","","","","","","","","","","","","","","","","1","831","","","","","","","","","","","","","","","","","","","","","","",""
"","fixation","","html-keyboard-response","259","814009","0.0-219.0","0","0","2dtBc","Scenes","","null","","","null","","","","","","","","","","","","","","","","","","","","","","","","","","","","","","","","","","","","","","","","","","","",""
"","see_reward","","html-keyboard-response","260","814482","0.0-220.0","0","0","2dtBc","Scenes","","471","","","32","","124","","25","","","","-1","","","","","2","","","","","0","471","","","","","","","","","","","","","","","","","","","","","","","","",""
"","reward_outcome","","html-keyboard-response","261","816498","0.0-221.0","0","0","2dtBc","Scenes","","846","","","40","","124","","25","","","","","","","","","","","","","","","","-1","846","","","","","","","","","","","","","","","","","","","","","","",""
"","fixation","","html-keyboard-response","262","817509","0.0-224.0","0","0","2dtBc","Scenes","","null","","","null","","","","","","","","","","","","","","","","","","","","","","","","","","","","","","","","","","","","","","","","","","","",""
"","see_reward","","html-keyboard-response","263","817842","0.0-225.0","0","0","2dtBc","Scenes","","332","","","32","","149","","26","","","","-1","","","","","2","","","","","0","332","","","","","","","","","","","","","","","","","","","","","","","","",""
"","reward_outcome","","html-keyboard-response","264","819851","0.0-226.0","0","0","2dtBc","Scenes","","734","","","40","","149","","26","","","","","","","","","","","","","","","","-1","734","","","","","","","","","","","","","","","","","","","","","","",""
"","fixation","","html-keyboard-response","265","820868","0.0-229.0","0","0","2dtBc","Scenes","","null","","","null","","","","","","","","","","","","","","","","","","","","","","","","","","","","","","","","","","","","","","","","","","","",""
"","see_reward","","html-keyboard-response","266","821194","0.0-230.0","0","0","2dtBc","Scenes","","325","","","32","","138","","27","","","","1","","","","","2","","","","","150","325","","","","","","","","","","","","","","","","","","","","","","","","",""
"","reward_outcome","","html-keyboard-response","267","823214","0.0-231.0","0","0","2dtBc","Scenes","","559","","","38","","138","","27","","","","","","","","","","","","","","","","1","559","","","","","","","","","","","","","","","","","","","","","","",""
"","fixation","","html-keyboard-response","268","824220","0.0-234.0","0","0","2dtBc","Scenes","","null","","","null","","","","","","","","","","","","","","","","","","","","","","","","","","","","","","","","","","","","","","","","","","","",""
"","see_reward","","html-keyboard-response","269","824561","0.0-235.0","0","0","2dtBc","Scenes","","340","","","32","","124","","28","","","","-1","","","","","2","","","","","0","340","","","","","","","","","","","","","","","","","","","","","","","","",""
"","reward_outcome","","html-keyboard-response","270","826574","0.0-236.0","0","0","2dtBc","Scenes","","551","","","40","","124","","28","","","","","","","","","","","","","","","","-1","551","","","","","","","","","","","","","","","","","","","","","","",""
"","fixation","","html-keyboard-response","271","827589","0.0-239.0","0","0","2dtBc","Scenes","","null","","","null","","","","","","","","","","","","","","","","","","","","","","","","","","","","","","","","","","","","","","","","","","","",""
"","see_reward","","html-keyboard-response","272","828130","0.0-240.0","0","0","2dtBc","Scenes","","539","","","32","","102","","29","","","","-1","","","","","2","","","","","0","539","","","","","","","","","","","","","","","","","","","","","","","","",""
"","reward_outcome","","html-keyboard-response","273","830152","0.0-241.0","0","0","2dtBc","Scenes","","752","","","40","","102","","29","","","","","","","","","","","","","","","","-1","752","","","","","","","","","","","","","","","","","","","","","","",""
"","fixation","","html-keyboard-response","274","831163","0.0-244.0","0","0","2dtBc","Scenes","","null","","","null","","","","","","","","","","","","","","","","","","","","","","","","","","","","","","","","","","","","","","","","","","","",""
"","see_reward","","html-keyboard-response","275","831474","0.0-245.0","0","0","2dtBc","Scenes","","309","","","32","","130","","30","","","","1","","","","","2","","","","","155","309","","","","","","","","","","","","","","","","","","","","","","","","",""
"","reward_outcome","","html-keyboard-response","276","833486","0.0-246.0","0","0","2dtBc","Scenes","","1816","","","38","","130","","30","","","","","","","","","","","","","","","","1","1816","","","","","","","","","","","","","","","","","","","","","","",""
"","fixation","","html-keyboard-response","277","834502","0.0-249.0","0","0","2dtBc","Scenes","","null","","","null","","","","","","","","","","","","","","","","","","","","","","","","","","","","","","","","","","","","","","","","","","","",""
"","see_reward","","html-keyboard-response","278","835114","0.0-250.0","0","0","2dtBc","Scenes","","611","","","32","","136","","31","","","","1","","","","","2","","","","","148","611","","","","","","","","","","","","","","","","","","","","","","","","",""
"","reward_outcome","","html-keyboard-response","279","837120","0.0-251.0","0","0","2dtBc","Scenes","","935","","","38","","136","","31","","","","","","","","","","","","","","","","1","935","","","","","","","","","","","","","","","","","","","","","","",""
"","fixation","","html-keyboard-response","280","838137","0.0-254.0","0","0","2dtBc","Scenes","","null","","","null","","","","","","","","","","","","","","","","","","","","","","","","","","","","","","","","","","","","","","","","","","","",""
"","see_reward","","html-keyboard-response","281","838522","0.0-255.0","0","0","2dtBc","Scenes","","384","","","32","","130","","32","","","","1","","","","","2","","","","","155","384","","","","","","","","","","","","","","","","","","","","","","","","",""
"","reward_outcome","","html-keyboard-response","282","840537","0.0-256.0","0","0","2dtBc","Scenes","","655","","","38","","130","","32","","","","","","","","","","","","","","","","1","655","","","","","","","","","","","","","","","","","","","","","","",""
"","fixation","","html-keyboard-response","283","841546","0.0-259.0","0","0","2dtBc","Scenes","","null","","","null","","","","","","","","","","","","","","","","","","","","","","","","","","","","","","","","","","","","","","","","","","","",""
"","see_reward","","html-keyboard-response","284","841898","0.0-260.0","0","0","2dtBc","Scenes","","350","","","32","","118","","33","","","","-1","","","","","2","","","","","0","350","","","","","","","","","","","","","","","","","","","","","","","","",""
"","reward_outcome","","html-keyboard-response","285","843909","0.0-261.0","0","0","2dtBc","Scenes","","742","","","40","","118","","33","","","","","","","","","","","","","","","","-1","742","","","","","","","","","","","","","","","","","","","","","","",""
"","fixation","","html-keyboard-response","286","844914","0.0-264.0","0","0","2dtBc","Scenes","","null","","","null","","","","","","","","","","","","","","","","","","","","","","","","","","","","","","","","","","","","","","","","","","","",""
"","see_reward","","html-keyboard-response","287","845249","0.0-265.0","0","0","2dtBc","Scenes","","335","","","32","","134","","34","","","","1","","","","","2","","","","","146","335","","","","","","","","","","","","","","","","","","","","","","","","",""
"","reward_outcome","","html-keyboard-response","288","847263","0.0-266.0","0","0","2dtBc","Scenes","","632","","","38","","134","","34","","","","","","","","","","","","","","","","1","632","","","","","","","","","","","","","","","","","","","","","","",""
"","fixation","","html-keyboard-response","289","848278","0.0-269.0","0","0","2dtBc","Scenes","","null","","","null","","","","","","","","","","","","","","","","","","","","","","","","","","","","","","","","","","","","","","","","","","","",""
"","see_reward","","html-keyboard-response","290","848970","0.0-270.0","0","0","2dtBc","Scenes","","690","","","32","","138","","35","","","","1","","","","","2","","","","","150","690","","","","","","","","","","","","","","","","","","","","","","","","",""
"","reward_outcome","","html-keyboard-response","291","850993","0.0-271.0","0","0","2dtBc","Scenes","","511","","","38","","138","","35","","","","","","","","","","","","","","","","1","511","","","","","","","","","","","","","","","","","","","","","","",""
"","fixation","","html-keyboard-response","292","852005","0.0-274.0","0","0","2dtBc","Scenes","","null","","","null","","","","","","","","","","","","","","","","","","","","","","","","","","","","","","","","","","","","","","","","","","","",""
"","see_reward","","html-keyboard-response","293","852337","0.0-275.0","0","0","2dtBc","Scenes","","331","","","32","","134","","36","","","","1","","","","","2","","","","","146","331","","","","","","","","","","","","","","","","","","","","","","","","",""
"","reward_outcome","","html-keyboard-response","294","854353","0.0-276.0","0","0","2dtBc","Scenes","","703","","","38","","134","","36","","","","","","","","","","","","","","","","1","703","","","","","","","","","","","","","","","","","","","","","","",""
"","fixation","","html-keyboard-response","295","855363","0.0-279.0","0","0","2dtBc","Scenes","","null","","","null","","","","","","","","","","","","","","","","","","","","","","","","","","","","","","","","","","","","","","","","","","","",""
"","see_reward","","html-keyboard-response","296","855474","0.0-280.0","0","0","2dtBc","Scenes","","109","","","32","","102","","37","","","","-1","","","","","2","","","","","0","109","","","","","","","","","","","","","","","","","","","","","","","","",""
"","reward_outcome","","html-keyboard-response","297","857485","0.0-281.0","0","0","2dtBc","Scenes","","775","","","40","","102","","37","","","","","","","","","","","","","","","","-1","775","","","","","","","","","","","","","","","","","","","","","","",""
"","fixation","","html-keyboard-response","298","858489","0.0-284.0","0","0","2dtBc","Scenes","","null","","","null","","","","","","","","","","","","","","","","","","","","","","","","","","","","","","","","","","","","","","","","","","","",""
"","see_reward","","html-keyboard-response","299","858938","0.0-285.0","0","0","2dtBc","Scenes","","447","","","32","","149","","38","","","","-1","","","","","2","","","","","0","447","","","","","","","","","","","","","","","","","","","","","","","","",""
"","reward_outcome","","html-keyboard-response","300","860954","0.0-286.0","0","0","2dtBc","Scenes","","815","","","40","","149","","38","","","","","","","","","","","","","","","","-1","815","","","","","","","","","","","","","","","","","","","","","","",""
"","fixation","","html-keyboard-response","301","861968","0.0-289.0","0","0","2dtBc","Scenes","","null","","","null","","","","","","","","","","","","","","","","","","","","","","","","","","","","","","","","","","","","","","","","","","","",""
"","see_reward","","html-keyboard-response","302","862282","0.0-290.0","0","0","2dtBc","Scenes","","312","","","32","","113","","39","","","","-1","","","","","2","","","","","0","312","","","","","","","","","","","","","","","","","","","","","","","","",""
"","reward_outcome","","html-keyboard-response","303","864301","0.0-291.0","0","0","2dtBc","Scenes","","1124","","","40","","113","","39","","","","","","","","","","","","","","","","-1","1124","","","","","","","","","","","","","","","","","","","","","","",""
"","fixation","","html-keyboard-response","304","865311","0.0-294.0","0","0","2dtBc","Scenes","","null","","","null","","","","","","","","","","","","","","","","","","","","","","","","","","","","","","","","","","","","","","","","","","","",""
"","see_reward","","html-keyboard-response","305","865602","0.0-295.0","0","0","2dtBc","Scenes","","290","","","32","","115","","40","","","","1","","","","","2","","","","","143","290","","","","","","","","","","","","","","","","","","","","","","","","",""
"","reward_outcome","","html-keyboard-response","306","867614","0.0-296.0","0","0","2dtBc","Scenes","","998","","","38","","115","","40","","","","","","","","","","","","","","","","1","998","","","","","","","","","","","","","","","","","","","","","","",""
"","fixation","","html-keyboard-response","307","868620","0.0-299.0","0","0","2dtBc","Scenes","","null","","","null","","","","","","","","","","","","","","","","","","","","","","","","","","","","","","","","","","","","","","","","","","","",""
"","see_reward","","html-keyboard-response","308","868986","0.0-300.0","0","0","2dtBc","Scenes","","364","","","32","","127","","41","","","","-1","","","","","2","","","","","0","364","","","","","","","","","","","","","","","","","","","","","","","","",""
"","reward_outcome","","html-keyboard-response","309","870999","0.0-301.0","0","0","2dtBc","Scenes","","1014","","","40","","127","","41","","","","","","","","","","","","","","","","-1","1014","","","","","","","","","","","","","","","","","","","","","","",""
"","fixation","","html-keyboard-response","310","872006","0.0-304.0","0","0","2dtBc","Scenes","","null","","","null","","","","","","","","","","","","","","","","","","","","","","","","","","","","","","","","","","","","","","","","","","","",""
"","see_reward","","html-keyboard-response","311","872426","0.0-305.0","0","0","2dtBc","Scenes","","419","","","32","","113","","42","","","","-1","","","","","2","","","","","0","419","","","","","","","","","","","","","","","","","","","","","","","","",""
"","reward_outcome","","html-keyboard-response","312","874436","0.0-306.0","0","0","2dtBc","Scenes","","758","","","40","","113","","42","","","","","","","","","","","","","","","","-1","758","","","","","","","","","","","","","","","","","","","","","","",""
"","fixation","","html-keyboard-response","313","875450","0.0-309.0","0","0","2dtBc","Scenes","","null","","","null","","","","","","","","","","","","","","","","","","","","","","","","","","","","","","","","","","","","","","","","","","","",""
"","see_reward","","html-keyboard-response","314","875866","0.0-310.0","0","0","2dtBc","Scenes","","415","","","32","","139","","43","","","","1","","","","","2","","","","","155","415","","","","","","","","","","","","","","","","","","","","","","","","",""
"","reward_outcome","","html-keyboard-response","315","877867","0.0-311.0","0","0","2dtBc","Scenes","","885","","","38","","139","","43","","","","","","","","","","","","","","","","1","885","","","","","","","","","","","","","","","","","","","","","","",""
"","fixation","","html-keyboard-response","316","878879","0.0-314.0","0","0","2dtBc","Scenes","","null","","","null","","","","","","","","","","","","","","","","","","","","","","","","","","","","","","","","","","","","","","","","","","","",""
"","see_reward","","html-keyboard-response","317","879329","0.0-315.0","0","0","2dtBc","Scenes","","449","","","32","","118","","44","","","","-1","","","","","2","","","","","0","449","","","","","","","","","","","","","","","","","","","","","","","","",""
"","reward_outcome","","html-keyboard-response","318","881343","0.0-316.0","0","0","2dtBc","Scenes","","607","","","40","","118","","44","","","","","","","","","","","","","","","","-1","607","","","","","","","","","","","","","","","","","","","","","","",""
"","fixation","","html-keyboard-response","319","882356","0.0-319.0","0","0","2dtBc","Scenes","","null","","","null","","","","","","","","","","","","","","","","","","","","","","","","","","","","","","","","","","","","","","","","","","","",""
"","see_reward","","html-keyboard-response","320","882705","0.0-320.0","0","0","2dtBc","Scenes","","349","","","32","","136","","45","","","","1","","","","","2","","","","","148","349","","","","","","","","","","","","","","","","","","","","","","","","",""
"","reward_outcome","","html-keyboard-response","321","884713","0.0-321.0","0","0","2dtBc","Scenes","","855","","","38","","136","","45","","","","","","","","","","","","","","","","1","855","","","","","","","","","","","","","","","","","","","","","","",""
"","fixation","","html-keyboard-response","322","885733","0.0-324.0","0","0","2dtBc","Scenes","","null","","","null","","","","","","","","","","","","","","","","","","","","","","","","","","","","","","","","","","","","","","","","","","","",""
"","see_reward","","html-keyboard-response","323","886018","0.0-325.0","0","0","2dtBc","Scenes","","284","","","32","","139","","46","","","","1","","","","","2","","","","","155","284","","","","","","","","","","","","","","","","","","","","","","","","",""
"","reward_outcome","","html-keyboard-response","324","888026","0.0-326.0","0","0","2dtBc","Scenes","","623","","","38","","139","","46","","","","","","","","","","","","","","","","1","623","","","","","","","","","","","","","","","","","","","","","","",""
"","fixation","","html-keyboard-response","325","889043","0.0-329.0","0","0","2dtBc","Scenes","","null","","","null","","","","","","","","","","","","","","","","","","","","","","","","","","","","","","","","","","","","","","","","","","","",""
"","see_reward","","html-keyboard-response","326","889585","0.0-330.0","0","0","2dtBc","Scenes","","541","","","32","","127","","47","","","","-1","","","","","2","","","","","0","541","","","","","","","","","","","","","","","","","","","","","","","","",""
"","reward_outcome","","html-keyboard-response","327","891603","0.0-331.0","0","0","2dtBc","Scenes","","631","","","40","","127","","47","","","","","","","","","","","","","","","","-1","631","","","","","","","","","","","","","","","","","","","","","","",""
"","block_over","","html-keyboard-response","328","893378","0.0-333.0-0.0","0","0","2dtBc","Scenes","","1774","","","78","","","","","","","","","","","","","","","","","","","","","","","","","","","","","","","","","","","","","","","","","","","",""
"","fixation","","html-keyboard-response","329","894393","0.0-334.0","0","0","2dtBc","Scenes","","null","","","null","","","","","","","","","","","","","","","","","","","","","","","","","","","","","","","","","","","","","","","","","","","",""
"","see_reward","","html-keyboard-response","330","895113","0.0-335.0","0","0","2dtBc","Scenes","","718","","","32","","115","","48","","","","1","","","","","3","","","","","143","718","","","","","","","","","","","","","","","","","","","","","","","","",""
"","reward_outcome","","html-keyboard-response","331","897121","0.0-336.0","0","0","2dtBc","Scenes","","535","","","38","","115","","48","","","","","","","","","","","","","","","","1","535","","","","","","","","","","","","","","","","","","","","","","",""
"","fixation","","html-keyboard-response","332","898133","0.0-339.0","0","0","2dtBc","Scenes","","null","","","null","","","","","","","","","","","","","","","","","","","","","","","","","","","","","","","","","","","","","","","","","","","",""
"","see_reward","","html-keyboard-response","333","898825","0.0-340.0","0","0","2dtBc","Scenes","","691","","","32","","102","","49","","","","-1","","","","","3","","","","","0","691","","","","","","","","","","","","","","","","","","","","","","","","",""
"","reward_outcome","","html-keyboard-response","334","900833","0.0-341.0","0","0","2dtBc","Scenes","","519","","","40","","102","","49","","","","","","","","","","","","","","","","-1","519","","","","","","","","","","","","","","","","","","","","","","",""
"","fixation","","html-keyboard-response","335","901845","0.0-344.0","0","0","2dtBc","Scenes","","null","","","null","","","","","","","","","","","","","","","","","","","","","","","","","","","","","","","","","","","","","","","","","","","",""
"","see_reward","","html-keyboard-response","336","901922","0.0-345.0","0","0","2dtBc","Scenes","","75","","","32","","102","","50","","","","-1","","","","","3","","","","","0","75","","","","","","","","","","","","","","","","","","","","","","","","",""
"","reward_outcome","","html-keyboard-response","337","903942","0.0-346.0","0","0","2dtBc","Scenes","","855","","","40","","102","","50","","","","","","","","","","","","","","","","-1","855","","","","","","","","","","","","","","","","","","","","","","",""
"","fixation","","html-keyboard-response","338","904949","0.0-349.0","0","0","2dtBc","Scenes","","null","","","null","","","","","","","","","","","","","","","","","","","","","","","","","","","","","","","","","","","","","","","","","","","",""
"","see_reward","","html-keyboard-response","339","905265","0.0-350.0","0","0","2dtBc","Scenes","","316","","","32","","118","","51","","","","-1","","","","","3","","","","","0","316","","","","","","","","","","","","","","","","","","","","","","","","",""
"","reward_outcome","","html-keyboard-response","340","907283","0.0-351.0","0","0","2dtBc","Scenes","","655","","","40","","118","","51","","","","","","","","","","","","","","","","-1","655","","","","","","","","","","","","","","","","","","","","","","",""
"","fixation","","html-keyboard-response","341","908292","0.0-354.0","0","0","2dtBc","Scenes","","null","","","null","","","","","","","","","","","","","","","","","","","","","","","","","","","","","","","","","","","","","","","","","","","",""
"","see_reward","","html-keyboard-response","342","908690","0.0-355.0","0","0","2dtBc","Scenes","","396","","","32","","127","","52","","","","-1","","","","","3","","","","","0","396","","","","","","","","","","","","","","","","","","","","","","","","",""
"","reward_outcome","","html-keyboard-response","343","910698","0.0-356.0","0","0","2dtBc","Scenes","","910","","","40","","127","","52","","","","","","","","","","","","","","","","-1","910","","","","","","","","","","","","","","","","","","","","","","",""
"","fixation","","html-keyboard-response","344","911715","0.0-359.0","0","0","2dtBc","Scenes","","null","","","null","","","","","","","","","","","","","","","","","","","","","","","","","","","","","","","","","","","","","","","","","","","",""
"","see_reward","","html-keyboard-response","345","912161","0.0-360.0","0","0","2dtBc","Scenes","","446","","","32","","149","","53","","","","-1","","","","","3","","","","","0","446","","","","","","","","","","","","","","","","","","","","","","","","",""
"","reward_outcome","","html-keyboard-response","346","914176","0.0-361.0","0","0","2dtBc","Scenes","","487","","","40","","149","","53","","","","","","","","","","","","","","","","-1","487","","","","","","","","","","","","","","","","","","","","","","",""
"","fixation","","html-keyboard-response","347","915201","0.0-364.0","0","0","2dtBc","Scenes","","null","","","null","","","","","","","","","","","","","","","","","","","","","","","","","","","","","","","","","","","","","","","","","","","",""
"","see_reward","","html-keyboard-response","348","915498","0.0-365.0","0","0","2dtBc","Scenes","","296","","","32","","149","","54","","","","-1","","","","","3","","","","","0","296","","","","","","","","","","","","","","","","","","","","","","","","",""
"","reward_outcome","","html-keyboard-response","349","917506","0.0-366.0","0","0","2dtBc","Scenes","","663","","","40","","149","","54","","","","","","","","","","","","","","","","-1","663","","","","","","","","","","","","","","","","","","","","","","",""
