"success","ttype","start_time","trial_type","trial_index","time_elapsed","internal_node_id","warning","missed_checkup","PID","stim_type","view_history","rt","responses","repeat_instructions","key_press","response","stimulus_id","painting","index","stimulus_left","stimulus_right","explain_trial","reward_type","rating_left","rating_right","painting_left","painting_right","block","left_chosen","chosen_obj","unchosen_obj","explain_response","reward_amount","see_reward_rt","register_reward_response","register_reward_rt","deliberation_reward_tally","stimulus_left_deliberation_ind","stimulus_right_deliberation_ind","chosen_trial","gain_left","higher_outcome_chosen","old_pair","chosen_object","rt_pairs","left_object_chosen","rt_object","old_response","new_rating","deliberated_stim","initial_rating","outcome_eval_rt","outcome_eval_response","outcome_eval_gain","outcome_eval_acc","preamble","outcome_eval_confidence","outcome_eval_confidence_rt","total_reward_tally"
"true","full_screen","d01192023hr2059","fullscreen","0","54227","0.0-0.0","0","0","CdjSZ","Scenes","","","","","","","","","","","","","","","","","","","","","","","","","","","","","","","","","","","","","","","","","","","","","","","","",""
"","rating_instructions","","instructions","1","62037","0.0-1.0-0.0","0","0","CdjSZ","Scenes","[{""page_index"":0,""viewing_time"":5627},{""page_index"":1,""viewing_time"":2182}]","7809","","","","","","","","","","","","","","","","","","","","","","","","","","","","","","","","","","","","","","","","","","","","","","",""
"","rating_comprehension_check","","survey-multi-choice","2","66502","0.0-1.0-1.0","0","0","CdjSZ","Scenes","","4463","{""Q0"":""True"",""Q1"":""Mouse""}","0","","","","","","","","","","","","","","","","","","","","","","","","","","","","","","","","","","","","","","","","","","","","",""
"","start_phase","","html-keyboard-response","3","69332","0.0-2.0","0","0","CdjSZ","Scenes","","2828","","","78","","","","","","","","","","","","","","","","","","","","","","","","","","","","","","","","","","","","","","","","","","","",""
"","rating","","html-slider-response","4","74909","0.0-3.0","0","0","CdjSZ","Scenes","","5575","","","","75","148","tom-gainor-ZqLeQDjY6fY-unsplash.jpg","0","","","","","","","","","","","","","","","","","","","","","","","","","","","","","","","","","","","","","","","",""
"","rating","","html-slider-response","5","81031","0.0-4.0","0","0","CdjSZ","Scenes","","6120","","","","98","125","john-lee-oMneOBYhJxY-unsplash.jpg","1","","","","","","","","","","","","","","","","","","","","","","","","","","","","","","","","","","","","","","","",""
"","rating","","html-slider-response","6","84363","0.0-5.0","0","0","CdjSZ","Scenes","","3331","","","","95","134","milada-vigerova-pQMM63GE7fo-unsplash.jpg","2","","","","","","","","","","","","","","","","","","","","","","","","","","","","","","","","","","","","","","","",""
"","rating","","html-slider-response","7","87786","0.0-6.0","0","0","CdjSZ","Scenes","","3422","","","","100","103","anton-darius-FBJugtbHsWU-unsplash.jpg","3","","","","","","","","","","","","","","","","","","","","","","","","","","","","","","","","","","","","","","","",""
"","rating","","html-slider-response","8","91833","0.0-7.0","0","0","CdjSZ","Scenes","","4045","","","","57","108","benjamin-voros-phIFdC6lA4E-unsplash.jpg","4","","","","","","","","","","","","","","","","","","","","","","","","","","","","","","","","","","","","","","","",""
"","rating","","html-slider-response","9","94208","0.0-8.0","0","0","CdjSZ","Scenes","","2374","","","","44","123","joel-jasmin-forestbird-efuwb5eBDrI-unsplash.jpg","5","","","","","","","","","","","","","","","","","","","","","","","","","","","","","","","","","","","","","","","",""
"","rating","","html-slider-response","10","96597","0.0-9.0","0","0","CdjSZ","Scenes","","2388","","","","69","139","samsommer-vddccTqwal8-unsplash.jpg","6","","","","","","","","","","","","","","","","","","","","","","","","","","","","","","","","","","","","","","","",""
"","rating","","html-slider-response","11","99376","0.0-10.0","0","0","CdjSZ","Scenes","","2777","","","","86","105","ashim-d-silva-S2Q5mdOrrVc-unsplash.jpg","7","","","","","","","","","","","","","","","","","","","","","","","","","","","","","","","","","","","","","","","",""
"","rating","","html-slider-response","12","103131","0.0-11.0","0","0","CdjSZ","Scenes","","3753","","","","64","112","cosmic-timetraveler-pYyOZ8q7AII-unsplash.jpg","8","","","","","","","","","","","","","","","","","","","","","","","","","","","","","","","","","","","","","","","",""
"","rating","","html-slider-response","13","107064","0.0-12.0","0","0","CdjSZ","Scenes","","3932","","","","40","135","mohammad-alizade-4wzRuAb-KWs-unsplash.jpg","9","","","","","","","","","","","","","","","","","","","","","","","","","","","","","","","","","","","","","","","",""
"","rating","","html-slider-response","14","111118","0.0-13.0","0","0","CdjSZ","Scenes","","4054","","","","77","120","jarrett-kow-1ZOyYPOBn7I-unsplash.jpg","10","","","","","","","","","","","","","","","","","","","","","","","","","","","","","","","","","","","","","","","",""
"","rating","","html-slider-response","15","113998","0.0-14.0","0","0","CdjSZ","Scenes","","2879","","","","38","138","petr-vysohlid-9fqwGqGLUxc-unsplash.jpg","11","","","","","","","","","","","","","","","","","","","","","","","","","","","","","","","","","","","","","","","",""
"","rating","","html-slider-response","16","116259","0.0-15.0","0","0","CdjSZ","Scenes","","2260","","","","100","113","damian-denis-D8R_txR_0PE-unsplash.jpg","12","","","","","","","","","","","","","","","","","","","","","","","","","","","","","","","","","","","","","","","",""
"","rating","","html-slider-response","17","120362","0.0-16.0","0","0","CdjSZ","Scenes","","4101","","","","68","119","james-wheeler-AFC0XvICMgs-unsplash.jpg","13","","","","","","","","","","","","","","","","","","","","","","","","","","","","","","","","","","","","","","","",""
"","rating","","html-slider-response","18","125383","0.0-17.0","0","0","CdjSZ","Scenes","","5020","","","","89","101","aniket-deole-T-tOgjWZ0fQ-unsplash.jpg","14","","","","","","","","","","","","","","","","","","","","","","","","","","","","","","","","","","","","","","","",""
"","rating","","html-slider-response","19","130738","0.0-18.0","0","0","CdjSZ","Scenes","","5354","","","","92","131","luca-bravo-hFzIoD0F_i8-unsplash.jpg","15","","","","","","","","","","","","","","","","","","","","","","","","","","","","","","","","","","","","","","","",""
"","rating","","html-slider-response","20","133826","0.0-19.0","0","0","CdjSZ","Scenes","","3087","","","","100","137","olga-stalska-QaWRyEdlffY-unsplash.jpg","16","","","","","","","","","","","","","","","","","","","","","","","","","","","","","","","","","","","","","","","",""
"","rating","","html-slider-response","21","137185","0.0-20.0","0","0","CdjSZ","Scenes","","3357","","","","92","110","bruno-van-der-kraan-qez8mNJ3ilU-unsplash.jpg","17","","","","","","","","","","","","","","","","","","","","","","","","","","","","","","","","","","","","","","","",""
"","rating","","html-slider-response","22","140659","0.0-21.0","0","0","CdjSZ","Scenes","","3473","","","","38","109","brigitta-schneiter-hXXRLtTxXCU-unsplash.jpg","18","","","","","","","","","","","","","","","","","","","","","","","","","","","","","","","","","","","","","","","",""
"","rating","","html-slider-response","23","144625","0.0-22.0","0","0","CdjSZ","Scenes","","3964","","","","47","116","david-marcu-W5MhJ6cy1So-unsplash.jpg","19","","","","","","","","","","","","","","","","","","","","","","","","","","","","","","","","","","","","","","","",""
"","rating","","html-slider-response","24","147378","0.0-23.0","0","0","CdjSZ","Scenes","","2753","","","","46","149","yuriy-bogdanov-W51VK3Obcj0-unsplash.jpg","20","","","","","","","","","","","","","","","","","","","","","","","","","","","","","","","","","","","","","","","",""
"","rating","","html-slider-response","25","149925","0.0-24.0","0","0","CdjSZ","Scenes","","2545","","","","61","132","meng-ji-8BH_M-53CyA-unsplash.jpg","21","","","","","","","","","","","","","","","","","","","","","","","","","","","","","","","","","","","","","","","",""
"","rating","","html-slider-response","26","154255","0.0-25.0","0","0","CdjSZ","Scenes","","4328","","","","33","106","ashim-d-silva-WeYamle9fDM-unsplash.jpg","22","","","","","","","","","","","","","","","","","","","","","","","","","","","","","","","","","","","","","","","",""
"","rating","","html-slider-response","27","157424","0.0-26.0","0","0","CdjSZ","Scenes","","3168","","","","25","117","frank-mckenna-OD9EOzfSOh0-unsplash.jpg","23","","","","","","","","","","","","","","","","","","","","","","","","","","","","","","","","","","","","","","","",""
"","rating","","html-slider-response","28","163584","0.0-27.0","0","0","CdjSZ","Scenes","","6158","","","","22","142","sergey-pesterev-y-b_FOmJXdg-unsplash.jpg","24","","","","","","","","","","","","","","","","","","","","","","","","","","","","","","","","","","","","","","","",""
"","rating","","html-slider-response","29","166790","0.0-28.0","0","0","CdjSZ","Scenes","","3204","","","","62","122","jeff-king-bJHWJeiHfHc-unsplash.jpg","25","","","","","","","","","","","","","","","","","","","","","","","","","","","","","","","","","","","","","","","",""
"","rating","","html-slider-response","30","170730","0.0-29.0","0","0","CdjSZ","Scenes","","3939","","","","29","104","artem-sapegin-XGDBdSQ70O0-unsplash.jpg","26","","","","","","","","","","","","","","","","","","","","","","","","","","","","","","","","","","","","","","","",""
"","rating","","html-slider-response","31","173107","0.0-30.0","0","0","CdjSZ","Scenes","","2377","","","","20","126","jordan-mcqueen-PJCZOWuOxbU-unsplash.jpg","27","","","","","","","","","","","","","","","","","","","","","","","","","","","","","","","","","","","","","","","",""
"","rating","","html-slider-response","32","176823","0.0-31.0","0","0","CdjSZ","Scenes","","3714","","","","34","118","henry-be-NLF6hTe4PAg-unsplash.jpg","28","","","","","","","","","","","","","","","","","","","","","","","","","","","","","","","","","","","","","","","",""
"","rating","","html-slider-response","33","179803","0.0-32.0","0","0","CdjSZ","Scenes","","2979","","","","65","145","stephen-leonardi-gyIRjKPXupE-unsplash.jpg","29","","","","","","","","","","","","","","","","","","","","","","","","","","","","","","","","","","","","","","","",""
"","rating","","html-slider-response","34","182920","0.0-33.0","0","0","CdjSZ","Scenes","","3116","","","","75","102","anisur-rahman-K2b7UDed6uQ-unsplash.jpg","30","","","","","","","","","","","","","","","","","","","","","","","","","","","","","","","","","","","","","","","",""
"","rating","","html-slider-response","35","185936","0.0-34.0","0","0","CdjSZ","Scenes","","3014","","","","60","129","kurt-cotoaga-cqbLg3lZEpk-unsplash.jpg","31","","","","","","","","","","","","","","","","","","","","","","","","","","","","","","","","","","","","","","","",""
"","rating","","html-slider-response","36","191344","0.0-35.0","0","0","CdjSZ","Scenes","","5407","","","","76","130","lina-loos-04-C1NZk1hE-unsplash.jpg","32","","","","","","","","","","","","","","","","","","","","","","","","","","","","","","","","","","","","","","","",""
"","rating","","html-slider-response","37","195583","0.0-36.0","0","0","CdjSZ","Scenes","","4237","","","","0","141","sebastian-unrau-v4e3JI7DDHI-unsplash.jpg","33","","","","","","","","","","","","","","","","","","","","","","","","","","","","","","","","","","","","","","","",""
"","rating","","html-slider-response","38","200634","0.0-37.0","0","0","CdjSZ","Scenes","","5049","","","","81","140","samuele-errico-piccarini-JEBqFu2AOOA-unsplash.jpg","34","","","","","","","","","","","","","","","","","","","","","","","","","","","","","","","","","","","","","","","",""
"","rating","","html-slider-response","39","203730","0.0-38.0","0","0","CdjSZ","Scenes","","3095","","","","41","107","benjamin-davies-Zm2n2O7Fph4-unsplash.jpg","35","","","","","","","","","","","","","","","","","","","","","","","","","","","","","","","","","","","","","","","",""
"","rating","","html-slider-response","40","205613","0.0-39.0","0","0","CdjSZ","Scenes","","1881","","","","100","143","sigurdur-fjalar-jonsson-1KxBabIntpE-unsplash.jpg","36","","","","","","","","","","","","","","","","","","","","","","","","","","","","","","","","","","","","","","","",""
"","rating","","html-slider-response","41","208879","0.0-40.0","0","0","CdjSZ","Scenes","","3265","","","","93","128","karsten-wurth-jS0zC2PJ17A-unsplash.jpg","37","","","","","","","","","","","","","","","","","","","","","","","","","","","","","","","","","","","","","","","",""
"","rating","","html-slider-response","42","213156","0.0-41.0","0","0","CdjSZ","Scenes","","4277","","","","72","133","mickey-o-neil-xL66l--msXU-unsplash.jpg","38","","","","","","","","","","","","","","","","","","","","","","","","","","","","","","","","","","","","","","","",""
"","rating","","html-slider-response","43","216204","0.0-42.0","0","0","CdjSZ","Scenes","","3046","","","","24","111","claudio-testa-U3F2o6vz3bs-unsplash.jpg","39","","","","","","","","","","","","","","","","","","","","","","","","","","","","","","","","","","","","","","","",""
"","rating","","html-slider-response","44","221610","0.0-43.0","0","0","CdjSZ","Scenes","","5405","","","","9","121","jean-pierre-brungs-qxCqkbF7tUc-unsplash.jpg","40","","","","","","","","","","","","","","","","","","","","","","","","","","","","","","","","","","","","","","","",""
"","rating","","html-slider-response","45","228056","0.0-44.0","0","0","CdjSZ","Scenes","","6444","","","","36","147","tobias-keller-73F4pKoUkM0-unsplash.jpg","41","","","","","","","","","","","","","","","","","","","","","","","","","","","","","","","","","","","","","","","",""
"","rating","","html-slider-response","46","231330","0.0-45.0","0","0","CdjSZ","Scenes","","3274","","","","66","136","nicolas-jehly-LzVB84KkZOE-unsplash.jpg","42","","","","","","","","","","","","","","","","","","","","","","","","","","","","","","","","","","","","","","","",""
"","rating","","html-slider-response","47","233612","0.0-46.0","0","0","CdjSZ","Scenes","","2281","","","","22","144","solotravelgoals-7kLufxYoqWk-unsplash.jpg","43","","","","","","","","","","","","","","","","","","","","","","","","","","","","","","","","","","","","","","","",""
"","rating","","html-slider-response","48","238897","0.0-47.0","0","0","CdjSZ","Scenes","","5283","","","","43","124","johannes-plenio-sPt5RIjKfpk-unsplash.jpg","44","","","","","","","","","","","","","","","","","","","","","","","","","","","","","","","","","","","","","","","",""
"","rating","","html-slider-response","49","241140","0.0-48.0","0","0","CdjSZ","Scenes","","2243","","","","78","115","darrell-cassell-hoCXpPUMCoE-unsplash.jpg","45","","","","","","","","","","","","","","","","","","","","","","","","","","","","","","","","","","","","","","","",""
"","rating","","html-slider-response","50","241298","0.0-49.0","0","0","CdjSZ","Scenes","","155","","","","50","100","aleksandra-boguslawska-MS7KD9Ti7FQ-unsplash.jpg","46","","","","","","","","","","","","","","","","","","","","","","","","","","","","","","","","","","","","","","","",""
"","rating","","html-slider-response","51","245184","0.0-50.0","0","0","CdjSZ","Scenes","","3885","","","","73","114","daniel-sessler-z_9VmsxR8hs-unsplash.jpg","47","","","","","","","","","","","","","","","","","","","","","","","","","","","","","","","","","","","","","","","",""
"","rating","","html-slider-response","52","250340","0.0-51.0","0","0","CdjSZ","Scenes","","5154","","","","93","127","kace-rodriguez-p3OzJuT_Dks-unsplash.jpg","48","","","","","","","","","","","","","","","","","","","","","","","","","","","","","","","","","","","","","","","",""
"","rating","","html-slider-response","53","254090","0.0-52.0","0","0","CdjSZ","Scenes","","3748","","","","33","146","thomas-morse-cuKKa0vWZSY-unsplash.jpg","49","","","","","","","","","","","","","","","","","","","","","","","","","","","","","","","","","","","","","","","",""
"","deliberation_instructions","","instructions","54","317539","0.0-53.0-0.0","0","0","CdjSZ","Scenes","[{""page_index"":0,""viewing_time"":15562},{""page_index"":1,""viewing_time"":12723},{""page_index"":2,""viewing_time"":13948},{""page_index"":3,""viewing_time"":19298},{""page_index"":4,""viewing_time"":1915}]","63446","","","","","","","","","","","","","","","","","","","","","","","","","","","","","","","","","","","","","","","","","","","","","","",""
"","deliberation_comprehension_check","","survey-multi-choice","55","341264","0.0-53.0-1.0","0","0","CdjSZ","Scenes","","23723","{""Q0"":""True"",""Q1"":""True"",""Q2"":""Consider carefully and take your time (up to 10 seconds)"",""Q3"":""True"",""Q4"":""D""}","0","","","","","","","","","","","","","","","","","","","","","","","","","","","","","","","","","","","","","","","","","","","","",""
"","start_phase","","html-keyboard-response","56","346354","0.0-54.0","0","0","CdjSZ","Scenes","","5088","","","78","","","","","","","","","","","","","","","","","","","","","","","","","","","","","","","","","","","","","","","","","","","",""
"","first_deliberation_block","","html-keyboard-response","57","348249","0.0-55.0","0","0","CdjSZ","Scenes","","1894","","","78","","","","","","","","","","","","","","","","","","","","","","","","","","","","","","","","","","","","","","","","","","","",""
"","fixation","","html-keyboard-response","58","349251","0.0-56.0-0.0","0","0","CdjSZ","Scenes","","null","","","null","","","","","","","","","","","","","","","","","","","","","","","","","","","","","","","","","","","","","","","","","","","",""
"","deliberation","","html-keyboard-response","59","351120","0.0-56.0-1.0","0","0","CdjSZ","Scenes","","1867","","","68","","","","0","132","135","0","1","61","40","meng-ji-8BH_M-53CyA-unsplash.jpg","mohammad-alizade-4wzRuAb-KWs-unsplash.jpg","1","1","132","135","","","","","","","","","","","","","","","","","","","","","","","","","","","",""
"","choice_confirmation","","html-keyboard-response","60","351631","0.0-56.0-2.0-0.0","0","0","CdjSZ","Scenes","","null","","","null","","","","0","132","135","","","","","","","","","","","","","","","","","","","","","","","","","","","","","","","","","","","","","",""
"","fixation","","html-keyboard-response","61","352636","0.0-57.0-0.0","0","0","CdjSZ","Scenes","","null","","","null","","","","","","","","","","","","","","","","","","","","","","","","","","","","","","","","","","","","","","","","","","","",""
"","deliberation","","html-keyboard-response","62","354832","0.0-57.0-1.0","0","0","CdjSZ","Scenes","","2195","","","75","","","","1","102","108","1","-1","75","57","anisur-rahman-K2b7UDed6uQ-unsplash.jpg","benjamin-voros-phIFdC6lA4E-unsplash.jpg","1","0","108","102","","","","","","","","","","","","","","","","","","","","","","","","","","","",""
"","choice_confirmation","","html-keyboard-response","63","355340","0.0-57.0-2.0-0.0","0","0","CdjSZ","Scenes","","null","","","null","","","","1","102","108","","","","","","","","","","","","","","","","","","","","","","","","","","","","","","","","","","","","","",""
"","explain_trial","","survey-text","64","376932","0.0-57.0-5.0-0.0","0","0","CdjSZ","Scenes","","21591","{""Q0"":""The setting looks harder to capture on film.""}","","","","","","1","102","108","","","","","","","","","","","{""Q0"":""The setting looks harder to capture on film.""}","","","","","","","","","","","","","","","","","","","","","","","","","","",""
"","fixation","","html-keyboard-response","65","377947","0.0-58.0-0.0","0","0","CdjSZ","Scenes","","null","","","null","","","","","","","","","","","","","","","","","","","","","","","","","","","","","","","","","","","","","","","","","","","",""
"","deliberation","","html-keyboard-response","66","379843","0.0-58.0-1.0","0","0","CdjSZ","Scenes","","1894","","","68","","","","2","129","100","1","1","60","50","kurt-cotoaga-cqbLg3lZEpk-unsplash.jpg","aleksandra-boguslawska-MS7KD9Ti7FQ-unsplash.jpg","1","1","129","100","","","","","","","","","","","","","","","","","","","","","","","","","","","",""
"","choice_confirmation","","html-keyboard-response","67","380356","0.0-58.0-2.0-0.0","0","0","CdjSZ","Scenes","","null","","","null","","","","2","129","100","","","","","","","","","","","","","","","","","","","","","","","","","","","","","","","","","","","","","",""
"","explain_trial","","survey-text","68","410549","0.0-58.0-5.0-0.0","0","0","CdjSZ","Scenes","","30192","{""Q0"":""The mountains at sunset look nicer than the boardwalk.""}","","","","","","2","129","100","","","","","","","","","","","{""Q0"":""The mountains at sunset look nicer than the boardwalk.""}","","","","","","","","","","","","","","","","","","","","","","","","","","",""
"","fixation","","html-keyboard-response","69","411554","0.0-59.0-0.0","0","0","CdjSZ","Scenes","","null","","","null","","","","","","","","","","","","","","","","","","","","","","","","","","","","","","","","","","","","","","","","","","","",""
"","deliberation","","html-keyboard-response","70","414291","0.0-59.0-1.0","0","0","CdjSZ","Scenes","","2737","","","68","","","","3","115","148","0","1","78","75","darrell-cassell-hoCXpPUMCoE-unsplash.jpg","tom-gainor-ZqLeQDjY6fY-unsplash.jpg","1","1","115","148","","","","","","","","","","","","","","","","","","","","","","","","","","","",""
"","choice_confirmation","","html-keyboard-response","71","414801","0.0-59.0-2.0-0.0","0","0","CdjSZ","Scenes","","null","","","null","","","","3","115","148","","","","","","","","","","","","","","","","","","","","","","","","","","","","","","","","","","","","","",""
"","fixation","","html-keyboard-response","72","415812","0.0-60.0-0.0","0","0","CdjSZ","Scenes","","null","","","null","","","","","","","","","","","","","","","","","","","","","","","","","","","","","","","","","","","","","","","","","","","",""
"","deliberation","","html-keyboard-response","73","419057","0.0-60.0-1.0","0","0","CdjSZ","Scenes","","3243","","","75","","","","4","124","109","1","1","43","38","johannes-plenio-sPt5RIjKfpk-unsplash.jpg","brigitta-schneiter-hXXRLtTxXCU-unsplash.jpg","1","0","109","124","","","","","","","","","","","","","","","","","","","","","","","","","","","",""
"","choice_confirmation","","html-keyboard-response","74","419572","0.0-60.0-2.0-0.0","0","0","CdjSZ","Scenes","","null","","","null","","","","4","124","109","","","","","","","","","","","","","","","","","","","","","","","","","","","","","","","","","","","","","",""
"","explain_trial","","survey-text","75","454597","0.0-60.0-5.0-0.0","0","0","CdjSZ","Scenes","","35024","{""Q0"":""The symmetry and time of day are better.""}","","","","","","4","124","109","","","","","","","","","","","{""Q0"":""The symmetry and time of day are better.""}","","","","","","","","","","","","","","","","","","","","","","","","","","",""
"","fixation","","html-keyboard-response","76","455608","0.0-61.0-0.0","0","0","CdjSZ","Scenes","","null","","","null","","","","","","","","","","","","","","","","","","","","","","","","","","","","","","","","","","","","","","","","","","","",""
"","deliberation","","html-keyboard-response","77","457389","0.0-61.0-1.0","0","0","CdjSZ","Scenes","","1780","","","75","","","","5","112","122","0","1","64","62","cosmic-timetraveler-pYyOZ8q7AII-unsplash.jpg","jeff-king-bJHWJeiHfHc-unsplash.jpg","1","0","122","112","","","","","","","","","","","","","","","","","","","","","","","","","","","",""
"","choice_confirmation","","html-keyboard-response","78","457892","0.0-61.0-2.0-0.0","0","0","CdjSZ","Scenes","","null","","","null","","","","5","112","122","","","","","","","","","","","","","","","","","","","","","","","","","","","","","","","","","","","","","",""
"","fixation","","html-keyboard-response","79","458898","0.0-62.0-0.0","0","0","CdjSZ","Scenes","","null","","","null","","","","","","","","","","","","","","","","","","","","","","","","","","","","","","","","","","","","","","","","","","","",""
"","deliberation","","html-keyboard-response","80","460864","0.0-62.0-1.0","0","0","CdjSZ","Scenes","","1965","","","68","","","","6","116","130","0","-1","47","76","david-marcu-W5MhJ6cy1So-unsplash.jpg","lina-loos-04-C1NZk1hE-unsplash.jpg","1","1","116","130","","","","","","","","","","","","","","","","","","","","","","","","","","","",""
"","choice_confirmation","","html-keyboard-response","81","461376","0.0-62.0-2.0-0.0","0","0","CdjSZ","Scenes","","null","","","null","","","","6","116","130","","","","","","","","","","","","","","","","","","","","","","","","","","","","","","","","","","","","","",""
"","fixation","","html-keyboard-response","82","462389","0.0-63.0-0.0","0","0","CdjSZ","Scenes","","null","","","null","","","","","","","","","","","","","","","","","","","","","","","","","","","","","","","","","","","","","","","","","","","",""
"","deliberation","","html-keyboard-response","83","463939","0.0-63.0-1.0","0","0","CdjSZ","Scenes","","1549","","","75","","","","7","145","136","1","-1","65","66","stephen-leonardi-gyIRjKPXupE-unsplash.jpg","nicolas-jehly-LzVB84KkZOE-unsplash.jpg","1","0","136","145","","","","","","","","","","","","","","","","","","","","","","","","","","","",""
"","choice_confirmation","","html-keyboard-response","84","464446","0.0-63.0-2.0-0.0","0","0","CdjSZ","Scenes","","null","","","null","","","","7","145","136","","","","","","","","","","","","","","","","","","","","","","","","","","","","","","","","","","","","","",""
"","explain_trial","","survey-text","85","484037","0.0-63.0-5.0-0.0","0","0","CdjSZ","Scenes","","19590","{""Q0"":""The sun is awe inspiring in size.""}","","","","","","7","145","136","","","","","","","","","","","{""Q0"":""The sun is awe inspiring in size.""}","","","","","","","","","","","","","","","","","","","","","","","","","","",""
"","fixation","","html-keyboard-response","86","485039","0.0-64.0-0.0","0","0","CdjSZ","Scenes","","null","","","null","","","","","","","","","","","","","","","","","","","","","","","","","","","","","","","","","","","","","","","","","","","",""
"","deliberation","","html-keyboard-response","87","487149","0.0-64.0-1.0","0","0","CdjSZ","Scenes","","2109","","","75","","","","8","149","139","0","1","46","69","yuriy-bogdanov-W51VK3Obcj0-unsplash.jpg","samsommer-vddccTqwal8-unsplash.jpg","1","0","139","149","","","","","","","","","","","","","","","","","","","","","","","","","","","",""
"","choice_confirmation","","html-keyboard-response","88","487656","0.0-64.0-2.0-0.0","0","0","CdjSZ","Scenes","","null","","","null","","","","8","149","139","","","","","","","","","","","","","","","","","","","","","","","","","","","","","","","","","","","","","",""
"","fixation","","html-keyboard-response","89","488669","0.0-65.0-0.0","0","0","CdjSZ","Scenes","","null","","","null","","","","","","","","","","","","","","","","","","","","","","","","","","","","","","","","","","","","","","","","","","","",""
"","deliberation","","html-keyboard-response","90","490113","0.0-65.0-1.0","0","0","CdjSZ","Scenes","","1443","","","75","","","","9","119","114","1","-1","68","73","james-wheeler-AFC0XvICMgs-unsplash.jpg","daniel-sessler-z_9VmsxR8hs-unsplash.jpg","1","0","114","119","","","","","","","","","","","","","","","","","","","","","","","","","","","",""
"","choice_confirmation","","html-keyboard-response","91","490616","0.0-65.0-2.0-0.0","0","0","CdjSZ","Scenes","","null","","","null","","","","9","119","114","","","","","","","","","","","","","","","","","","","","","","","","","","","","","","","","","","","","","",""
"","explain_trial","","survey-text","92","514755","0.0-65.0-5.0-0.0","0","0","CdjSZ","Scenes","","24137","{""Q0"":""It reminds me of home, but also adventure.""}","","","","","","9","119","114","","","","","","","","","","","{""Q0"":""It reminds me of home, but also adventure.""}","","","","","","","","","","","","","","","","","","","","","","","","","","",""
"","fixation","","html-keyboard-response","93","515770","0.0-66.0-0.0","0","0","CdjSZ","Scenes","","null","","","null","","","","","","","","","","","","","","","","","","","","","","","","","","","","","","","","","","","","","","","","","","","",""
"","deliberation","","html-keyboard-response","94","517707","0.0-66.0-1.0","0","0","CdjSZ","Scenes","","1936","","","75","","","","10","107","120","1","-1","41","77","benjamin-davies-Zm2n2O7Fph4-unsplash.jpg","jarrett-kow-1ZOyYPOBn7I-unsplash.jpg","1","0","120","107","","","","","","","","","","","","","","","","","","","","","","","","","","","",""
"","choice_confirmation","","html-keyboard-response","95","518216","0.0-66.0-2.0-0.0","0","0","CdjSZ","Scenes","","null","","","null","","","","10","107","120","","","","","","","","","","","","","","","","","","","","","","","","","","","","","","","","","","","","","",""
"","explain_trial","","survey-text","96","527906","0.0-66.0-5.0-0.0","0","0","CdjSZ","Scenes","","9689","{""Q0"":""The colors pop out a lot.""}","","","","","","10","107","120","","","","","","","","","","","{""Q0"":""The colors pop out a lot.""}","","","","","","","","","","","","","","","","","","","","","","","","","","",""
"","fixation","","html-keyboard-response","97","528915","0.0-67.0-0.0","0","0","CdjSZ","Scenes","","null","","","null","","","","","","","","","","","","","","","","","","","","","","","","","","","","","","","","","","","","","","","","","","","",""
"","deliberation","","html-keyboard-response","98","530858","0.0-67.0-1.0","0","0","CdjSZ","Scenes","","1942","","","75","","","","11","123","133","0","-1","44","72","joel-jasmin-forestbird-efuwb5eBDrI-unsplash.jpg","mickey-o-neil-xL66l--msXU-unsplash.jpg","1","0","133","123","","","","","","","","","","","","","","","","","","","","","","","","","","","",""
"","choice_confirmation","","html-keyboard-response","99","531369","0.0-67.0-2.0-0.0","0","0","CdjSZ","Scenes","","null","","","null","","","","11","123","133","","","","","","","","","","","","","","","","","","","","","","","","","","","","","","","","","","","","","",""
"","practice_deliberation_again","","html-keyboard-response","100","536197","0.0-67.0-6.0-0.0","0","0","CdjSZ","Scenes","","4827","","","78","","","","","","","","","","","","","","","","","","","","","","","","","","","","","","","","","","","","","","","","","","","",""
"","fixation","","html-keyboard-response","101","537206","0.0-68.0-0.0","0","0","CdjSZ","Scenes","","null","","","null","","","","","","","","","","","","","","","","","","","","","","","","","","","","","","","","","","","","","","","","","","","",""
"","deliberation","","html-keyboard-response","102","538285","0.0-68.0-1.0","0","0","CdjSZ","Scenes","","1077","","","75","","","","12","107","120","0","-1","41","77","benjamin-davies-Zm2n2O7Fph4-unsplash.jpg","jarrett-kow-1ZOyYPOBn7I-unsplash.jpg","2","0","120","107","","","","","","","","","","","","","","","","","","","","","","","","","","","",""
"","choice_confirmation","","html-keyboard-response","103","538798","0.0-68.0-2.0-0.0","0","0","CdjSZ","Scenes","","null","","","null","","","","12","107","120","","","","","","","","","","","","","","","","","","","","","","","","","","","","","","","","","","","","","",""
"","fixation","","html-keyboard-response","104","539811","0.0-69.0-0.0","0","0","CdjSZ","Scenes","","null","","","null","","","","","","","","","","","","","","","","","","","","","","","","","","","","","","","","","","","","","","","","","","","",""
"","deliberation","","html-keyboard-response","105","541336","0.0-69.0-1.0","0","0","CdjSZ","Scenes","","1524","","","68","","","","13","132","135","1","1","61","40","meng-ji-8BH_M-53CyA-unsplash.jpg","mohammad-alizade-4wzRuAb-KWs-unsplash.jpg","2","1","132","135","","","","","","","","","","","","","","","","","","","","","","","","","","","",""
"","choice_confirmation","","html-keyboard-response","106","541847","0.0-69.0-2.0-0.0","0","0","CdjSZ","Scenes","","null","","","null","","","","13","132","135","","","","","","","","","","","","","","","","","","","","","","","","","","","","","","","","","","","","","",""
"","explain_trial","","survey-text","107","562069","0.0-69.0-5.0-0.0","0","0","CdjSZ","Scenes","","20221","{""Q0"":""The contrast between the ocean and mountains is very nice.""}","","","","","","13","132","135","","","","","","","","","","","{""Q0"":""The contrast between the ocean and mountains is very nice.""}","","","","","","","","","","","","","","","","","","","","","","","","","","",""
"","fixation","","html-keyboard-response","108","563075","0.0-70.0-0.0","0","0","CdjSZ","Scenes","","null","","","null","","","","","","","","","","","","","","","","","","","","","","","","","","","","","","","","","","","","","","","","","","","",""
"","deliberation","","html-keyboard-response","109","566072","0.0-70.0-1.0","0","0","CdjSZ","Scenes","","2996","","","75","","","","14","124","109","0","1","43","38","johannes-plenio-sPt5RIjKfpk-unsplash.jpg","brigitta-schneiter-hXXRLtTxXCU-unsplash.jpg","2","0","109","124","","","","","","","","","","","","","","","","","","","","","","","","","","","",""
"","choice_confirmation","","html-keyboard-response","110","566587","0.0-70.0-2.0-0.0","0","0","CdjSZ","Scenes","","null","","","null","","","","14","124","109","","","","","","","","","","","","","","","","","","","","","","","","","","","","","","","","","","","","","",""
"","fixation","","html-keyboard-response","111","567597","0.0-71.0-0.0","0","0","CdjSZ","Scenes","","null","","","null","","","","","","","","","","","","","","","","","","","","","","","","","","","","","","","","","","","","","","","","","","","",""
"","deliberation","","html-keyboard-response","112","568797","0.0-71.0-1.0","0","0","CdjSZ","Scenes","","1199","","","68","","","","15","129","100","0","1","60","50","kurt-cotoaga-cqbLg3lZEpk-unsplash.jpg","aleksandra-boguslawska-MS7KD9Ti7FQ-unsplash.jpg","2","1","129","100","","","","","","","","","","","","","","","","","","","","","","","","","","","",""
"","choice_confirmation","","html-keyboard-response","113","569311","0.0-71.0-2.0-0.0","0","0","CdjSZ","Scenes","","null","","","null","","","","15","129","100","","","","","","","","","","","","","","","","","","","","","","","","","","","","","","","","","","","","","",""
"","fixation","","html-keyboard-response","114","570319","0.0-72.0-0.0","0","0","CdjSZ","Scenes","","null","","","null","","","","","","","","","","","","","","","","","","","","","","","","","","","","","","","","","","","","","","","","","","","",""
"","deliberation","","html-keyboard-response","115","571437","0.0-72.0-1.0","0","0","CdjSZ","Scenes","","1116","","","75","","","","16","145","136","0","-1","65","66","stephen-leonardi-gyIRjKPXupE-unsplash.jpg","nicolas-jehly-LzVB84KkZOE-unsplash.jpg","2","0","136","145","","","","","","","","","","","","","","","","","","","","","","","","","","","",""
"","choice_confirmation","","html-keyboard-response","116","571949","0.0-72.0-2.0-0.0","0","0","CdjSZ","Scenes","","null","","","null","","","","16","145","136","","","","","","","","","","","","","","","","","","","","","","","","","","","","","","","","","","","","","",""
"","fixation","","html-keyboard-response","117","572961","0.0-73.0-0.0","0","0","CdjSZ","Scenes","","null","","","null","","","","","","","","","","","","","","","","","","","","","","","","","","","","","","","","","","","","","","","","","","","",""
"","deliberation","","html-keyboard-response","118","574511","0.0-73.0-1.0","0","0","CdjSZ","Scenes","","1549","","","75","","","","17","102","108","0","-1","75","57","anisur-rahman-K2b7UDed6uQ-unsplash.jpg","benjamin-voros-phIFdC6lA4E-unsplash.jpg","2","0","108","102","","","","","","","","","","","","","","","","","","","","","","","","","","","",""
"","choice_confirmation","","html-keyboard-response","119","575021","0.0-73.0-2.0-0.0","0","0","CdjSZ","Scenes","","null","","","null","","","","17","102","108","","","","","","","","","","","","","","","","","","","","","","","","","","","","","","","","","","","","","",""
"","fixation","","html-keyboard-response","120","576032","0.0-74.0-0.0","0","0","CdjSZ","Scenes","","null","","","null","","","","","","","","","","","","","","","","","","","","","","","","","","","","","","","","","","","","","","","","","","","",""
"","deliberation","","html-keyboard-response","121","577634","0.0-74.0-1.0","0","0","CdjSZ","Scenes","","1601","","","75","","","","18","119","114","0","-1","68","73","james-wheeler-AFC0XvICMgs-unsplash.jpg","daniel-sessler-z_9VmsxR8hs-unsplash.jpg","2","0","114","119","","","","","","","","","","","","","","","","","","","","","","","","","","","",""
"","choice_confirmation","","html-keyboard-response","122","578144","0.0-74.0-2.0-0.0","0","0","CdjSZ","Scenes","","null","","","null","","","","18","119","114","","","","","","","","","","","","","","","","","","","","","","","","","","","","","","","","","","","","","",""
"","fixation","","html-keyboard-response","123","579156","0.0-75.0-0.0","0","0","CdjSZ","Scenes","","null","","","null","","","","","","","","","","","","","","","","","","","","","","","","","","","","","","","","","","","","","","","","","","","",""
"","deliberation","","html-keyboard-response","124","581573","0.0-75.0-1.0","0","0","CdjSZ","Scenes","","2415","","","68","","","","19","149","139","1","1","46","69","yuriy-bogdanov-W51VK3Obcj0-unsplash.jpg","samsommer-vddccTqwal8-unsplash.jpg","2","1","149","139","","","","","","","","","","","","","","","","","","","","","","","","","","","",""
"","choice_confirmation","","html-keyboard-response","125","582087","0.0-75.0-2.0-0.0","0","0","CdjSZ","Scenes","","null","","","null","","","","19","149","139","","","","","","","","","","","","","","","","","","","","","","","","","","","","","","","","","","","","","",""
"","explain_trial","","survey-text","126","613356","0.0-75.0-5.0-0.0","0","0","CdjSZ","Scenes","","31268","{""Q0"":""The sharp separation of layers from the field and sky is very neat.""}","","","","","","19","149","139","","","","","","","","","","","{""Q0"":""The sharp separation of layers from the field and sky is very neat.""}","","","","","","","","","","","","","","","","","","","","","","","","","","",""
"","fixation","","html-keyboard-response","127","614373","0.0-76.0-0.0","0","0","CdjSZ","Scenes","","null","","","null","","","","","","","","","","","","","","","","","","","","","","","","","","","","","","","","","","","","","","","","","","","",""
"","deliberation","","html-keyboard-response","128","615678","0.0-76.0-1.0","0","0","CdjSZ","Scenes","","1304","","","75","","","","20","123","133","1","-1","44","72","joel-jasmin-forestbird-efuwb5eBDrI-unsplash.jpg","mickey-o-neil-xL66l--msXU-unsplash.jpg","2","0","133","123","","","","","","","","","","","","","","","","","","","","","","","","","","","",""
"","choice_confirmation","","html-keyboard-response","129","616180","0.0-76.0-2.0-0.0","0","0","CdjSZ","Scenes","","null","","","null","","","","20","123","133","","","","","","","","","","","","","","","","","","","","","","","","","","","","","","","","","","","","","",""
"","explain_trial","","survey-text","130","637377","0.0-76.0-5.0-0.0","0","0","CdjSZ","Scenes","","21196","{""Q0"":""The blue boat really stands out in the almost desert-like beach.""}","","","","","","20","123","133","","","","","","","","","","","{""Q0"":""The blue boat really stands out in the almost desert-like beach.""}","","","","","","","","","","","","","","","","","","","","","","","","","","",""
"","fixation","","html-keyboard-response","131","638389","0.0-77.0-0.0","0","0","CdjSZ","Scenes","","null","","","null","","","","","","","","","","","","","","","","","","","","","","","","","","","","","","","","","","","","","","","","","","","",""
"","deliberation","","html-keyboard-response","132","640101","0.0-77.0-1.0","0","0","CdjSZ","Scenes","","1711","","","68","","","","21","116","130","1","-1","47","76","david-marcu-W5MhJ6cy1So-unsplash.jpg","lina-loos-04-C1NZk1hE-unsplash.jpg","2","1","116","130","","","","","","","","","","","","","","","","","","","","","","","","","","","",""
"","choice_confirmation","","html-keyboard-response","133","640610","0.0-77.0-2.0-0.0","0","0","CdjSZ","Scenes","","null","","","null","","","","21","116","130","","","","","","","","","","","","","","","","","","","","","","","","","","","","","","","","","","","","","",""
"","explain_trial","","survey-text","134","663760","0.0-77.0-5.0-0.0","0","0","CdjSZ","Scenes","","23149","{""Q0"":""The reflection of the trees in the lake are cool.""}","","","","","","21","116","130","","","","","","","","","","","{""Q0"":""The reflection of the trees in the lake are cool.""}","","","","","","","","","","","","","","","","","","","","","","","","","","",""
"","fixation","","html-keyboard-response","135","664777","0.0-78.0-0.0","0","0","CdjSZ","Scenes","","null","","","null","","","","","","","","","","","","","","","","","","","","","","","","","","","","","","","","","","","","","","","","","","","",""
"","deliberation","","html-keyboard-response","136","666014","0.0-78.0-1.0","0","0","CdjSZ","Scenes","","1235","","","75","","","","22","112","122","1","1","64","62","cosmic-timetraveler-pYyOZ8q7AII-unsplash.jpg","jeff-king-bJHWJeiHfHc-unsplash.jpg","2","0","122","112","","","","","","","","","","","","","","","","","","","","","","","","","","","",""
"","choice_confirmation","","html-keyboard-response","137","666524","0.0-78.0-2.0-0.0","0","0","CdjSZ","Scenes","","null","","","null","","","","22","112","122","","","","","","","","","","","","","","","","","","","","","","","","","","","","","","","","","","","","","",""
"","explain_trial","","survey-text","138","717442","0.0-78.0-5.0-0.0","0","0","CdjSZ","Scenes","","50917","{""Q0"":""The lone tree gives of some feelings of melancholy.""}","","","","","","22","112","122","","","","","","","","","","","{""Q0"":""The lone tree gives of some feelings of melancholy.""}","","","","","","","","","","","","","","","","","","","","","","","","","","",""
"","fixation","","html-keyboard-response","139","718449","0.0-79.0-0.0","0","0","CdjSZ","Scenes","","null","","","null","","","","","","","","","","","","","","","","","","","","","","","","","","","","","","","","","","","","","","","","","","","",""
"","deliberation","","html-keyboard-response","140","720722","0.0-79.0-1.0","0","0","CdjSZ","Scenes","","2272","","","68","","","","23","115","148","1","1","78","75","darrell-cassell-hoCXpPUMCoE-unsplash.jpg","tom-gainor-ZqLeQDjY6fY-unsplash.jpg","2","1","115","148","","","","","","","","","","","","","","","","","","","","","","","","","","","",""
"","choice_confirmation","","html-keyboard-response","141","721223","0.0-79.0-2.0-0.0","0","0","CdjSZ","Scenes","","null","","","null","","","","23","115","148","","","","","","","","","","","","","","","","","","","","","","","","","","","","","","","","","","","","","",""
"","explain_trial","","survey-text","142","729890","0.0-79.0-5.0-0.0","0","0","CdjSZ","Scenes","","8665","{""Q0"":""The colors are nice.""}","","","","","","23","115","148","","","","","","","","","","","{""Q0"":""The colors are nice.""}","","","","","","","","","","","","","","","","","","","","","","","","","","",""
"","start_critical_deliberation_block","","html-keyboard-response","143","734357","0.0-79.0-7.0-0.0","0","0","CdjSZ","Scenes","","4466","","","78","","","","","","","","","","","","","","","","","","","","","","","","","","","","","","","","","","","","","","","","","","","",""
"","fixation","","html-keyboard-response","144","735368","0.0-80.0-0.0","0","0","CdjSZ","Scenes","","null","","","null","","","","","","","","","","","","","","","","","","","","","","","","","","","","","","","","","","","","","","","","","","","",""
"","deliberation","","html-keyboard-response","145","736877","0.0-80.0-1.0","0","0","CdjSZ","Scenes","","1508","","","75","","","","24","112","122","0","1","64","62","cosmic-timetraveler-pYyOZ8q7AII-unsplash.jpg","jeff-king-bJHWJeiHfHc-unsplash.jpg","3","0","122","112","","","","","","","","","","","","","","","","","","","","","","","","","","","",""
"","choice_confirmation","","html-keyboard-response","146","737393","0.0-80.0-2.0-0.0","0","0","CdjSZ","Scenes","","null","","","null","","","","24","112","122","","","","","","","","","","","","","","","","","","","","","","","","","","","","","","","","","","","","","",""
"","fixation","","html-keyboard-response","147","738406","0.0-81.0-0.0","0","0","CdjSZ","Scenes","","null","","","null","","","","","","","","","","","","","","","","","","","","","","","","","","","","","","","","","","","","","","","","","","","",""
"","deliberation","","html-keyboard-response","148","739324","0.0-81.0-1.0","0","0","CdjSZ","Scenes","","917","","","68","","","","25","129","100","0","1","60","50","kurt-cotoaga-cqbLg3lZEpk-unsplash.jpg","aleksandra-boguslawska-MS7KD9Ti7FQ-unsplash.jpg","3","1","129","100","","","","","","","","","","","","","","","","","","","","","","","","","","","",""
"","choice_confirmation","","html-keyboard-response","149","739837","0.0-81.0-2.0-0.0","0","0","CdjSZ","Scenes","","null","","","null","","","","25","129","100","","","","","","","","","","","","","","","","","","","","","","","","","","","","","","","","","","","","","",""
"","fixation","","html-keyboard-response","150","740850","0.0-82.0-0.0","0","0","CdjSZ","Scenes","","null","","","null","","","","","","","","","","","","","","","","","","","","","","","","","","","","","","","","","","","","","","","","","","","",""
"","deliberation","","html-keyboard-response","151","742604","0.0-82.0-1.0","0","0","CdjSZ","Scenes","","1753","","","75","","","","26","119","114","0","-1","68","73","james-wheeler-AFC0XvICMgs-unsplash.jpg","daniel-sessler-z_9VmsxR8hs-unsplash.jpg","3","0","114","119","","","","","","","","","","","","","","","","","","","","","","","","","","","",""
"","choice_confirmation","","html-keyboard-response","152","743110","0.0-82.0-2.0-0.0","0","0","CdjSZ","Scenes","","null","","","null","","","","26","119","114","","","","","","","","","","","","","","","","","","","","","","","","","","","","","","","","","","","","","",""
"","fixation","","html-keyboard-response","153","744122","0.0-83.0-0.0","0","0","CdjSZ","Scenes","","null","","","null","","","","","","","","","","","","","","","","","","","","","","","","","","","","","","","","","","","","","","","","","","","",""
"","deliberation","","html-keyboard-response","154","745733","0.0-83.0-1.0","0","0","CdjSZ","Scenes","","1609","","","68","","","","27","149","139","0","1","46","69","yuriy-bogdanov-W51VK3Obcj0-unsplash.jpg","samsommer-vddccTqwal8-unsplash.jpg","3","1","149","139","","","","","","","","","","","","","","","","","","","","","","","","","","","",""
"","choice_confirmation","","html-keyboard-response","155","746238","0.0-83.0-2.0-0.0","0","0","CdjSZ","Scenes","","null","","","null","","","","27","149","139","","","","","","","","","","","","","","","","","","","","","","","","","","","","","","","","","","","","","",""
"","fixation","","html-keyboard-response","156","747249","0.0-84.0-0.0","0","0","CdjSZ","Scenes","","null","","","null","","","","","","","","","","","","","","","","","","","","","","","","","","","","","","","","","","","","","","","","","","","",""
"","deliberation","","html-keyboard-response","157","748876","0.0-84.0-1.0","0","0","CdjSZ","Scenes","","1626","","","68","","","","28","132","135","0","1","61","40","meng-ji-8BH_M-53CyA-unsplash.jpg","mohammad-alizade-4wzRuAb-KWs-unsplash.jpg","3","1","132","135","","","","","","","","","","","","","","","","","","","","","","","","","","","",""
"","choice_confirmation","","html-keyboard-response","158","749392","0.0-84.0-2.0-0.0","0","0","CdjSZ","Scenes","","null","","","null","","","","28","132","135","","","","","","","","","","","","","","","","","","","","","","","","","","","","","","","","","","","","","",""
"","fixation","","html-keyboard-response","159","750397","0.0-85.0-0.0","0","0","CdjSZ","Scenes","","null","","","null","","","","","","","","","","","","","","","","","","","","","","","","","","","","","","","","","","","","","","","","","","","",""
"","deliberation","","html-keyboard-response","160","752766","0.0-85.0-1.0","0","0","CdjSZ","Scenes","","2368","","","68","","","","29","115","148","0","1","78","75","darrell-cassell-hoCXpPUMCoE-unsplash.jpg","tom-gainor-ZqLeQDjY6fY-unsplash.jpg","3","1","115","148","","","","","","","","","","","","","","","","","","","","","","","","","","","",""
"","choice_confirmation","","html-keyboard-response","161","753270","0.0-85.0-2.0-0.0","0","0","CdjSZ","Scenes","","null","","","null","","","","29","115","148","","","","","","","","","","","","","","","","","","","","","","","","","","","","","","","","","","","","","",""
"","fixation","","html-keyboard-response","162","754280","0.0-86.0-0.0","0","0","CdjSZ","Scenes","","null","","","null","","","","","","","","","","","","","","","","","","","","","","","","","","","","","","","","","","","","","","","","","","","",""
"","deliberation","","html-keyboard-response","163","755323","0.0-86.0-1.0","0","0","CdjSZ","Scenes","","1043","","","75","","","","30","107","120","0","-1","41","77","benjamin-davies-Zm2n2O7Fph4-unsplash.jpg","jarrett-kow-1ZOyYPOBn7I-unsplash.jpg","3","0","120","107","","","","","","","","","","","","","","","","","","","","","","","","","","","",""
"","choice_confirmation","","html-keyboard-response","164","755828","0.0-86.0-2.0-0.0","0","0","CdjSZ","Scenes","","null","","","null","","","","30","107","120","","","","","","","","","","","","","","","","","","","","","","","","","","","","","","","","","","","","","",""
"","fixation","","html-keyboard-response","165","756835","0.0-87.0-0.0","0","0","CdjSZ","Scenes","","null","","","null","","","","","","","","","","","","","","","","","","","","","","","","","","","","","","","","","","","","","","","","","","","",""
"","deliberation","","html-keyboard-response","166","759044","0.0-87.0-1.0","0","0","CdjSZ","Scenes","","2208","","","75","","","","31","124","109","0","1","43","38","johannes-plenio-sPt5RIjKfpk-unsplash.jpg","brigitta-schneiter-hXXRLtTxXCU-unsplash.jpg","3","0","109","124","","","","","","","","","","","","","","","","","","","","","","","","","","","",""
"","choice_confirmation","","html-keyboard-response","167","759559","0.0-87.0-2.0-0.0","0","0","CdjSZ","Scenes","","null","","","null","","","","31","124","109","","","","","","","","","","","","","","","","","","","","","","","","","","","","","","","","","","","","","",""
"","fixation","","html-keyboard-response","168","760570","0.0-88.0-0.0","0","0","CdjSZ","Scenes","","null","","","null","","","","","","","","","","","","","","","","","","","","","","","","","","","","","","","","","","","","","","","","","","","",""
"","deliberation","","html-keyboard-response","169","761335","0.0-88.0-1.0","0","0","CdjSZ","Scenes","","763","","","75","","","","32","123","133","0","-1","44","72","joel-jasmin-forestbird-efuwb5eBDrI-unsplash.jpg","mickey-o-neil-xL66l--msXU-unsplash.jpg","3","0","133","123","","","","","","","","","","","","","","","","","","","","","","","","","","","",""
"","choice_confirmation","","html-keyboard-response","170","761851","0.0-88.0-2.0-0.0","0","0","CdjSZ","Scenes","","null","","","null","","","","32","123","133","","","","","","","","","","","","","","","","","","","","","","","","","","","","","","","","","","","","","",""
"","fixation","","html-keyboard-response","171","762867","0.0-89.0-0.0","0","0","CdjSZ","Scenes","","null","","","null","","","","","","","","","","","","","","","","","","","","","","","","","","","","","","","","","","","","","","","","","","","",""
"","deliberation","","html-keyboard-response","172","764275","0.0-89.0-1.0","0","0","CdjSZ","Scenes","","1406","","","68","","","","33","116","130","0","-1","47","76","david-marcu-W5MhJ6cy1So-unsplash.jpg","lina-loos-04-C1NZk1hE-unsplash.jpg","3","1","116","130","","","","","","","","","","","","","","","","","","","","","","","","","","","",""
"","choice_confirmation","","html-keyboard-response","173","764790","0.0-89.0-2.0-0.0","0","0","CdjSZ","Scenes","","null","","","null","","","","33","116","130","","","","","","","","","","","","","","","","","","","","","","","","","","","","","","","","","","","","","",""
"","fixation","","html-keyboard-response","174","765803","0.0-90.0-0.0","0","0","CdjSZ","Scenes","","null","","","null","","","","","","","","","","","","","","","","","","","","","","","","","","","","","","","","","","","","","","","","","","","",""
"","deliberation","","html-keyboard-response","175","766848","0.0-90.0-1.0","0","0","CdjSZ","Scenes","","1044","","","75","","","","34","145","136","0","-1","65","66","stephen-leonardi-gyIRjKPXupE-unsplash.jpg","nicolas-jehly-LzVB84KkZOE-unsplash.jpg","3","0","136","145","","","","","","","","","","","","","","","","","","","","","","","","","","","",""
"","choice_confirmation","","html-keyboard-response","176","767358","0.0-90.0-2.0-0.0","0","0","CdjSZ","Scenes","","null","","","null","","","","34","145","136","","","","","","","","","","","","","","","","","","","","","","","","","","","","","","","","","","","","","",""
"","fixation","","html-keyboard-response","177","768364","0.0-91.0-0.0","0","0","CdjSZ","Scenes","","null","","","null","","","","","","","","","","","","","","","","","","","","","","","","","","","","","","","","","","","","","","","","","","","",""
"","deliberation","","html-keyboard-response","178","769619","0.0-91.0-1.0","0","0","CdjSZ","Scenes","","1255","","","75","","","","35","102","108","0","-1","75","57","anisur-rahman-K2b7UDed6uQ-unsplash.jpg","benjamin-voros-phIFdC6lA4E-unsplash.jpg","3","0","108","102","","","","","","","","","","","","","","","","","","","","","","","","","","","",""
"","choice_confirmation","","html-keyboard-response","179","770136","0.0-91.0-2.0-0.0","0","0","CdjSZ","Scenes","","null","","","null","","","","35","102","108","","","","","","","","","","","","","","","","","","","","","","","","","","","","","","","","","","","","","",""
"","reward_learning_instructions","","instructions","180","819414","0.0-92.0-0.0","0","0","CdjSZ","Scenes","[{""page_index"":0,""viewing_time"":23842},{""page_index"":1,""viewing_time"":23748},{""page_index"":2,""viewing_time"":1687}]","49278","","","","","","","","","","","","","","","","","","","","","","","","","","","","","","","","","","","","","","","","","","","","","","",""
"","reward_comprehension_check","","survey-multi-choice","181","829850","0.0-92.0-1.0","0","0","CdjSZ","Scenes","","10434","{""Q0"":""True"",""Q1"":""True"",""Q2"":""Press the space bar to see its outcome"",""Q3"":""Press the relevant key while the outcome is presented""}","0","","","","","","","","","","","","","","","","","","","","","","","","","","","","","","","","","","","","","","","","","","","","",""
"","start_phase","","html-keyboard-response","182","832235","0.0-93.0","0","0","CdjSZ","Scenes","","2383","","","78","","","","","","","","","","","","","","","","","","","","","","","","","","","","","","","","","","","","","","","","","","","",""
"","fixation","","html-keyboard-response","183","833246","0.0-94.0","0","0","CdjSZ","Scenes","","null","","","null","","","","","","","","","","","","","","","","","","","","","","","","","","","","","","","","","","","","","","","","","","","",""
"","see_reward","","html-keyboard-response","184","833713","0.0-95.0","0","0","CdjSZ","Scenes","","466","","","32","","109","","0","","","","1","","","","","1","","","","","157","466","","","","","","","","","","","","","","","","","","","","","","","","",""
"","reward_outcome","","html-keyboard-response","185","835725","0.0-96.0","0","0","CdjSZ","Scenes","","null","","","null","","109","","0","","","","","","","","","","","","","","","","NaN","null","","","","","","","","","","","","","","","","","","","","","","",""
"","respond_faster","","html-keyboard-response","186","837232","0.0-97.0-0.0","1","0","CdjSZ","Scenes","","null","","","null","","","","","","","","","","","","","","","","","","","","","","","","","","","","","","","","","","","","","","","","","","","",""
"","fixation","","html-keyboard-response","187","838245","0.0-99.0","0","0","CdjSZ","Scenes","","null","","","null","","","","","","","","","","","","","","","","","","","","","","","","","","","","","","","","","","","","","","","","","","","",""
"","see_reward","","html-keyboard-response","188","839351","0.0-100.0","0","0","CdjSZ","Scenes","","1104","","","32","","122","","1","","","","1","","","","","1","","","","","150","1104","","","","","","","","","","","","","","","","","","","","","","","","",""
"","reward_outcome","","html-keyboard-response","189","841362","0.0-101.0","0","0","CdjSZ","Scenes","","795","","","38","","122","","1","","","","","","","","","","","","","","","","1","795","","","","","","","","","","","","","","","","","","","","","","",""
"","fixation","","html-keyboard-response","190","842376","0.0-104.0","0","0","CdjSZ","Scenes","","null","","","null","","","","","","","","","","","","","","","","","","","","","","","","","","","","","","","","","","","","","","","","","","","",""
"","see_reward","","html-keyboard-response","191","842873","0.0-105.0","0","0","CdjSZ","Scenes","","496","","","32","","129","","2","","","","1","","","","","1","","","","","151","496","","","","","","","","","","","","","","","","","","","","","","","","",""
"","reward_outcome","","html-keyboard-response","192","844882","0.0-106.0","0","0","CdjSZ","Scenes","","804","","","38","","129","","2","","","","","","","","","","","","","","","","1","804","","","","","","","","","","","","","","","","","","","","","","",""
"","fixation","","html-keyboard-response","193","845888","0.0-109.0","0","0","CdjSZ","Scenes","","null","","","null","","","","","","","","","","","","","","","","","","","","","","","","","","","","","","","","","","","","","","","","","","","",""
"","see_reward","","html-keyboard-response","194","846808","0.0-110.0","0","0","CdjSZ","Scenes","","920","","","32","","132","","3","","","","1","","","","","1","","","","","149","920","","","","","","","","","","","","","","","","","","","","","","","","",""
"","reward_outcome","","html-keyboard-response","195","848812","0.0-111.0","0","0","CdjSZ","Scenes","","null","","","null","","132","","3","","","","","","","","","","","","","","","","NaN","null","","","","","","","","","","","","","","","","","","","","","","",""
"","respond_faster","","html-keyboard-response","196","850326","0.0-112.0-0.0","1","0","CdjSZ","Scenes","","null","","","null","","","","","","","","","","","","","","","","","","","","","","","","","","","","","","","","","","","","","","","","","","","",""
"","fixation","","html-keyboard-response","197","851332","0.0-114.0","0","0","CdjSZ","Scenes","","null","","","null","","","","","","","","","","","","","","","","","","","","","","","","","","","","","","","","","","","","","","","","","","","",""
"","see_reward","","html-keyboard-response","198","851885","0.0-115.0","0","0","CdjSZ","Scenes","","552","","","32","","115","","4","","","","1","","","","","1","","","","","155","552","","","","","","","","","","","","","","","","","","","","","","","","",""
"","reward_outcome","","html-keyboard-response","199","853901","0.0-116.0","0","0","CdjSZ","Scenes","","426","","","38","","115","","4","","","","","","","","","","","","","","","","1","426","","","","","","","","","","","","","","","","","","","","","","",""
"","fixation","","html-keyboard-response","200","854911","0.0-119.0","0","0","CdjSZ","Scenes","","null","","","null","","","","","","","","","","","","","","","","","","","","","","","","","","","","","","","","","","","","","","","","","","","",""
"","see_reward","","html-keyboard-response","201","855379","0.0-120.0","0","0","CdjSZ","Scenes","","467","","","32","","116","","5","","","","-1","","","","","1","","","","","0","467","","","","","","","","","","","","","","","","","","","","","","","","",""
"","reward_outcome","","html-keyboard-response","202","857383","0.0-121.0","0","0","CdjSZ","Scenes","","708","","","40","","116","","5","","","","","","","","","","","","","","","","-1","708","","","","","","","","","","","","","","","","","","","","","","",""
"","fixation","","html-keyboard-response","203","858394","0.0-124.0","0","0","CdjSZ","Scenes","","null","","","null","","","","","","","","","","","","","","","","","","","","","","","","","","","","","","","","","","","","","","","","","","","",""
"","see_reward","","html-keyboard-response","204","859088","0.0-125.0","0","0","CdjSZ","Scenes","","693","","","32","","132","","6","","","","1","","","","","1","","","","","149","693","","","","","","","","","","","","","","","","","","","","","","","","",""
"","reward_outcome","","html-keyboard-response","205","861096","0.0-126.0","0","0","CdjSZ","Scenes","","629","","","38","","132","","6","","","","","","","","","","","","","","","","1","629","","","","","","","","","","","","","","","","","","","","","","",""
"","fixation","","html-keyboard-response","206","862103","0.0-129.0","0","0","CdjSZ","Scenes","","null","","","null","","","","","","","","","","","","","","","","","","","","","","","","","","","","","","","","","","","","","","","","","","","",""
"","see_reward","","html-keyboard-response","207","862580","0.0-130.0","0","0","CdjSZ","Scenes","","476","","","32","","115","","7","","","","1","","","","","1","","","","","155","476","","","","","","","","","","","","","","","","","","","","","","","","",""
"","reward_outcome","","html-keyboard-response","208","864589","0.0-131.0","0","0","CdjSZ","Scenes","","1019","","","38","","115","","7","","","","","","","","","","","","","","","","1","1019","","","","","","","","","","","","","","","","","","","","","","",""
"","fixation","","html-keyboard-response","209","865603","0.0-134.0","0","0","CdjSZ","Scenes","","null","","","null","","","","","","","","","","","","","","","","","","","","","","","","","","","","","","","","","","","","","","","","","","","",""
"","see_reward","","html-keyboard-response","210","866055","0.0-135.0","0","0","CdjSZ","Scenes","","452","","","32","","114","","8","","","","-1","","","","","1","","","","","0","452","","","","","","","","","","","","","","","","","","","","","","","","",""
"","reward_outcome","","html-keyboard-response","211","868065","0.0-136.0","0","0","CdjSZ","Scenes","","663","","","40","","114","","8","","","","","","","","","","","","","","","","-1","663","","","","","","","","","","","","","","","","","","","","","","",""
"","fixation","","html-keyboard-response","212","869080","0.0-139.0","0","0","CdjSZ","Scenes","","null","","","null","","","","","","","","","","","","","","","","","","","","","","","","","","","","","","","","","","","","","","","","","","","",""
"","see_reward","","html-keyboard-response","213","869673","0.0-140.0","0","0","CdjSZ","Scenes","","593","","","32","","136","","9","","","","-1","","","","","1","","","","","0","593","","","","","","","","","","","","","","","","","","","","","","","","",""
"","reward_outcome","","html-keyboard-response","214","871678","0.0-141.0","0","0","CdjSZ","Scenes","","1210","","","40","","136","","9","","","","","","","","","","","","","","","","-1","1210","","","","","","","","","","","","","","","","","","","","","","",""
"","fixation","","html-keyboard-response","215","872688","0.0-144.0","0","0","CdjSZ","Scenes","","null","","","null","","","","","","","","","","","","","","","","","","","","","","","","","","","","","","","","","","","","","","","","","","","",""
"","see_reward","","html-keyboard-response","216","873256","0.0-145.0","0","0","CdjSZ","Scenes","","566","","","32","","129","","10","","","","1","","","","","1","","","","","151","566","","","","","","","","","","","","","","","","","","","","","","","","",""
"","reward_outcome","","html-keyboard-response","217","875263","0.0-146.0","0","0","CdjSZ","Scenes","","536","","","38","","129","","10","","","","","","","","","","","","","","","","1","536","","","","","","","","","","","","","","","","","","","","","","",""
"","fixation","","html-keyboard-response","218","876274","0.0-149.0","0","0","CdjSZ","Scenes","","null","","","null","","","","","","","","","","","","","","","","","","","","","","","","","","","","","","","","","","","","","","","","","","","",""
"","see_reward","","html-keyboard-response","219","877149","0.0-150.0","0","0","CdjSZ","Scenes","","874","","","32","","120","","11","","","","-1","","","","","1","","","","","0","874","","","","","","","","","","","","","","","","","","","","","","","","",""
"","reward_outcome","","html-keyboard-response","220","879162","0.0-151.0","0","0","CdjSZ","Scenes","","560","","","40","","120","","11","","","","","","","","","","","","","","","","-1","560","","","","","","","","","","","","","","","","","","","","","","",""
"","fixation","","html-keyboard-response","221","880175","0.0-154.0","0","0","CdjSZ","Scenes","","null","","","null","","","","","","","","","","","","","","","","","","","","","","","","","","","","","","","","","","","","","","","","","","","",""
"","see_reward","","html-keyboard-response","222","880598","0.0-155.0","0","0","CdjSZ","Scenes","","421","","","32","","149","","12","","","","1","","","","","1","","","","","148","421","","","","","","","","","","","","","","","","","","","","","","","","",""
"","reward_outcome","","html-keyboard-response","223","882614","0.0-156.0","0","0","CdjSZ","Scenes","","510","","","38","","149","","12","","","","","","","","","","","","","","","","1","510","","","","","","","","","","","","","","","","","","","","","","",""
"","fixation","","html-keyboard-response","224","883624","0.0-159.0","0","0","CdjSZ","Scenes","","null","","","null","","","","","","","","","","","","","","","","","","","","","","","","","","","","","","","","","","","","","","","","","","","",""
"","see_reward","","html-keyboard-response","225","884401","0.0-160.0","0","0","CdjSZ","Scenes","","775","","","32","","120","","13","","","","-1","","","","","1","","","","","0","775","","","","","","","","","","","","","","","","","","","","","","","","",""
"","reward_outcome","","html-keyboard-response","226","886402","0.0-161.0","0","0","CdjSZ","Scenes","","833","","","40","","120","","13","","","","","","","","","","","","","","","","-1","833","","","","","","","","","","","","","","","","","","","","","","",""
"","fixation","","html-keyboard-response","227","887418","0.0-164.0","0","0","CdjSZ","Scenes","","null","","","null","","","","","","","","","","","","","","","","","","","","","","","","","","","","","","","","","","","","","","","","","","","",""
"","see_reward","","html-keyboard-response","228","887887","0.0-165.0","0","0","CdjSZ","Scenes","","468","","","32","","133","","14","","","","-1","","","","","1","","","","","0","468","","","","","","","","","","","","","","","","","","","","","","","","",""
"","reward_outcome","","html-keyboard-response","229","889890","0.0-166.0","0","0","CdjSZ","Scenes","","563","","","40","","133","","14","","","","","","","","","","","","","","","","-1","563","","","","","","","","","","","","","","","","","","","","","","",""
"","fixation","","html-keyboard-response","230","890900","0.0-169.0","0","0","CdjSZ","Scenes","","null","","","null","","","","","","","","","","","","","","","","","","","","","","","","","","","","","","","","","","","","","","","","","","","",""
"","see_reward","","html-keyboard-response","231","891352","0.0-170.0","0","0","CdjSZ","Scenes","","451","","","32","","108","","15","","","","-1","","","","","1","","","","","0","451","","","","","","","","","","","","","","","","","","","","","","","","",""
"","reward_outcome","","html-keyboard-response","232","893357","0.0-171.0","0","0","CdjSZ","Scenes","","479","","","40","","108","","15","","","","","","","","","","","","","","","","-1","479","","","","","","","","","","","","","","","","","","","","","","",""
"","fixation","","html-keyboard-response","233","894371","0.0-174.0","0","0","CdjSZ","Scenes","","null","","","null","","","","","","","","","","","","","","","","","","","","","","","","","","","","","","","","","","","","","","","","","","","",""
"","see_reward","","html-keyboard-response","234","894924","0.0-175.0","0","0","CdjSZ","Scenes","","552","","","32","","108","","16","","","","-1","","","","","1","","","","","0","552","","","","","","","","","","","","","","","","","","","","","","","","",""
"","reward_outcome","","html-keyboard-response","235","896940","0.0-176.0","0","0","CdjSZ","Scenes","","505","","","40","","108","","16","","","","","","","","","","","","","","","","-1","505","","","","","","","","","","","","","","","","","","","","","","",""
"","fixation","","html-keyboard-response","236","897950","0.0-179.0","0","0","CdjSZ","Scenes","","null","","","null","","","","","","","","","","","","","","","","","","","","","","","","","","","","","","","","","","","","","","","","","","","",""
"","see_reward","","html-keyboard-response","237","898468","0.0-180.0","0","0","CdjSZ","Scenes","","517","","","32","","122","","17","","","","1","","","","","1","","","","","150","517","","","","","","","","","","","","","","","","","","","","","","","","",""
"","reward_outcome","","html-keyboard-response","238","900473","0.0-181.0","0","0","CdjSZ","Scenes","","449","","","38","","122","","17","","","","","","","","","","","","","","","","1","449","","","","","","","","","","","","","","","","","","","","","","",""
"","fixation","","html-keyboard-response","239","901487","0.0-184.0","0","0","CdjSZ","Scenes","","null","","","null","","","","","","","","","","","","","","","","","","","","","","","","","","","","","","","","","","","","","","","","","","","",""
"","see_reward","","html-keyboard-response","240","901942","0.0-185.0","0","0","CdjSZ","Scenes","","455","","","32","","136","","18","","","","-1","","","","","1","","","","","0","455","","","","","","","","","","","","","","","","","","","","","","","","",""
"","reward_outcome","","html-keyboard-response","241","903958","0.0-186.0","0","0","CdjSZ","Scenes","","441","","","40","","136","","18","","","","","","","","","","","","","","","","-1","441","","","","","","","","","","","","","","","","","","","","","","",""
"","fixation","","html-keyboard-response","242","904968","0.0-189.0","0","0","CdjSZ","Scenes","","null","","","null","","","","","","","","","","","","","","","","","","","","","","","","","","","","","","","","","","","","","","","","","","","",""
"","see_reward","","html-keyboard-response","243","905292","0.0-190.0","0","0","CdjSZ","Scenes","","323","","","32","","133","","19","","","","-1","","","","","1","","","","","0","323","","","","","","","","","","","","","","","","","","","","","","","","",""
"","reward_outcome","","html-keyboard-response","244","907301","0.0-191.0","0","0","CdjSZ","Scenes","","441","","","40","","133","","19","","","","","","","","","","","","","","","","-1","441","","","","","","","","","","","","","","","","","","","","","","",""
"","fixation","","html-keyboard-response","245","908313","0.0-194.0","0","0","CdjSZ","Scenes","","null","","","null","","","","","","","","","","","","","","","","","","","","","","","","","","","","","","","","","","","","","","","","","","","",""
"","see_reward","","html-keyboard-response","246","908667","0.0-195.0","0","0","CdjSZ","Scenes","","353","","","32","","116","","20","","","","-1","","","","","1","","","","","0","353","","","","","","","","","","","","","","","","","","","","","","","","",""
"","reward_outcome","","html-keyboard-response","247","910678","0.0-196.0","0","0","CdjSZ","Scenes","","556","","","40","","116","","20","","","","","","","","","","","","","","","","-1","556","","","","","","","","","","","","","","","","","","","","","","",""
"","fixation","","html-keyboard-response","248","911687","0.0-199.0","0","0","CdjSZ","Scenes","","null","","","null","","","","","","","","","","","","","","","","","","","","","","","","","","","","","","","","","","","","","","","","","","","",""
"","see_reward","","html-keyboard-response","249","912216","0.0-200.0","0","0","CdjSZ","Scenes","","528","","","32","","114","","21","","","","-1","","","","","1","","","","","0","528","","","","","","","","","","","","","","","","","","","","","","","","",""
"","reward_outcome","","html-keyboard-response","250","914222","0.0-201.0","0","0","CdjSZ","Scenes","","352","","","40","","114","","21","","","","","","","","","","","","","","","","-1","352","","","","","","","","","","","","","","","","","","","","","","",""
"","fixation","","html-keyboard-response","251","915234","0.0-204.0","0","0","CdjSZ","Scenes","","null","","","null","","","","","","","","","","","","","","","","","","","","","","","","","","","","","","","","","","","","","","","","","","","",""
"","see_reward","","html-keyboard-response","252","915525","0.0-205.0","0","0","CdjSZ","Scenes","","290","","","32","","149","","22","","","","1","","","","","1","","","","","148","290","","","","","","","","","","","","","","","","","","","","","","","","",""
"","reward_outcome","","html-keyboard-response","253","917540","0.0-206.0","0","0","CdjSZ","Scenes","","675","","","38","","149","","22","","","","","","","","","","","","","","","","1","675","","","","","","","","","","","","","","","","","","","","","","",""
"","fixation","","html-keyboard-response","254","918554","0.0-209.0","0","0","CdjSZ","Scenes","","null","","","null","","","","","","","","","","","","","","","","","","","","","","","","","","","","","","","","","","","","","","","","","","","",""
"","see_reward","","html-keyboard-response","255","918999","0.0-210.0","0","0","CdjSZ","Scenes","","444","","","32","","109","","23","","","","1","","","","","1","","","","","157","444","","","","","","","","","","","","","","","","","","","","","","","","",""
"","reward_outcome","","html-keyboard-response","256","921008","0.0-211.0","0","0","CdjSZ","Scenes","","774","","","38","","109","","23","","","","","","","","","","","","","","","","1","774","","","","","","","","","","","","","","","","","","","","","","",""
"","block_over","","html-keyboard-response","257","924121","0.0-213.0-0.0","0","0","CdjSZ","Scenes","","3112","","","78","","","","","","","","","","","","","","","","","","","","","","","","","","","","","","","","","","","","","","","","","","","",""
"","fixation","","html-keyboard-response","258","925134","0.0-214.0","0","0","CdjSZ","Scenes","","null","","","null","","","","","","","","","","","","","","","","","","","","","","","","","","","","","","","","","","","","","","","","","","","",""
"","see_reward","","html-keyboard-response","259","925567","0.0-215.0","0","0","CdjSZ","Scenes","","432","","","32","","133","","24","","","","-1","","","","","2","","","","","0","432","","","","","","","","","","","","","","","","","","","","","","","","",""
"","reward_outcome","","html-keyboard-response","260","927574","0.0-216.0","0","0","CdjSZ","Scenes","","430","","","40","","133","","24","","","","","","","","","","","","","","","","-1","430","","","","","","","","","","","","","","","","","","","","","","",""
"","fixation","","html-keyboard-response","261","928584","0.0-219.0","0","0","CdjSZ","Scenes","","null","","","null","","","","","","","","","","","","","","","","","","","","","","","","","","","","","","","","","","","","","","","","","","","",""
"","see_reward","","html-keyboard-response","262","929138","0.0-220.0","0","0","CdjSZ","Scenes","","553","","","32","","109","","25","","","","1","","","","","2","","","","","157","553","","","","","","","","","","","","","","","","","","","","","","","","",""
"","reward_outcome","","html-keyboard-response","263","931150","0.0-221.0","0","0","CdjSZ","Scenes","","591","","","38","","109","","25","","","","","","","","","","","","","","","","1","591","","","","","","","","","","","","","","","","","","","","","","",""
"","fixation","","html-keyboard-response","264","932163","0.0-224.0","0","0","CdjSZ","Scenes","","null","","","null","","","","","","","","","","","","","","","","","","","","","","","","","","","","","","","","","","","","","","","","","","","",""
"","see_reward","","html-keyboard-response","265","932723","0.0-225.0","0","0","CdjSZ","Scenes","","559","","","32","","136","","26","","","","-1","","","","","2","","","","","0","559","","","","","","","","","","","","","","","","","","","","","","","","",""
"","reward_outcome","","html-keyboard-response","266","934737","0.0-226.0","0","0","CdjSZ","Scenes","","333","","","40","","136","","26","","","","","","","","","","","","","","","","-1","333","","","","","","","","","","","","","","","","","","","","","","",""
"","fixation","","html-keyboard-response","267","935750","0.0-229.0","0","0","CdjSZ","Scenes","","null","","","null","","","","","","","","","","","","","","","","","","","","","","","","","","","","","","","","","","","","","","","","","","","",""
"","see_reward","","html-keyboard-response","268","936185","0.0-230.0","0","0","CdjSZ","Scenes","","434","","","32","","116","","27","","","","-1","","","","","2","","","","","0","434","","","","","","","","","","","","","","","","","","","","","","","","",""
"","reward_outcome","","html-keyboard-response","269","938200","0.0-231.0","0","0","CdjSZ","Scenes","","466","","","40","","116","","27","","","","","","","","","","","","","","","","-1","466","","","","","","","","","","","","","","","","","","","","","","",""
"","fixation","","html-keyboard-response","270","939209","0.0-234.0","0","0","CdjSZ","Scenes","","null","","","null","","","","","","","","","","","","","","","","","","","","","","","","","","","","","","","","","","","","","","","","","","","",""
"","see_reward","","html-keyboard-response","271","939583","0.0-235.0","0","0","CdjSZ","Scenes","","373","","","32","","149","","28","","","","1","","","","","2","","","","","148","373","","","","","","","","","","","","","","","","","","","","","","","","",""
"","reward_outcome","","html-keyboard-response","272","941592","0.0-236.0","0","0","CdjSZ","Scenes","","482","","","38","","149","","28","","","","","","","","","","","","","","","","1","482","","","","","","","","","","","","","","","","","","","","","","",""
"","fixation","","html-keyboard-response","273","942603","0.0-239.0","0","0","CdjSZ","Scenes","","null","","","null","","","","","","","","","","","","","","","","","","","","","","","","","","","","","","","","","","","","","","","","","","","",""
"","see_reward","","html-keyboard-response","274","942997","0.0-240.0","0","0","CdjSZ","Scenes","","393","","","32","","115","","29","","","","1","","","","","2","","","","","155","393","","","","","","","","","","","","","","","","","","","","","","","","",""
"","reward_outcome","","html-keyboard-response","275","945012","0.0-241.0","0","0","CdjSZ","Scenes","","578","","","38","","115","","29","","","","","","","","","","","","","","","","1","578","","","","","","","","","","","","","","","","","","","","","","",""
"","fixation","","html-keyboard-response","276","946025","0.0-244.0","0","0","CdjSZ","Scenes","","null","","","null","","","","","","","","","","","","","","","","","","","","","","","","","","","","","","","","","","","","","","","","","","","",""
"","see_reward","","html-keyboard-response","277","946464","0.0-245.0","0","0","CdjSZ","Scenes","","439","","","32","","132","","30","","","","1","","","","","2","","","","","149","439","","","","","","","","","","","","","","","","","","","","","","","","",""
"","reward_outcome","","html-keyboard-response","278","948466","0.0-246.0","0","0","CdjSZ","Scenes","","503","","","38","","132","","30","","","","","","","","","","","","","","","","1","503","","","","","","","","","","","","","","","","","","","","","","",""
"","fixation","","html-keyboard-response","279","949475","0.0-249.0","0","0","CdjSZ","Scenes","","null","","","null","","","","","","","","","","","","","","","","","","","","","","","","","","","","","","","","","","","","","","","","","","","",""
"","see_reward","","html-keyboard-response","280","949900","0.0-250.0","0","0","CdjSZ","Scenes","","424","","","32","","136","","31","","","","-1","","","","","2","","","","","0","424","","","","","","","","","","","","","","","","","","","","","","","","",""
"","reward_outcome","","html-keyboard-response","281","951906","0.0-251.0","0","0","CdjSZ","Scenes","","280","","","40","","136","","31","","","","","","","","","","","","","","","","-1","280","","","","","","","","","","","","","","","","","","","","","","",""
"","fixation","","html-keyboard-response","282","952917","0.0-254.0","0","0","CdjSZ","Scenes","","null","","","null","","","","","","","","","","","","","","","","","","","","","","","","","","","","","","","","","","","","","","","","","","","",""
"","see_reward","","html-keyboard-response","283","953389","0.0-255.0","0","0","CdjSZ","Scenes","","471","","","32","","116","","32","","","","-1","","","","","2","","","","","0","471","","","","","","","","","","","","","","","","","","","","","","","","",""
"","reward_outcome","","html-keyboard-response","284","955391","0.0-256.0","0","0","CdjSZ","Scenes","","549","","","40","","116","","32","","","","","","","","","","","","","","","","-1","549","","","","","","","","","","","","","","","","","","","","","","",""
"","fixation","","html-keyboard-response","285","956405","0.0-259.0","0","0","CdjSZ","Scenes","","null","","","null","","","","","","","","","","","","","","","","","","","","","","","","","","","","","","","","","","","","","","","","","","","",""
"","see_reward","","html-keyboard-response","286","956816","0.0-260.0","0","0","CdjSZ","Scenes","","410","","","32","","120","","33","","","","-1","","","","","2","","","","","0","410","","","","","","","","","","","","","","","","","","","","","","","","",""
"","reward_outcome","","html-keyboard-response","287","958821","0.0-261.0","0","0","CdjSZ","Scenes","","417","","","40","","120","","33","","","","","","","","","","","","","","","","-1","417","","","","","","","","","","","","","","","","","","","","","","",""
"","fixation","","html-keyboard-response","288","959836","0.0-264.0","0","0","CdjSZ","Scenes","","null","","","null","","","","","","","","","","","","","","","","","","","","","","","","","","","","","","","","","","","","","","","","","","","",""
"","see_reward","","html-keyboard-response","289","960391","0.0-265.0","0","0","CdjSZ","Scenes","","555","","","32","","114","","34","","","","-1","","","","","2","","","","","0","555","","","","","","","","","","","","","","","","","","","","","","","","",""
"","reward_outcome","","html-keyboard-response","290","962393","0.0-266.0","0","0","CdjSZ","Scenes","","354","","","40","","114","","34","","","","","","","","","","","","","","","","-1","354","","","","","","","","","","","","","","","","","","","","","","",""
"","fixation","","html-keyboard-response","291","963401","0.0-269.0","0","0","CdjSZ","Scenes","","null","","","null","","","","","","","","","","","","","","","","","","","","","","","","","","","","","","","","","","","","","","","","","","","",""
"","see_reward","","html-keyboard-response","292","963978","0.0-270.0","0","0","CdjSZ","Scenes","","576","","","32","","129","","35","","","","1","","","","","2","","","","","151","576","","","","","","","","","","","","","","","","","","","","","","","","",""
"","reward_outcome","","html-keyboard-response","293","965995","0.0-271.0","0","0","CdjSZ","Scenes","","520","","","38","","129","","35","","","","","","","","","","","","","","","","1","520","","","","","","","","","","","","","","","","","","","","","","",""
"","fixation","","html-keyboard-response","294","967005","0.0-274.0","0","0","CdjSZ","Scenes","","null","","","null","","","","","","","","","","","","","","","","","","","","","","","","","","","","","","","","","","","","","","","","","","","",""
"","see_reward","","html-keyboard-response","295","967557","0.0-275.0","0","0","CdjSZ","Scenes","","551","","","32","","108","","36","","","","-1","","","","","2","","","","","0","551","","","","","","","","","","","","","","","","","","","","","","","","",""
"","reward_outcome","","html-keyboard-response","296","969571","0.0-276.0","0","0","CdjSZ","Scenes","","403","","","40","","108","","36","","","","","","","","","","","","","","","","-1","403","","","","","","","","","","","","","","","","","","","","","","",""
"","fixation","","html-keyboard-response","297","970572","0.0-279.0","0","0","CdjSZ","Scenes","","null","","","null","","","","","","","","","","","","","","","","","","","","","","","","","","","","","","","","","","","","","","","","","","","",""
"","see_reward","","html-keyboard-response","298","971038","0.0-280.0","0","0","CdjSZ","Scenes","","465","","","32","","120","","37","","","","-1","","","","","2","","","","","0","465","","","","","","","","","","","","","","","","","","","","","","","","",""
"","reward_outcome","","html-keyboard-response","299","973052","0.0-281.0","0","0","CdjSZ","Scenes","","303","","","40","","120","","37","","","","","","","","","","","","","","","","-1","303","","","","","","","","","","","","","","","","","","","","","","",""
"","fixation","","html-keyboard-response","300","974064","0.0-284.0","0","0","CdjSZ","Scenes","","null","","","null","","","","","","","","","","","","","","","","","","","","","","","","","","","","","","","","","","","","","","","","","","","",""
"","see_reward","","html-keyboard-response","301","974359","0.0-285.0","0","0","CdjSZ","Scenes","","295","","","32","","122","","38","","","","1","","","","","2","","","","","150","295","","","","","","","","","","","","","","","","","","","","","","","","",""
"","reward_outcome","","html-keyboard-response","302","976374","0.0-286.0","0","0","CdjSZ","Scenes","","494","","","38","","122","","38","","","","","","","","","","","","","","","","1","494","","","","","","","","","","","","","","","","","","","","","","",""
"","fixation","","html-keyboard-response","303","977388","0.0-289.0","0","0","CdjSZ","Scenes","","null","","","null","","","","","","","","","","","","","","","","","","","","","","","","","","","","","","","","","","","","","","","","","","","",""
"","see_reward","","html-keyboard-response","304","977828","0.0-290.0","0","0","CdjSZ","Scenes","","439","","","32","","122","","39","","","","1","","","","","2","","","","","150","439","","","","","","","","","","","","","","","","","","","","","","","","",""
"","reward_outcome","","html-keyboard-response","305","979829","0.0-291.0","0","0","CdjSZ","Scenes","","393","","","38","","122","","39","","","","","","","","","","","","","","","","1","393","","","","","","","","","","","","","","","","","","","","","","",""
"","fixation","","html-keyboard-response","306","980840","0.0-294.0","0","0","CdjSZ","Scenes","","null","","","null","","","","","","","","","","","","","","","","","","","","","","","","","","","","","","","","","","","","","","","","","","","",""
"","see_reward","","html-keyboard-response","307","981247","0.0-295.0","0","0","CdjSZ","Scenes","","406","","","32","","129","","40","","","","1","","","","","2","","","","","151","406","","","","","","","","","","","","","","","","","","","","","","","","",""
"","reward_outcome","","html-keyboard-response","308","983250","0.0-296.0","0","0","CdjSZ","Scenes","","470","","","38","","129","","40","","","","","","","","","","","","","","","","1","470","","","","","","","","","","","","","","","","","","","","","","",""
"","fixation","","html-keyboard-response","309","984267","0.0-299.0","0","0","CdjSZ","Scenes","","null","","","null","","","","","","","","","","","","","","","","","","","","","","","","","","","","","","","","","","","","","","","","","","","",""
"","see_reward","","html-keyboard-response","310","984677","0.0-300.0","0","0","CdjSZ","Scenes","","409","","","32","","114","","41","","","","-1","","","","","2","","","","","0","409","","","","","","","","","","","","","","","","","","","","","","","","",""
"","reward_outcome","","html-keyboard-response","311","986688","0.0-301.0","0","0","CdjSZ","Scenes","","314","","","40","","114","","41","","","","","","","","","","","","","","","","-1","314","","","","","","","","","","","","","","","","","","","","","","",""
"","fixation","","html-keyboard-response","312","987699","0.0-304.0","0","0","CdjSZ","Scenes","","null","","","null","","","","","","","","","","","","","","","","","","","","","","","","","","","","","","","","","","","","","","","","","","","",""
"","see_reward","","html-keyboard-response","313","988101","0.0-305.0","0","0","CdjSZ","Scenes","","402","","","32","","132","","42","","","","1","","","","","2","","","","","149","402","","","","","","","","","","","","","","","","","","","","","","","","",""
"","reward_outcome","","html-keyboard-response","314","990108","0.0-306.0","0","0","CdjSZ","Scenes","","334","","","38","","132","","42","","","","","","","","","","","","","","","","1","334","","","","","","","","","","","","","","","","","","","","","","",""
"","fixation","","html-keyboard-response","315","991118","0.0-309.0","0","0","CdjSZ","Scenes","","null","","","null","","","","","","","","","","","","","","","","","","","","","","","","","","","","","","","","","","","","","","","","","","","",""
"","see_reward","","html-keyboard-response","316","991632","0.0-310.0","0","0","CdjSZ","Scenes","","513","","","32","","115","","43","","","","1","","","","","2","","","","","155","513","","","","","","","","","","","","","","","","","","","","","","","","",""
"","reward_outcome","","html-keyboard-response","317","993637","0.0-311.0","0","0","CdjSZ","Scenes","","541","","","38","","115","","43","","","","","","","","","","","","","","","","1","541","","","","","","","","","","","","","","","","","","","","","","",""
"","fixation","","html-keyboard-response","318","994647","0.0-314.0","0","0","CdjSZ","Scenes","","null","","","null","","","","","","","","","","","","","","","","","","","","","","","","","","","","","","","","","","","","","","","","","","","",""
"","see_reward","","html-keyboard-response","319","995112","0.0-315.0","0","0","CdjSZ","Scenes","","464","","","32","","108","","44","","","","-1","","","","","2","","","","","0","464","","","","","","","","","","","","","","","","","","","","","","","","",""
"","reward_outcome","","html-keyboard-response","320","997117","0.0-316.0","0","0","CdjSZ","Scenes","","299","","","40","","108","","44","","","","","","","","","","","","","","","","-1","299","","","","","","","","","","","","","","","","","","","","","","",""
"","fixation","","html-keyboard-response","321","998132","0.0-319.0","0","0","CdjSZ","Scenes","","null","","","null","","","","","","","","","","","","","","","","","","","","","","","","","","","","","","","","","","","","","","","","","","","",""
"","see_reward","","html-keyboard-response","322","998666","0.0-320.0","0","0","CdjSZ","Scenes","","532","","","32","","109","","45","","","","1","","","","","2","","","","","157","532","","","","","","","","","","","","","","","","","","","","","","","","",""
"","reward_outcome","","html-keyboard-response","323","1000674","0.0-321.0","0","0","CdjSZ","Scenes","","286","","","38","","109","","45","","","","","","","","","","","","","","","","1","286","","","","","","","","","","","","","","","","","","","","","","",""
"","fixation","","html-keyboard-response","324","1001686","0.0-324.0","0","0","CdjSZ","Scenes","","null","","","null","","","","","","","","","","","","","","","","","","","","","","","","","","","","","","","","","","","","","","","","","","","",""
"","see_reward","","html-keyboard-response","325","1002218","0.0-325.0","0","0","CdjSZ","Scenes","","531","","","32","","133","","46","","","","-1","","","","","2","","","","","0","531","","","","","","","","","","","","","","","","","","","","","","","","",""
"","reward_outcome","","html-keyboard-response","326","1004221","0.0-326.0","0","0","CdjSZ","Scenes","","351","","","40","","133","","46","","","","","","","","","","","","","","","","-1","351","","","","","","","","","","","","","","","","","","","","","","",""
"","fixation","","html-keyboard-response","327","1005229","0.0-329.0","0","0","CdjSZ","Scenes","","null","","","null","","","","","","","","","","","","","","","","","","","","","","","","","","","","","","","","","","","","","","","","","","","",""
"","see_reward","","html-keyboard-response","328","1005834","0.0-330.0","0","0","CdjSZ","Scenes","","604","","","32","","149","","47","","","","1","","","","","2","","","","","148","604","","","","","","","","","","","","","","","","","","","","","","","","",""
"","reward_outcome","","html-keyboard-response","329","1007844","0.0-331.0","0","0","CdjSZ","Scenes","","350","","","38","","149","","47","","","","","","","","","","","","","","","","1","350","","","","","","","","","","","","","","","","","","","","","","",""
"","block_over","","html-keyboard-response","330","1011177","0.0-333.0-0.0","0","0","CdjSZ","Scenes","","3332","","","78","","","","","","","","","","","","","","","","","","","","","","","","","","","","","","","","","","","","","","","","","","","",""
"","fixation","","html-keyboard-response","331","1012191","0.0-334.0","0","0","CdjSZ","Scenes","","null","","","null","","","","","","","","","","","","","","","","","","","","","","","","","","","","","","","","","","","","","","","","","","","",""
"","see_reward","","html-keyboard-response","332","1012515","0.0-335.0","0","0","CdjSZ","Scenes","","323","","","32","","136","","48","","","","-1","","","","","3","","","","","0","323","","","","","","","","","","","","","","","","","","","","","","","","",""
"","reward_outcome","","html-keyboard-response","333","1014526","0.0-336.0","0","0","CdjSZ","Scenes","","334","","","40","","136","","48","","","","","","","","","","","","","","","","-1","334","","","","","","","","","","","","","","","","","","","","","","",""
"","fixation","","html-keyboard-response","334","1015535","0.0-339.0","0","0","CdjSZ","Scenes","","null","","","null","","","","","","","","","","","","","","","","","","","","","","","","","","","","","","","","","","","","","","","","","","","",""
"","see_reward","","html-keyboard-response","335","1015791","0.0-340.0","0","0","CdjSZ","Scenes","","256","","","32","","122","","49","","","","1","","","","","3","","","","","150","256","","","","","","","","","","","","","","","","","","","","","","","","",""
"","reward_outcome","","html-keyboard-response","336","1017801","0.0-341.0","0","0","CdjSZ","Scenes","","326","","","38","","122","","49","","","","","","","","","","","","","","","","1","326","","","","","","","","","","","","","","","","","","","","","","",""
"","fixation","","html-keyboard-response","337","1018809","0.0-344.0","0","0","CdjSZ","Scenes","","null","","","null","","","","","","","","","","","","","","","","","","","","","","","","","","","","","","","","","","","","","","","","","","","",""
"","see_reward","","html-keyboard-response","338","1019124","0.0-345.0","0","0","CdjSZ","Scenes","","314","","","32","","122","","50","","","","1","","","","","3","","","","","150","314","","","","","","","","","","","","","","","","","","","","","","","","",""
"","reward_outcome","","html-keyboard-response","339","1021138","0.0-346.0","0","0","CdjSZ","Scenes","","249","","","38","","122","","50","","","","","","","","","","","","","","","","1","249","","","","","","","","","","","","","","","","","","","","","","",""
"","fixation","","html-keyboard-response","340","1022151","0.0-349.0","0","0","CdjSZ","Scenes","","null","","","null","","","","","","","","","","","","","","","","","","","","","","","","","","","","","","","","","","","","","","","","","","","",""
"","see_reward","","html-keyboard-response","341","1022526","0.0-350.0","0","0","CdjSZ","Scenes","","374","","","32","","133","","51","","","","-1","","","","","3","","","","","0","374","","","","","","","","","","","","","","","","","","","","","","","","",""
"","reward_outcome","","html-keyboard-response","342","1024540","0.0-351.0","0","0","CdjSZ","Scenes","","237","","","40","","133","","51","","","","","","","","","","","","","","","","-1","237","","","","","","","","","","","","","","","","","","","","","","",""
"","fixation","","html-keyboard-response","343","1025542","0.0-354.0","0","0","CdjSZ","Scenes","","null","","","null","","","","","","","","","","","","","","","","","","","","","","","","","","","","","","","","","","","","","","","","","","","",""
"","see_reward","","html-keyboard-response","344","1026686","0.0-355.0","0","0","CdjSZ","Scenes","","1142","","","32","","129","","52","","","","1","","","","","3","","","","","151","1142","","","","","","","","","","","","","","","","","","","","","","","","",""
"","reward_outcome","","html-keyboard-response","345","1028691","0.0-356.0","0","0","CdjSZ","Scenes","","587","","","38","","129","","52","","","","","","","","","","","","","","","","1","587","","","","","","","","","","","","","","","","","","","","","","",""
"","fixation","","html-keyboard-response","346","1029702","0.0-359.0","0","0","CdjSZ","Scenes","","null","","","null","","","","","","","","","","","","","","","","","","","","","","","","","","","","","","","","","","","","","","","","","","","",""
"","see_reward","","html-keyboard-response","347","1030133","0.0-360.0","0","0","CdjSZ","Scenes","","430","","","32","","115","","53","","","","1","","","","","3","","","","","155","430","","","","","","","","","","","","","","","","","","","","","","","","",""
"","reward_outcome","","html-keyboard-response","348","1032144","0.0-361.0","0","0","CdjSZ","Scenes","","346","","","38","","115","","53","","","","","","","","","","","","","","","","1","346","","","","","","","","","","","","","","","","","","","","","","",""
"","fixation","","html-keyboard-response","349","1033152","0.0-364.0","0","0","CdjSZ","Scenes","","null","","","null","","","","","","","","","","","","","","","","","","","","","","","","","","","","","","","","","","","","","","","","","","","",""
"","see_reward","","html-keyboard-response","350","1033600","0.0-365.0","0","0","CdjSZ","Scenes","","447","","","32","","115","","54","","","","1","","","","","3","","","","","155","447","","","","","","","","","","","","","","","","","","","","","","","","",""
"","reward_outcome","","html-keyboard-response","351","1035607","0.0-366.0","0","0","CdjSZ","Scenes","","219","","","38","","115","","54","","","","","","","","","","","","","","","","1","219","","","","","","","","","","","","","","","","","","","","","","",""
"","fixation","","html-keyboard-response","352","1036619","0.0-369.0","0","0","CdjSZ","Scenes","","null","","","null","","","","","","","","","","","","","","","","","","","","","","","","","","","","","","","","","","","","","","","","","","","",""
"","see_reward","","html-keyboard-response","353","1037080","0.0-370.0","0","0","CdjSZ","Scenes","","460","","","32","","116","","55","","","","-1","","","","","3","","","","","0","460","","","","","","","","","","","","","","","","","","","","","","","","",""
"","reward_outcome","","html-keyboard-response","354","1039091","0.0-371.0","0","0","CdjSZ","Scenes","","316","","","40","","116","","55","","","","","","","","","","","","","","","","-1","316","","","","","","","","","","","","","","","","","","","","","","",""
