"success","ttype","start_time","trial_type","trial_index","time_elapsed","internal_node_id","warning","missed_checkup","PID","stim_type","view_history","rt","responses","category","repeat_instructions","key_press","response","stimulus_id","painting","index","stimulus_left","stimulus_right","explain_trial","reward_type","rating_left","rating_right","painting_left","painting_right","block","left_chosen","chosen_obj","unchosen_obj","explain_response","reward_amount","see_reward_rt","register_reward_response","register_reward_rt","deliberation_reward_tally","stimulus_left_deliberation_ind","stimulus_right_deliberation_ind","chosen_trial","gain_left","higher_outcome_chosen","old_pair","chosen_object","rt_pairs","left_object_chosen","rt_object","old_response","new_rating","deliberated_stim","initial_rating","outcome_eval_rt","outcome_eval_response","outcome_eval_gain","outcome_eval_acc","preamble","outcome_eval_confidence","outcome_eval_confidence_rt","total_reward_tally"
"true","full_screen","d01182023hr1354","fullscreen","0","9561","0.0-0.0","0","0","Gh7vV","People","","","","","","","","","","","","","","","","","","","","","","","","","","","","","","","","","","","","","","","","","","","","","","","","","",""
"","rating_instructions","","instructions","1","20532","0.0-1.0-0.0","0","0","Gh7vV","People","[{""page_index"":0,""viewing_time"":7821},{""page_index"":1,""viewing_time"":3148}]","10969","","","","","","","","","","","","","","","","","","","","","","","","","","","","","","","","","","","","","","","","","","","","","","","",""
"","","","survey-multi-choice","2","25448","0.0-1.0-1.0","0","0","Gh7vV","People","","4913","{""Q0"":""True"",""Q1"":""Mouse""}","rating_comprehension_check","0","","","","","","","","","","","","","","","","","","","","","","","","","","","","","","","","","","","","","","","","","","","","",""
"","start_phase","","html-keyboard-response","3","27663","0.0-2.0","0","0","Gh7vV","People","","2213","","","","78","","","","","","","","","","","","","","","","","","","","","","","","","","","","","","","","","","","","","","","","","","","",""
"","rating","","html-slider-response","4","35199","0.0-3.0","0","0","Gh7vV","People","","7534","","","","","6","28","justin-chen-J7Cf1Gch49E-unsplash.jpg","0","","","","","","","","","","","","","","","","","","","","","","","","","","","","","","","","","","","","","","","",""
"","rating","","html-slider-response","5","41356","0.0-4.0","0","0","Gh7vV","People","","6155","","","","","68","42","prince-akachi-l3IHXOdMyHQ-unsplash.jpg","1","","","","","","","","","","","","","","","","","","","","","","","","","","","","","","","","","","","","","","","",""
"","rating","","html-slider-response","6","49007","0.0-5.0","0","0","Gh7vV","People","","7650","","","","","78","17","gleb-lukomets-paBzWCPN23k-unsplash.jpg","2","","","","","","","","","","","","","","","","","","","","","","","","","","","","","","","","","","","","","","","",""
"","rating","","html-slider-response","7","54991","0.0-6.0","0","0","Gh7vV","People","","5982","","","","","36","1","aiony-haust-jmATI5Q_YgY-unsplash.jpg","3","","","","","","","","","","","","","","","","","","","","","","","","","","","","","","","","","","","","","","","",""
"","rating","","html-slider-response","8","61455","0.0-7.0","0","0","Gh7vV","People","","6463","","","","","8","34","oliver-johnson-1TUIcKob7Zs-unsplash.jpg","4","","","","","","","","","","","","","","","","","","","","","","","","","","","","","","","","","","","","","","","",""
"","rating","","html-slider-response","9","67419","0.0-8.0","0","0","Gh7vV","People","","5962","","","","","2","2","arjunsyah-TBUA5KHJn6k-unsplash.jpg","5","","","","","","","","","","","","","","","","","","","","","","","","","","","","","","","","","","","","","","","",""
"","rating","","html-slider-response","10","73911","0.0-9.0","0","0","Gh7vV","People","","6490","","","","","72","33","olena-sergienko-0TSd6uCKTKc-unsplash.jpg","6","","","","","","","","","","","","","","","","","","","","","","","","","","","","","","","","","","","","","","","",""
"","rating","","html-slider-response","11","80107","0.0-10.0","0","0","Gh7vV","People","","6194","","","","","92","7","brooke-cagle-HRZUzoX1e6w-unsplash.jpg","7","","","","","","","","","","","","","","","","","","","","","","","","","","","","","","","","","","","","","","","",""
"","rating","","html-slider-response","12","88671","0.0-11.0","0","0","Gh7vV","People","","8562","","","","","34","0","abstral-official-cyOKLSgkgCE-unsplash.jpg","8","","","","","","","","","","","","","","","","","","","","","","","","","","","","","","","","","","","","","","","",""
"","rating","","html-slider-response","13","94582","0.0-12.0","0","0","Gh7vV","People","","5911","","","","","98","39","philip-martin-5aGUyCW_PJw-unsplash.jpg","9","","","","","","","","","","","","","","","","","","","","","","","","","","","","","","","","","","","","","","","",""
"","rating","","html-slider-response","14","106822","0.0-13.0","0","0","Gh7vV","People","","12239","","","","","45","4","barna-bartis-2x3vfVxwR7o-unsplash.jpg","10","","","","","","","","","","","","","","","","","","","","","","","","","","","","","","","","","","","","","","","",""
"","rating","","html-slider-response","15","111014","0.0-14.0","0","0","Gh7vV","People","","4190","","","","","90","41","prince-akachi-i2hoD-C2RUA-unsplash.jpg","11","","","","","","","","","","","","","","","","","","","","","","","","","","","","","","","","","","","","","","","",""
"","rating","","html-slider-response","16","116286","0.0-15.0","0","0","Gh7vV","People","","5271","","","","","81","21","jessica-felicio-_cvwXhGqG-o-unsplash.jpg","12","","","","","","","","","","","","","","","","","","","","","","","","","","","","","","","","","","","","","","","",""
"","rating","","html-slider-response","17","127070","0.0-16.0","0","0","Gh7vV","People","","10783","","","","","30","3","art-hauntington-jzY0KRJopEI-unsplash.jpg","13","","","","","","","","","","","","","","","","","","","","","","","","","","","","","","","","","","","","","","","",""
"","rating","","html-slider-response","18","134314","0.0-17.0","0","0","Gh7vV","People","","7243","","","","","32","22","jessica-radanavong-mrYkTuAesKE-unsplash.jpg","14","","","","","","","","","","","","","","","","","","","","","","","","","","","","","","","","","","","","","","","",""
"","rating","","html-slider-response","19","138878","0.0-18.0","0","0","Gh7vV","People","","4563","","","","","95","47","tyler-nix-ZGa9d1a_4tA-unsplash.jpg","15","","","","","","","","","","","","","","","","","","","","","","","","","","","","","","","","","","","","","","","",""
"","rating","","html-slider-response","20","143466","0.0-19.0","0","0","Gh7vV","People","","4587","","","","","3","35","oliver-ragfelt-khV4fTy6-D8-unsplash.jpg","16","","","","","","","","","","","","","","","","","","","","","","","","","","","","","","","","","","","","","","","",""
"","rating","","html-slider-response","21","147842","0.0-20.0","0","0","Gh7vV","People","","4374","","","","","78","45","sarah-noltner-pL5ZzPp1zqg-unsplash.jpg","17","","","","","","","","","","","","","","","","","","","","","","","","","","","","","","","","","","","","","","","",""
"","rating","","html-slider-response","22","151778","0.0-21.0","0","0","Gh7vV","People","","3935","","","","","4","13","erik-lucatero-d2MSDujJl2g-unsplash.jpg","18","","","","","","","","","","","","","","","","","","","","","","","","","","","","","","","","","","","","","","","",""
"","rating","","html-slider-response","23","156491","0.0-22.0","0","0","Gh7vV","People","","4711","","","","","22","27","jurica-koletic-7YVZYZeITc8-unsplash.jpg","19","","","","","","","","","","","","","","","","","","","","","","","","","","","","","","","","","","","","","","","",""
"","rating","","html-slider-response","24","161595","0.0-23.0","0","0","Gh7vV","People","","5103","","","","","92","19","ha-nguy-n-OFSQ6bHjFjs-unsplash.jpg","20","","","","","","","","","","","","","","","","","","","","","","","","","","","","","","","","","","","","","","","",""
"","rating","","html-slider-response","25","167875","0.0-24.0","0","0","Gh7vV","People","","6278","","","","","39","9","carlos-andres-gomez-vJuk8Y86mRw-unsplash.jpg","21","","","","","","","","","","","","","","","","","","","","","","","","","","","","","","","","","","","","","","","",""
"","rating","","html-slider-response","26","172203","0.0-25.0","0","0","Gh7vV","People","","4327","","","","","95","36","ospan-ali-mGdA2fzjWLo-unsplash.jpg","22","","","","","","","","","","","","","","","","","","","","","","","","","","","","","","","","","","","","","","","",""
"","rating","","html-slider-response","27","178011","0.0-26.0","0","0","Gh7vV","People","","5807","","","","","16","31","mathilda-khoo-vLR0YP_otCo-unsplash.jpg","23","","","","","","","","","","","","","","","","","","","","","","","","","","","","","","","","","","","","","","","",""
"","rating","","html-slider-response","28","183626","0.0-27.0","0","0","Gh7vV","People","","5614","","","","","4","8","bruce-dixon-3M9WJQVHzog-unsplash.jpg","24","","","","","","","","","","","","","","","","","","","","","","","","","","","","","","","","","","","","","","","",""
"","rating","","html-slider-response","29","188803","0.0-28.0","0","0","Gh7vV","People","","5175","","","","","4","49","vicky-hladynets-_gDoyVv5F4c-unsplash.jpg","25","","","","","","","","","","","","","","","","","","","","","","","","","","","","","","","","","","","","","","","",""
"","rating","","html-slider-response","30","193071","0.0-29.0","0","0","Gh7vV","People","","4266","","","","","29","25","joseph-gonzalez-iFgRcqHznqg-unsplash.jpg","26","","","","","","","","","","","","","","","","","","","","","","","","","","","","","","","","","","","","","","","",""
"","rating","","html-slider-response","31","197155","0.0-30.0","0","0","Gh7vV","People","","4082","","","","","79","24","joel-mott-LaK153ghdig-unsplash.jpg","27","","","","","","","","","","","","","","","","","","","","","","","","","","","","","","","","","","","","","","","",""
"","rating","","html-slider-response","32","201683","0.0-31.0","0","0","Gh7vV","People","","4528","","","","","64","15","gabriel-silverio-u3WmDyKGsrY-unsplash.jpg","28","","","","","","","","","","","","","","","","","","","","","","","","","","","","","","","","","","","","","","","",""
"","rating","","html-slider-response","33","206267","0.0-32.0","0","0","Gh7vV","People","","4582","","","","","94","10","charles-etoroma-95UF6LXe-Lo-unsplash.jpg","29","","","","","","","","","","","","","","","","","","","","","","","","","","","","","","","","","","","","","","","",""
"","rating","","html-slider-response","34","211171","0.0-33.0","0","0","Gh7vV","People","","4903","","","","","96","23","joanna-nix-walkup-H4fEMshfwTE-unsplash.jpg","30","","","","","","","","","","","","","","","","","","","","","","","","","","","","","","","","","","","","","","","",""
"","rating","","html-slider-response","35","215387","0.0-34.0","0","0","Gh7vV","People","","4214","","","","","5","48","velizar-ivanov-7ktP9yZA1g4-unsplash.jpg","31","","","","","","","","","","","","","","","","","","","","","","","","","","","","","","","","","","","","","","","",""
"","rating","","html-slider-response","36","219363","0.0-35.0","0","0","Gh7vV","People","","3974","","","","","62","20","houcine-ncib-B4TjXnI0Y2c-unsplash.jpg","32","","","","","","","","","","","","","","","","","","","","","","","","","","","","","","","","","","","","","","","",""
"","rating","","html-slider-response","37","223555","0.0-36.0","0","0","Gh7vV","People","","4190","","","","","83","38","petr-sevcovic-HzDF-rxlSeM-unsplash.jpg","33","","","","","","","","","","","","","","","","","","","","","","","","","","","","","","","","","","","","","","","",""
"","rating","","html-slider-response","38","228235","0.0-37.0","0","0","Gh7vV","People","","4679","","","","","65","14","freddy-kearney-o-ioeoATbIM-unsplash.jpg","34","","","","","","","","","","","","","","","","","","","","","","","","","","","","","","","","","","","","","","","",""
"","rating","","html-slider-response","39","232355","0.0-38.0","0","0","Gh7vV","People","","4118","","","","","3","37","pavel-anoshin-d0peGya6R5Y-unsplash.jpg","35","","","","","","","","","","","","","","","","","","","","","","","","","","","","","","","","","","","","","","","",""
"","rating","","html-slider-response","40","236707","0.0-39.0","0","0","Gh7vV","People","","4350","","","","","92","26","juri-gianfrancesco-9EZadYaMzk4-unsplash.jpg","36","","","","","","","","","","","","","","","","","","","","","","","","","","","","","","","","","","","","","","","",""
"","rating","","html-slider-response","41","242187","0.0-40.0","0","0","Gh7vV","People","","5478","","","","","84","44","rikonavt-HQjfrvdTfak-unsplash.jpg","37","","","","","","","","","","","","","","","","","","","","","","","","","","","","","","","","","","","","","","","",""
"","rating","","html-slider-response","42","245967","0.0-41.0","0","0","Gh7vV","People","","3778","","","","","42","18","good-faces-xmSWVeGEnJw-unsplash.jpg","38","","","","","","","","","","","","","","","","","","","","","","","","","","","","","","","","","","","","","","","",""
"","rating","","html-slider-response","43","251103","0.0-42.0","0","0","Gh7vV","People","","5136","","","","","90","43","raamin-ka-0qJBEzudn5E-unsplash.jpg","39","","","","","","","","","","","","","","","","","","","","","","","","","","","","","","","","","","","","","","","",""
"","rating","","html-slider-response","44","258683","0.0-43.0","0","0","Gh7vV","People","","7578","","","","","82","11","christian-ferrer-8vT-DgHZDG4-unsplash.jpg","40","","","","","","","","","","","","","","","","","","","","","","","","","","","","","","","","","","","","","","","",""
"","rating","","html-slider-response","45","265719","0.0-44.0","0","0","Gh7vV","People","","7034","","","","","45","12","daniel-rigdon-dXmXKPP2L4E-unsplash.jpg","41","","","","","","","","","","","","","","","","","","","","","","","","","","","","","","","","","","","","","","","",""
"","rating","","html-slider-response","46","270359","0.0-45.0","0","0","Gh7vV","People","","4638","","","","","58","40","prince-akachi-4Yv84VgQkRM-unsplash.jpg","42","","","","","","","","","","","","","","","","","","","","","","","","","","","","","","","","","","","","","","","",""
"","rating","","html-slider-response","47","274999","0.0-46.0","0","0","Gh7vV","People","","4638","","","","","95","5","batel-studio-ttSRjiYG_WM-unsplash.jpg","43","","","","","","","","","","","","","","","","","","","","","","","","","","","","","","","","","","","","","","","",""
"","rating","","html-slider-response","48","286094","0.0-47.0","0","0","Gh7vV","People","","11095","","","","","65","16","giano-currie-5-9YOsmf8IQ-unsplash.jpg","44","","","","","","","","","","","","","","","","","","","","","","","","","","","","","","","","","","","","","","","",""
"","rating","","html-slider-response","49","290606","0.0-48.0","0","0","Gh7vV","People","","4511","","","","","96","6","ben-o-bro-C5XyLljkMrY-unsplash.jpg","45","","","","","","","","","","","","","","","","","","","","","","","","","","","","","","","","","","","","","","","",""
"","rating","","html-slider-response","50","295238","0.0-49.0","0","0","Gh7vV","People","","4631","","","","","6","32","nathan-dumlao-ger61_TX6oI-unsplash.jpg","46","","","","","","","","","","","","","","","","","","","","","","","","","","","","","","","","","","","","","","","",""
"","rating","","html-slider-response","51","300742","0.0-50.0","0","0","Gh7vV","People","","5503","","","","","86","46","stefan-stefancik-QXevDflbl8A-unsplash.jpg","47","","","","","","","","","","","","","","","","","","","","","","","","","","","","","","","","","","","","","","","",""
"","rating","","html-slider-response","52","304791","0.0-51.0","0","0","Gh7vV","People","","4047","","","","","57","29","leilani-angel-K84vnnzxmTQ-unsplash.jpg","48","","","","","","","","","","","","","","","","","","","","","","","","","","","","","","","","","","","","","","","",""
"","rating","","html-slider-response","53","314390","0.0-52.0","0","0","Gh7vV","People","","9599","","","","","22","30","matheus-ferrero-pg_WCHWSdT8-unsplash.jpg","49","","","","","","","","","","","","","","","","","","","","","","","","","","","","","","","","","","","","","","","",""
"","deliberation_instructions","","instructions","54","368779","0.0-53.0-0.0","0","0","Gh7vV","People","[{""page_index"":0,""viewing_time"":17261},{""page_index"":1,""viewing_time"":6000},{""page_index"":2,""viewing_time"":10904},{""page_index"":3,""viewing_time"":16988},{""page_index"":4,""viewing_time"":3232}]","54385","","","","","","","","","","","","","","","","","","","","","","","","","","","","","","","","","","","","","","","","","","","","","","","",""
"","","","survey-multi-choice","55","387179","0.0-53.0-1.0","0","0","Gh7vV","People","","18397","{""Q0"":""True"",""Q1"":""True"",""Q2"":""Consider carefully and take your time (up to 10 seconds)"",""Q3"":""True"",""Q4"":""D""}","deliberation_comprehension_check","0","","","","","","","","","","","","","","","","","","","","","","","","","","","","","","","","","","","","","","","","","","","","",""
"","start_phase","","html-keyboard-response","56","389349","0.0-54.0","0","0","Gh7vV","People","","2168","","","","78","","","","","","","","","","","","","","","","","","","","","","","","","","","","","","","","","","","","","","","","","","","",""
"","first_deliberation_block","","html-keyboard-response","57","392373","0.0-55.0","0","0","Gh7vV","People","","3021","","","","78","","","","","","","","","","","","","","","","","","","","","","","","","","","","","","","","","","","","","","","","","","","",""
"","fixation","","html-keyboard-response","58","393386","0.0-56.0-0.0","0","0","Gh7vV","People","","null","","","","null","","","","","","","","","","","","","","","","","","","","","","","","","","","","","","","","","","","","","","","","","","","",""
"","deliberation","","html-keyboard-response","59","394629","0.0-56.0-1.0","0","0","Gh7vV","People","","1239","","","","75","","","","0","38","42","1","1","83","68","petr-sevcovic-HzDF-rxlSeM-unsplash.jpg","prince-akachi-l3IHXOdMyHQ-unsplash.jpg","1","0","42","38","","","","","","","","","","","","","","","","","","","","","","","","","","","",""
"","choice_confirmation","","html-keyboard-response","60","395134","0.0-56.0-2.0-0.0","0","0","Gh7vV","People","","null","","","","null","","","","0","38","42","","","","","","","","","","","","","","","","","","","","","","","","","","","","","","","","","","","","","",""
"","explain_trial","","survey-text","61","417491","0.0-56.0-5.0-0.0","0","0","Gh7vV","People","","22355","{""Q0"":""It has a nice background, a calming aesthetic, and looks more like a work of art than the other one. ""}","","","","","","","0","38","42","","","","","","","","","","","{""Q0"":""It has a nice background, a calming aesthetic, and looks more like a work of art than the other one. ""}","","","","","","","","","","","","","","","","","","","","","","","","","","",""
"","fixation","","html-keyboard-response","62","418500","0.0-57.0-0.0","0","0","Gh7vV","People","","null","","","","null","","","","","","","","","","","","","","","","","","","","","","","","","","","","","","","","","","","","","","","","","","","",""
"","deliberation","","html-keyboard-response","63","420397","0.0-57.0-1.0","0","0","Gh7vV","People","","1895","","","","75","","","","1","22","21","0","-1","32","81","jessica-radanavong-mrYkTuAesKE-unsplash.jpg","jessica-felicio-_cvwXhGqG-o-unsplash.jpg","1","0","21","22","","","","","","","","","","","","","","","","","","","","","","","","","","","",""
"","choice_confirmation","","html-keyboard-response","64","420903","0.0-57.0-2.0-0.0","0","0","Gh7vV","People","","null","","","","null","","","","1","22","21","","","","","","","","","","","","","","","","","","","","","","","","","","","","","","","","","","","","","",""
"","fixation","","html-keyboard-response","65","421923","0.0-58.0-0.0","0","0","Gh7vV","People","","null","","","","null","","","","","","","","","","","","","","","","","","","","","","","","","","","","","","","","","","","","","","","","","","","",""
"","deliberation","","html-keyboard-response","66","423621","0.0-58.0-1.0","0","0","Gh7vV","People","","1695","","","","68","","","","2","40","44","1","-1","58","84","prince-akachi-4Yv84VgQkRM-unsplash.jpg","rikonavt-HQjfrvdTfak-unsplash.jpg","1","1","40","44","","","","","","","","","","","","","","","","","","","","","","","","","","","",""
"","choice_confirmation","","html-keyboard-response","67","424127","0.0-58.0-2.0-0.0","0","0","Gh7vV","People","","null","","","","null","","","","2","40","44","","","","","","","","","","","","","","","","","","","","","","","","","","","","","","","","","","","","","",""
"","explain_trial","","survey-text","68","458739","0.0-58.0-5.0-0.0","0","0","Gh7vV","People","","34610","{""Q0"":""It looks more artistic and also the subject has a more pleasant face. Plus it has a nice background color that complements the subject's clothing. ""}","","","","","","","2","40","44","","","","","","","","","","","{""Q0"":""It looks more artistic and also the subject has a more pleasant face. Plus it has a nice background color that complements the subject's clothing. ""}","","","","","","","","","","","","","","","","","","","","","","","","","","",""
"","fixation","","html-keyboard-response","69","459755","0.0-59.0-0.0","0","0","Gh7vV","People","","null","","","","null","","","","","","","","","","","","","","","","","","","","","","","","","","","","","","","","","","","","","","","","","","","",""
"","deliberation","","html-keyboard-response","70","461308","0.0-59.0-1.0","0","0","Gh7vV","People","","1550","","","","75","","","","3","25","3","0","-1","29","30","joseph-gonzalez-iFgRcqHznqg-unsplash.jpg","art-hauntington-jzY0KRJopEI-unsplash.jpg","1","0","3","25","","","","","","","","","","","","","","","","","","","","","","","","","","","",""
"","choice_confirmation","","html-keyboard-response","71","461813","0.0-59.0-2.0-0.0","0","0","Gh7vV","People","","null","","","","null","","","","3","25","3","","","","","","","","","","","","","","","","","","","","","","","","","","","","","","","","","","","","","",""
"","fixation","","html-keyboard-response","72","462828","0.0-60.0-0.0","0","0","Gh7vV","People","","null","","","","null","","","","","","","","","","","","","","","","","","","","","","","","","","","","","","","","","","","","","","","","","","","",""
"","deliberation","","html-keyboard-response","73","465154","0.0-60.0-1.0","0","0","Gh7vV","People","","2324","","","","68","","","","4","14","4","1","1","65","45","freddy-kearney-o-ioeoATbIM-unsplash.jpg","barna-bartis-2x3vfVxwR7o-unsplash.jpg","1","1","14","4","","","","","","","","","","","","","","","","","","","","","","","","","","","",""
"","choice_confirmation","","html-keyboard-response","74","465668","0.0-60.0-2.0-0.0","0","0","Gh7vV","People","","null","","","","null","","","","4","14","4","","","","","","","","","","","","","","","","","","","","","","","","","","","","","","","","","","","","","",""
"","explain_trial","","survey-text","75","493870","0.0-60.0-5.0-0.0","0","0","Gh7vV","People","","28200","{""Q0"":""This man looks like he has a story to tell. He looks much more real and authentic than the man in the other photograph. Plus the background is more attention grabbing. ""}","","","","","","","4","14","4","","","","","","","","","","","{""Q0"":""This man looks like he has a story to tell. He looks much more real and authentic than the man in the other photograph. Plus the background is more attention grabbing. ""}","","","","","","","","","","","","","","","","","","","","","","","","","","",""
"","fixation","","html-keyboard-response","76","494881","0.0-61.0-0.0","0","0","Gh7vV","People","","null","","","","null","","","","","","","","","","","","","","","","","","","","","","","","","","","","","","","","","","","","","","","","","","","",""
"","deliberation","","html-keyboard-response","77","496508","0.0-61.0-1.0","0","0","Gh7vV","People","","1624","","","","75","","","","5","12","1","0","-1","45","36","daniel-rigdon-dXmXKPP2L4E-unsplash.jpg","aiony-haust-jmATI5Q_YgY-unsplash.jpg","1","0","1","12","","","","","","","","","","","","","","","","","","","","","","","","","","","",""
"","choice_confirmation","","html-keyboard-response","78","497016","0.0-61.0-2.0-0.0","0","0","Gh7vV","People","","null","","","","null","","","","5","12","1","","","","","","","","","","","","","","","","","","","","","","","","","","","","","","","","","","","","","",""
"","fixation","","html-keyboard-response","79","498030","0.0-62.0-0.0","0","0","Gh7vV","People","","null","","","","null","","","","","","","","","","","","","","","","","","","","","","","","","","","","","","","","","","","","","","","","","","","",""
"","deliberation","","html-keyboard-response","80","500388","0.0-62.0-1.0","0","0","Gh7vV","People","","2356","","","","68","","","","6","0","15","0","1","34","64","abstral-official-cyOKLSgkgCE-unsplash.jpg","gabriel-silverio-u3WmDyKGsrY-unsplash.jpg","1","1","0","15","","","","","","","","","","","","","","","","","","","","","","","","","","","",""
"","choice_confirmation","","html-keyboard-response","81","500906","0.0-62.0-2.0-0.0","0","0","Gh7vV","People","","null","","","","null","","","","6","0","15","","","","","","","","","","","","","","","","","","","","","","","","","","","","","","","","","","","","","",""
"","fixation","","html-keyboard-response","82","501922","0.0-63.0-0.0","0","0","Gh7vV","People","","null","","","","null","","","","","","","","","","","","","","","","","","","","","","","","","","","","","","","","","","","","","","","","","","","",""
"","deliberation","","html-keyboard-response","83","503204","0.0-63.0-1.0","0","0","Gh7vV","People","","1281","","","","75","","","","7","45","24","1","-1","78","79","sarah-noltner-pL5ZzPp1zqg-unsplash.jpg","joel-mott-LaK153ghdig-unsplash.jpg","1","0","24","45","","","","","","","","","","","","","","","","","","","","","","","","","","","",""
"","choice_confirmation","","html-keyboard-response","84","503716","0.0-63.0-2.0-0.0","0","0","Gh7vV","People","","null","","","","null","","","","7","45","24","","","","","","","","","","","","","","","","","","","","","","","","","","","","","","","","","","","","","",""
"","explain_trial","","survey-text","85","525790","0.0-63.0-5.0-0.0","0","0","Gh7vV","People","","22071","{""Q0"":""Her expression is lovely, the background is great, and the print on her outfit really pops. You could use this for a travel brochure!""}","","","","","","","7","45","24","","","","","","","","","","","{""Q0"":""Her expression is lovely, the background is great, and the print on her outfit really pops. You could use this for a travel brochure!""}","","","","","","","","","","","","","","","","","","","","","","","","","","",""
"","fixation","","html-keyboard-response","86","526801","0.0-64.0-0.0","0","0","Gh7vV","People","","null","","","","null","","","","","","","","","","","","","","","","","","","","","","","","","","","","","","","","","","","","","","","","","","","",""
"","deliberation","","html-keyboard-response","87","529076","0.0-64.0-1.0","0","0","Gh7vV","People","","2273","","","","68","","","","8","20","29","0","1","62","57","houcine-ncib-B4TjXnI0Y2c-unsplash.jpg","leilani-angel-K84vnnzxmTQ-unsplash.jpg","1","1","20","29","","","","","","","","","","","","","","","","","","","","","","","","","","","",""
"","choice_confirmation","","html-keyboard-response","88","529582","0.0-64.0-2.0-0.0","0","0","Gh7vV","People","","null","","","","null","","","","8","20","29","","","","","","","","","","","","","","","","","","","","","","","","","","","","","","","","","","","","","",""
"","fixation","","html-keyboard-response","89","530593","0.0-65.0-0.0","0","0","Gh7vV","People","","null","","","","null","","","","","","","","","","","","","","","","","","","","","","","","","","","","","","","","","","","","","","","","","","","",""
"","deliberation","","html-keyboard-response","90","532308","0.0-65.0-1.0","0","0","Gh7vV","People","","1713","","","","68","","","","9","9","18","1","-1","39","42","carlos-andres-gomez-vJuk8Y86mRw-unsplash.jpg","good-faces-xmSWVeGEnJw-unsplash.jpg","1","1","9","18","","","","","","","","","","","","","","","","","","","","","","","","","","","",""
"","choice_confirmation","","html-keyboard-response","91","532812","0.0-65.0-2.0-0.0","0","0","Gh7vV","People","","null","","","","null","","","","9","9","18","","","","","","","","","","","","","","","","","","","","","","","","","","","","","","","","","","","","","",""
"","explain_trial","","survey-text","92","556254","0.0-65.0-5.0-0.0","0","0","Gh7vV","People","","23440","{""Q0"":""It has a more artistic aesthetic conveyed in the man's pose and expression, plus the background color catches the eye. ""}","","","","","","","9","9","18","","","","","","","","","","","{""Q0"":""It has a more artistic aesthetic conveyed in the man's pose and expression, plus the background color catches the eye. ""}","","","","","","","","","","","","","","","","","","","","","","","","","","",""
"","fixation","","html-keyboard-response","93","557266","0.0-66.0-0.0","0","0","Gh7vV","People","","null","","","","null","","","","","","","","","","","","","","","","","","","","","","","","","","","","","","","","","","","","","","","","","","","",""
"","deliberation","","html-keyboard-response","94","559012","0.0-66.0-1.0","0","0","Gh7vV","People","","1745","","","","75","","","","10","11","17","1","1","82","78","christian-ferrer-8vT-DgHZDG4-unsplash.jpg","gleb-lukomets-paBzWCPN23k-unsplash.jpg","1","0","17","11","","","","","","","","","","","","","","","","","","","","","","","","","","","",""
"","choice_confirmation","","html-keyboard-response","95","559517","0.0-66.0-2.0-0.0","0","0","Gh7vV","People","","null","","","","null","","","","10","11","17","","","","","","","","","","","","","","","","","","","","","","","","","","","","","","","","","","","","","",""
"","explain_trial","","survey-text","96","631091","0.0-66.0-5.0-0.0","0","0","Gh7vV","People","","71572","{""Q0"":""Though I can't exactly tell, this woman appears to be a transwoman and transwomen need more representation and aspirational models to inspire their transitions and come into their identities. If she's not a transwoman, I'm sorry for assuming so, but either way she conveys a very artistic aesthetic. ""}","","","","","","","10","11","17","","","","","","","","","","","{""Q0"":""Though I can't exactly tell, this woman appears to be a transwoman and transwomen need more representation and aspirational models to inspire their transitions and come into their identities. If she's not a transwoman, I'm sorry for assuming so, but either way she conveys a very artistic aesthetic. ""}","","","","","","","","","","","","","","","","","","","","","","","","","","",""
"","fixation","","html-keyboard-response","97","632111","0.0-67.0-0.0","0","0","Gh7vV","People","","null","","","","null","","","","","","","","","","","","","","","","","","","","","","","","","","","","","","","","","","","","","","","","","","","",""
"","deliberation","","html-keyboard-response","98","633317","0.0-67.0-1.0","0","0","Gh7vV","People","","1204","","","","75","","","","11","33","16","0","1","72","65","olena-sergienko-0TSd6uCKTKc-unsplash.jpg","giano-currie-5-9YOsmf8IQ-unsplash.jpg","1","0","16","33","","","","","","","","","","","","","","","","","","","","","","","","","","","",""
"","choice_confirmation","","html-keyboard-response","99","633830","0.0-67.0-2.0-0.0","0","0","Gh7vV","People","","null","","","","null","","","","11","33","16","","","","","","","","","","","","","","","","","","","","","","","","","","","","","","","","","","","","","",""
"","practice_deliberation_again","","html-keyboard-response","100","637660","0.0-67.0-6.0-0.0","0","0","Gh7vV","People","","3827","","","","78","","","","","","","","","","","","","","","","","","","","","","","","","","","","","","","","","","","","","","","","","","","",""
"","fixation","","html-keyboard-response","101","638669","0.0-68.0-0.0","0","0","Gh7vV","People","","null","","","","null","","","","","","","","","","","","","","","","","","","","","","","","","","","","","","","","","","","","","","","","","","","",""
"","deliberation","","html-keyboard-response","102","639596","0.0-68.0-1.0","0","0","Gh7vV","People","","925","","","","68","","","","12","40","44","0","-1","58","84","prince-akachi-4Yv84VgQkRM-unsplash.jpg","rikonavt-HQjfrvdTfak-unsplash.jpg","2","1","40","44","","","","","","","","","","","","","","","","","","","","","","","","","","","",""
"","choice_confirmation","","html-keyboard-response","103","640105","0.0-68.0-2.0-0.0","0","0","Gh7vV","People","","null","","","","null","","","","12","40","44","","","","","","","","","","","","","","","","","","","","","","","","","","","","","","","","","","","","","",""
"","fixation","","html-keyboard-response","104","641121","0.0-69.0-0.0","0","0","Gh7vV","People","","null","","","","null","","","","","","","","","","","","","","","","","","","","","","","","","","","","","","","","","","","","","","","","","","","",""
"","deliberation","","html-keyboard-response","105","641956","0.0-69.0-1.0","0","0","Gh7vV","People","","833","","","","68","","","","13","9","18","0","-1","39","42","carlos-andres-gomez-vJuk8Y86mRw-unsplash.jpg","good-faces-xmSWVeGEnJw-unsplash.jpg","2","1","9","18","","","","","","","","","","","","","","","","","","","","","","","","","","","",""
"","choice_confirmation","","html-keyboard-response","106","642461","0.0-69.0-2.0-0.0","0","0","Gh7vV","People","","null","","","","null","","","","13","9","18","","","","","","","","","","","","","","","","","","","","","","","","","","","","","","","","","","","","","",""
"","fixation","","html-keyboard-response","107","643477","0.0-70.0-0.0","0","0","Gh7vV","People","","null","","","","null","","","","","","","","","","","","","","","","","","","","","","","","","","","","","","","","","","","","","","","","","","","",""
"","deliberation","","html-keyboard-response","108","644908","0.0-70.0-1.0","0","0","Gh7vV","People","","1429","","","","68","","","","14","0","15","1","1","34","64","abstral-official-cyOKLSgkgCE-unsplash.jpg","gabriel-silverio-u3WmDyKGsrY-unsplash.jpg","2","1","0","15","","","","","","","","","","","","","","","","","","","","","","","","","","","",""
"","choice_confirmation","","html-keyboard-response","109","645421","0.0-70.0-2.0-0.0","0","0","Gh7vV","People","","null","","","","null","","","","14","0","15","","","","","","","","","","","","","","","","","","","","","","","","","","","","","","","","","","","","","",""
"","explain_trial","","survey-text","110","669010","0.0-70.0-5.0-0.0","0","0","Gh7vV","People","","23587","{""Q0"":""The man has a lot of raw expression in his face and looks more authentic than the woman in the other photograph. He looks like he has a story to tell. ""}","","","","","","","14","0","15","","","","","","","","","","","{""Q0"":""The man has a lot of raw expression in his face and looks more authentic than the woman in the other photograph. He looks like he has a story to tell. ""}","","","","","","","","","","","","","","","","","","","","","","","","","","",""
"","fixation","","html-keyboard-response","111","670033","0.0-71.0-0.0","0","0","Gh7vV","People","","null","","","","null","","","","","","","","","","","","","","","","","","","","","","","","","","","","","","","","","","","","","","","","","","","",""
"","deliberation","","html-keyboard-response","112","671364","0.0-71.0-1.0","0","0","Gh7vV","People","","1330","","","","68","","","","15","20","29","1","1","62","57","houcine-ncib-B4TjXnI0Y2c-unsplash.jpg","leilani-angel-K84vnnzxmTQ-unsplash.jpg","2","1","20","29","","","","","","","","","","","","","","","","","","","","","","","","","","","",""
"","choice_confirmation","","html-keyboard-response","113","671871","0.0-71.0-2.0-0.0","0","0","Gh7vV","People","","null","","","","null","","","","15","20","29","","","","","","","","","","","","","","","","","","","","","","","","","","","","","","","","","","","","","",""
"","explain_trial","","survey-text","114","695533","0.0-71.0-5.0-0.0","0","0","Gh7vV","People","","23660","{""Q0"":""The filtering, colors, and aesthetic create a more artistic, eye-catching vibe. ""}","","","","","","","15","20","29","","","","","","","","","","","{""Q0"":""The filtering, colors, and aesthetic create a more artistic, eye-catching vibe. ""}","","","","","","","","","","","","","","","","","","","","","","","","","","",""
"","fixation","","html-keyboard-response","115","696548","0.0-72.0-0.0","0","0","Gh7vV","People","","null","","","","null","","","","","","","","","","","","","","","","","","","","","","","","","","","","","","","","","","","","","","","","","","","",""
"","deliberation","","html-keyboard-response","116","697676","0.0-72.0-1.0","0","0","Gh7vV","People","","1126","","","","75","","","","16","12","1","1","-1","45","36","daniel-rigdon-dXmXKPP2L4E-unsplash.jpg","aiony-haust-jmATI5Q_YgY-unsplash.jpg","2","0","1","12","","","","","","","","","","","","","","","","","","","","","","","","","","","",""
"","choice_confirmation","","html-keyboard-response","117","698184","0.0-72.0-2.0-0.0","0","0","Gh7vV","People","","null","","","","null","","","","16","12","1","","","","","","","","","","","","","","","","","","","","","","","","","","","","","","","","","","","","","",""
"","explain_trial","","survey-text","118","725550","0.0-72.0-5.0-0.0","0","0","Gh7vV","People","","27364","{""Q0"":""The photo is very detailed and less boring than the one on the left. Her makeup is very well done and her color scheme is attention grabbing. ""}","","","","","","","16","12","1","","","","","","","","","","","{""Q0"":""The photo is very detailed and less boring than the one on the left. Her makeup is very well done and her color scheme is attention grabbing. ""}","","","","","","","","","","","","","","","","","","","","","","","","","","",""
"","fixation","","html-keyboard-response","119","726568","0.0-73.0-0.0","0","0","Gh7vV","People","","null","","","","null","","","","","","","","","","","","","","","","","","","","","","","","","","","","","","","","","","","","","","","","","","","",""
"","deliberation","","html-keyboard-response","120","727461","0.0-73.0-1.0","0","0","Gh7vV","People","","890","","","","68","","","","17","14","4","0","1","65","45","freddy-kearney-o-ioeoATbIM-unsplash.jpg","barna-bartis-2x3vfVxwR7o-unsplash.jpg","2","1","14","4","","","","","","","","","","","","","","","","","","","","","","","","","","","",""
"","choice_confirmation","","html-keyboard-response","121","727971","0.0-73.0-2.0-0.0","0","0","Gh7vV","People","","null","","","","null","","","","17","14","4","","","","","","","","","","","","","","","","","","","","","","","","","","","","","","","","","","","","","",""
"","fixation","","html-keyboard-response","122","728983","0.0-74.0-0.0","0","0","Gh7vV","People","","null","","","","null","","","","","","","","","","","","","","","","","","","","","","","","","","","","","","","","","","","","","","","","","","","",""
"","deliberation","","html-keyboard-response","123","729949","0.0-74.0-1.0","0","0","Gh7vV","People","","963","","","","75","","","","18","22","21","1","-1","32","81","jessica-radanavong-mrYkTuAesKE-unsplash.jpg","jessica-felicio-_cvwXhGqG-o-unsplash.jpg","2","0","21","22","","","","","","","","","","","","","","","","","","","","","","","","","","","",""
"","choice_confirmation","","html-keyboard-response","124","730465","0.0-74.0-2.0-0.0","0","0","Gh7vV","People","","null","","","","null","","","","18","22","21","","","","","","","","","","","","","","","","","","","","","","","","","","","","","","","","","","","","","",""
"","explain_trial","","survey-text","125","750487","0.0-74.0-5.0-0.0","0","0","Gh7vV","People","","20020","{""Q0"":""I love the color scheme, her hair, her vibe, the soft filters, really I love everything about this photo. ""}","","","","","","","18","22","21","","","","","","","","","","","{""Q0"":""I love the color scheme, her hair, her vibe, the soft filters, really I love everything about this photo. ""}","","","","","","","","","","","","","","","","","","","","","","","","","","",""
"","fixation","","html-keyboard-response","126","751502","0.0-75.0-0.0","0","0","Gh7vV","People","","null","","","","null","","","","","","","","","","","","","","","","","","","","","","","","","","","","","","","","","","","","","","","","","","","",""
"","deliberation","","html-keyboard-response","127","752509","0.0-75.0-1.0","0","0","Gh7vV","People","","1004","","","","75","","","","19","25","3","1","-1","29","30","joseph-gonzalez-iFgRcqHznqg-unsplash.jpg","art-hauntington-jzY0KRJopEI-unsplash.jpg","2","0","3","25","","","","","","","","","","","","","","","","","","","","","","","","","","","",""
"","choice_confirmation","","html-keyboard-response","128","753013","0.0-75.0-2.0-0.0","0","0","Gh7vV","People","","null","","","","null","","","","19","25","3","","","","","","","","","","","","","","","","","","","","","","","","","","","","","","","","","","","","","",""
"","explain_trial","","survey-text","129","772814","0.0-75.0-5.0-0.0","0","0","Gh7vV","People","","19799","{""Q0"":""She has a soft and pleasant facial expression and does not look too domineering. ""}","","","","","","","19","25","3","","","","","","","","","","","{""Q0"":""She has a soft and pleasant facial expression and does not look too domineering. ""}","","","","","","","","","","","","","","","","","","","","","","","","","","",""
"","fixation","","html-keyboard-response","130","773820","0.0-76.0-0.0","0","0","Gh7vV","People","","null","","","","null","","","","","","","","","","","","","","","","","","","","","","","","","","","","","","","","","","","","","","","","","","","",""
"","deliberation","","html-keyboard-response","131","774813","0.0-76.0-1.0","0","0","Gh7vV","People","","991","","","","75","","","","20","11","17","0","1","82","78","christian-ferrer-8vT-DgHZDG4-unsplash.jpg","gleb-lukomets-paBzWCPN23k-unsplash.jpg","2","0","17","11","","","","","","","","","","","","","","","","","","","","","","","","","","","",""
"","choice_confirmation","","html-keyboard-response","132","775325","0.0-76.0-2.0-0.0","0","0","Gh7vV","People","","null","","","","null","","","","20","11","17","","","","","","","","","","","","","","","","","","","","","","","","","","","","","","","","","","","","","",""
"","fixation","","html-keyboard-response","133","776341","0.0-77.0-0.0","0","0","Gh7vV","People","","null","","","","null","","","","","","","","","","","","","","","","","","","","","","","","","","","","","","","","","","","","","","","","","","","",""
"","deliberation","","html-keyboard-response","134","777235","0.0-77.0-1.0","0","0","Gh7vV","People","","892","","","","75","","","","21","33","16","1","1","72","65","olena-sergienko-0TSd6uCKTKc-unsplash.jpg","giano-currie-5-9YOsmf8IQ-unsplash.jpg","2","0","16","33","","","","","","","","","","","","","","","","","","","","","","","","","","","",""
"","choice_confirmation","","html-keyboard-response","135","777745","0.0-77.0-2.0-0.0","0","0","Gh7vV","People","","null","","","","null","","","","21","33","16","","","","","","","","","","","","","","","","","","","","","","","","","","","","","","","","","","","","","",""
"","explain_trial","","survey-text","136","795754","0.0-77.0-5.0-0.0","0","0","Gh7vV","People","","18006","{""Q0"":""The background colors are everything! Plus her hairstyle is a whole vibe, and I love those hoops! ""}","","","","","","","21","33","16","","","","","","","","","","","{""Q0"":""The background colors are everything! Plus her hairstyle is a whole vibe, and I love those hoops! ""}","","","","","","","","","","","","","","","","","","","","","","","","","","",""
"","fixation","","html-keyboard-response","137","796772","0.0-78.0-0.0","0","0","Gh7vV","People","","null","","","","null","","","","","","","","","","","","","","","","","","","","","","","","","","","","","","","","","","","","","","","","","","","",""
"","deliberation","","html-keyboard-response","138","797651","0.0-78.0-1.0","0","0","Gh7vV","People","","877","","","","75","","","","22","45","24","0","-1","78","79","sarah-noltner-pL5ZzPp1zqg-unsplash.jpg","joel-mott-LaK153ghdig-unsplash.jpg","2","0","24","45","","","","","","","","","","","","","","","","","","","","","","","","","","","",""
"","choice_confirmation","","html-keyboard-response","139","798161","0.0-78.0-2.0-0.0","0","0","Gh7vV","People","","null","","","","null","","","","22","45","24","","","","","","","","","","","","","","","","","","","","","","","","","","","","","","","","","","","","","",""
"","fixation","","html-keyboard-response","140","799175","0.0-79.0-0.0","0","0","Gh7vV","People","","null","","","","null","","","","","","","","","","","","","","","","","","","","","","","","","","","","","","","","","","","","","","","","","","","",""
"","deliberation","","html-keyboard-response","141","800211","0.0-79.0-1.0","0","0","Gh7vV","People","","1034","","","","75","","","","23","38","42","0","1","83","68","petr-sevcovic-HzDF-rxlSeM-unsplash.jpg","prince-akachi-l3IHXOdMyHQ-unsplash.jpg","2","0","42","38","","","","","","","","","","","","","","","","","","","","","","","","","","","",""
"","choice_confirmation","","html-keyboard-response","142","800723","0.0-79.0-2.0-0.0","0","0","Gh7vV","People","","null","","","","null","","","","23","38","42","","","","","","","","","","","","","","","","","","","","","","","","","","","","","","","","","","","","","",""
"","start_critical_deliberation_block","","html-keyboard-response","143","803285","0.0-79.0-7.0-0.0","0","0","Gh7vV","People","","2559","","","","78","","","","","","","","","","","","","","","","","","","","","","","","","","","","","","","","","","","","","","","","","","","",""
"","fixation","","html-keyboard-response","144","804294","0.0-80.0-0.0","0","0","Gh7vV","People","","null","","","","null","","","","","","","","","","","","","","","","","","","","","","","","","","","","","","","","","","","","","","","","","","","",""
"","deliberation","","html-keyboard-response","145","805252","0.0-80.0-1.0","0","0","Gh7vV","People","","956","","","","68","","","","24","40","44","0","-1","58","84","prince-akachi-4Yv84VgQkRM-unsplash.jpg","rikonavt-HQjfrvdTfak-unsplash.jpg","3","1","40","44","","","","","","","","","","","","","","","","","","","","","","","","","","","",""
"","choice_confirmation","","html-keyboard-response","146","805759","0.0-80.0-2.0-0.0","0","0","Gh7vV","People","","null","","","","null","","","","24","40","44","","","","","","","","","","","","","","","","","","","","","","","","","","","","","","","","","","","","","",""
"","fixation","","html-keyboard-response","147","806773","0.0-81.0-0.0","0","0","Gh7vV","People","","null","","","","null","","","","","","","","","","","","","","","","","","","","","","","","","","","","","","","","","","","","","","","","","","","",""
"","deliberation","","html-keyboard-response","148","807476","0.0-81.0-1.0","0","0","Gh7vV","People","","701","","","","75","","","","25","33","16","0","1","72","65","olena-sergienko-0TSd6uCKTKc-unsplash.jpg","giano-currie-5-9YOsmf8IQ-unsplash.jpg","3","0","16","33","","","","","","","","","","","","","","","","","","","","","","","","","","","",""
"","choice_confirmation","","html-keyboard-response","149","807994","0.0-81.0-2.0-0.0","0","0","Gh7vV","People","","null","","","","null","","","","25","33","16","","","","","","","","","","","","","","","","","","","","","","","","","","","","","","","","","","","","","",""
"","fixation","","html-keyboard-response","150","809008","0.0-82.0-0.0","0","0","Gh7vV","People","","null","","","","null","","","","","","","","","","","","","","","","","","","","","","","","","","","","","","","","","","","","","","","","","","","",""
"","deliberation","","html-keyboard-response","151","809836","0.0-82.0-1.0","0","0","Gh7vV","People","","825","","","","75","","","","26","38","42","0","1","83","68","petr-sevcovic-HzDF-rxlSeM-unsplash.jpg","prince-akachi-l3IHXOdMyHQ-unsplash.jpg","3","0","42","38","","","","","","","","","","","","","","","","","","","","","","","","","","","",""
"","choice_confirmation","","html-keyboard-response","152","810347","0.0-82.0-2.0-0.0","0","0","Gh7vV","People","","null","","","","null","","","","26","38","42","","","","","","","","","","","","","","","","","","","","","","","","","","","","","","","","","","","","","",""
"","fixation","","html-keyboard-response","153","811361","0.0-83.0-0.0","0","0","Gh7vV","People","","null","","","","null","","","","","","","","","","","","","","","","","","","","","","","","","","","","","","","","","","","","","","","","","","","",""
"","deliberation","","html-keyboard-response","154","812156","0.0-83.0-1.0","0","0","Gh7vV","People","","793","","","","75","","","","27","25","3","0","-1","29","30","joseph-gonzalez-iFgRcqHznqg-unsplash.jpg","art-hauntington-jzY0KRJopEI-unsplash.jpg","3","0","3","25","","","","","","","","","","","","","","","","","","","","","","","","","","","",""
"","choice_confirmation","","html-keyboard-response","155","812672","0.0-83.0-2.0-0.0","0","0","Gh7vV","People","","null","","","","null","","","","27","25","3","","","","","","","","","","","","","","","","","","","","","","","","","","","","","","","","","","","","","",""
"","fixation","","html-keyboard-response","156","813689","0.0-84.0-0.0","0","0","Gh7vV","People","","null","","","","null","","","","","","","","","","","","","","","","","","","","","","","","","","","","","","","","","","","","","","","","","","","",""
"","deliberation","","html-keyboard-response","157","814621","0.0-84.0-1.0","0","0","Gh7vV","People","","929","","","","75","","","","28","12","1","0","-1","45","36","daniel-rigdon-dXmXKPP2L4E-unsplash.jpg","aiony-haust-jmATI5Q_YgY-unsplash.jpg","3","0","1","12","","","","","","","","","","","","","","","","","","","","","","","","","","","",""
"","choice_confirmation","","html-keyboard-response","158","815124","0.0-84.0-2.0-0.0","0","0","Gh7vV","People","","null","","","","null","","","","28","12","1","","","","","","","","","","","","","","","","","","","","","","","","","","","","","","","","","","","","","",""
"","fixation","","html-keyboard-response","159","816141","0.0-85.0-0.0","0","0","Gh7vV","People","","null","","","","null","","","","","","","","","","","","","","","","","","","","","","","","","","","","","","","","","","","","","","","","","","","",""
"","deliberation","","html-keyboard-response","160","817068","0.0-85.0-1.0","0","0","Gh7vV","People","","925","","","","75","","","","29","11","17","0","1","82","78","christian-ferrer-8vT-DgHZDG4-unsplash.jpg","gleb-lukomets-paBzWCPN23k-unsplash.jpg","3","0","17","11","","","","","","","","","","","","","","","","","","","","","","","","","","","",""
"","choice_confirmation","","html-keyboard-response","161","817576","0.0-85.0-2.0-0.0","0","0","Gh7vV","People","","null","","","","null","","","","29","11","17","","","","","","","","","","","","","","","","","","","","","","","","","","","","","","","","","","","","","",""
"","fixation","","html-keyboard-response","162","818590","0.0-86.0-0.0","0","0","Gh7vV","People","","null","","","","null","","","","","","","","","","","","","","","","","","","","","","","","","","","","","","","","","","","","","","","","","","","",""
"","deliberation","","html-keyboard-response","163","819396","0.0-86.0-1.0","0","0","Gh7vV","People","","804","","","","75","","","","30","22","21","0","-1","32","81","jessica-radanavong-mrYkTuAesKE-unsplash.jpg","jessica-felicio-_cvwXhGqG-o-unsplash.jpg","3","0","21","22","","","","","","","","","","","","","","","","","","","","","","","","","","","",""
"","choice_confirmation","","html-keyboard-response","164","819904","0.0-86.0-2.0-0.0","0","0","Gh7vV","People","","null","","","","null","","","","30","22","21","","","","","","","","","","","","","","","","","","","","","","","","","","","","","","","","","","","","","",""
"","fixation","","html-keyboard-response","165","820915","0.0-87.0-0.0","0","0","Gh7vV","People","","null","","","","null","","","","","","","","","","","","","","","","","","","","","","","","","","","","","","","","","","","","","","","","","","","",""
"","deliberation","","html-keyboard-response","166","821748","0.0-87.0-1.0","0","0","Gh7vV","People","","831","","","","68","","","","31","9","18","0","-1","39","42","carlos-andres-gomez-vJuk8Y86mRw-unsplash.jpg","good-faces-xmSWVeGEnJw-unsplash.jpg","3","1","9","18","","","","","","","","","","","","","","","","","","","","","","","","","","","",""
"","choice_confirmation","","html-keyboard-response","167","822258","0.0-87.0-2.0-0.0","0","0","Gh7vV","People","","null","","","","null","","","","31","9","18","","","","","","","","","","","","","","","","","","","","","","","","","","","","","","","","","","","","","",""
"","fixation","","html-keyboard-response","168","823274","0.0-88.0-0.0","0","0","Gh7vV","People","","null","","","","null","","","","","","","","","","","","","","","","","","","","","","","","","","","","","","","","","","","","","","","","","","","",""
"","deliberation","","html-keyboard-response","169","824036","0.0-88.0-1.0","0","0","Gh7vV","People","","760","","","","68","","","","32","14","4","0","1","65","45","freddy-kearney-o-ioeoATbIM-unsplash.jpg","barna-bartis-2x3vfVxwR7o-unsplash.jpg","3","1","14","4","","","","","","","","","","","","","","","","","","","","","","","","","","","",""
"","choice_confirmation","","html-keyboard-response","170","824555","0.0-88.0-2.0-0.0","0","0","Gh7vV","People","","null","","","","null","","","","32","14","4","","","","","","","","","","","","","","","","","","","","","","","","","","","","","","","","","","","","","",""
"","fixation","","html-keyboard-response","171","825569","0.0-89.0-0.0","0","0","Gh7vV","People","","null","","","","null","","","","","","","","","","","","","","","","","","","","","","","","","","","","","","","","","","","","","","","","","","","",""
"","deliberation","","html-keyboard-response","172","826402","0.0-89.0-1.0","0","0","Gh7vV","People","","830","","","","75","","","","33","45","24","0","-1","78","79","sarah-noltner-pL5ZzPp1zqg-unsplash.jpg","joel-mott-LaK153ghdig-unsplash.jpg","3","0","24","45","","","","","","","","","","","","","","","","","","","","","","","","","","","",""
"","choice_confirmation","","html-keyboard-response","173","826908","0.0-89.0-2.0-0.0","0","0","Gh7vV","People","","null","","","","null","","","","33","45","24","","","","","","","","","","","","","","","","","","","","","","","","","","","","","","","","","","","","","",""
"","fixation","","html-keyboard-response","174","827920","0.0-90.0-0.0","0","0","Gh7vV","People","","null","","","","null","","","","","","","","","","","","","","","","","","","","","","","","","","","","","","","","","","","","","","","","","","","",""
"","deliberation","","html-keyboard-response","175","828693","0.0-90.0-1.0","0","0","Gh7vV","People","","771","","","","68","","","","34","20","29","0","1","62","57","houcine-ncib-B4TjXnI0Y2c-unsplash.jpg","leilani-angel-K84vnnzxmTQ-unsplash.jpg","3","1","20","29","","","","","","","","","","","","","","","","","","","","","","","","","","","",""
"","choice_confirmation","","html-keyboard-response","176","829202","0.0-90.0-2.0-0.0","0","0","Gh7vV","People","","null","","","","null","","","","34","20","29","","","","","","","","","","","","","","","","","","","","","","","","","","","","","","","","","","","","","",""
"","fixation","","html-keyboard-response","177","830218","0.0-91.0-0.0","0","0","Gh7vV","People","","null","","","","null","","","","","","","","","","","","","","","","","","","","","","","","","","","","","","","","","","","","","","","","","","","",""
"","deliberation","","html-keyboard-response","178","831026","0.0-91.0-1.0","0","0","Gh7vV","People","","807","","","","68","","","","35","0","15","0","1","34","64","abstral-official-cyOKLSgkgCE-unsplash.jpg","gabriel-silverio-u3WmDyKGsrY-unsplash.jpg","3","1","0","15","","","","","","","","","","","","","","","","","","","","","","","","","","","",""
"","choice_confirmation","","html-keyboard-response","179","831545","0.0-91.0-2.0-0.0","0","0","Gh7vV","People","","null","","","","null","","","","35","0","15","","","","","","","","","","","","","","","","","","","","","","","","","","","","","","","","","","","","","",""
"","reward_learning_instructions","","instructions","180","879658","0.0-92.0-0.0","0","0","Gh7vV","People","[{""page_index"":0,""viewing_time"":10427},{""page_index"":1,""viewing_time"":36217},{""page_index"":2,""viewing_time"":1468}]","48112","","","","","","","","","","","","","","","","","","","","","","","","","","","","","","","","","","","","","","","","","","","","","","","",""
"","","","survey-multi-choice","181","890203","0.0-92.0-1.0","0","0","Gh7vV","People","","10541","{""Q0"":""True"",""Q1"":""True"",""Q2"":""Press the space bar to see its outcome"",""Q3"":""Press the relevant key while the outcome is presented""}","reward_comprehension_check","0","","","","","","","","","","","","","","","","","","","","","","","","","","","","","","","","","","","","","","","","","","","","",""
"","start_phase","","html-keyboard-response","182","892836","0.0-93.0","0","0","Gh7vV","People","","2631","","","","78","","","","","","","","","","","","","","","","","","","","","","","","","","","","","","","","","","","","","","","","","","","",""
"","fixation","","html-keyboard-response","183","893857","0.0-94.0","0","0","Gh7vV","People","","null","","","","null","","","","","","","","","","","","","","","","","","","","","","","","","","","","","","","","","","","","","","","","","","","",""
"","see_reward","","html-keyboard-response","184","894549","0.0-95.0","0","0","Gh7vV","People","","690","","","","32","","0","","0","","","","1","","","","","1","","","","","148","690","","","","","","","","","","","","","","","","","","","","","","","","",""
"","reward_outcome","","html-keyboard-response","185","896569","0.0-96.0","0","0","Gh7vV","People","","1004","","","","38","","0","","0","","","","","","","","","","","","","","","","1","1004","","","","","","","","","","","","","","","","","","","","","","",""
"","fixation","","html-keyboard-response","186","897583","0.0-99.0","0","0","Gh7vV","People","","null","","","","null","","","","","","","","","","","","","","","","","","","","","","","","","","","","","","","","","","","","","","","","","","","",""
"","see_reward","","html-keyboard-response","187","898213","0.0-100.0","0","0","Gh7vV","People","","627","","","","32","","14","","1","","","","1","","","","","1","","","","","148","627","","","","","","","","","","","","","","","","","","","","","","","","",""
"","reward_outcome","","html-keyboard-response","188","900234","0.0-101.0","0","0","Gh7vV","People","","1037","","","","38","","14","","1","","","","","","","","","","","","","","","","1","1037","","","","","","","","","","","","","","","","","","","","","","",""
"","fixation","","html-keyboard-response","189","901238","0.0-104.0","0","0","Gh7vV","People","","null","","","","null","","","","","","","","","","","","","","","","","","","","","","","","","","","","","","","","","","","","","","","","","","","",""
"","see_reward","","html-keyboard-response","190","901973","0.0-105.0","0","0","Gh7vV","People","","732","","","","32","","17","","2","","","","1","","","","","1","","","","","145","732","","","","","","","","","","","","","","","","","","","","","","","","",""
"","reward_outcome","","html-keyboard-response","191","903987","0.0-106.0","0","0","Gh7vV","People","","1012","","","","38","","17","","2","","","","","","","","","","","","","","","","1","1012","","","","","","","","","","","","","","","","","","","","","","",""
"","fixation","","html-keyboard-response","192","905000","0.0-109.0","0","0","Gh7vV","People","","null","","","","null","","","","","","","","","","","","","","","","","","","","","","","","","","","","","","","","","","","","","","","","","","","",""
"","see_reward","","html-keyboard-response","193","905668","0.0-110.0","0","0","Gh7vV","People","","666","","","","32","","24","","3","","","","-1","","","","","1","","","","","0","666","","","","","","","","","","","","","","","","","","","","","","","","",""
"","reward_outcome","","html-keyboard-response","194","907679","0.0-111.0","0","0","Gh7vV","People","","1021","","","","40","","24","","3","","","","","","","","","","","","","","","","-1","1021","","","","","","","","","","","","","","","","","","","","","","",""
"","fixation","","html-keyboard-response","195","908692","0.0-114.0","0","0","Gh7vV","People","","null","","","","null","","","","","","","","","","","","","","","","","","","","","","","","","","","","","","","","","","","","","","","","","","","",""
"","see_reward","","html-keyboard-response","196","909210","0.0-115.0","0","0","Gh7vV","People","","516","","","","32","","16","","4","","","","1","","","","","1","","","","","148","516","","","","","","","","","","","","","","","","","","","","","","","","",""
"","reward_outcome","","html-keyboard-response","197","911234","0.0-116.0","0","0","Gh7vV","People","","1001","","","","38","","16","","4","","","","","","","","","","","","","","","","1","1001","","","","","","","","","","","","","","","","","","","","","","",""
"","fixation","","html-keyboard-response","198","912247","0.0-119.0","0","0","Gh7vV","People","","null","","","","null","","","","","","","","","","","","","","","","","","","","","","","","","","","","","","","","","","","","","","","","","","","",""
"","see_reward","","html-keyboard-response","199","912804","0.0-120.0","0","0","Gh7vV","People","","555","","","","32","","20","","5","","","","1","","","","","1","","","","","150","555","","","","","","","","","","","","","","","","","","","","","","","","",""
"","reward_outcome","","html-keyboard-response","200","914821","0.0-121.0","0","0","Gh7vV","People","","1077","","","","38","","20","","5","","","","","","","","","","","","","","","","1","1077","","","","","","","","","","","","","","","","","","","","","","",""
"","fixation","","html-keyboard-response","201","915834","0.0-124.0","0","0","Gh7vV","People","","null","","","","null","","","","","","","","","","","","","","","","","","","","","","","","","","","","","","","","","","","","","","","","","","","",""
"","see_reward","","html-keyboard-response","202","916516","0.0-125.0","0","0","Gh7vV","People","","680","","","","32","","0","","6","","","","1","","","","","1","","","","","148","680","","","","","","","","","","","","","","","","","","","","","","","","",""
"","reward_outcome","","html-keyboard-response","203","918532","0.0-126.0","0","0","Gh7vV","People","","1094","","","","38","","0","","6","","","","","","","","","","","","","","","","1","1094","","","","","","","","","","","","","","","","","","","","","","",""
"","fixation","","html-keyboard-response","204","919546","0.0-129.0","0","0","Gh7vV","People","","null","","","","null","","","","","","","","","","","","","","","","","","","","","","","","","","","","","","","","","","","","","","","","","","","",""
"","see_reward","","html-keyboard-response","205","920140","0.0-130.0","0","0","Gh7vV","People","","592","","","","32","","42","","7","","","","1","","","","","1","","","","","143","592","","","","","","","","","","","","","","","","","","","","","","","","",""
"","reward_outcome","","html-keyboard-response","206","922151","0.0-131.0","0","0","Gh7vV","People","","1022","","","","38","","42","","7","","","","","","","","","","","","","","","","1","1022","","","","","","","","","","","","","","","","","","","","","","",""
"","fixation","","html-keyboard-response","207","923166","0.0-134.0","0","0","Gh7vV","People","","null","","","","null","","","","","","","","","","","","","","","","","","","","","","","","","","","","","","","","","","","","","","","","","","","",""
"","see_reward","","html-keyboard-response","208","923772","0.0-135.0","0","0","Gh7vV","People","","604","","","","32","","1","","8","","","","-1","","","","","1","","","","","0","604","","","","","","","","","","","","","","","","","","","","","","","","",""
"","reward_outcome","","html-keyboard-response","209","925785","0.0-136.0","0","0","Gh7vV","People","","1070","","","","40","","1","","8","","","","","","","","","","","","","","","","-1","1070","","","","","","","","","","","","","","","","","","","","","","",""
"","fixation","","html-keyboard-response","210","926799","0.0-139.0","0","0","Gh7vV","People","","null","","","","null","","","","","","","","","","","","","","","","","","","","","","","","","","","","","","","","","","","","","","","","","","","",""
"","see_reward","","html-keyboard-response","211","927532","0.0-140.0","0","0","Gh7vV","People","","730","","","","32","","42","","9","","","","1","","","","","1","","","","","143","730","","","","","","","","","","","","","","","","","","","","","","","","",""
"","reward_outcome","","html-keyboard-response","212","929545","0.0-141.0","0","0","Gh7vV","People","","1021","","","","38","","42","","9","","","","","","","","","","","","","","","","1","1021","","","","","","","","","","","","","","","","","","","","","","",""
"","fixation","","html-keyboard-response","213","930558","0.0-144.0","0","0","Gh7vV","People","","null","","","","null","","","","","","","","","","","","","","","","","","","","","","","","","","","","","","","","","","","","","","","","","","","",""
"","see_reward","","html-keyboard-response","214","931108","0.0-145.0","0","0","Gh7vV","People","","548","","","","32","","3","","10","","","","-1","","","","","1","","","","","0","548","","","","","","","","","","","","","","","","","","","","","","","","",""
"","reward_outcome","","html-keyboard-response","215","933117","0.0-146.0","0","0","Gh7vV","People","","1069","","","","40","","3","","10","","","","","","","","","","","","","","","","-1","1069","","","","","","","","","","","","","","","","","","","","","","",""
"","fixation","","html-keyboard-response","216","934129","0.0-149.0","0","0","Gh7vV","People","","null","","","","null","","","","","","","","","","","","","","","","","","","","","","","","","","","","","","","","","","","","","","","","","","","",""
"","see_reward","","html-keyboard-response","217","934692","0.0-150.0","0","0","Gh7vV","People","","561","","","","32","","17","","11","","","","1","","","","","1","","","","","145","561","","","","","","","","","","","","","","","","","","","","","","","","",""
"","reward_outcome","","html-keyboard-response","218","936702","0.0-151.0","0","0","Gh7vV","People","","1070","","","","38","","17","","11","","","","","","","","","","","","","","","","1","1070","","","","","","","","","","","","","","","","","","","","","","",""
"","fixation","","html-keyboard-response","219","937714","0.0-154.0","0","0","Gh7vV","People","","null","","","","null","","","","","","","","","","","","","","","","","","","","","","","","","","","","","","","","","","","","","","","","","","","",""
"","see_reward","","html-keyboard-response","220","938348","0.0-155.0","0","0","Gh7vV","People","","633","","","","32","","9","","12","","","","-1","","","","","1","","","","","0","633","","","","","","","","","","","","","","","","","","","","","","","","",""
"","reward_outcome","","html-keyboard-response","221","940367","0.0-156.0","0","0","Gh7vV","People","","1028","","","","40","","9","","12","","","","","","","","","","","","","","","","-1","1028","","","","","","","","","","","","","","","","","","","","","","",""
"","fixation","","html-keyboard-response","222","941381","0.0-159.0","0","0","Gh7vV","People","","null","","","","null","","","","","","","","","","","","","","","","","","","","","","","","","","","","","","","","","","","","","","","","","","","",""
"","see_reward","","html-keyboard-response","223","941986","0.0-160.0","0","0","Gh7vV","People","","603","","","","32","","1","","13","","","","-1","","","","","1","","","","","0","603","","","","","","","","","","","","","","","","","","","","","","","","",""
"","reward_outcome","","html-keyboard-response","224","944007","0.0-161.0","0","0","Gh7vV","People","","1104","","","","40","","1","","13","","","","","","","","","","","","","","","","-1","1104","","","","","","","","","","","","","","","","","","","","","","",""
"","fixation","","html-keyboard-response","225","945020","0.0-164.0","0","0","Gh7vV","People","","null","","","","null","","","","","","","","","","","","","","","","","","","","","","","","","","","","","","","","","","","","","","","","","","","",""
"","see_reward","","html-keyboard-response","226","945652","0.0-165.0","0","0","Gh7vV","People","","630","","","","32","","40","","14","","","","-1","","","","","1","","","","","0","630","","","","","","","","","","","","","","","","","","","","","","","","",""
"","reward_outcome","","html-keyboard-response","227","947671","0.0-166.0","0","0","Gh7vV","People","","1102","","","","40","","40","","14","","","","","","","","","","","","","","","","-1","1102","","","","","","","","","","","","","","","","","","","","","","",""
"","fixation","","html-keyboard-response","228","948689","0.0-169.0","0","0","Gh7vV","People","","null","","","","null","","","","","","","","","","","","","","","","","","","","","","","","","","","","","","","","","","","","","","","","","","","",""
"","see_reward","","html-keyboard-response","229","949244","0.0-170.0","0","0","Gh7vV","People","","553","","","","32","","21","","15","","","","-1","","","","","1","","","","","0","553","","","","","","","","","","","","","","","","","","","","","","","","",""
"","reward_outcome","","html-keyboard-response","230","951267","0.0-171.0","0","0","Gh7vV","People","","1190","","","","40","","21","","15","","","","","","","","","","","","","","","","-1","1190","","","","","","","","","","","","","","","","","","","","","","",""
"","fixation","","html-keyboard-response","231","952280","0.0-174.0","0","0","Gh7vV","People","","null","","","","null","","","","","","","","","","","","","","","","","","","","","","","","","","","","","","","","","","","","","","","","","","","",""
"","see_reward","","html-keyboard-response","232","952788","0.0-175.0","0","0","Gh7vV","People","","506","","","","32","","40","","16","","","","-1","","","","","1","","","","","0","506","","","","","","","","","","","","","","","","","","","","","","","","",""
"","reward_outcome","","html-keyboard-response","233","954801","0.0-176.0","0","0","Gh7vV","People","","1068","","","","40","","40","","16","","","","","","","","","","","","","","","","-1","1068","","","","","","","","","","","","","","","","","","","","","","",""
"","fixation","","html-keyboard-response","234","955813","0.0-179.0","0","0","Gh7vV","People","","null","","","","null","","","","","","","","","","","","","","","","","","","","","","","","","","","","","","","","","","","","","","","","","","","",""
"","see_reward","","html-keyboard-response","235","956308","0.0-180.0","0","0","Gh7vV","People","","493","","","","32","","3","","17","","","","-1","","","","","1","","","","","0","493","","","","","","","","","","","","","","","","","","","","","","","","",""
"","reward_outcome","","html-keyboard-response","236","958322","0.0-181.0","0","0","Gh7vV","People","","1086","","","","40","","3","","17","","","","","","","","","","","","","","","","-1","1086","","","","","","","","","","","","","","","","","","","","","","",""
"","fixation","","html-keyboard-response","237","959336","0.0-184.0","0","0","Gh7vV","People","","null","","","","null","","","","","","","","","","","","","","","","","","","","","","","","","","","","","","","","","","","","","","","","","","","",""
"","see_reward","","html-keyboard-response","238","959820","0.0-185.0","0","0","Gh7vV","People","","482","","","","32","","24","","18","","","","-1","","","","","1","","","","","0","482","","","","","","","","","","","","","","","","","","","","","","","","",""
"","reward_outcome","","html-keyboard-response","239","961843","0.0-186.0","0","0","Gh7vV","People","","1133","","","","40","","24","","18","","","","","","","","","","","","","","","","-1","1133","","","","","","","","","","","","","","","","","","","","","","",""
"","fixation","","html-keyboard-response","240","962859","0.0-189.0","0","0","Gh7vV","People","","null","","","","null","","","","","","","","","","","","","","","","","","","","","","","","","","","","","","","","","","","","","","","","","","","",""
"","see_reward","","html-keyboard-response","241","963436","0.0-190.0","0","0","Gh7vV","People","","575","","","","32","","21","","19","","","","-1","","","","","1","","","","","0","575","","","","","","","","","","","","","","","","","","","","","","","","",""
"","reward_outcome","","html-keyboard-response","242","965446","0.0-191.0","0","0","Gh7vV","People","","1022","","","","40","","21","","19","","","","","","","","","","","","","","","","-1","1022","","","","","","","","","","","","","","","","","","","","","","",""
"","fixation","","html-keyboard-response","243","966462","0.0-194.0","0","0","Gh7vV","People","","null","","","","null","","","","","","","","","","","","","","","","","","","","","","","","","","","","","","","","","","","","","","","","","","","",""
"","see_reward","","html-keyboard-response","244","966988","0.0-195.0","0","0","Gh7vV","People","","524","","","","32","","20","","20","","","","1","","","","","1","","","","","150","524","","","","","","","","","","","","","","","","","","","","","","","","",""
"","reward_outcome","","html-keyboard-response","245","969004","0.0-196.0","0","0","Gh7vV","People","","1054","","","","38","","20","","20","","","","","","","","","","","","","","","","1","1054","","","","","","","","","","","","","","","","","","","","","","",""
"","fixation","","html-keyboard-response","246","970018","0.0-199.0","0","0","Gh7vV","People","","null","","","","null","","","","","","","","","","","","","","","","","","","","","","","","","","","","","","","","","","","","","","","","","","","",""
"","see_reward","","html-keyboard-response","247","970540","0.0-200.0","0","0","Gh7vV","People","","520","","","","32","","14","","21","","","","1","","","","","1","","","","","148","520","","","","","","","","","","","","","","","","","","","","","","","","",""
"","reward_outcome","","html-keyboard-response","248","972562","0.0-201.0","0","0","Gh7vV","People","","1044","","","","38","","14","","21","","","","","","","","","","","","","","","","1","1044","","","","","","","","","","","","","","","","","","","","","","",""
"","fixation","","html-keyboard-response","249","973578","0.0-204.0","0","0","Gh7vV","People","","null","","","","null","","","","","","","","","","","","","","","","","","","","","","","","","","","","","","","","","","","","","","","","","","","",""
"","see_reward","","html-keyboard-response","250","974116","0.0-205.0","0","0","Gh7vV","People","","536","","","","32","","9","","22","","","","-1","","","","","1","","","","","0","536","","","","","","","","","","","","","","","","","","","","","","","","",""
"","reward_outcome","","html-keyboard-response","251","976134","0.0-206.0","0","0","Gh7vV","People","","1038","","","","40","","9","","22","","","","","","","","","","","","","","","","-1","1038","","","","","","","","","","","","","","","","","","","","","","",""
"","fixation","","html-keyboard-response","252","977149","0.0-209.0","0","0","Gh7vV","People","","null","","","","null","","","","","","","","","","","","","","","","","","","","","","","","","","","","","","","","","","","","","","","","","","","",""
"","see_reward","","html-keyboard-response","253","977716","0.0-210.0","0","0","Gh7vV","People","","564","","","","32","","16","","23","","","","1","","","","","1","","","","","148","564","","","","","","","","","","","","","","","","","","","","","","","","",""
"","reward_outcome","","html-keyboard-response","254","979725","0.0-211.0","0","0","Gh7vV","People","","998","","","","38","","16","","23","","","","","","","","","","","","","","","","1","998","","","","","","","","","","","","","","","","","","","","","","",""
"","block_over","","html-keyboard-response","255","982012","0.0-213.0-0.0","0","0","Gh7vV","People","","2285","","","","78","","","","","","","","","","","","","","","","","","","","","","","","","","","","","","","","","","","","","","","","","","","",""
"","fixation","","html-keyboard-response","256","983035","0.0-214.0","0","0","Gh7vV","People","","null","","","","null","","","","","","","","","","","","","","","","","","","","","","","","","","","","","","","","","","","","","","","","","","","",""
"","see_reward","","html-keyboard-response","257","983604","0.0-215.0","0","0","Gh7vV","People","","567","","","","32","","40","","24","","","","-1","","","","","2","","","","","0","567","","","","","","","","","","","","","","","","","","","","","","","","",""
"","reward_outcome","","html-keyboard-response","258","985623","0.0-216.0","0","0","Gh7vV","People","","1021","","","","40","","40","","24","","","","","","","","","","","","","","","","-1","1021","","","","","","","","","","","","","","","","","","","","","","",""
"","fixation","","html-keyboard-response","259","986639","0.0-219.0","0","0","Gh7vV","People","","null","","","","null","","","","","","","","","","","","","","","","","","","","","","","","","","","","","","","","","","","","","","","","","","","",""
"","see_reward","","html-keyboard-response","260","987090","0.0-220.0","0","0","Gh7vV","People","","449","","","","32","","14","","25","","","","1","","","","","2","","","","","148","449","","","","","","","","","","","","","","","","","","","","","","","","",""
"","reward_outcome","","html-keyboard-response","261","989101","0.0-221.0","0","0","Gh7vV","People","","993","","","","38","","14","","25","","","","","","","","","","","","","","","","1","993","","","","","","","","","","","","","","","","","","","","","","",""
"","fixation","","html-keyboard-response","262","990117","0.0-224.0","0","0","Gh7vV","People","","null","","","","null","","","","","","","","","","","","","","","","","","","","","","","","","","","","","","","","","","","","","","","","","","","",""
"","see_reward","","html-keyboard-response","263","990644","0.0-225.0","0","0","Gh7vV","People","","525","","","","32","","40","","26","","","","-1","","","","","2","","","","","0","525","","","","","","","","","","","","","","","","","","","","","","","","",""
"","reward_outcome","","html-keyboard-response","264","992660","0.0-226.0","0","0","Gh7vV","People","","1022","","","","40","","40","","26","","","","","","","","","","","","","","","","-1","1022","","","","","","","","","","","","","","","","","","","","","","",""
"","fixation","","html-keyboard-response","265","993674","0.0-229.0","0","0","Gh7vV","People","","null","","","","null","","","","","","","","","","","","","","","","","","","","","","","","","","","","","","","","","","","","","","","","","","","",""
"","see_reward","","html-keyboard-response","266","994052","0.0-230.0","0","0","Gh7vV","People","","376","","","","32","","0","","27","","","","1","","","","","2","","","","","148","376","","","","","","","","","","","","","","","","","","","","","","","","",""
"","reward_outcome","","html-keyboard-response","267","996062","0.0-231.0","0","0","Gh7vV","People","","1054","","","","38","","0","","27","","","","","","","","","","","","","","","","1","1054","","","","","","","","","","","","","","","","","","","","","","",""
"","fixation","","html-keyboard-response","268","997080","0.0-234.0","0","0","Gh7vV","People","","null","","","","null","","","","","","","","","","","","","","","","","","","","","","","","","","","","","","","","","","","","","","","","","","","",""
"","see_reward","","html-keyboard-response","269","997548","0.0-235.0","0","0","Gh7vV","People","","465","","","","32","","24","","28","","","","-1","","","","","2","","","","","0","465","","","","","","","","","","","","","","","","","","","","","","","","",""
"","reward_outcome","","html-keyboard-response","270","999560","0.0-236.0","0","0","Gh7vV","People","","1045","","","","40","","24","","28","","","","","","","","","","","","","","","","-1","1045","","","","","","","","","","","","","","","","","","","","","","",""
"","fixation","","html-keyboard-response","271","1000576","0.0-239.0","0","0","Gh7vV","People","","null","","","","null","","","","","","","","","","","","","","","","","","","","","","","","","","","","","","","","","","","","","","","","","","","",""
"","see_reward","","html-keyboard-response","272","1000980","0.0-240.0","0","0","Gh7vV","People","","401","","","","32","","21","","29","","","","-1","","","","","2","","","","","0","401","","","","","","","","","","","","","","","","","","","","","","","","",""
"","reward_outcome","","html-keyboard-response","273","1002990","0.0-241.0","0","0","Gh7vV","People","","1102","","","","40","","21","","29","","","","","","","","","","","","","","","","-1","1102","","","","","","","","","","","","","","","","","","","","","","",""
"","fixation","","html-keyboard-response","274","1004009","0.0-244.0","0","0","Gh7vV","People","","null","","","","null","","","","","","","","","","","","","","","","","","","","","","","","","","","","","","","","","","","","","","","","","","","",""
"","see_reward","","html-keyboard-response","275","1004508","0.0-245.0","0","0","Gh7vV","People","","497","","","","32","","16","","30","","","","1","","","","","2","","","","","148","497","","","","","","","","","","","","","","","","","","","","","","","","",""
"","reward_outcome","","html-keyboard-response","276","1006521","0.0-246.0","0","0","Gh7vV","People","","1046","","","","38","","16","","30","","","","","","","","","","","","","","","","1","1046","","","","","","","","","","","","","","","","","","","","","","",""
"","fixation","","html-keyboard-response","277","1007536","0.0-249.0","0","0","Gh7vV","People","","null","","","","null","","","","","","","","","","","","","","","","","","","","","","","","","","","","","","","","","","","","","","","","","","","",""
"","see_reward","","html-keyboard-response","278","1008084","0.0-250.0","0","0","Gh7vV","People","","545","","","","32","","21","","31","","","","-1","","","","","2","","","","","0","545","","","","","","","","","","","","","","","","","","","","","","","","",""
"","reward_outcome","","html-keyboard-response","279","1010097","0.0-251.0","0","0","Gh7vV","People","","1062","","","","40","","21","","31","","","","","","","","","","","","","","","","-1","1062","","","","","","","","","","","","","","","","","","","","","","",""
"","fixation","","html-keyboard-response","280","1011113","0.0-254.0","0","0","Gh7vV","People","","null","","","","null","","","","","","","","","","","","","","","","","","","","","","","","","","","","","","","","","","","","","","","","","","","",""
"","see_reward","","html-keyboard-response","281","1011531","0.0-255.0","0","0","Gh7vV","People","","416","","","","32","","3","","32","","","","-1","","","","","2","","","","","0","416","","","","","","","","","","","","","","","","","","","","","","","","",""
"","reward_outcome","","html-keyboard-response","282","1013544","0.0-256.0","0","0","Gh7vV","People","","1112","","","","40","","3","","32","","","","","","","","","","","","","","","","-1","1112","","","","","","","","","","","","","","","","","","","","","","",""
"","fixation","","html-keyboard-response","283","1014556","0.0-259.0","0","0","Gh7vV","People","","null","","","","null","","","","","","","","","","","","","","","","","","","","","","","","","","","","","","","","","","","","","","","","","","","",""
"","see_reward","","html-keyboard-response","284","1015052","0.0-260.0","0","0","Gh7vV","People","","495","","","","32","","17","","33","","","","1","","","","","2","","","","","145","495","","","","","","","","","","","","","","","","","","","","","","","","",""
"","reward_outcome","","html-keyboard-response","285","1017070","0.0-261.0","0","0","Gh7vV","People","","926","","","","38","","17","","33","","","","","","","","","","","","","","","","1","926","","","","","","","","","","","","","","","","","","","","","","",""
"","fixation","","html-keyboard-response","286","1018085","0.0-264.0","0","0","Gh7vV","People","","null","","","","null","","","","","","","","","","","","","","","","","","","","","","","","","","","","","","","","","","","","","","","","","","","",""
"","see_reward","","html-keyboard-response","287","1018572","0.0-265.0","0","0","Gh7vV","People","","485","","","","32","","16","","34","","","","1","","","","","2","","","","","148","485","","","","","","","","","","","","","","","","","","","","","","","","",""
"","reward_outcome","","html-keyboard-response","288","1020593","0.0-266.0","0","0","Gh7vV","People","","1020","","","","38","","16","","34","","","","","","","","","","","","","","","","1","1020","","","","","","","","","","","","","","","","","","","","","","",""
"","fixation","","html-keyboard-response","289","1021608","0.0-269.0","0","0","Gh7vV","People","","null","","","","null","","","","","","","","","","","","","","","","","","","","","","","","","","","","","","","","","","","","","","","","","","","",""
"","see_reward","","html-keyboard-response","290","1022154","0.0-270.0","0","0","Gh7vV","People","","545","","","","32","","20","","35","","","","1","","","","","2","","","","","150","545","","","","","","","","","","","","","","","","","","","","","","","","",""
"","reward_outcome","","html-keyboard-response","291","1024164","0.0-271.0","0","0","Gh7vV","People","","1063","","","","38","","20","","35","","","","","","","","","","","","","","","","1","1063","","","","","","","","","","","","","","","","","","","","","","",""
"","fixation","","html-keyboard-response","292","1025179","0.0-274.0","0","0","Gh7vV","People","","null","","","","null","","","","","","","","","","","","","","","","","","","","","","","","","","","","","","","","","","","","","","","","","","","",""
"","see_reward","","html-keyboard-response","293","1025764","0.0-275.0","0","0","Gh7vV","People","","583","","","","32","","9","","36","","","","-1","","","","","2","","","","","0","583","","","","","","","","","","","","","","","","","","","","","","","","",""
"","reward_outcome","","html-keyboard-response","294","1027786","0.0-276.0","0","0","Gh7vV","People","","1012","","","","40","","9","","36","","","","","","","","","","","","","","","","-1","1012","","","","","","","","","","","","","","","","","","","","","","",""
"","fixation","","html-keyboard-response","295","1028800","0.0-279.0","0","0","Gh7vV","People","","null","","","","null","","","","","","","","","","","","","","","","","","","","","","","","","","","","","","","","","","","","","","","","","","","",""
"","see_reward","","html-keyboard-response","296","1029234","0.0-280.0","0","0","Gh7vV","People","","432","","","","32","","42","","37","","","","1","","","","","2","","","","","143","432","","","","","","","","","","","","","","","","","","","","","","","","",""
"","reward_outcome","","html-keyboard-response","297","1031257","0.0-281.0","0","0","Gh7vV","People","","1007","","","","38","","42","","37","","","","","","","","","","","","","","","","1","1007","","","","","","","","","","","","","","","","","","","","","","",""
"","fixation","","html-keyboard-response","298","1032271","0.0-284.0","0","0","Gh7vV","People","","null","","","","null","","","","","","","","","","","","","","","","","","","","","","","","","","","","","","","","","","","","","","","","","","","",""
"","see_reward","","html-keyboard-response","299","1032788","0.0-285.0","0","0","Gh7vV","People","","515","","","","32","","1","","38","","","","-1","","","","","2","","","","","0","515","","","","","","","","","","","","","","","","","","","","","","","","",""
"","reward_outcome","","html-keyboard-response","300","1034799","0.0-286.0","0","0","Gh7vV","People","","1054","","","","40","","1","","38","","","","","","","","","","","","","","","","-1","1054","","","","","","","","","","","","","","","","","","","","","","",""
"","fixation","","html-keyboard-response","301","1035809","0.0-289.0","0","0","Gh7vV","People","","null","","","","null","","","","","","","","","","","","","","","","","","","","","","","","","","","","","","","","","","","","","","","","","","","",""
"","see_reward","","html-keyboard-response","302","1036332","0.0-290.0","0","0","Gh7vV","People","","521","","","","32","","9","","39","","","","-1","","","","","2","","","","","0","521","","","","","","","","","","","","","","","","","","","","","","","","",""
"","reward_outcome","","html-keyboard-response","303","1038353","0.0-291.0","0","0","Gh7vV","People","","1021","","","","40","","9","","39","","","","","","","","","","","","","","","","-1","1021","","","","","","","","","","","","","","","","","","","","","","",""
"","fixation","","html-keyboard-response","304","1039366","0.0-294.0","0","0","Gh7vV","People","","null","","","","null","","","","","","","","","","","","","","","","","","","","","","","","","","","","","","","","","","","","","","","","","","","",""
"","see_reward","","html-keyboard-response","305","1039876","0.0-295.0","0","0","Gh7vV","People","","507","","","","32","","14","","40","","","","1","","","","","2","","","","","148","507","","","","","","","","","","","","","","","","","","","","","","","","",""
"","reward_outcome","","html-keyboard-response","306","1041890","0.0-296.0","0","0","Gh7vV","People","","1118","","","","38","","14","","40","","","","","","","","","","","","","","","","1","1118","","","","","","","","","","","","","","","","","","","","","","",""
"","fixation","","html-keyboard-response","307","1042907","0.0-299.0","0","0","Gh7vV","People","","null","","","","null","","","","","","","","","","","","","","","","","","","","","","","","","","","","","","","","","","","","","","","","","","","",""
"","see_reward","","html-keyboard-response","308","1043508","0.0-300.0","0","0","Gh7vV","People","","598","","","","32","","24","","41","","","","-1","","","","","2","","","","","0","598","","","","","","","","","","","","","","","","","","","","","","","","",""
"","reward_outcome","","html-keyboard-response","309","1045530","0.0-301.0","0","0","Gh7vV","People","","878","","","","40","","24","","41","","","","","","","","","","","","","","","","-1","878","","","","","","","","","","","","","","","","","","","","","","",""
"","fixation","","html-keyboard-response","310","1046542","0.0-304.0","0","0","Gh7vV","People","","null","","","","null","","","","","","","","","","","","","","","","","","","","","","","","","","","","","","","","","","","","","","","","","","","",""
"","see_reward","","html-keyboard-response","311","1047274","0.0-305.0","0","0","Gh7vV","People","","730","","","","32","","1","","42","","","","-1","","","","","2","","","","","0","730","","","","","","","","","","","","","","","","","","","","","","","","",""
"","reward_outcome","","html-keyboard-response","312","1049298","0.0-306.0","0","0","Gh7vV","People","","985","","","","40","","1","","42","","","","","","","","","","","","","","","","-1","985","","","","","","","","","","","","","","","","","","","","","","",""
"","fixation","","html-keyboard-response","313","1050311","0.0-309.0","0","0","Gh7vV","People","","null","","","","null","","","","","","","","","","","","","","","","","","","","","","","","","","","","","","","","","","","","","","","","","","","",""
"","see_reward","","html-keyboard-response","314","1050884","0.0-310.0","0","0","Gh7vV","People","","571","","","","32","","17","","43","","","","1","","","","","2","","","","","145","571","","","","","","","","","","","","","","","","","","","","","","","","",""
"","reward_outcome","","html-keyboard-response","315","1052903","0.0-311.0","0","0","Gh7vV","People","","1069","","","","38","","17","","43","","","","","","","","","","","","","","","","1","1069","","","","","","","","","","","","","","","","","","","","","","",""
"","fixation","","html-keyboard-response","316","1053919","0.0-314.0","0","0","Gh7vV","People","","null","","","","null","","","","","","","","","","","","","","","","","","","","","","","","","","","","","","","","","","","","","","","","","","","",""
"","see_reward","","html-keyboard-response","317","1054412","0.0-315.0","0","0","Gh7vV","People","","492","","","","32","","3","","44","","","","-1","","","","","2","","","","","0","492","","","","","","","","","","","","","","","","","","","","","","","","",""
"","reward_outcome","","html-keyboard-response","318","1056428","0.0-316.0","0","0","Gh7vV","People","","1070","","","","40","","3","","44","","","","","","","","","","","","","","","","-1","1070","","","","","","","","","","","","","","","","","","","","","","",""
"","fixation","","html-keyboard-response","319","1057443","0.0-319.0","0","0","Gh7vV","People","","null","","","","null","","","","","","","","","","","","","","","","","","","","","","","","","","","","","","","","","","","","","","","","","","","",""
"","see_reward","","html-keyboard-response","320","1057972","0.0-320.0","0","0","Gh7vV","People","","526","","","","32","","20","","45","","","","1","","","","","2","","","","","150","526","","","","","","","","","","","","","","","","","","","","","","","","",""
"","reward_outcome","","html-keyboard-response","321","1059991","0.0-321.0","0","0","Gh7vV","People","","1045","","","","38","","20","","45","","","","","","","","","","","","","","","","1","1045","","","","","","","","","","","","","","","","","","","","","","",""
"","fixation","","html-keyboard-response","322","1061003","0.0-324.0","0","0","Gh7vV","People","","null","","","","null","","","","","","","","","","","","","","","","","","","","","","","","","","","","","","","","","","","","","","","","","","","",""
"","see_reward","","html-keyboard-response","323","1061532","0.0-325.0","0","0","Gh7vV","People","","526","","","","32","","0","","46","","","","1","","","","","2","","","","","148","526","","","","","","","","","","","","","","","","","","","","","","","","",""
"","reward_outcome","","html-keyboard-response","324","1063544","0.0-326.0","0","0","Gh7vV","People","","1094","","","","38","","0","","46","","","","","","","","","","","","","","","","1","1094","","","","","","","","","","","","","","","","","","","","","","",""
"","fixation","","html-keyboard-response","325","1064559","0.0-329.0","0","0","Gh7vV","People","","null","","","","null","","","","","","","","","","","","","","","","","","","","","","","","","","","","","","","","","","","","","","","","","","","",""
"","see_reward","","html-keyboard-response","326","1065108","0.0-330.0","0","0","Gh7vV","People","","546","","","","32","","42","","47","","","","1","","","","","2","","","","","143","546","","","","","","","","","","","","","","","","","","","","","","","","",""
"","reward_outcome","","html-keyboard-response","327","1067123","0.0-331.0","0","0","Gh7vV","People","","1149","","","","38","","42","","47","","","","","","","","","","","","","","","","1","1149","","","","","","","","","","","","","","","","","","","","","","",""
"","block_over","","html-keyboard-response","328","1069212","0.0-333.0-0.0","0","0","Gh7vV","People","","2087","","","","78","","","","","","","","","","","","","","","","","","","","","","","","","","","","","","","","","","","","","","","","","","","",""
"","fixation","","html-keyboard-response","329","1070233","0.0-334.0","0","0","Gh7vV","People","","null","","","","null","","","","","","","","","","","","","","","","","","","","","","","","","","","","","","","","","","","","","","","","","","","",""
"","see_reward","","html-keyboard-response","330","1070740","0.0-335.0","0","0","Gh7vV","People","","506","","","","32","","17","","48","","","","1","","","","","3","","","","","145","506","","","","","","","","","","","","","","","","","","","","","","","","",""
"","reward_outcome","","html-keyboard-response","331","1072752","0.0-336.0","0","0","Gh7vV","People","","1022","","","","38","","17","","48","","","","","","","","","","","","","","","","1","1022","","","","","","","","","","","","","","","","","","","","","","",""
"","fixation","","html-keyboard-response","332","1073762","0.0-339.0","0","0","Gh7vV","People","","null","","","","null","","","","","","","","","","","","","","","","","","","","","","","","","","","","","","","","","","","","","","","","","","","",""
"","see_reward","","html-keyboard-response","333","1074218","0.0-340.0","0","0","Gh7vV","People","","453","","","","32","","21","","49","","","","-1","","","","","3","","","","","0","453","","","","","","","","","","","","","","","","","","","","","","","","",""
"","reward_outcome","","html-keyboard-response","334","1076230","0.0-341.0","0","0","Gh7vV","People","","1079","","","","40","","21","","49","","","","","","","","","","","","","","","","-1","1079","","","","","","","","","","","","","","","","","","","","","","",""
"","fixation","","html-keyboard-response","335","1077239","0.0-344.0","0","0","Gh7vV","People","","null","","","","null","","","","","","","","","","","","","","","","","","","","","","","","","","","","","","","","","","","","","","","","","","","",""
"","see_reward","","html-keyboard-response","336","1077668","0.0-345.0","0","0","Gh7vV","People","","427","","","","32","","1","","50","","","","-1","","","","","3","","","","","0","427","","","","","","","","","","","","","","","","","","","","","","","","",""
"","reward_outcome","","html-keyboard-response","337","1079677","0.0-346.0","0","0","Gh7vV","People","","974","","","","40","","1","","50","","","","","","","","","","","","","","","","-1","974","","","","","","","","","","","","","","","","","","","","","","",""
"","fixation","","html-keyboard-response","338","1080690","0.0-349.0","0","0","Gh7vV","People","","null","","","","null","","","","","","","","","","","","","","","","","","","","","","","","","","","","","","","","","","","","","","","","","","","",""
"","see_reward","","html-keyboard-response","339","1081116","0.0-350.0","0","0","Gh7vV","People","","424","","","","32","","42","","51","","","","1","","","","","3","","","","","143","424","","","","","","","","","","","","","","","","","","","","","","","","",""
"","reward_outcome","","html-keyboard-response","340","1083125","0.0-351.0","0","0","Gh7vV","People","","964","","","","38","","42","","51","","","","","","","","","","","","","","","","1","964","","","","","","","","","","","","","","","","","","","","","","",""
"","fixation","","html-keyboard-response","341","1084141","0.0-354.0","0","0","Gh7vV","People","","null","","","","null","","","","","","","","","","","","","","","","","","","","","","","","","","","","","","","","","","","","","","","","","","","",""
"","see_reward","","html-keyboard-response","342","1084596","0.0-355.0","0","0","Gh7vV","People","","452","","","","32","","17","","52","","","","1","","","","","3","","","","","145","452","","","","","","","","","","","","","","","","","","","","","","","","",""
"","reward_outcome","","html-keyboard-response","343","1086618","0.0-356.0","0","0","Gh7vV","People","","1005","","","","38","","17","","52","","","","","","","","","","","","","","","","1","1005","","","","","","","","","","","","","","","","","","","","","","",""
