"success","ttype","start_time","trial_type","trial_index","time_elapsed","internal_node_id","warning","missed_checkup","PID","stim_type","view_history","rt","responses","category","repeat_instructions","key_press","response","stimulus_id","painting","index","stimulus_left","stimulus_right","explain_trial","reward_type","rating_left","rating_right","painting_left","painting_right","block","left_chosen","chosen_obj","unchosen_obj","explain_response","reward_amount","see_reward_rt","register_reward_response","register_reward_rt","deliberation_reward_tally","stimulus_left_deliberation_ind","stimulus_right_deliberation_ind","chosen_trial","gain_left","higher_outcome_chosen","old_pair","chosen_object","rt_pairs","left_object_chosen","rt_object","old_response","new_rating","deliberated_stim","initial_rating","outcome_eval_rt","outcome_eval_response","outcome_eval_gain","outcome_eval_acc","preamble","outcome_eval_confidence","outcome_eval_confidence_rt","total_reward_tally"
"true","full_screen","d01192023hr2044","fullscreen","0","107587","0.0-0.0","0","0","P8w1m","Scenes","","","","","","","","","","","","","","","","","","","","","","","","","","","","","","","","","","","","","","","","","","","","","","","","","",""
"","rating_instructions","","instructions","1","139139","0.0-1.0-0.0","0","0","P8w1m","Scenes","[{""page_index"":0,""viewing_time"":27324},{""page_index"":1,""viewing_time"":4224}]","31549","","","","","","","","","","","","","","","","","","","","","","","","","","","","","","","","","","","","","","","","","","","","","","","",""
"","","","survey-multi-choice","2","148474","0.0-1.0-1.0","0","0","P8w1m","Scenes","","9331","{""Q0"":""True"",""Q1"":""Mouse""}","rating_comprehension_check","0","","","","","","","","","","","","","","","","","","","","","","","","","","","","","","","","","","","","","","","","","","","","",""
"","start_phase","","html-keyboard-response","3","151150","0.0-2.0","0","0","P8w1m","Scenes","","2672","","","","78","","","","","","","","","","","","","","","","","","","","","","","","","","","","","","","","","","","","","","","","","","","",""
"","rating","","html-slider-response","4","155546","0.0-3.0","0","0","P8w1m","Scenes","","4393","","","","","76","135","mohammad-alizade-4wzRuAb-KWs-unsplash.jpg","0","","","","","","","","","","","","","","","","","","","","","","","","","","","","","","","","","","","","","","","",""
"","rating","","html-slider-response","5","159291","0.0-4.0","0","0","P8w1m","Scenes","","3742","","","","","89","147","tobias-keller-73F4pKoUkM0-unsplash.jpg","1","","","","","","","","","","","","","","","","","","","","","","","","","","","","","","","","","","","","","","","",""
"","rating","","html-slider-response","6","163114","0.0-5.0","0","0","P8w1m","Scenes","","3821","","","","","79","132","meng-ji-8BH_M-53CyA-unsplash.jpg","2","","","","","","","","","","","","","","","","","","","","","","","","","","","","","","","","","","","","","","","",""
"","rating","","html-slider-response","7","166906","0.0-6.0","0","0","P8w1m","Scenes","","3789","","","","","69","146","thomas-morse-cuKKa0vWZSY-unsplash.jpg","3","","","","","","","","","","","","","","","","","","","","","","","","","","","","","","","","","","","","","","","",""
"","rating","","html-slider-response","8","170427","0.0-7.0","0","0","P8w1m","Scenes","","3518","","","","","63","141","sebastian-unrau-v4e3JI7DDHI-unsplash.jpg","4","","","","","","","","","","","","","","","","","","","","","","","","","","","","","","","","","","","","","","","",""
"","rating","","html-slider-response","9","174714","0.0-8.0","0","0","P8w1m","Scenes","","4286","","","","","56","113","damian-denis-D8R_txR_0PE-unsplash.jpg","5","","","","","","","","","","","","","","","","","","","","","","","","","","","","","","","","","","","","","","","",""
"","rating","","html-slider-response","10","178698","0.0-9.0","0","0","P8w1m","Scenes","","3982","","","","","54","101","aniket-deole-T-tOgjWZ0fQ-unsplash.jpg","6","","","","","","","","","","","","","","","","","","","","","","","","","","","","","","","","","","","","","","","",""
"","rating","","html-slider-response","11","182514","0.0-10.0","0","0","P8w1m","Scenes","","3814","","","","","52","145","stephen-leonardi-gyIRjKPXupE-unsplash.jpg","7","","","","","","","","","","","","","","","","","","","","","","","","","","","","","","","","","","","","","","","",""
"","rating","","html-slider-response","12","185490","0.0-11.0","0","0","P8w1m","Scenes","","2973","","","","","58","103","anton-darius-FBJugtbHsWU-unsplash.jpg","8","","","","","","","","","","","","","","","","","","","","","","","","","","","","","","","","","","","","","","","",""
"","rating","","html-slider-response","13","189866","0.0-12.0","0","0","P8w1m","Scenes","","4374","","","","","55","143","sigurdur-fjalar-jonsson-1KxBabIntpE-unsplash.jpg","9","","","","","","","","","","","","","","","","","","","","","","","","","","","","","","","","","","","","","","","",""
"","rating","","html-slider-response","14","193482","0.0-13.0","0","0","P8w1m","Scenes","","3614","","","","","92","127","kace-rodriguez-p3OzJuT_Dks-unsplash.jpg","10","","","","","","","","","","","","","","","","","","","","","","","","","","","","","","","","","","","","","","","",""
"","rating","","html-slider-response","15","196626","0.0-14.0","0","0","P8w1m","Scenes","","3142","","","","","97","106","ashim-d-silva-WeYamle9fDM-unsplash.jpg","11","","","","","","","","","","","","","","","","","","","","","","","","","","","","","","","","","","","","","","","",""
"","rating","","html-slider-response","16","199810","0.0-15.0","0","0","P8w1m","Scenes","","3182","","","","","78","140","samuele-errico-piccarini-JEBqFu2AOOA-unsplash.jpg","12","","","","","","","","","","","","","","","","","","","","","","","","","","","","","","","","","","","","","","","",""
"","rating","","html-slider-response","17","203418","0.0-16.0","0","0","P8w1m","Scenes","","3606","","","","","69","137","olga-stalska-QaWRyEdlffY-unsplash.jpg","13","","","","","","","","","","","","","","","","","","","","","","","","","","","","","","","","","","","","","","","",""
"","rating","","html-slider-response","18","208306","0.0-17.0","0","0","P8w1m","Scenes","","4886","","","","","63","115","darrell-cassell-hoCXpPUMCoE-unsplash.jpg","14","","","","","","","","","","","","","","","","","","","","","","","","","","","","","","","","","","","","","","","",""
"","rating","","html-slider-response","19","211714","0.0-18.0","0","0","P8w1m","Scenes","","3406","","","","","51","105","ashim-d-silva-S2Q5mdOrrVc-unsplash.jpg","15","","","","","","","","","","","","","","","","","","","","","","","","","","","","","","","","","","","","","","","",""
"","rating","","html-slider-response","20","214170","0.0-19.0","0","0","P8w1m","Scenes","","2454","","","","","59","109","brigitta-schneiter-hXXRLtTxXCU-unsplash.jpg","16","","","","","","","","","","","","","","","","","","","","","","","","","","","","","","","","","","","","","","","",""
"","rating","","html-slider-response","21","217402","0.0-20.0","0","0","P8w1m","Scenes","","3230","","","","","45","136","nicolas-jehly-LzVB84KkZOE-unsplash.jpg","17","","","","","","","","","","","","","","","","","","","","","","","","","","","","","","","","","","","","","","","",""
"","rating","","html-slider-response","22","219954","0.0-21.0","0","0","P8w1m","Scenes","","2550","","","","","56","122","jeff-king-bJHWJeiHfHc-unsplash.jpg","18","","","","","","","","","","","","","","","","","","","","","","","","","","","","","","","","","","","","","","","",""
"","rating","","html-slider-response","23","228586","0.0-22.0","0","0","P8w1m","Scenes","","8630","","","","","68","126","jordan-mcqueen-PJCZOWuOxbU-unsplash.jpg","19","","","","","","","","","","","","","","","","","","","","","","","","","","","","","","","","","","","","","","","",""
"","rating","","html-slider-response","24","231459","0.0-23.0","0","0","P8w1m","Scenes","","2871","","","","","55","128","karsten-wurth-jS0zC2PJ17A-unsplash.jpg","20","","","","","","","","","","","","","","","","","","","","","","","","","","","","","","","","","","","","","","","",""
"","rating","","html-slider-response","25","235514","0.0-24.0","0","0","P8w1m","Scenes","","4053","","","","","95","123","joel-jasmin-forestbird-efuwb5eBDrI-unsplash.jpg","21","","","","","","","","","","","","","","","","","","","","","","","","","","","","","","","","","","","","","","","",""
"","rating","","html-slider-response","26","238666","0.0-25.0","0","0","P8w1m","Scenes","","3150","","","","","84","104","artem-sapegin-XGDBdSQ70O0-unsplash.jpg","22","","","","","","","","","","","","","","","","","","","","","","","","","","","","","","","","","","","","","","","",""
"","rating","","html-slider-response","27","242946","0.0-26.0","0","0","P8w1m","Scenes","","4278","","","","","56","112","cosmic-timetraveler-pYyOZ8q7AII-unsplash.jpg","23","","","","","","","","","","","","","","","","","","","","","","","","","","","","","","","","","","","","","","","",""
"","rating","","html-slider-response","28","246658","0.0-27.0","0","0","P8w1m","Scenes","","3710","","","","","55","133","mickey-o-neil-xL66l--msXU-unsplash.jpg","24","","","","","","","","","","","","","","","","","","","","","","","","","","","","","","","","","","","","","","","",""
"","rating","","html-slider-response","29","251186","0.0-28.0","0","0","P8w1m","Scenes","","4526","","","","","60","119","james-wheeler-AFC0XvICMgs-unsplash.jpg","25","","","","","","","","","","","","","","","","","","","","","","","","","","","","","","","","","","","","","","","",""
"","rating","","html-slider-response","30","256090","0.0-29.0","0","0","P8w1m","Scenes","","4902","","","","","51","131","luca-bravo-hFzIoD0F_i8-unsplash.jpg","26","","","","","","","","","","","","","","","","","","","","","","","","","","","","","","","","","","","","","","","",""
"","rating","","html-slider-response","31","262282","0.0-30.0","0","0","P8w1m","Scenes","","6190","","","","","56","148","tom-gainor-ZqLeQDjY6fY-unsplash.jpg","27","","","","","","","","","","","","","","","","","","","","","","","","","","","","","","","","","","","","","","","",""
"","rating","","html-slider-response","32","265714","0.0-31.0","0","0","P8w1m","Scenes","","3430","","","","","67","138","petr-vysohlid-9fqwGqGLUxc-unsplash.jpg","28","","","","","","","","","","","","","","","","","","","","","","","","","","","","","","","","","","","","","","","",""
"","rating","","html-slider-response","33","269218","0.0-32.0","0","0","P8w1m","Scenes","","3502","","","","","55","129","kurt-cotoaga-cqbLg3lZEpk-unsplash.jpg","29","","","","","","","","","","","","","","","","","","","","","","","","","","","","","","","","","","","","","","","",""
"","rating","","html-slider-response","34","272010","0.0-33.0","0","0","P8w1m","Scenes","","2790","","","","","58","121","jean-pierre-brungs-qxCqkbF7tUc-unsplash.jpg","30","","","","","","","","","","","","","","","","","","","","","","","","","","","","","","","","","","","","","","","",""
"","rating","","html-slider-response","35","275298","0.0-34.0","0","0","P8w1m","Scenes","","3286","","","","","53","107","benjamin-davies-Zm2n2O7Fph4-unsplash.jpg","31","","","","","","","","","","","","","","","","","","","","","","","","","","","","","","","","","","","","","","","",""
"","rating","","html-slider-response","36","278659","0.0-35.0","0","0","P8w1m","Scenes","","3359","","","","","79","130","lina-loos-04-C1NZk1hE-unsplash.jpg","32","","","","","","","","","","","","","","","","","","","","","","","","","","","","","","","","","","","","","","","",""
"","rating","","html-slider-response","37","286234","0.0-36.0","0","0","P8w1m","Scenes","","7574","","","","","29","149","yuriy-bogdanov-W51VK3Obcj0-unsplash.jpg","33","","","","","","","","","","","","","","","","","","","","","","","","","","","","","","","","","","","","","","","",""
"","rating","","html-slider-response","38","291130","0.0-37.0","0","0","P8w1m","Scenes","","4893","","","","","80","117","frank-mckenna-OD9EOzfSOh0-unsplash.jpg","34","","","","","","","","","","","","","","","","","","","","","","","","","","","","","","","","","","","","","","","",""
"","rating","","html-slider-response","39","295371","0.0-38.0","0","0","P8w1m","Scenes","","4238","","","","","71","134","milada-vigerova-pQMM63GE7fo-unsplash.jpg","35","","","","","","","","","","","","","","","","","","","","","","","","","","","","","","","","","","","","","","","",""
"","rating","","html-slider-response","40","300331","0.0-39.0","0","0","P8w1m","Scenes","","4957","","","","","65","120","jarrett-kow-1ZOyYPOBn7I-unsplash.jpg","36","","","","","","","","","","","","","","","","","","","","","","","","","","","","","","","","","","","","","","","",""
"","rating","","html-slider-response","41","305354","0.0-40.0","0","0","P8w1m","Scenes","","5021","","","","","59","108","benjamin-voros-phIFdC6lA4E-unsplash.jpg","37","","","","","","","","","","","","","","","","","","","","","","","","","","","","","","","","","","","","","","","",""
"","rating","","html-slider-response","42","309867","0.0-41.0","0","0","P8w1m","Scenes","","4510","","","","","88","142","sergey-pesterev-y-b_FOmJXdg-unsplash.jpg","38","","","","","","","","","","","","","","","","","","","","","","","","","","","","","","","","","","","","","","","",""
"","rating","","html-slider-response","43","313250","0.0-42.0","0","0","P8w1m","Scenes","","3380","","","","","70","139","samsommer-vddccTqwal8-unsplash.jpg","39","","","","","","","","","","","","","","","","","","","","","","","","","","","","","","","","","","","","","","","",""
"","rating","","html-slider-response","44","318242","0.0-43.0","0","0","P8w1m","Scenes","","4990","","","","","60","102","anisur-rahman-K2b7UDed6uQ-unsplash.jpg","40","","","","","","","","","","","","","","","","","","","","","","","","","","","","","","","","","","","","","","","",""
"","rating","","html-slider-response","45","321506","0.0-44.0","0","0","P8w1m","Scenes","","3262","","","","","54","124","johannes-plenio-sPt5RIjKfpk-unsplash.jpg","41","","","","","","","","","","","","","","","","","","","","","","","","","","","","","","","","","","","","","","","",""
"","rating","","html-slider-response","46","329242","0.0-45.0","0","0","P8w1m","Scenes","","7734","","","","","58","110","bruno-van-der-kraan-qez8mNJ3ilU-unsplash.jpg","42","","","","","","","","","","","","","","","","","","","","","","","","","","","","","","","","","","","","","","","",""
"","rating","","html-slider-response","47","332650","0.0-46.0","0","0","P8w1m","Scenes","","3406","","","","","53","100","aleksandra-boguslawska-MS7KD9Ti7FQ-unsplash.jpg","43","","","","","","","","","","","","","","","","","","","","","","","","","","","","","","","","","","","","","","","",""
"","rating","","html-slider-response","48","336363","0.0-47.0","0","0","P8w1m","Scenes","","3711","","","","","69","116","david-marcu-W5MhJ6cy1So-unsplash.jpg","44","","","","","","","","","","","","","","","","","","","","","","","","","","","","","","","","","","","","","","","",""
"","rating","","html-slider-response","49","339259","0.0-48.0","0","0","P8w1m","Scenes","","2893","","","","","55","118","henry-be-NLF6hTe4PAg-unsplash.jpg","45","","","","","","","","","","","","","","","","","","","","","","","","","","","","","","","","","","","","","","","",""
"","rating","","html-slider-response","50","341923","0.0-49.0","0","0","P8w1m","Scenes","","2662","","","","","77","144","solotravelgoals-7kLufxYoqWk-unsplash.jpg","46","","","","","","","","","","","","","","","","","","","","","","","","","","","","","","","","","","","","","","","",""
"","rating","","html-slider-response","51","345338","0.0-50.0","0","0","P8w1m","Scenes","","3413","","","","","93","114","daniel-sessler-z_9VmsxR8hs-unsplash.jpg","47","","","","","","","","","","","","","","","","","","","","","","","","","","","","","","","","","","","","","","","",""
"","rating","","html-slider-response","52","348578","0.0-51.0","0","0","P8w1m","Scenes","","3238","","","","","57","111","claudio-testa-U3F2o6vz3bs-unsplash.jpg","48","","","","","","","","","","","","","","","","","","","","","","","","","","","","","","","","","","","","","","","",""
"","rating","","html-slider-response","53","353747","0.0-52.0","0","0","P8w1m","Scenes","","5167","","","","","75","125","john-lee-oMneOBYhJxY-unsplash.jpg","49","","","","","","","","","","","","","","","","","","","","","","","","","","","","","","","","","","","","","","","",""
"","deliberation_instructions","","instructions","54","426562","0.0-53.0-0.0","0","0","P8w1m","Scenes","[{""page_index"":0,""viewing_time"":13444},{""page_index"":1,""viewing_time"":12601},{""page_index"":2,""viewing_time"":26615},{""page_index"":3,""viewing_time"":17832},{""page_index"":4,""viewing_time"":2320}]","72813","","","","","","","","","","","","","","","","","","","","","","","","","","","","","","","","","","","","","","","","","","","","","","","",""
"","","","survey-multi-choice","55","453211","0.0-53.0-1.0","0","0","P8w1m","Scenes","","26641","{""Q0"":""True"",""Q1"":""True"",""Q2"":""Consider carefully and take your time (up to 10 seconds)"",""Q3"":""True"",""Q4"":""D""}","deliberation_comprehension_check","0","","","","","","","","","","","","","","","","","","","","","","","","","","","","","","","","","","","","","","","","","","","","",""
"","start_phase","","html-keyboard-response","56","455526","0.0-54.0","0","0","P8w1m","Scenes","","2312","","","","78","","","","","","","","","","","","","","","","","","","","","","","","","","","","","","","","","","","","","","","","","","","",""
"","first_deliberation_block","","html-keyboard-response","57","458120","0.0-55.0","0","0","P8w1m","Scenes","","2592","","","","78","","","","","","","","","","","","","","","","","","","","","","","","","","","","","","","","","","","","","","","","","","","",""
"","fixation","","html-keyboard-response","58","459138","0.0-56.0-0.0","0","0","P8w1m","Scenes","","null","","","","null","","","","","","","","","","","","","","","","","","","","","","","","","","","","","","","","","","","","","","","","","","","",""
"","deliberation","","html-keyboard-response","59","464166","0.0-56.0-1.0","0","0","P8w1m","Scenes","","5025","","","","68","","","","0","119","120","1","-1","60","65","james-wheeler-AFC0XvICMgs-unsplash.jpg","jarrett-kow-1ZOyYPOBn7I-unsplash.jpg","1","1","119","120","","","","","","","","","","","","","","","","","","","","","","","","","","","",""
"","choice_confirmation","","html-keyboard-response","60","464675","0.0-56.0-2.0-0.0","0","0","P8w1m","Scenes","","null","","","","null","","","","0","119","120","","","","","","","","","","","","","","","","","","","","","","","","","","","","","","","","","","","","","",""
"","explain_trial","","survey-text","61","501075","0.0-56.0-5.0-0.0","0","0","P8w1m","Scenes","","36397","{""Q0"":""This photo looks more realistic and encompasses the beauty of nature more than its opposition.""}","","","","","","","0","119","120","","","","","","","","","","","{""Q0"":""This photo looks more realistic and encompasses the beauty of nature more than its opposition.""}","","","","","","","","","","","","","","","","","","","","","","","","","","",""
"","fixation","","html-keyboard-response","62","502093","0.0-57.0-0.0","0","0","P8w1m","Scenes","","null","","","","null","","","","","","","","","","","","","","","","","","","","","","","","","","","","","","","","","","","","","","","","","","","",""
"","deliberation","","html-keyboard-response","63","506087","0.0-57.0-1.0","0","0","P8w1m","Scenes","","3993","","","","75","","","","1","134","102","0","-1","71","60","milada-vigerova-pQMM63GE7fo-unsplash.jpg","anisur-rahman-K2b7UDed6uQ-unsplash.jpg","1","0","102","134","","","","","","","","","","","","","","","","","","","","","","","","","","","",""
"","choice_confirmation","","html-keyboard-response","64","506600","0.0-57.0-2.0-0.0","0","0","P8w1m","Scenes","","null","","","","null","","","","1","134","102","","","","","","","","","","","","","","","","","","","","","","","","","","","","","","","","","","","","","",""
"","fixation","","html-keyboard-response","65","507621","0.0-58.0-0.0","0","0","P8w1m","Scenes","","null","","","","null","","","","","","","","","","","","","","","","","","","","","","","","","","","","","","","","","","","","","","","","","","","",""
"","deliberation","","html-keyboard-response","66","511938","0.0-58.0-1.0","0","0","P8w1m","Scenes","","4315","","","","75","","","","2","113","103","1","1","56","58","damian-denis-D8R_txR_0PE-unsplash.jpg","anton-darius-FBJugtbHsWU-unsplash.jpg","1","0","103","113","","","","","","","","","","","","","","","","","","","","","","","","","","","",""
"","choice_confirmation","","html-keyboard-response","67","512447","0.0-58.0-2.0-0.0","0","0","P8w1m","Scenes","","null","","","","null","","","","2","113","103","","","","","","","","","","","","","","","","","","","","","","","","","","","","","","","","","","","","","",""
"","explain_trial","","survey-text","68","541578","0.0-58.0-5.0-0.0","0","0","P8w1m","Scenes","","29129","{""Q0"":""The colors are more vibrant in this photo and make it much more visually appealing than the other photo.""}","","","","","","","2","113","103","","","","","","","","","","","{""Q0"":""The colors are more vibrant in this photo and make it much more visually appealing than the other photo.""}","","","","","","","","","","","","","","","","","","","","","","","","","","",""
"","fixation","","html-keyboard-response","69","542588","0.0-59.0-0.0","0","0","P8w1m","Scenes","","null","","","","null","","","","","","","","","","","","","","","","","","","","","","","","","","","","","","","","","","","","","","","","","","","",""
"","deliberation","","html-keyboard-response","70","545930","0.0-59.0-1.0","0","0","P8w1m","Scenes","","3340","","","","68","","","","3","111","146","0","1","57","69","claudio-testa-U3F2o6vz3bs-unsplash.jpg","thomas-morse-cuKKa0vWZSY-unsplash.jpg","1","1","111","146","","","","","","","","","","","","","","","","","","","","","","","","","","","",""
"","choice_confirmation","","html-keyboard-response","71","546444","0.0-59.0-2.0-0.0","0","0","P8w1m","Scenes","","null","","","","null","","","","3","111","146","","","","","","","","","","","","","","","","","","","","","","","","","","","","","","","","","","","","","",""
"","fixation","","html-keyboard-response","72","547463","0.0-60.0-0.0","0","0","P8w1m","Scenes","","null","","","","null","","","","","","","","","","","","","","","","","","","","","","","","","","","","","","","","","","","","","","","","","","","",""
"","deliberation","","html-keyboard-response","73","550024","0.0-60.0-1.0","0","0","P8w1m","Scenes","","2559","","","","68","","","","4","122","112","0","-1","56","56","jeff-king-bJHWJeiHfHc-unsplash.jpg","cosmic-timetraveler-pYyOZ8q7AII-unsplash.jpg","1","1","122","112","","","","","","","","","","","","","","","","","","","","","","","","","","","",""
"","choice_confirmation","","html-keyboard-response","74","550538","0.0-60.0-2.0-0.0","0","0","P8w1m","Scenes","","null","","","","null","","","","4","122","112","","","","","","","","","","","","","","","","","","","","","","","","","","","","","","","","","","","","","",""
"","fixation","","html-keyboard-response","75","551545","0.0-61.0-0.0","0","0","P8w1m","Scenes","","null","","","","null","","","","","","","","","","","","","","","","","","","","","","","","","","","","","","","","","","","","","","","","","","","",""
"","deliberation","","html-keyboard-response","76","552678","0.0-61.0-1.0","0","0","P8w1m","Scenes","","1130","","","","75","","","","5","139","116","1","1","70","69","samsommer-vddccTqwal8-unsplash.jpg","david-marcu-W5MhJ6cy1So-unsplash.jpg","1","0","116","139","","","","","","","","","","","","","","","","","","","","","","","","","","","",""
"","choice_confirmation","","html-keyboard-response","77","553190","0.0-61.0-2.0-0.0","0","0","P8w1m","Scenes","","null","","","","null","","","","5","139","116","","","","","","","","","","","","","","","","","","","","","","","","","","","","","","","","","","","","","",""
"","explain_trial","","survey-text","78","591243","0.0-61.0-5.0-0.0","0","0","P8w1m","Scenes","","38050","{""Q0"":""The colors in this picture are absolutely beautiful. It makes me feel serene and like I am on a relaxing vacation when I look at it.""}","","","","","","","5","139","116","","","","","","","","","","","{""Q0"":""The colors in this picture are absolutely beautiful. It makes me feel serene and like I am on a relaxing vacation when I look at it.""}","","","","","","","","","","","","","","","","","","","","","","","","","","",""
"","fixation","","html-keyboard-response","79","592258","0.0-62.0-0.0","0","0","P8w1m","Scenes","","null","","","","null","","","","","","","","","","","","","","","","","","","","","","","","","","","","","","","","","","","","","","","","","","","",""
"","deliberation","","html-keyboard-response","80","595243","0.0-62.0-1.0","0","0","P8w1m","Scenes","","2983","","","","75","","","","6","115","148","0","1","63","56","darrell-cassell-hoCXpPUMCoE-unsplash.jpg","tom-gainor-ZqLeQDjY6fY-unsplash.jpg","1","0","148","115","","","","","","","","","","","","","","","","","","","","","","","","","","","",""
"","choice_confirmation","","html-keyboard-response","81","595748","0.0-62.0-2.0-0.0","0","0","P8w1m","Scenes","","null","","","","null","","","","6","115","148","","","","","","","","","","","","","","","","","","","","","","","","","","","","","","","","","","","","","",""
"","fixation","","html-keyboard-response","82","596766","0.0-63.0-0.0","0","0","P8w1m","Scenes","","null","","","","null","","","","","","","","","","","","","","","","","","","","","","","","","","","","","","","","","","","","","","","","","","","",""
"","deliberation","","html-keyboard-response","83","599683","0.0-63.0-1.0","0","0","P8w1m","Scenes","","2915","","","","75","","","","7","121","126","1","1","58","68","jean-pierre-brungs-qxCqkbF7tUc-unsplash.jpg","jordan-mcqueen-PJCZOWuOxbU-unsplash.jpg","1","0","126","121","","","","","","","","","","","","","","","","","","","","","","","","","","","",""
"","choice_confirmation","","html-keyboard-response","84","600193","0.0-63.0-2.0-0.0","0","0","P8w1m","Scenes","","null","","","","null","","","","7","121","126","","","","","","","","","","","","","","","","","","","","","","","","","","","","","","","","","","","","","",""
"","explain_trial","","survey-text","85","639530","0.0-63.0-5.0-0.0","0","0","P8w1m","Scenes","","39335","{""Q0"":""This photo makes me feel like a young child peering through the tall grass of a prairie. It is beautiful and gives off a youthfulness that few photos do.""}","","","","","","","7","121","126","","","","","","","","","","","{""Q0"":""This photo makes me feel like a young child peering through the tall grass of a prairie. It is beautiful and gives off a youthfulness that few photos do.""}","","","","","","","","","","","","","","","","","","","","","","","","","","",""
"","fixation","","html-keyboard-response","86","640543","0.0-64.0-0.0","0","0","P8w1m","Scenes","","null","","","","null","","","","","","","","","","","","","","","","","","","","","","","","","","","","","","","","","","","","","","","","","","","",""
"","deliberation","","html-keyboard-response","87","643024","0.0-64.0-1.0","0","0","P8w1m","Scenes","","2478","","","","68","","","","8","125","109","0","1","75","59","john-lee-oMneOBYhJxY-unsplash.jpg","brigitta-schneiter-hXXRLtTxXCU-unsplash.jpg","1","1","125","109","","","","","","","","","","","","","","","","","","","","","","","","","","","",""
"","choice_confirmation","","html-keyboard-response","88","643535","0.0-64.0-2.0-0.0","0","0","P8w1m","Scenes","","null","","","","null","","","","8","125","109","","","","","","","","","","","","","","","","","","","","","","","","","","","","","","","","","","","","","",""
"","fixation","","html-keyboard-response","89","644551","0.0-65.0-0.0","0","0","P8w1m","Scenes","","null","","","","null","","","","","","","","","","","","","","","","","","","","","","","","","","","","","","","","","","","","","","","","","","","",""
"","deliberation","","html-keyboard-response","90","647761","0.0-65.0-1.0","0","0","P8w1m","Scenes","","3208","","","","68","","","","9","108","118","0","-1","59","55","benjamin-voros-phIFdC6lA4E-unsplash.jpg","henry-be-NLF6hTe4PAg-unsplash.jpg","1","1","108","118","","","","","","","","","","","","","","","","","","","","","","","","","","","",""
"","choice_confirmation","","html-keyboard-response","91","648275","0.0-65.0-2.0-0.0","0","0","P8w1m","Scenes","","null","","","","null","","","","9","108","118","","","","","","","","","","","","","","","","","","","","","","","","","","","","","","","","","","","","","",""
"","fixation","","html-keyboard-response","92","649281","0.0-66.0-0.0","0","0","P8w1m","Scenes","","null","","","","null","","","","","","","","","","","","","","","","","","","","","","","","","","","","","","","","","","","","","","","","","","","",""
"","deliberation","","html-keyboard-response","93","651655","0.0-66.0-1.0","0","0","P8w1m","Scenes","","2373","","","","75","","","","10","110","138","1","-1","58","67","bruno-van-der-kraan-qez8mNJ3ilU-unsplash.jpg","petr-vysohlid-9fqwGqGLUxc-unsplash.jpg","1","0","138","110","","","","","","","","","","","","","","","","","","","","","","","","","","","",""
"","choice_confirmation","","html-keyboard-response","94","652170","0.0-66.0-2.0-0.0","0","0","P8w1m","Scenes","","null","","","","null","","","","10","110","138","","","","","","","","","","","","","","","","","","","","","","","","","","","","","","","","","","","","","",""
"","explain_trial","","survey-text","95","700456","0.0-66.0-5.0-0.0","0","0","P8w1m","Scenes","","48284","{""Q0"":""This photo makes me feel powerful. It gives me the impression that I am at this location alone. It is mine. I own this view. I love the sense of empowerment it resonates.""}","","","","","","","10","110","138","","","","","","","","","","","{""Q0"":""This photo makes me feel powerful. It gives me the impression that I am at this location alone. It is mine. I own this view. I love the sense of empowerment it resonates.""}","","","","","","","","","","","","","","","","","","","","","","","","","","",""
"","fixation","","html-keyboard-response","96","701475","0.0-67.0-0.0","0","0","P8w1m","Scenes","","null","","","","null","","","","","","","","","","","","","","","","","","","","","","","","","","","","","","","","","","","","","","","","","","","",""
"","deliberation","","html-keyboard-response","97","708689","0.0-67.0-1.0","0","0","P8w1m","Scenes","","7212","","","","75","","","","11","137","141","1","-1","69","63","olga-stalska-QaWRyEdlffY-unsplash.jpg","sebastian-unrau-v4e3JI7DDHI-unsplash.jpg","1","0","141","137","","","","","","","","","","","","","","","","","","","","","","","","","","","",""
"","choice_confirmation","","html-keyboard-response","98","709209","0.0-67.0-2.0-0.0","0","0","P8w1m","Scenes","","null","","","","null","","","","11","137","141","","","","","","","","","","","","","","","","","","","","","","","","","","","","","","","","","","","","","",""
"","explain_trial","","survey-text","99","769843","0.0-67.0-5.0-0.0","0","0","P8w1m","Scenes","","60631","{""Q0"":""This photo makes me feel relaxed. I can feel the sweater against my skin, the mug in my hand, and the boots on my feet as I travel this road. Fall is in the air. The air is chill. This photo brings itself to life and to me that is invaluable.""}","","","","","","","11","137","141","","","","","","","","","","","{""Q0"":""This photo makes me feel relaxed. I can feel the sweater against my skin, the mug in my hand, and the boots on my feet as I travel this road. Fall is in the air. The air is chill. This photo brings itself to life and to me that is invaluable.""}","","","","","","","","","","","","","","","","","","","","","","","","","","",""
"","practice_deliberation_again","","html-keyboard-response","100","773169","0.0-67.0-6.0-0.0","0","0","P8w1m","Scenes","","3326","","","","78","","","","","","","","","","","","","","","","","","","","","","","","","","","","","","","","","","","","","","","","","","","",""
"","fixation","","html-keyboard-response","101","774191","0.0-68.0-0.0","0","0","P8w1m","Scenes","","null","","","","null","","","","","","","","","","","","","","","","","","","","","","","","","","","","","","","","","","","","","","","","","","","",""
"","deliberation","","html-keyboard-response","102","778764","0.0-68.0-1.0","0","0","P8w1m","Scenes","","4571","","","","75","","","","12","111","146","1","1","57","69","claudio-testa-U3F2o6vz3bs-unsplash.jpg","thomas-morse-cuKKa0vWZSY-unsplash.jpg","2","0","146","111","","","","","","","","","","","","","","","","","","","","","","","","","","","",""
"","choice_confirmation","","html-keyboard-response","103","779280","0.0-68.0-2.0-0.0","0","0","P8w1m","Scenes","","null","","","","null","","","","12","111","146","","","","","","","","","","","","","","","","","","","","","","","","","","","","","","","","","","","","","",""
"","explain_trial","","survey-text","104","826059","0.0-68.0-5.0-0.0","0","0","P8w1m","Scenes","","46777","{""Q0"":""The mountains in the background are the selling point for me in this photo. It broadcasts the beauty of nature and the differing terrains that are here for us to enjoy.""}","","","","","","","12","111","146","","","","","","","","","","","{""Q0"":""The mountains in the background are the selling point for me in this photo. It broadcasts the beauty of nature and the differing terrains that are here for us to enjoy.""}","","","","","","","","","","","","","","","","","","","","","","","","","","",""
"","fixation","","html-keyboard-response","105","827078","0.0-69.0-0.0","0","0","P8w1m","Scenes","","null","","","","null","","","","","","","","","","","","","","","","","","","","","","","","","","","","","","","","","","","","","","","","","","","",""
"","deliberation","","html-keyboard-response","106","830454","0.0-69.0-1.0","0","0","P8w1m","Scenes","","3374","","","","75","","","","13","137","141","0","-1","69","63","olga-stalska-QaWRyEdlffY-unsplash.jpg","sebastian-unrau-v4e3JI7DDHI-unsplash.jpg","2","0","141","137","","","","","","","","","","","","","","","","","","","","","","","","","","","",""
"","choice_confirmation","","html-keyboard-response","107","830965","0.0-69.0-2.0-0.0","0","0","P8w1m","Scenes","","null","","","","null","","","","13","137","141","","","","","","","","","","","","","","","","","","","","","","","","","","","","","","","","","","","","","",""
"","fixation","","html-keyboard-response","108","831987","0.0-70.0-0.0","0","0","P8w1m","Scenes","","null","","","","null","","","","","","","","","","","","","","","","","","","","","","","","","","","","","","","","","","","","","","","","","","","",""
"","deliberation","","html-keyboard-response","109","834339","0.0-70.0-1.0","0","0","P8w1m","Scenes","","2349","","","","75","","","","14","139","116","0","1","70","69","samsommer-vddccTqwal8-unsplash.jpg","david-marcu-W5MhJ6cy1So-unsplash.jpg","2","0","116","139","","","","","","","","","","","","","","","","","","","","","","","","","","","",""
"","choice_confirmation","","html-keyboard-response","110","834848","0.0-70.0-2.0-0.0","0","0","P8w1m","Scenes","","null","","","","null","","","","14","139","116","","","","","","","","","","","","","","","","","","","","","","","","","","","","","","","","","","","","","",""
"","fixation","","html-keyboard-response","111","835866","0.0-71.0-0.0","0","0","P8w1m","Scenes","","null","","","","null","","","","","","","","","","","","","","","","","","","","","","","","","","","","","","","","","","","","","","","","","","","",""
"","deliberation","","html-keyboard-response","112","840664","0.0-71.0-1.0","0","0","P8w1m","Scenes","","4797","","","","68","","","","15","134","102","1","-1","71","60","milada-vigerova-pQMM63GE7fo-unsplash.jpg","anisur-rahman-K2b7UDed6uQ-unsplash.jpg","2","1","134","102","","","","","","","","","","","","","","","","","","","","","","","","","","","",""
"","choice_confirmation","","html-keyboard-response","113","841171","0.0-71.0-2.0-0.0","0","0","P8w1m","Scenes","","null","","","","null","","","","15","134","102","","","","","","","","","","","","","","","","","","","","","","","","","","","","","","","","","","","","","",""
"","explain_trial","","survey-text","114","901276","0.0-71.0-5.0-0.0","0","0","P8w1m","Scenes","","60102","{""Q0"":""This photo provides a sense of calm. The viewer can look at this photo and feel as though they are there. I can hear the waterfall and feel the mist against my face. I can feel the water on my feet. This photo comes to life.""}","","","","","","","15","134","102","","","","","","","","","","","{""Q0"":""This photo provides a sense of calm. The viewer can look at this photo and feel as though they are there. I can hear the waterfall and feel the mist against my face. I can feel the water on my feet. This photo comes to life.""}","","","","","","","","","","","","","","","","","","","","","","","","","","",""
"","fixation","","html-keyboard-response","115","902296","0.0-72.0-0.0","0","0","P8w1m","Scenes","","null","","","","null","","","","","","","","","","","","","","","","","","","","","","","","","","","","","","","","","","","","","","","","","","","",""
"","deliberation","","html-keyboard-response","116","906017","0.0-72.0-1.0","0","0","P8w1m","Scenes","","3719","","","","75","","","","16","115","148","1","1","63","56","darrell-cassell-hoCXpPUMCoE-unsplash.jpg","tom-gainor-ZqLeQDjY6fY-unsplash.jpg","2","0","148","115","","","","","","","","","","","","","","","","","","","","","","","","","","","",""
"","choice_confirmation","","html-keyboard-response","117","906536","0.0-72.0-2.0-0.0","0","0","P8w1m","Scenes","","null","","","","null","","","","16","115","148","","","","","","","","","","","","","","","","","","","","","","","","","","","","","","","","","","","","","",""
"","explain_trial","","survey-text","118","947212","0.0-72.0-5.0-0.0","0","0","P8w1m","Scenes","","40673","{""Q0"":""This photo is absolutely beautiful. The colors are surreal. That nature can make these colors is a miracle in itself. I want to see this picture everyday for the rest of my life.""}","","","","","","","16","115","148","","","","","","","","","","","{""Q0"":""This photo is absolutely beautiful. The colors are surreal. That nature can make these colors is a miracle in itself. I want to see this picture everyday for the rest of my life.""}","","","","","","","","","","","","","","","","","","","","","","","","","","",""
"","fixation","","html-keyboard-response","119","948223","0.0-73.0-0.0","0","0","P8w1m","Scenes","","null","","","","null","","","","","","","","","","","","","","","","","","","","","","","","","","","","","","","","","","","","","","","","","","","",""
"","deliberation","","html-keyboard-response","120","955705","0.0-73.0-1.0","0","0","P8w1m","Scenes","","7480","","","","68","","","","17","122","112","1","-1","56","56","jeff-king-bJHWJeiHfHc-unsplash.jpg","cosmic-timetraveler-pYyOZ8q7AII-unsplash.jpg","2","1","122","112","","","","","","","","","","","","","","","","","","","","","","","","","","","",""
"","choice_confirmation","","html-keyboard-response","121","956215","0.0-73.0-2.0-0.0","0","0","P8w1m","Scenes","","null","","","","null","","","","17","122","112","","","","","","","","","","","","","","","","","","","","","","","","","","","","","","","","","","","","","",""
"","explain_trial","","survey-text","122","1003135","0.0-73.0-5.0-0.0","0","0","P8w1m","Scenes","","46917","{""Q0"":""This photo is simple, is basic, and it reminds me of home. I can view this picture and image myself climbing the tree while playing outside. I am confident it will resonate the same appeal to others.""}","","","","","","","17","122","112","","","","","","","","","","","{""Q0"":""This photo is simple, is basic, and it reminds me of home. I can view this picture and image myself climbing the tree while playing outside. I am confident it will resonate the same appeal to others.""}","","","","","","","","","","","","","","","","","","","","","","","","","","",""
"","fixation","","html-keyboard-response","123","1004141","0.0-74.0-0.0","0","0","P8w1m","Scenes","","null","","","","null","","","","","","","","","","","","","","","","","","","","","","","","","","","","","","","","","","","","","","","","","","","",""
"","deliberation","","html-keyboard-response","124","1006477","0.0-74.0-1.0","0","0","P8w1m","Scenes","","2334","","","","68","","","","18","125","109","1","1","75","59","john-lee-oMneOBYhJxY-unsplash.jpg","brigitta-schneiter-hXXRLtTxXCU-unsplash.jpg","2","1","125","109","","","","","","","","","","","","","","","","","","","","","","","","","","","",""
"","choice_confirmation","","html-keyboard-response","125","1006983","0.0-74.0-2.0-0.0","0","0","P8w1m","Scenes","","null","","","","null","","","","18","125","109","","","","","","","","","","","","","","","","","","","","","","","","","","","","","","","","","","","","","",""
"","explain_trial","","survey-text","126","1056795","0.0-74.0-5.0-0.0","0","0","P8w1m","Scenes","","49810","{""Q0"":""The details in this photo are breathtaking! What beauty! There are no words to describe the image here and I know many would love to showcase this lovely still photo of nature in their homes.""}","","","","","","","18","125","109","","","","","","","","","","","{""Q0"":""The details in this photo are breathtaking! What beauty! There are no words to describe the image here and I know many would love to showcase this lovely still photo of nature in their homes.""}","","","","","","","","","","","","","","","","","","","","","","","","","","",""
"","fixation","","html-keyboard-response","127","1057806","0.0-75.0-0.0","0","0","P8w1m","Scenes","","null","","","","null","","","","","","","","","","","","","","","","","","","","","","","","","","","","","","","","","","","","","","","","","","","",""
"","deliberation","","html-keyboard-response","128","1060962","0.0-75.0-1.0","0","0","P8w1m","Scenes","","3153","","","","75","","","","19","121","126","0","1","58","68","jean-pierre-brungs-qxCqkbF7tUc-unsplash.jpg","jordan-mcqueen-PJCZOWuOxbU-unsplash.jpg","2","0","126","121","","","","","","","","","","","","","","","","","","","","","","","","","","","",""
"","choice_confirmation","","html-keyboard-response","129","1061470","0.0-75.0-2.0-0.0","0","0","P8w1m","Scenes","","null","","","","null","","","","19","121","126","","","","","","","","","","","","","","","","","","","","","","","","","","","","","","","","","","","","","",""
"","fixation","","html-keyboard-response","130","1062485","0.0-76.0-0.0","0","0","P8w1m","Scenes","","null","","","","null","","","","","","","","","","","","","","","","","","","","","","","","","","","","","","","","","","","","","","","","","","","",""
"","deliberation","","html-keyboard-response","131","1065079","0.0-76.0-1.0","0","0","P8w1m","Scenes","","2592","","","","68","","","","20","108","118","1","-1","59","55","benjamin-voros-phIFdC6lA4E-unsplash.jpg","henry-be-NLF6hTe4PAg-unsplash.jpg","2","1","108","118","","","","","","","","","","","","","","","","","","","","","","","","","","","",""
"","choice_confirmation","","html-keyboard-response","132","1065596","0.0-76.0-2.0-0.0","0","0","P8w1m","Scenes","","null","","","","null","","","","20","108","118","","","","","","","","","","","","","","","","","","","","","","","","","","","","","","","","","","","","","",""
"","explain_trial","","survey-text","133","1099667","0.0-76.0-5.0-0.0","0","0","P8w1m","Scenes","","34069","{""Q0"":""This photo looks mystical. The shooting star in the background makes it look like a painting. This picture stands out and creates awe and wonder.""}","","","","","","","20","108","118","","","","","","","","","","","{""Q0"":""This photo looks mystical. The shooting star in the background makes it look like a painting. This picture stands out and creates awe and wonder.""}","","","","","","","","","","","","","","","","","","","","","","","","","","",""
"","fixation","","html-keyboard-response","134","1100682","0.0-77.0-0.0","0","0","P8w1m","Scenes","","null","","","","null","","","","","","","","","","","","","","","","","","","","","","","","","","","","","","","","","","","","","","","","","","","",""
"","deliberation","","html-keyboard-response","135","1103450","0.0-77.0-1.0","0","0","P8w1m","Scenes","","2766","","","","75","","","","21","110","138","0","-1","58","67","bruno-van-der-kraan-qez8mNJ3ilU-unsplash.jpg","petr-vysohlid-9fqwGqGLUxc-unsplash.jpg","2","0","138","110","","","","","","","","","","","","","","","","","","","","","","","","","","","",""
"","choice_confirmation","","html-keyboard-response","136","1103957","0.0-77.0-2.0-0.0","0","0","P8w1m","Scenes","","null","","","","null","","","","21","110","138","","","","","","","","","","","","","","","","","","","","","","","","","","","","","","","","","","","","","",""
"","fixation","","html-keyboard-response","137","1104964","0.0-78.0-0.0","0","0","P8w1m","Scenes","","null","","","","null","","","","","","","","","","","","","","","","","","","","","","","","","","","","","","","","","","","","","","","","","","","",""
"","deliberation","","html-keyboard-response","138","1111973","0.0-78.0-1.0","0","0","P8w1m","Scenes","","7005","","","","68","","","","22","113","103","0","1","56","58","damian-denis-D8R_txR_0PE-unsplash.jpg","anton-darius-FBJugtbHsWU-unsplash.jpg","2","1","113","103","","","","","","","","","","","","","","","","","","","","","","","","","","","",""
"","choice_confirmation","","html-keyboard-response","139","1112482","0.0-78.0-2.0-0.0","0","0","P8w1m","Scenes","","null","","","","null","","","","22","113","103","","","","","","","","","","","","","","","","","","","","","","","","","","","","","","","","","","","","","",""
"","fixation","","html-keyboard-response","140","1113502","0.0-79.0-0.0","0","0","P8w1m","Scenes","","null","","","","null","","","","","","","","","","","","","","","","","","","","","","","","","","","","","","","","","","","","","","","","","","","",""
"","deliberation","","html-keyboard-response","141","1115536","0.0-79.0-1.0","0","0","P8w1m","Scenes","","2032","","","","68","","","","23","119","120","0","-1","60","65","james-wheeler-AFC0XvICMgs-unsplash.jpg","jarrett-kow-1ZOyYPOBn7I-unsplash.jpg","2","1","119","120","","","","","","","","","","","","","","","","","","","","","","","","","","","",""
"","choice_confirmation","","html-keyboard-response","142","1116047","0.0-79.0-2.0-0.0","0","0","P8w1m","Scenes","","null","","","","null","","","","23","119","120","","","","","","","","","","","","","","","","","","","","","","","","","","","","","","","","","","","","","",""
"","start_critical_deliberation_block","","html-keyboard-response","143","1122249","0.0-79.0-7.0-0.0","0","0","P8w1m","Scenes","","6200","","","","78","","","","","","","","","","","","","","","","","","","","","","","","","","","","","","","","","","","","","","","","","","","",""
"","fixation","","html-keyboard-response","144","1123261","0.0-80.0-0.0","0","0","P8w1m","Scenes","","null","","","","null","","","","","","","","","","","","","","","","","","","","","","","","","","","","","","","","","","","","","","","","","","","",""
"","deliberation","","html-keyboard-response","145","1126482","0.0-80.0-1.0","0","0","P8w1m","Scenes","","3218","","","","68","","","","24","113","103","0","1","56","58","damian-denis-D8R_txR_0PE-unsplash.jpg","anton-darius-FBJugtbHsWU-unsplash.jpg","3","1","113","103","","","","","","","","","","","","","","","","","","","","","","","","","","","",""
"","choice_confirmation","","html-keyboard-response","146","1127000","0.0-80.0-2.0-0.0","0","0","P8w1m","Scenes","","null","","","","null","","","","24","113","103","","","","","","","","","","","","","","","","","","","","","","","","","","","","","","","","","","","","","",""
"","fixation","","html-keyboard-response","147","1128024","0.0-81.0-0.0","0","0","P8w1m","Scenes","","null","","","","null","","","","","","","","","","","","","","","","","","","","","","","","","","","","","","","","","","","","","","","","","","","",""
"","deliberation","","html-keyboard-response","148","1129461","0.0-81.0-1.0","0","0","P8w1m","Scenes","","1435","","","","68","","","","25","125","109","0","1","75","59","john-lee-oMneOBYhJxY-unsplash.jpg","brigitta-schneiter-hXXRLtTxXCU-unsplash.jpg","3","1","125","109","","","","","","","","","","","","","","","","","","","","","","","","","","","",""
"","choice_confirmation","","html-keyboard-response","149","1129967","0.0-81.0-2.0-0.0","0","0","P8w1m","Scenes","","null","","","","null","","","","25","125","109","","","","","","","","","","","","","","","","","","","","","","","","","","","","","","","","","","","","","",""
"","fixation","","html-keyboard-response","150","1130971","0.0-82.0-0.0","0","0","P8w1m","Scenes","","null","","","","null","","","","","","","","","","","","","","","","","","","","","","","","","","","","","","","","","","","","","","","","","","","",""
"","deliberation","","html-keyboard-response","151","1132161","0.0-82.0-1.0","0","0","P8w1m","Scenes","","1187","","","","68","","","","26","108","118","0","-1","59","55","benjamin-voros-phIFdC6lA4E-unsplash.jpg","henry-be-NLF6hTe4PAg-unsplash.jpg","3","1","108","118","","","","","","","","","","","","","","","","","","","","","","","","","","","",""
"","choice_confirmation","","html-keyboard-response","152","1132682","0.0-82.0-2.0-0.0","0","0","P8w1m","Scenes","","null","","","","null","","","","26","108","118","","","","","","","","","","","","","","","","","","","","","","","","","","","","","","","","","","","","","",""
"","fixation","","html-keyboard-response","153","1133701","0.0-83.0-0.0","0","0","P8w1m","Scenes","","null","","","","null","","","","","","","","","","","","","","","","","","","","","","","","","","","","","","","","","","","","","","","","","","","",""
"","deliberation","","html-keyboard-response","154","1134775","0.0-83.0-1.0","0","0","P8w1m","Scenes","","1072","","","","75","","","","27","115","148","0","1","63","56","darrell-cassell-hoCXpPUMCoE-unsplash.jpg","tom-gainor-ZqLeQDjY6fY-unsplash.jpg","3","0","148","115","","","","","","","","","","","","","","","","","","","","","","","","","","","",""
"","choice_confirmation","","html-keyboard-response","155","1135296","0.0-83.0-2.0-0.0","0","0","P8w1m","Scenes","","null","","","","null","","","","27","115","148","","","","","","","","","","","","","","","","","","","","","","","","","","","","","","","","","","","","","",""
"","fixation","","html-keyboard-response","156","1136316","0.0-84.0-0.0","0","0","P8w1m","Scenes","","null","","","","null","","","","","","","","","","","","","","","","","","","","","","","","","","","","","","","","","","","","","","","","","","","",""
"","deliberation","","html-keyboard-response","157","1137380","0.0-84.0-1.0","0","0","P8w1m","Scenes","","1061","","","","68","","","","28","119","120","0","-1","60","65","james-wheeler-AFC0XvICMgs-unsplash.jpg","jarrett-kow-1ZOyYPOBn7I-unsplash.jpg","3","1","119","120","","","","","","","","","","","","","","","","","","","","","","","","","","","",""
"","choice_confirmation","","html-keyboard-response","158","1137891","0.0-84.0-2.0-0.0","0","0","P8w1m","Scenes","","null","","","","null","","","","28","119","120","","","","","","","","","","","","","","","","","","","","","","","","","","","","","","","","","","","","","",""
"","fixation","","html-keyboard-response","159","1138911","0.0-85.0-0.0","0","0","P8w1m","Scenes","","null","","","","null","","","","","","","","","","","","","","","","","","","","","","","","","","","","","","","","","","","","","","","","","","","",""
"","deliberation","","html-keyboard-response","160","1140671","0.0-85.0-1.0","0","0","P8w1m","Scenes","","1758","","","","75","","","","29","137","141","0","-1","69","63","olga-stalska-QaWRyEdlffY-unsplash.jpg","sebastian-unrau-v4e3JI7DDHI-unsplash.jpg","3","0","141","137","","","","","","","","","","","","","","","","","","","","","","","","","","","",""
"","choice_confirmation","","html-keyboard-response","161","1141192","0.0-85.0-2.0-0.0","0","0","P8w1m","Scenes","","null","","","","null","","","","29","137","141","","","","","","","","","","","","","","","","","","","","","","","","","","","","","","","","","","","","","",""
"","fixation","","html-keyboard-response","162","1142206","0.0-86.0-0.0","0","0","P8w1m","Scenes","","null","","","","null","","","","","","","","","","","","","","","","","","","","","","","","","","","","","","","","","","","","","","","","","","","",""
"","deliberation","","html-keyboard-response","163","1143538","0.0-86.0-1.0","0","0","P8w1m","Scenes","","1330","","","","68","","","","30","134","102","0","-1","71","60","milada-vigerova-pQMM63GE7fo-unsplash.jpg","anisur-rahman-K2b7UDed6uQ-unsplash.jpg","3","1","134","102","","","","","","","","","","","","","","","","","","","","","","","","","","","",""
"","choice_confirmation","","html-keyboard-response","164","1144052","0.0-86.0-2.0-0.0","0","0","P8w1m","Scenes","","null","","","","null","","","","30","134","102","","","","","","","","","","","","","","","","","","","","","","","","","","","","","","","","","","","","","",""
"","fixation","","html-keyboard-response","165","1145071","0.0-87.0-0.0","0","0","P8w1m","Scenes","","null","","","","null","","","","","","","","","","","","","","","","","","","","","","","","","","","","","","","","","","","","","","","","","","","",""
"","deliberation","","html-keyboard-response","166","1148075","0.0-87.0-1.0","0","0","P8w1m","Scenes","","3002","","","","75","","","","31","139","116","0","1","70","69","samsommer-vddccTqwal8-unsplash.jpg","david-marcu-W5MhJ6cy1So-unsplash.jpg","3","0","116","139","","","","","","","","","","","","","","","","","","","","","","","","","","","",""
"","choice_confirmation","","html-keyboard-response","167","1148579","0.0-87.0-2.0-0.0","0","0","P8w1m","Scenes","","null","","","","null","","","","31","139","116","","","","","","","","","","","","","","","","","","","","","","","","","","","","","","","","","","","","","",""
"","fixation","","html-keyboard-response","168","1149601","0.0-88.0-0.0","0","0","P8w1m","Scenes","","null","","","","null","","","","","","","","","","","","","","","","","","","","","","","","","","","","","","","","","","","","","","","","","","","",""
"","deliberation","","html-keyboard-response","169","1151408","0.0-88.0-1.0","0","0","P8w1m","Scenes","","1805","","","","68","","","","32","122","112","0","-1","56","56","jeff-king-bJHWJeiHfHc-unsplash.jpg","cosmic-timetraveler-pYyOZ8q7AII-unsplash.jpg","3","1","122","112","","","","","","","","","","","","","","","","","","","","","","","","","","","",""
"","choice_confirmation","","html-keyboard-response","170","1151926","0.0-88.0-2.0-0.0","0","0","P8w1m","Scenes","","null","","","","null","","","","32","122","112","","","","","","","","","","","","","","","","","","","","","","","","","","","","","","","","","","","","","",""
"","fixation","","html-keyboard-response","171","1152936","0.0-89.0-0.0","0","0","P8w1m","Scenes","","null","","","","null","","","","","","","","","","","","","","","","","","","","","","","","","","","","","","","","","","","","","","","","","","","",""
"","deliberation","","html-keyboard-response","172","1156051","0.0-89.0-1.0","0","0","P8w1m","Scenes","","3113","","","","75","","","","33","111","146","0","1","57","69","claudio-testa-U3F2o6vz3bs-unsplash.jpg","thomas-morse-cuKKa0vWZSY-unsplash.jpg","3","0","146","111","","","","","","","","","","","","","","","","","","","","","","","","","","","",""
"","choice_confirmation","","html-keyboard-response","173","1156556","0.0-89.0-2.0-0.0","0","0","P8w1m","Scenes","","null","","","","null","","","","33","111","146","","","","","","","","","","","","","","","","","","","","","","","","","","","","","","","","","","","","","",""
"","fixation","","html-keyboard-response","174","1157576","0.0-90.0-0.0","0","0","P8w1m","Scenes","","null","","","","null","","","","","","","","","","","","","","","","","","","","","","","","","","","","","","","","","","","","","","","","","","","",""
"","deliberation","","html-keyboard-response","175","1158839","0.0-90.0-1.0","0","0","P8w1m","Scenes","","1261","","","","75","","","","34","121","126","0","1","58","68","jean-pierre-brungs-qxCqkbF7tUc-unsplash.jpg","jordan-mcqueen-PJCZOWuOxbU-unsplash.jpg","3","0","126","121","","","","","","","","","","","","","","","","","","","","","","","","","","","",""
"","choice_confirmation","","html-keyboard-response","176","1159353","0.0-90.0-2.0-0.0","0","0","P8w1m","Scenes","","null","","","","null","","","","34","121","126","","","","","","","","","","","","","","","","","","","","","","","","","","","","","","","","","","","","","",""
"","fixation","","html-keyboard-response","177","1160373","0.0-91.0-0.0","0","0","P8w1m","Scenes","","null","","","","null","","","","","","","","","","","","","","","","","","","","","","","","","","","","","","","","","","","","","","","","","","","",""
"","deliberation","","html-keyboard-response","178","1162262","0.0-91.0-1.0","0","0","P8w1m","Scenes","","1887","","","","75","","","","35","110","138","0","-1","58","67","bruno-van-der-kraan-qez8mNJ3ilU-unsplash.jpg","petr-vysohlid-9fqwGqGLUxc-unsplash.jpg","3","0","138","110","","","","","","","","","","","","","","","","","","","","","","","","","","","",""
"","choice_confirmation","","html-keyboard-response","179","1162784","0.0-91.0-2.0-0.0","0","0","P8w1m","Scenes","","null","","","","null","","","","35","110","138","","","","","","","","","","","","","","","","","","","","","","","","","","","","","","","","","","","","","",""
"","reward_learning_instructions","","instructions","180","1200412","0.0-92.0-0.0","0","0","P8w1m","Scenes","[{""page_index"":0,""viewing_time"":14649},{""page_index"":1,""viewing_time"":20824},{""page_index"":2,""viewing_time"":2152}]","37626","","","","","","","","","","","","","","","","","","","","","","","","","","","","","","","","","","","","","","","","","","","","","","","",""
"","","","survey-multi-choice","181","1218012","0.0-92.0-1.0","0","0","P8w1m","Scenes","","17594","{""Q0"":""True"",""Q1"":""True"",""Q2"":""Press the space bar to see its outcome"",""Q3"":""Press the relevant key while the outcome is presented""}","reward_comprehension_check","0","","","","","","","","","","","","","","","","","","","","","","","","","","","","","","","","","","","","","","","","","","","","",""
"","start_phase","","html-keyboard-response","182","1220734","0.0-93.0","0","0","P8w1m","Scenes","","2720","","","","78","","","","","","","","","","","","","","","","","","","","","","","","","","","","","","","","","","","","","","","","","","","",""
"","fixation","","html-keyboard-response","183","1221748","0.0-94.0","0","0","P8w1m","Scenes","","null","","","","null","","","","","","","","","","","","","","","","","","","","","","","","","","","","","","","","","","","","","","","","","","","",""
"","see_reward","","html-keyboard-response","184","1224420","0.0-95.0","0","0","P8w1m","Scenes","","2669","","","","32","","116","","0","","","","1","","","","","1","","","","","144","2669","","","","","","","","","","","","","","","","","","","","","","","","",""
"","reward_outcome","","html-keyboard-response","185","1226437","0.0-96.0","0","0","P8w1m","Scenes","","1170","","","","38","","116","","0","","","","","","","","","","","","","","","","1","1170","","","","","","","","","","","","","","","","","","","","","","",""
"","fixation","","html-keyboard-response","186","1227456","0.0-99.0","0","0","P8w1m","Scenes","","null","","","","null","","","","","","","","","","","","","","","","","","","","","","","","","","","","","","","","","","","","","","","","","","","",""
"","see_reward","","html-keyboard-response","187","1228703","0.0-100.0","0","0","P8w1m","Scenes","","1245","","","","32","","122","","1","","","","-1","","","","","1","","","","","0","1245","","","","","","","","","","","","","","","","","","","","","","","","",""
"","reward_outcome","","html-keyboard-response","188","1230716","0.0-101.0","0","0","P8w1m","Scenes","","1359","","","","40","","122","","1","","","","","","","","","","","","","","","","-1","1359","","","","","","","","","","","","","","","","","","","","","","",""
"","fixation","","html-keyboard-response","189","1231734","0.0-104.0","0","0","P8w1m","Scenes","","null","","","","null","","","","","","","","","","","","","","","","","","","","","","","","","","","","","","","","","","","","","","","","","","","",""
"","see_reward","","html-keyboard-response","190","1232798","0.0-105.0","0","0","P8w1m","Scenes","","1061","","","","32","","116","","2","","","","1","","","","","1","","","","","144","1061","","","","","","","","","","","","","","","","","","","","","","","","",""
"","reward_outcome","","html-keyboard-response","191","1234810","0.0-106.0","0","0","P8w1m","Scenes","","null","","","","null","","116","","2","","","","","","","","","","","","","","","","NaN","null","","","","","","","","","","","","","","","","","","","","","","",""
"","respond_faster","","html-keyboard-response","192","1236320","0.0-107.0-0.0","1","0","P8w1m","Scenes","","null","","","","null","","","","","","","","","","","","","","","","","","","","","","","","","","","","","","","","","","","","","","","","","","","",""
"","fixation","","html-keyboard-response","193","1237344","0.0-109.0","0","0","P8w1m","Scenes","","null","","","","null","","","","","","","","","","","","","","","","","","","","","","","","","","","","","","","","","","","","","","","","","","","",""
"","see_reward","","html-keyboard-response","194","1238590","0.0-110.0","0","0","P8w1m","Scenes","","1244","","","","32","","122","","3","","","","-1","","","","","1","","","","","0","1244","","","","","","","","","","","","","","","","","","","","","","","","",""
"","reward_outcome","","html-keyboard-response","195","1240607","0.0-111.0","0","0","P8w1m","Scenes","","1197","","","","40","","122","","3","","","","","","","","","","","","","","","","-1","1197","","","","","","","","","","","","","","","","","","","","","","",""
"","fixation","","html-keyboard-response","196","1241610","0.0-114.0","0","0","P8w1m","Scenes","","null","","","","null","","","","","","","","","","","","","","","","","","","","","","","","","","","","","","","","","","","","","","","","","","","",""
"","see_reward","","html-keyboard-response","197","1242499","0.0-115.0","0","0","P8w1m","Scenes","","887","","","","32","","126","","4","","","","1","","","","","1","","","","","149","887","","","","","","","","","","","","","","","","","","","","","","","","",""
"","reward_outcome","","html-keyboard-response","198","1244516","0.0-116.0","0","0","P8w1m","Scenes","","757","","","","38","","126","","4","","","","","","","","","","","","","","","","1","757","","","","","","","","","","","","","","","","","","","","","","",""
"","fixation","","html-keyboard-response","199","1245527","0.0-119.0","0","0","P8w1m","Scenes","","null","","","","null","","","","","","","","","","","","","","","","","","","","","","","","","","","","","","","","","","","","","","","","","","","",""
"","see_reward","","html-keyboard-response","200","1246165","0.0-120.0","0","0","P8w1m","Scenes","","636","","","","32","","148","","5","","","","1","","","","","1","","","","","152","636","","","","","","","","","","","","","","","","","","","","","","","","",""
"","reward_outcome","","html-keyboard-response","201","1248179","0.0-121.0","0","0","P8w1m","Scenes","","787","","","","38","","148","","5","","","","","","","","","","","","","","","","1","787","","","","","","","","","","","","","","","","","","","","","","",""
"","fixation","","html-keyboard-response","202","1249186","0.0-124.0","0","0","P8w1m","Scenes","","null","","","","null","","","","","","","","","","","","","","","","","","","","","","","","","","","","","","","","","","","","","","","","","","","",""
"","see_reward","","html-keyboard-response","203","1249811","0.0-125.0","0","0","P8w1m","Scenes","","622","","","","32","","138","","6","","","","-1","","","","","1","","","","","0","622","","","","","","","","","","","","","","","","","","","","","","","","",""
"","reward_outcome","","html-keyboard-response","204","1251825","0.0-126.0","0","0","P8w1m","Scenes","","746","","","","40","","138","","6","","","","","","","","","","","","","","","","-1","746","","","","","","","","","","","","","","","","","","","","","","",""
"","fixation","","html-keyboard-response","205","1252834","0.0-129.0","0","0","P8w1m","Scenes","","null","","","","null","","","","","","","","","","","","","","","","","","","","","","","","","","","","","","","","","","","","","","","","","","","",""
"","see_reward","","html-keyboard-response","206","1253399","0.0-130.0","0","0","P8w1m","Scenes","","563","","","","32","","108","","7","","","","-1","","","","","1","","","","","0","563","","","","","","","","","","","","","","","","","","","","","","","","",""
"","reward_outcome","","html-keyboard-response","207","1255410","0.0-131.0","0","0","P8w1m","Scenes","","789","","","","40","","108","","7","","","","","","","","","","","","","","","","-1","789","","","","","","","","","","","","","","","","","","","","","","",""
"","fixation","","html-keyboard-response","208","1256432","0.0-134.0","0","0","P8w1m","Scenes","","null","","","","null","","","","","","","","","","","","","","","","","","","","","","","","","","","","","","","","","","","","","","","","","","","",""
"","see_reward","","html-keyboard-response","209","1257059","0.0-135.0","0","0","P8w1m","Scenes","","625","","","","32","","113","","8","","","","1","","","","","1","","","","","150","625","","","","","","","","","","","","","","","","","","","","","","","","",""
"","reward_outcome","","html-keyboard-response","210","1259068","0.0-136.0","0","0","P8w1m","Scenes","","860","","","","38","","113","","8","","","","","","","","","","","","","","","","1","860","","","","","","","","","","","","","","","","","","","","","","",""
"","fixation","","html-keyboard-response","211","1260075","0.0-139.0","0","0","P8w1m","Scenes","","null","","","","null","","","","","","","","","","","","","","","","","","","","","","","","","","","","","","","","","","","","","","","","","","","",""
"","see_reward","","html-keyboard-response","212","1260589","0.0-140.0","0","0","P8w1m","Scenes","","512","","","","32","","119","","9","","","","-1","","","","","1","","","","","0","512","","","","","","","","","","","","","","","","","","","","","","","","",""
"","reward_outcome","","html-keyboard-response","213","1262598","0.0-141.0","0","0","P8w1m","Scenes","","850","","","","40","","119","","9","","","","","","","","","","","","","","","","-1","850","","","","","","","","","","","","","","","","","","","","","","",""
"","fixation","","html-keyboard-response","214","1263605","0.0-144.0","0","0","P8w1m","Scenes","","null","","","","null","","","","","","","","","","","","","","","","","","","","","","","","","","","","","","","","","","","","","","","","","","","",""
"","see_reward","","html-keyboard-response","215","1264111","0.0-145.0","0","0","P8w1m","Scenes","","504","","","","32","","113","","10","","","","1","","","","","1","","","","","150","504","","","","","","","","","","","","","","","","","","","","","","","","",""
"","reward_outcome","","html-keyboard-response","216","1266129","0.0-146.0","0","0","P8w1m","Scenes","","643","","","","38","","113","","10","","","","","","","","","","","","","","","","1","643","","","","","","","","","","","","","","","","","","","","","","",""
"","fixation","","html-keyboard-response","217","1267148","0.0-149.0","0","0","P8w1m","Scenes","","null","","","","null","","","","","","","","","","","","","","","","","","","","","","","","","","","","","","","","","","","","","","","","","","","",""
"","see_reward","","html-keyboard-response","218","1267590","0.0-150.0","0","0","P8w1m","Scenes","","440","","","","32","","108","","11","","","","-1","","","","","1","","","","","0","440","","","","","","","","","","","","","","","","","","","","","","","","",""
"","reward_outcome","","html-keyboard-response","219","1269604","0.0-151.0","0","0","P8w1m","Scenes","","643","","","","40","","108","","11","","","","","","","","","","","","","","","","-1","643","","","","","","","","","","","","","","","","","","","","","","",""
"","fixation","","html-keyboard-response","220","1270612","0.0-154.0","0","0","P8w1m","Scenes","","null","","","","null","","","","","","","","","","","","","","","","","","","","","","","","","","","","","","","","","","","","","","","","","","","",""
"","see_reward","","html-keyboard-response","221","1271121","0.0-155.0","0","0","P8w1m","Scenes","","507","","","","32","","126","","12","","","","1","","","","","1","","","","","149","507","","","","","","","","","","","","","","","","","","","","","","","","",""
"","reward_outcome","","html-keyboard-response","222","1273135","0.0-156.0","0","0","P8w1m","Scenes","","586","","","","38","","126","","12","","","","","","","","","","","","","","","","1","586","","","","","","","","","","","","","","","","","","","","","","",""
"","fixation","","html-keyboard-response","223","1274145","0.0-159.0","0","0","P8w1m","Scenes","","null","","","","null","","","","","","","","","","","","","","","","","","","","","","","","","","","","","","","","","","","","","","","","","","","",""
"","see_reward","","html-keyboard-response","224","1274655","0.0-160.0","0","0","P8w1m","Scenes","","508","","","","32","","119","","13","","","","-1","","","","","1","","","","","0","508","","","","","","","","","","","","","","","","","","","","","","","","",""
"","reward_outcome","","html-keyboard-response","225","1276667","0.0-161.0","0","0","P8w1m","Scenes","","792","","","","40","","119","","13","","","","","","","","","","","","","","","","-1","792","","","","","","","","","","","","","","","","","","","","","","",""
"","fixation","","html-keyboard-response","226","1277676","0.0-164.0","0","0","P8w1m","Scenes","","null","","","","null","","","","","","","","","","","","","","","","","","","","","","","","","","","","","","","","","","","","","","","","","","","",""
"","see_reward","","html-keyboard-response","227","1278037","0.0-165.0","0","0","P8w1m","Scenes","","359","","","","32","","148","","14","","","","1","","","","","1","","","","","152","359","","","","","","","","","","","","","","","","","","","","","","","","",""
"","reward_outcome","","html-keyboard-response","228","1280057","0.0-166.0","0","0","P8w1m","Scenes","","792","","","","38","","148","","14","","","","","","","","","","","","","","","","1","792","","","","","","","","","","","","","","","","","","","","","","",""
"","fixation","","html-keyboard-response","229","1281067","0.0-169.0","0","0","P8w1m","Scenes","","null","","","","null","","","","","","","","","","","","","","","","","","","","","","","","","","","","","","","","","","","","","","","","","","","",""
"","see_reward","","html-keyboard-response","230","1281556","0.0-170.0","0","0","P8w1m","Scenes","","487","","","","32","","125","","15","","","","1","","","","","1","","","","","157","487","","","","","","","","","","","","","","","","","","","","","","","","",""
"","reward_outcome","","html-keyboard-response","231","1283564","0.0-171.0","0","0","P8w1m","Scenes","","590","","","","38","","125","","15","","","","","","","","","","","","","","","","1","590","","","","","","","","","","","","","","","","","","","","","","",""
"","fixation","","html-keyboard-response","232","1284581","0.0-174.0","0","0","P8w1m","Scenes","","null","","","","null","","","","","","","","","","","","","","","","","","","","","","","","","","","","","","","","","","","","","","","","","","","",""
"","see_reward","","html-keyboard-response","233","1285019","0.0-175.0","0","0","P8w1m","Scenes","","436","","","","32","","146","","16","","","","1","","","","","1","","","","","151","436","","","","","","","","","","","","","","","","","","","","","","","","",""
"","reward_outcome","","html-keyboard-response","234","1287027","0.0-176.0","0","0","P8w1m","Scenes","","741","","","","38","","146","","16","","","","","","","","","","","","","","","","1","741","","","","","","","","","","","","","","","","","","","","","","",""
"","fixation","","html-keyboard-response","235","1288047","0.0-179.0","0","0","P8w1m","Scenes","","null","","","","null","","","","","","","","","","","","","","","","","","","","","","","","","","","","","","","","","","","","","","","","","","","",""
"","see_reward","","html-keyboard-response","236","1288518","0.0-180.0","0","0","P8w1m","Scenes","","469","","","","32","","125","","17","","","","1","","","","","1","","","","","157","469","","","","","","","","","","","","","","","","","","","","","","","","",""
"","reward_outcome","","html-keyboard-response","237","1290536","0.0-181.0","0","0","P8w1m","Scenes","","744","","","","38","","125","","17","","","","","","","","","","","","","","","","1","744","","","","","","","","","","","","","","","","","","","","","","",""
"","fixation","","html-keyboard-response","238","1291561","0.0-184.0","0","0","P8w1m","Scenes","","null","","","","null","","","","","","","","","","","","","","","","","","","","","","","","","","","","","","","","","","","","","","","","","","","",""
"","see_reward","","html-keyboard-response","239","1291973","0.0-185.0","0","0","P8w1m","Scenes","","410","","","","32","","134","","18","","","","-1","","","","","1","","","","","0","410","","","","","","","","","","","","","","","","","","","","","","","","",""
"","reward_outcome","","html-keyboard-response","240","1293982","0.0-186.0","0","0","P8w1m","Scenes","","606","","","","40","","134","","18","","","","","","","","","","","","","","","","-1","606","","","","","","","","","","","","","","","","","","","","","","",""
"","fixation","","html-keyboard-response","241","1294993","0.0-189.0","0","0","P8w1m","Scenes","","null","","","","null","","","","","","","","","","","","","","","","","","","","","","","","","","","","","","","","","","","","","","","","","","","",""
"","see_reward","","html-keyboard-response","242","1295453","0.0-190.0","0","0","P8w1m","Scenes","","458","","","","32","","138","","19","","","","-1","","","","","1","","","","","0","458","","","","","","","","","","","","","","","","","","","","","","","","",""
"","reward_outcome","","html-keyboard-response","243","1297464","0.0-191.0","0","0","P8w1m","Scenes","","645","","","","40","","138","","19","","","","","","","","","","","","","","","","-1","645","","","","","","","","","","","","","","","","","","","","","","",""
"","fixation","","html-keyboard-response","244","1298485","0.0-194.0","0","0","P8w1m","Scenes","","null","","","","null","","","","","","","","","","","","","","","","","","","","","","","","","","","","","","","","","","","","","","","","","","","",""
"","see_reward","","html-keyboard-response","245","1298838","0.0-195.0","0","0","P8w1m","Scenes","","351","","","","32","","146","","20","","","","1","","","","","1","","","","","151","351","","","","","","","","","","","","","","","","","","","","","","","","",""
"","reward_outcome","","html-keyboard-response","246","1300849","0.0-196.0","0","0","P8w1m","Scenes","","556","","","","38","","146","","20","","","","","","","","","","","","","","","","1","556","","","","","","","","","","","","","","","","","","","","","","",""
"","fixation","","html-keyboard-response","247","1301864","0.0-199.0","0","0","P8w1m","Scenes","","null","","","","null","","","","","","","","","","","","","","","","","","","","","","","","","","","","","","","","","","","","","","","","","","","",""
"","see_reward","","html-keyboard-response","248","1302426","0.0-200.0","0","0","P8w1m","Scenes","","560","","","","32","","141","","21","","","","-1","","","","","1","","","","","0","560","","","","","","","","","","","","","","","","","","","","","","","","",""
"","reward_outcome","","html-keyboard-response","249","1304443","0.0-201.0","0","0","P8w1m","Scenes","","675","","","","40","","141","","21","","","","","","","","","","","","","","","","-1","675","","","","","","","","","","","","","","","","","","","","","","",""
"","fixation","","html-keyboard-response","250","1305464","0.0-204.0","0","0","P8w1m","Scenes","","null","","","","null","","","","","","","","","","","","","","","","","","","","","","","","","","","","","","","","","","","","","","","","","","","",""
"","see_reward","","html-keyboard-response","251","1305927","0.0-205.0","0","0","P8w1m","Scenes","","461","","","","32","","134","","22","","","","-1","","","","","1","","","","","0","461","","","","","","","","","","","","","","","","","","","","","","","","",""
"","reward_outcome","","html-keyboard-response","252","1307936","0.0-206.0","0","0","P8w1m","Scenes","","648","","","","40","","134","","22","","","","","","","","","","","","","","","","-1","648","","","","","","","","","","","","","","","","","","","","","","",""
"","fixation","","html-keyboard-response","253","1308958","0.0-209.0","0","0","P8w1m","Scenes","","null","","","","null","","","","","","","","","","","","","","","","","","","","","","","","","","","","","","","","","","","","","","","","","","","",""
"","see_reward","","html-keyboard-response","254","1309381","0.0-210.0","0","0","P8w1m","Scenes","","421","","","","32","","141","","23","","","","-1","","","","","1","","","","","0","421","","","","","","","","","","","","","","","","","","","","","","","","",""
"","reward_outcome","","html-keyboard-response","255","1311398","0.0-211.0","0","0","P8w1m","Scenes","","608","","","","40","","141","","23","","","","","","","","","","","","","","","","-1","608","","","","","","","","","","","","","","","","","","","","","","",""
"","block_over","","html-keyboard-response","256","1316668","0.0-213.0-0.0","0","0","P8w1m","Scenes","","5268","","","","78","","","","","","","","","","","","","","","","","","","","","","","","","","","","","","","","","","","","","","","","","","","",""
"","fixation","","html-keyboard-response","257","1317682","0.0-214.0","0","0","P8w1m","Scenes","","null","","","","null","","","","","","","","","","","","","","","","","","","","","","","","","","","","","","","","","","","","","","","","","","","",""
"","see_reward","","html-keyboard-response","258","1318441","0.0-215.0","0","0","P8w1m","Scenes","","756","","","","32","","119","","24","","","","-1","","","","","2","","","","","0","756","","","","","","","","","","","","","","","","","","","","","","","","",""
"","reward_outcome","","html-keyboard-response","259","1320454","0.0-216.0","0","0","P8w1m","Scenes","","684","","","","40","","119","","24","","","","","","","","","","","","","","","","-1","684","","","","","","","","","","","","","","","","","","","","","","",""
"","fixation","","html-keyboard-response","260","1321462","0.0-219.0","0","0","P8w1m","Scenes","","null","","","","null","","","","","","","","","","","","","","","","","","","","","","","","","","","","","","","","","","","","","","","","","","","",""
"","see_reward","","html-keyboard-response","261","1321950","0.0-220.0","0","0","P8w1m","Scenes","","486","","","","32","","134","","25","","","","-1","","","","","2","","","","","0","486","","","","","","","","","","","","","","","","","","","","","","","","",""
"","reward_outcome","","html-keyboard-response","262","1323970","0.0-221.0","0","0","P8w1m","Scenes","","656","","","","40","","134","","25","","","","","","","","","","","","","","","","-1","656","","","","","","","","","","","","","","","","","","","","","","",""
"","fixation","","html-keyboard-response","263","1324978","0.0-224.0","0","0","P8w1m","Scenes","","null","","","","null","","","","","","","","","","","","","","","","","","","","","","","","","","","","","","","","","","","","","","","","","","","",""
"","see_reward","","html-keyboard-response","264","1325418","0.0-225.0","0","0","P8w1m","Scenes","","439","","","","32","","126","","26","","","","1","","","","","2","","","","","149","439","","","","","","","","","","","","","","","","","","","","","","","","",""
"","reward_outcome","","html-keyboard-response","265","1327429","0.0-226.0","0","0","P8w1m","Scenes","","580","","","","38","","126","","26","","","","","","","","","","","","","","","","1","580","","","","","","","","","","","","","","","","","","","","","","",""
"","fixation","","html-keyboard-response","266","1328439","0.0-229.0","0","0","P8w1m","Scenes","","null","","","","null","","","","","","","","","","","","","","","","","","","","","","","","","","","","","","","","","","","","","","","","","","","",""
"","see_reward","","html-keyboard-response","267","1328819","0.0-230.0","0","0","P8w1m","Scenes","","378","","","","32","","138","","27","","","","-1","","","","","2","","","","","0","378","","","","","","","","","","","","","","","","","","","","","","","","",""
"","reward_outcome","","html-keyboard-response","268","1330827","0.0-231.0","0","0","P8w1m","Scenes","","633","","","","40","","138","","27","","","","","","","","","","","","","","","","-1","633","","","","","","","","","","","","","","","","","","","","","","",""
"","fixation","","html-keyboard-response","269","1331836","0.0-234.0","0","0","P8w1m","Scenes","","null","","","","null","","","","","","","","","","","","","","","","","","","","","","","","","","","","","","","","","","","","","","","","","","","",""
"","see_reward","","html-keyboard-response","270","1332395","0.0-235.0","0","0","P8w1m","Scenes","","556","","","","32","","116","","28","","","","1","","","","","2","","","","","144","556","","","","","","","","","","","","","","","","","","","","","","","","",""
"","reward_outcome","","html-keyboard-response","271","1334410","0.0-236.0","0","0","P8w1m","Scenes","","570","","","","38","","116","","28","","","","","","","","","","","","","","","","1","570","","","","","","","","","","","","","","","","","","","","","","",""
"","fixation","","html-keyboard-response","272","1335418","0.0-239.0","0","0","P8w1m","Scenes","","null","","","","null","","","","","","","","","","","","","","","","","","","","","","","","","","","","","","","","","","","","","","","","","","","",""
"","see_reward","","html-keyboard-response","273","1335760","0.0-240.0","0","0","P8w1m","Scenes","","341","","","","32","","122","","29","","","","-1","","","","","2","","","","","0","341","","","","","","","","","","","","","","","","","","","","","","","","",""
"","reward_outcome","","html-keyboard-response","274","1337774","0.0-241.0","0","0","P8w1m","Scenes","","711","","","","40","","122","","29","","","","","","","","","","","","","","","","-1","711","","","","","","","","","","","","","","","","","","","","","","",""
"","fixation","","html-keyboard-response","275","1338796","0.0-244.0","0","0","P8w1m","Scenes","","null","","","","null","","","","","","","","","","","","","","","","","","","","","","","","","","","","","","","","","","","","","","","","","","","",""
"","see_reward","","html-keyboard-response","276","1339118","0.0-245.0","0","0","P8w1m","Scenes","","320","","","","32","","119","","30","","","","-1","","","","","2","","","","","0","320","","","","","","","","","","","","","","","","","","","","","","","","",""
"","reward_outcome","","html-keyboard-response","277","1341131","0.0-246.0","0","0","P8w1m","Scenes","","807","","","","40","","119","","30","","","","","","","","","","","","","","","","-1","807","","","","","","","","","","","","","","","","","","","","","","",""
"","fixation","","html-keyboard-response","278","1342147","0.0-249.0","0","0","P8w1m","Scenes","","null","","","","null","","","","","","","","","","","","","","","","","","","","","","","","","","","","","","","","","","","","","","","","","","","",""
"","see_reward","","html-keyboard-response","279","1342579","0.0-250.0","0","0","P8w1m","Scenes","","430","","","","32","","146","","31","","","","1","","","","","2","","","","","151","430","","","","","","","","","","","","","","","","","","","","","","","","",""
"","reward_outcome","","html-keyboard-response","280","1344597","0.0-251.0","0","0","P8w1m","Scenes","","605","","","","38","","146","","31","","","","","","","","","","","","","","","","1","605","","","","","","","","","","","","","","","","","","","","","","",""
"","fixation","","html-keyboard-response","281","1345606","0.0-254.0","0","0","P8w1m","Scenes","","null","","","","null","","","","","","","","","","","","","","","","","","","","","","","","","","","","","","","","","","","","","","","","","","","",""
"","see_reward","","html-keyboard-response","282","1346030","0.0-255.0","0","0","P8w1m","Scenes","","422","","","","32","","116","","32","","","","1","","","","","2","","","","","144","422","","","","","","","","","","","","","","","","","","","","","","","","",""
"","reward_outcome","","html-keyboard-response","283","1348049","0.0-256.0","0","0","P8w1m","Scenes","","478","","","","38","","116","","32","","","","","","","","","","","","","","","","1","478","","","","","","","","","","","","","","","","","","","","","","",""
"","fixation","","html-keyboard-response","284","1349065","0.0-259.0","0","0","P8w1m","Scenes","","null","","","","null","","","","","","","","","","","","","","","","","","","","","","","","","","","","","","","","","","","","","","","","","","","",""
"","see_reward","","html-keyboard-response","285","1349426","0.0-260.0","0","0","P8w1m","Scenes","","359","","","","32","","141","","33","","","","-1","","","","","2","","","","","0","359","","","","","","","","","","","","","","","","","","","","","","","","",""
"","reward_outcome","","html-keyboard-response","286","1351445","0.0-261.0","0","0","P8w1m","Scenes","","621","","","","40","","141","","33","","","","","","","","","","","","","","","","-1","621","","","","","","","","","","","","","","","","","","","","","","",""
"","fixation","","html-keyboard-response","287","1352450","0.0-264.0","0","0","P8w1m","Scenes","","null","","","","null","","","","","","","","","","","","","","","","","","","","","","","","","","","","","","","","","","","","","","","","","","","",""
"","see_reward","","html-keyboard-response","288","1352871","0.0-265.0","0","0","P8w1m","Scenes","","419","","","","32","","148","","34","","","","1","","","","","2","","","","","152","419","","","","","","","","","","","","","","","","","","","","","","","","",""
"","reward_outcome","","html-keyboard-response","289","1354888","0.0-266.0","0","0","P8w1m","Scenes","","576","","","","38","","148","","34","","","","","","","","","","","","","","","","1","576","","","","","","","","","","","","","","","","","","","","","","",""
"","fixation","","html-keyboard-response","290","1355897","0.0-269.0","0","0","P8w1m","Scenes","","null","","","","null","","","","","","","","","","","","","","","","","","","","","","","","","","","","","","","","","","","","","","","","","","","",""
"","see_reward","","html-keyboard-response","291","1356401","0.0-270.0","0","0","P8w1m","Scenes","","502","","","","32","","146","","35","","","","1","","","","","2","","","","","151","502","","","","","","","","","","","","","","","","","","","","","","","","",""
"","reward_outcome","","html-keyboard-response","292","1358419","0.0-271.0","0","0","P8w1m","Scenes","","621","","","","38","","146","","35","","","","","","","","","","","","","","","","1","621","","","","","","","","","","","","","","","","","","","","","","",""
"","fixation","","html-keyboard-response","293","1359439","0.0-274.0","0","0","P8w1m","Scenes","","null","","","","null","","","","","","","","","","","","","","","","","","","","","","","","","","","","","","","","","","","","","","","","","","","",""
"","see_reward","","html-keyboard-response","294","1360005","0.0-275.0","0","0","P8w1m","Scenes","","564","","","","32","","126","","36","","","","1","","","","","2","","","","","149","564","","","","","","","","","","","","","","","","","","","","","","","","",""
"","reward_outcome","","html-keyboard-response","295","1362018","0.0-276.0","0","0","P8w1m","Scenes","","594","","","","38","","126","","36","","","","","","","","","","","","","","","","1","594","","","","","","","","","","","","","","","","","","","","","","",""
"","fixation","","html-keyboard-response","296","1363038","0.0-279.0","0","0","P8w1m","Scenes","","null","","","","null","","","","","","","","","","","","","","","","","","","","","","","","","","","","","","","","","","","","","","","","","","","",""
"","see_reward","","html-keyboard-response","297","1363592","0.0-280.0","0","0","P8w1m","Scenes","","552","","","","32","","113","","37","","","","1","","","","","2","","","","","150","552","","","","","","","","","","","","","","","","","","","","","","","","",""
"","reward_outcome","","html-keyboard-response","298","1365616","0.0-281.0","0","0","P8w1m","Scenes","","794","","","","38","","113","","37","","","","","","","","","","","","","","","","1","794","","","","","","","","","","","","","","","","","","","","","","",""
"","fixation","","html-keyboard-response","299","1366638","0.0-284.0","0","0","P8w1m","Scenes","","null","","","","null","","","","","","","","","","","","","","","","","","","","","","","","","","","","","","","","","","","","","","","","","","","",""
"","see_reward","","html-keyboard-response","300","1367301","0.0-285.0","0","0","P8w1m","Scenes","","659","","","","32","","113","","38","","","","1","","","","","2","","","","","150","659","","","","","","","","","","","","","","","","","","","","","","","","",""
"","reward_outcome","","html-keyboard-response","301","1369311","0.0-286.0","0","0","P8w1m","Scenes","","753","","","","38","","113","","38","","","","","","","","","","","","","","","","1","753","","","","","","","","","","","","","","","","","","","","","","",""
"","fixation","","html-keyboard-response","302","1370329","0.0-289.0","0","0","P8w1m","Scenes","","null","","","","null","","","","","","","","","","","","","","","","","","","","","","","","","","","","","","","","","","","","","","","","","","","",""
"","see_reward","","html-keyboard-response","303","1370893","0.0-290.0","0","0","P8w1m","Scenes","","561","","","","32","","108","","39","","","","-1","","","","","2","","","","","0","561","","","","","","","","","","","","","","","","","","","","","","","","",""
"","reward_outcome","","html-keyboard-response","304","1372906","0.0-291.0","0","0","P8w1m","Scenes","","726","","","","40","","108","","39","","","","","","","","","","","","","","","","-1","726","","","","","","","","","","","","","","","","","","","","","","",""
"","fixation","","html-keyboard-response","305","1373925","0.0-294.0","0","0","P8w1m","Scenes","","null","","","","null","","","","","","","","","","","","","","","","","","","","","","","","","","","","","","","","","","","","","","","","","","","",""
"","see_reward","","html-keyboard-response","306","1374383","0.0-295.0","0","0","P8w1m","Scenes","","456","","","","32","","141","","40","","","","-1","","","","","2","","","","","0","456","","","","","","","","","","","","","","","","","","","","","","","","",""
"","reward_outcome","","html-keyboard-response","307","1376404","0.0-296.0","0","0","P8w1m","Scenes","","592","","","","40","","141","","40","","","","","","","","","","","","","","","","-1","592","","","","","","","","","","","","","","","","","","","","","","",""
"","fixation","","html-keyboard-response","308","1377424","0.0-299.0","0","0","P8w1m","Scenes","","null","","","","null","","","","","","","","","","","","","","","","","","","","","","","","","","","","","","","","","","","","","","","","","","","",""
"","see_reward","","html-keyboard-response","309","1377899","0.0-300.0","0","0","P8w1m","Scenes","","474","","","","32","","108","","41","","","","-1","","","","","2","","","","","0","474","","","","","","","","","","","","","","","","","","","","","","","","",""
"","reward_outcome","","html-keyboard-response","310","1379921","0.0-301.0","0","0","P8w1m","Scenes","","578","","","","40","","108","","41","","","","","","","","","","","","","","","","-1","578","","","","","","","","","","","","","","","","","","","","","","",""
"","fixation","","html-keyboard-response","311","1380939","0.0-304.0","0","0","P8w1m","Scenes","","null","","","","null","","","","","","","","","","","","","","","","","","","","","","","","","","","","","","","","","","","","","","","","","","","",""
"","see_reward","","html-keyboard-response","312","1381467","0.0-305.0","0","0","P8w1m","Scenes","","526","","","","32","","125","","42","","","","1","","","","","2","","","","","157","526","","","","","","","","","","","","","","","","","","","","","","","","",""
"","reward_outcome","","html-keyboard-response","313","1383475","0.0-306.0","0","0","P8w1m","Scenes","","603","","","","38","","125","","42","","","","","","","","","","","","","","","","1","603","","","","","","","","","","","","","","","","","","","","","","",""
"","fixation","","html-keyboard-response","314","1384487","0.0-309.0","0","0","P8w1m","Scenes","","null","","","","null","","","","","","","","","","","","","","","","","","","","","","","","","","","","","","","","","","","","","","","","","","","",""
"","see_reward","","html-keyboard-response","315","1384946","0.0-310.0","0","0","P8w1m","Scenes","","457","","","","32","","125","","43","","","","1","","","","","2","","","","","157","457","","","","","","","","","","","","","","","","","","","","","","","","",""
"","reward_outcome","","html-keyboard-response","316","1386960","0.0-311.0","0","0","P8w1m","Scenes","","null","","","","null","","125","","43","","","","","","","","","","","","","","","","NaN","null","","","","","","","","","","","","","","","","","","","","","","",""
"","respond_faster","","html-keyboard-response","317","1388473","0.0-312.0-0.0","1","0","P8w1m","Scenes","","null","","","","null","","","","","","","","","","","","","","","","","","","","","","","","","","","","","","","","","","","","","","","","","","","",""
"","fixation","","html-keyboard-response","318","1389494","0.0-314.0","0","0","P8w1m","Scenes","","null","","","","null","","","","","","","","","","","","","","","","","","","","","","","","","","","","","","","","","","","","","","","","","","","",""
"","see_reward","","html-keyboard-response","319","1390146","0.0-315.0","0","0","P8w1m","Scenes","","650","","","","32","","122","","44","","","","-1","","","","","2","","","","","0","650","","","","","","","","","","","","","","","","","","","","","","","","",""
"","reward_outcome","","html-keyboard-response","320","1392169","0.0-316.0","0","0","P8w1m","Scenes","","712","","","","40","","122","","44","","","","","","","","","","","","","","","","-1","712","","","","","","","","","","","","","","","","","","","","","","",""
"","fixation","","html-keyboard-response","321","1393180","0.0-319.0","0","0","P8w1m","Scenes","","null","","","","null","","","","","","","","","","","","","","","","","","","","","","","","","","","","","","","","","","","","","","","","","","","",""
"","see_reward","","html-keyboard-response","322","1393689","0.0-320.0","0","0","P8w1m","Scenes","","507","","","","32","","134","","45","","","","-1","","","","","2","","","","","0","507","","","","","","","","","","","","","","","","","","","","","","","","",""
"","reward_outcome","","html-keyboard-response","323","1395700","0.0-321.0","0","0","P8w1m","Scenes","","562","","","","40","","134","","45","","","","","","","","","","","","","","","","-1","562","","","","","","","","","","","","","","","","","","","","","","",""
"","fixation","","html-keyboard-response","324","1396712","0.0-324.0","0","0","P8w1m","Scenes","","null","","","","null","","","","","","","","","","","","","","","","","","","","","","","","","","","","","","","","","","","","","","","","","","","",""
"","see_reward","","html-keyboard-response","325","1397226","0.0-325.0","0","0","P8w1m","Scenes","","511","","","","32","","148","","46","","","","1","","","","","2","","","","","152","511","","","","","","","","","","","","","","","","","","","","","","","","",""
"","reward_outcome","","html-keyboard-response","326","1399249","0.0-326.0","0","0","P8w1m","Scenes","","434","","","","38","","148","","46","","","","","","","","","","","","","","","","1","434","","","","","","","","","","","","","","","","","","","","","","",""
"","fixation","","html-keyboard-response","327","1400267","0.0-329.0","0","0","P8w1m","Scenes","","null","","","","null","","","","","","","","","","","","","","","","","","","","","","","","","","","","","","","","","","","","","","","","","","","",""
"","see_reward","","html-keyboard-response","328","1400654","0.0-330.0","0","0","P8w1m","Scenes","","385","","","","32","","138","","47","","","","-1","","","","","2","","","","","0","385","","","","","","","","","","","","","","","","","","","","","","","","",""
"","reward_outcome","","html-keyboard-response","329","1402660","0.0-331.0","0","0","P8w1m","Scenes","","528","","","","40","","138","","47","","","","","","","","","","","","","","","","-1","528","","","","","","","","","","","","","","","","","","","","","","",""
"","block_over","","html-keyboard-response","330","1405334","0.0-333.0-0.0","0","0","P8w1m","Scenes","","2672","","","","78","","","","","","","","","","","","","","","","","","","","","","","","","","","","","","","","","","","","","","","","","","","",""
"","fixation","","html-keyboard-response","331","1406351","0.0-334.0","0","0","P8w1m","Scenes","","null","","","","null","","","","","","","","","","","","","","","","","","","","","","","","","","","","","","","","","","","","","","","","","","","",""
"","see_reward","","html-keyboard-response","332","1406938","0.0-335.0","0","0","P8w1m","Scenes","","584","","","","32","","125","","48","","","","1","","","","","3","","","","","157","584","","","","","","","","","","","","","","","","","","","","","","","","",""
"","reward_outcome","","html-keyboard-response","333","1408951","0.0-336.0","0","0","P8w1m","Scenes","","506","","","","38","","125","","48","","","","","","","","","","","","","","","","1","506","","","","","","","","","","","","","","","","","","","","","","",""
"","fixation","","html-keyboard-response","334","1409960","0.0-339.0","0","0","P8w1m","Scenes","","null","","","","null","","","","","","","","","","","","","","","","","","","","","","","","","","","","","","","","","","","","","","","","","","","",""
"","see_reward","","html-keyboard-response","335","1410314","0.0-340.0","0","0","P8w1m","Scenes","","352","","","","32","","148","","49","","","","1","","","","","3","","","","","152","352","","","","","","","","","","","","","","","","","","","","","","","","",""
"","reward_outcome","","html-keyboard-response","336","1412322","0.0-341.0","0","0","P8w1m","Scenes","","576","","","","38","","148","","49","","","","","","","","","","","","","","","","1","576","","","","","","","","","","","","","","","","","","","","","","",""
"","fixation","","html-keyboard-response","337","1413336","0.0-344.0","0","0","P8w1m","Scenes","","null","","","","null","","","","","","","","","","","","","","","","","","","","","","","","","","","","","","","","","","","","","","","","","","","",""
"","see_reward","","html-keyboard-response","338","1413859","0.0-345.0","0","0","P8w1m","Scenes","","521","","","","32","","119","","50","","","","-1","","","","","3","","","","","0","521","","","","","","","","","","","","","","","","","","","","","","","","",""
