"success","ttype","start_time","trial_type","trial_index","time_elapsed","internal_node_id","warning","missed_checkup","PID","stim_type","view_history","rt","responses","category","repeat_instructions","key_press","response","stimulus_id","painting","index","stimulus_left","stimulus_right","explain_trial","reward_type","rating_left","rating_right","painting_left","painting_right","block","left_chosen","chosen_obj","unchosen_obj","explain_response","reward_amount","see_reward_rt","register_reward_response","register_reward_rt","deliberation_reward_tally","stimulus_left_deliberation_ind","stimulus_right_deliberation_ind","chosen_trial","gain_left","higher_outcome_chosen","old_pair","chosen_object","rt_pairs","left_object_chosen","rt_object","old_response","new_rating","deliberated_stim","initial_rating","outcome_eval_rt","outcome_eval_response","outcome_eval_gain","outcome_eval_acc","preamble","outcome_eval_confidence","outcome_eval_confidence_rt","total_reward_tally"
"true","full_screen","d01182023hr1921","fullscreen","0","156075","0.0-0.0","0","0","WJ2Nv","People","","","","","","","","","","","","","","","","","","","","","","","","","","","","","","","","","","","","","","","","","","","","","","","","","",""
"","rating_instructions","","instructions","1","162006","0.0-1.0-0.0","0","0","WJ2Nv","People","[{""page_index"":0,""viewing_time"":4702},{""page_index"":1,""viewing_time"":1226}]","5929","","","","","","","","","","","","","","","","","","","","","","","","","","","","","","","","","","","","","","","","","","","","","","","",""
"","","","survey-multi-choice","2","167158","0.0-1.0-1.0","0","0","WJ2Nv","People","","5150","{""Q0"":""True"",""Q1"":""Mouse""}","rating_comprehension_check","0","","","","","","","","","","","","","","","","","","","","","","","","","","","","","","","","","","","","","","","","","","","","",""
"","start_phase","","html-keyboard-response","3","168771","0.0-2.0","0","0","WJ2Nv","People","","1612","","","","78","","","","","","","","","","","","","","","","","","","","","","","","","","","","","","","","","","","","","","","","","","","",""
"","rating","","html-slider-response","4","171248","0.0-3.0","0","0","WJ2Nv","People","","2475","","","","","74","10","charles-etoroma-95UF6LXe-Lo-unsplash.jpg","0","","","","","","","","","","","","","","","","","","","","","","","","","","","","","","","","","","","","","","","",""
"","rating","","html-slider-response","5","174232","0.0-4.0","0","0","WJ2Nv","People","","2982","","","","","83","32","nathan-dumlao-ger61_TX6oI-unsplash.jpg","1","","","","","","","","","","","","","","","","","","","","","","","","","","","","","","","","","","","","","","","",""
"","rating","","html-slider-response","6","178061","0.0-5.0","0","0","WJ2Nv","People","","3827","","","","","61","25","joseph-gonzalez-iFgRcqHznqg-unsplash.jpg","2","","","","","","","","","","","","","","","","","","","","","","","","","","","","","","","","","","","","","","","",""
"","rating","","html-slider-response","7","179910","0.0-6.0","0","0","WJ2Nv","People","","1847","","","","","68","35","oliver-ragfelt-khV4fTy6-D8-unsplash.jpg","3","","","","","","","","","","","","","","","","","","","","","","","","","","","","","","","","","","","","","","","",""
"","rating","","html-slider-response","8","182124","0.0-7.0","0","0","WJ2Nv","People","","2213","","","","","53","9","carlos-andres-gomez-vJuk8Y86mRw-unsplash.jpg","4","","","","","","","","","","","","","","","","","","","","","","","","","","","","","","","","","","","","","","","",""
"","rating","","html-slider-response","9","184124","0.0-8.0","0","0","WJ2Nv","People","","1999","","","","","59","26","juri-gianfrancesco-9EZadYaMzk4-unsplash.jpg","5","","","","","","","","","","","","","","","","","","","","","","","","","","","","","","","","","","","","","","","",""
"","rating","","html-slider-response","10","186761","0.0-9.0","0","0","WJ2Nv","People","","2636","","","","","43","47","tyler-nix-ZGa9d1a_4tA-unsplash.jpg","6","","","","","","","","","","","","","","","","","","","","","","","","","","","","","","","","","","","","","","","",""
"","rating","","html-slider-response","11","188537","0.0-10.0","0","0","WJ2Nv","People","","1775","","","","","21","29","leilani-angel-K84vnnzxmTQ-unsplash.jpg","7","","","","","","","","","","","","","","","","","","","","","","","","","","","","","","","","","","","","","","","",""
"","rating","","html-slider-response","12","192039","0.0-11.0","0","0","WJ2Nv","People","","3501","","","","","15","46","stefan-stefancik-QXevDflbl8A-unsplash.jpg","8","","","","","","","","","","","","","","","","","","","","","","","","","","","","","","","","","","","","","","","",""
"","rating","","html-slider-response","13","193831","0.0-12.0","0","0","WJ2Nv","People","","1790","","","","","43","19","ha-nguy-n-OFSQ6bHjFjs-unsplash.jpg","9","","","","","","","","","","","","","","","","","","","","","","","","","","","","","","","","","","","","","","","",""
"","rating","","html-slider-response","14","195876","0.0-13.0","0","0","WJ2Nv","People","","2043","","","","","85","42","prince-akachi-l3IHXOdMyHQ-unsplash.jpg","10","","","","","","","","","","","","","","","","","","","","","","","","","","","","","","","","","","","","","","","",""
"","rating","","html-slider-response","15","197617","0.0-14.0","0","0","WJ2Nv","People","","1740","","","","","69","23","joanna-nix-walkup-H4fEMshfwTE-unsplash.jpg","11","","","","","","","","","","","","","","","","","","","","","","","","","","","","","","","","","","","","","","","",""
"","rating","","html-slider-response","16","199648","0.0-15.0","0","0","WJ2Nv","People","","2030","","","","","65","22","jessica-radanavong-mrYkTuAesKE-unsplash.jpg","12","","","","","","","","","","","","","","","","","","","","","","","","","","","","","","","","","","","","","","","",""
"","rating","","html-slider-response","17","201739","0.0-16.0","0","0","WJ2Nv","People","","2090","","","","","79","18","good-faces-xmSWVeGEnJw-unsplash.jpg","13","","","","","","","","","","","","","","","","","","","","","","","","","","","","","","","","","","","","","","","",""
"","rating","","html-slider-response","18","203873","0.0-17.0","0","0","WJ2Nv","People","","2133","","","","","94","6","ben-o-bro-C5XyLljkMrY-unsplash.jpg","14","","","","","","","","","","","","","","","","","","","","","","","","","","","","","","","","","","","","","","","",""
"","rating","","html-slider-response","19","206262","0.0-18.0","0","0","WJ2Nv","People","","2388","","","","","42","2","arjunsyah-TBUA5KHJn6k-unsplash.jpg","15","","","","","","","","","","","","","","","","","","","","","","","","","","","","","","","","","","","","","","","",""
"","rating","","html-slider-response","20","209061","0.0-19.0","0","0","WJ2Nv","People","","2797","","","","","47","0","abstral-official-cyOKLSgkgCE-unsplash.jpg","16","","","","","","","","","","","","","","","","","","","","","","","","","","","","","","","","","","","","","","","",""
"","rating","","html-slider-response","21","212185","0.0-20.0","0","0","WJ2Nv","People","","3122","","","","","57","1","aiony-haust-jmATI5Q_YgY-unsplash.jpg","17","","","","","","","","","","","","","","","","","","","","","","","","","","","","","","","","","","","","","","","",""
"","rating","","html-slider-response","22","214347","0.0-21.0","0","0","WJ2Nv","People","","2161","","","","","79","48","velizar-ivanov-7ktP9yZA1g4-unsplash.jpg","18","","","","","","","","","","","","","","","","","","","","","","","","","","","","","","","","","","","","","","","",""
"","rating","","html-slider-response","23","216174","0.0-22.0","0","0","WJ2Nv","People","","1826","","","","","25","34","oliver-johnson-1TUIcKob7Zs-unsplash.jpg","19","","","","","","","","","","","","","","","","","","","","","","","","","","","","","","","","","","","","","","","",""
"","rating","","html-slider-response","24","218823","0.0-23.0","0","0","WJ2Nv","People","","2649","","","","","40","5","batel-studio-ttSRjiYG_WM-unsplash.jpg","20","","","","","","","","","","","","","","","","","","","","","","","","","","","","","","","","","","","","","","","",""
"","rating","","html-slider-response","25","221028","0.0-24.0","0","0","WJ2Nv","People","","2203","","","","","61","37","pavel-anoshin-d0peGya6R5Y-unsplash.jpg","21","","","","","","","","","","","","","","","","","","","","","","","","","","","","","","","","","","","","","","","",""
"","rating","","html-slider-response","26","223288","0.0-25.0","0","0","WJ2Nv","People","","2260","","","","","42","45","sarah-noltner-pL5ZzPp1zqg-unsplash.jpg","22","","","","","","","","","","","","","","","","","","","","","","","","","","","","","","","","","","","","","","","",""
"","rating","","html-slider-response","27","224921","0.0-26.0","0","0","WJ2Nv","People","","1632","","","","","62","16","giano-currie-5-9YOsmf8IQ-unsplash.jpg","23","","","","","","","","","","","","","","","","","","","","","","","","","","","","","","","","","","","","","","","",""
"","rating","","html-slider-response","28","227052","0.0-27.0","0","0","WJ2Nv","People","","2129","","","","","46","3","art-hauntington-jzY0KRJopEI-unsplash.jpg","24","","","","","","","","","","","","","","","","","","","","","","","","","","","","","","","","","","","","","","","",""
"","rating","","html-slider-response","29","230006","0.0-28.0","0","0","WJ2Nv","People","","2954","","","","","30","13","erik-lucatero-d2MSDujJl2g-unsplash.jpg","25","","","","","","","","","","","","","","","","","","","","","","","","","","","","","","","","","","","","","","","",""
"","rating","","html-slider-response","30","232040","0.0-29.0","0","0","WJ2Nv","People","","2033","","","","","45","12","daniel-rigdon-dXmXKPP2L4E-unsplash.jpg","26","","","","","","","","","","","","","","","","","","","","","","","","","","","","","","","","","","","","","","","",""
"","rating","","html-slider-response","31","237250","0.0-30.0","0","0","WJ2Nv","People","","5209","","","","","23","43","raamin-ka-0qJBEzudn5E-unsplash.jpg","27","","","","","","","","","","","","","","","","","","","","","","","","","","","","","","","","","","","","","","","",""
"","rating","","html-slider-response","32","240326","0.0-31.0","0","0","WJ2Nv","People","","3074","","","","","43","14","freddy-kearney-o-ioeoATbIM-unsplash.jpg","28","","","","","","","","","","","","","","","","","","","","","","","","","","","","","","","","","","","","","","","",""
"","rating","","html-slider-response","33","242644","0.0-32.0","0","0","WJ2Nv","People","","2317","","","","","43","33","olena-sergienko-0TSd6uCKTKc-unsplash.jpg","29","","","","","","","","","","","","","","","","","","","","","","","","","","","","","","","","","","","","","","","",""
"","rating","","html-slider-response","34","245595","0.0-33.0","0","0","WJ2Nv","People","","2950","","","","","57","8","bruce-dixon-3M9WJQVHzog-unsplash.jpg","30","","","","","","","","","","","","","","","","","","","","","","","","","","","","","","","","","","","","","","","",""
"","rating","","html-slider-response","35","250159","0.0-34.0","0","0","WJ2Nv","People","","4563","","","","","20","7","brooke-cagle-HRZUzoX1e6w-unsplash.jpg","31","","","","","","","","","","","","","","","","","","","","","","","","","","","","","","","","","","","","","","","",""
"","rating","","html-slider-response","36","254181","0.0-35.0","0","0","WJ2Nv","People","","4021","","","","","12","30","matheus-ferrero-pg_WCHWSdT8-unsplash.jpg","32","","","","","","","","","","","","","","","","","","","","","","","","","","","","","","","","","","","","","","","",""
"","rating","","html-slider-response","37","257335","0.0-36.0","0","0","WJ2Nv","People","","3154","","","","","35","17","gleb-lukomets-paBzWCPN23k-unsplash.jpg","33","","","","","","","","","","","","","","","","","","","","","","","","","","","","","","","","","","","","","","","",""
"","rating","","html-slider-response","38","259327","0.0-37.0","0","0","WJ2Nv","People","","1991","","","","","60","36","ospan-ali-mGdA2fzjWLo-unsplash.jpg","34","","","","","","","","","","","","","","","","","","","","","","","","","","","","","","","","","","","","","","","",""
"","rating","","html-slider-response","39","261246","0.0-38.0","0","0","WJ2Nv","People","","1918","","","","","41","4","barna-bartis-2x3vfVxwR7o-unsplash.jpg","35","","","","","","","","","","","","","","","","","","","","","","","","","","","","","","","","","","","","","","","",""
"","rating","","html-slider-response","40","264103","0.0-39.0","0","0","WJ2Nv","People","","2855","","","","","50","28","justin-chen-J7Cf1Gch49E-unsplash.jpg","36","","","","","","","","","","","","","","","","","","","","","","","","","","","","","","","","","","","","","","","",""
"","rating","","html-slider-response","41","270583","0.0-40.0","0","0","WJ2Nv","People","","6479","","","","","41","21","jessica-felicio-_cvwXhGqG-o-unsplash.jpg","37","","","","","","","","","","","","","","","","","","","","","","","","","","","","","","","","","","","","","","","",""
"","rating","","html-slider-response","42","272647","0.0-41.0","0","0","WJ2Nv","People","","2063","","","","","61","24","joel-mott-LaK153ghdig-unsplash.jpg","38","","","","","","","","","","","","","","","","","","","","","","","","","","","","","","","","","","","","","","","",""
"","rating","","html-slider-response","43","274685","0.0-42.0","0","0","WJ2Nv","People","","2037","","","","","77","44","rikonavt-HQjfrvdTfak-unsplash.jpg","39","","","","","","","","","","","","","","","","","","","","","","","","","","","","","","","","","","","","","","","",""
"","rating","","html-slider-response","44","276729","0.0-43.0","0","0","WJ2Nv","People","","2043","","","","","77","15","gabriel-silverio-u3WmDyKGsrY-unsplash.jpg","40","","","","","","","","","","","","","","","","","","","","","","","","","","","","","","","","","","","","","","","",""
"","rating","","html-slider-response","45","278835","0.0-44.0","0","0","WJ2Nv","People","","2105","","","","","35","27","jurica-koletic-7YVZYZeITc8-unsplash.jpg","41","","","","","","","","","","","","","","","","","","","","","","","","","","","","","","","","","","","","","","","",""
"","rating","","html-slider-response","46","281259","0.0-45.0","0","0","WJ2Nv","People","","2423","","","","","83","31","mathilda-khoo-vLR0YP_otCo-unsplash.jpg","42","","","","","","","","","","","","","","","","","","","","","","","","","","","","","","","","","","","","","","","",""
"","rating","","html-slider-response","47","283919","0.0-46.0","0","0","WJ2Nv","People","","2659","","","","","68","11","christian-ferrer-8vT-DgHZDG4-unsplash.jpg","43","","","","","","","","","","","","","","","","","","","","","","","","","","","","","","","","","","","","","","","",""
"","rating","","html-slider-response","48","286226","0.0-47.0","0","0","WJ2Nv","People","","2306","","","","","68","40","prince-akachi-4Yv84VgQkRM-unsplash.jpg","44","","","","","","","","","","","","","","","","","","","","","","","","","","","","","","","","","","","","","","","",""
"","rating","","html-slider-response","49","288509","0.0-48.0","0","0","WJ2Nv","People","","2282","","","","","91","39","philip-martin-5aGUyCW_PJw-unsplash.jpg","45","","","","","","","","","","","","","","","","","","","","","","","","","","","","","","","","","","","","","","","",""
"","rating","","html-slider-response","50","291519","0.0-49.0","0","0","WJ2Nv","People","","3009","","","","","23","49","vicky-hladynets-_gDoyVv5F4c-unsplash.jpg","46","","","","","","","","","","","","","","","","","","","","","","","","","","","","","","","","","","","","","","","",""
"","rating","","html-slider-response","51","293914","0.0-50.0","0","0","WJ2Nv","People","","2394","","","","","34","20","houcine-ncib-B4TjXnI0Y2c-unsplash.jpg","47","","","","","","","","","","","","","","","","","","","","","","","","","","","","","","","","","","","","","","","",""
"","rating","","html-slider-response","52","296158","0.0-51.0","0","0","WJ2Nv","People","","2242","","","","","21","38","petr-sevcovic-HzDF-rxlSeM-unsplash.jpg","48","","","","","","","","","","","","","","","","","","","","","","","","","","","","","","","","","","","","","","","",""
"","rating","","html-slider-response","53","299653","0.0-52.0","0","0","WJ2Nv","People","","3494","","","","","41","41","prince-akachi-i2hoD-C2RUA-unsplash.jpg","49","","","","","","","","","","","","","","","","","","","","","","","","","","","","","","","","","","","","","","","",""
"","deliberation_instructions","","instructions","54","324189","0.0-53.0-0.0","0","0","WJ2Nv","People","[{""page_index"":0,""viewing_time"":6049},{""page_index"":1,""viewing_time"":4548},{""page_index"":2,""viewing_time"":7772},{""page_index"":3,""viewing_time"":4976},{""page_index"":4,""viewing_time"":1189}]","24535","","","","","","","","","","","","","","","","","","","","","","","","","","","","","","","","","","","","","","","","","","","","","","","",""
"","","","survey-multi-choice","55","338035","0.0-53.0-1.0","0","0","WJ2Nv","People","","13843","{""Q0"":""True"",""Q1"":""True"",""Q2"":""Consider carefully and take your time (up to 10 seconds)"",""Q3"":""True"",""Q4"":""D""}","deliberation_comprehension_check","0","","","","","","","","","","","","","","","","","","","","","","","","","","","","","","","","","","","","","","","","","","","","",""
"","start_phase","","html-keyboard-response","56","342137","0.0-54.0","0","0","WJ2Nv","People","","4101","","","","78","","","","","","","","","","","","","","","","","","","","","","","","","","","","","","","","","","","","","","","","","","","",""
"","first_deliberation_block","","html-keyboard-response","57","343233","0.0-55.0","0","0","WJ2Nv","People","","1096","","","","78","","","","","","","","","","","","","","","","","","","","","","","","","","","","","","","","","","","","","","","","","","","",""
"","fixation","","html-keyboard-response","58","344251","0.0-56.0-0.0","0","0","WJ2Nv","People","","null","","","","null","","","","","","","","","","","","","","","","","","","","","","","","","","","","","","","","","","","","","","","","","","","",""
"","deliberation","","html-keyboard-response","59","346122","0.0-56.0-1.0","0","0","WJ2Nv","People","","1870","","","","68","","","","0","1","12","1","1","57","45","aiony-haust-jmATI5Q_YgY-unsplash.jpg","daniel-rigdon-dXmXKPP2L4E-unsplash.jpg","1","1","1","12","","","","","","","","","","","","","","","","","","","","","","","","","","","",""
"","choice_confirmation","","html-keyboard-response","60","346634","0.0-56.0-2.0-0.0","0","0","WJ2Nv","People","","null","","","","null","","","","0","1","12","","","","","","","","","","","","","","","","","","","","","","","","","","","","","","","","","","","","","",""
"","explain_trial","","survey-text","61","364004","0.0-56.0-5.0-0.0","0","0","WJ2Nv","People","","17368","{""Q0"":""This photograph more closely resembles a classical painting, so I feel as though the perceived value would be higher.""}","","","","","","","0","1","12","","","","","","","","","","","{""Q0"":""This photograph more closely resembles a classical painting, so I feel as though the perceived value would be higher.""}","","","","","","","","","","","","","","","","","","","","","","","","","","",""
"","fixation","","html-keyboard-response","62","365027","0.0-57.0-0.0","0","0","WJ2Nv","People","","null","","","","null","","","","","","","","","","","","","","","","","","","","","","","","","","","","","","","","","","","","","","","","","","","",""
"","deliberation","","html-keyboard-response","63","366564","0.0-57.0-1.0","0","0","WJ2Nv","People","","1537","","","","68","","","","1","26","41","0","-1","59","41","juri-gianfrancesco-9EZadYaMzk4-unsplash.jpg","prince-akachi-i2hoD-C2RUA-unsplash.jpg","1","1","26","41","","","","","","","","","","","","","","","","","","","","","","","","","","","",""
"","choice_confirmation","","html-keyboard-response","64","367068","0.0-57.0-2.0-0.0","0","0","WJ2Nv","People","","null","","","","null","","","","1","26","41","","","","","","","","","","","","","","","","","","","","","","","","","","","","","","","","","","","","","",""
"","fixation","","html-keyboard-response","65","368080","0.0-58.0-0.0","0","0","WJ2Nv","People","","null","","","","null","","","","","","","","","","","","","","","","","","","","","","","","","","","","","","","","","","","","","","","","","","","",""
"","deliberation","","html-keyboard-response","66","369476","0.0-58.0-1.0","0","0","WJ2Nv","People","","1396","","","","75","","","","2","21","8","1","-1","41","57","jessica-felicio-_cvwXhGqG-o-unsplash.jpg","bruce-dixon-3M9WJQVHzog-unsplash.jpg","1","0","8","21","","","","","","","","","","","","","","","","","","","","","","","","","","","",""
"","choice_confirmation","","html-keyboard-response","67","369989","0.0-58.0-2.0-0.0","0","0","WJ2Nv","People","","null","","","","null","","","","2","21","8","","","","","","","","","","","","","","","","","","","","","","","","","","","","","","","","","","","","","",""
"","explain_trial","","survey-text","68","403229","0.0-58.0-5.0-0.0","0","0","WJ2Nv","People","","33239","{""Q0"":""The photograph on the right looks more clear and higher quality, and I can see it being more versatile and therefore sell for more.""}","","","","","","","2","21","8","","","","","","","","","","","{""Q0"":""The photograph on the right looks more clear and higher quality, and I can see it being more versatile and therefore sell for more.""}","","","","","","","","","","","","","","","","","","","","","","","","","","",""
"","fixation","","html-keyboard-response","69","404237","0.0-59.0-0.0","0","0","WJ2Nv","People","","null","","","","null","","","","","","","","","","","","","","","","","","","","","","","","","","","","","","","","","","","","","","","","","","","",""
"","deliberation","","html-keyboard-response","70","406249","0.0-59.0-1.0","0","0","WJ2Nv","People","","2011","","","","75","","","","3","37","36","1","-1","61","60","pavel-anoshin-d0peGya6R5Y-unsplash.jpg","ospan-ali-mGdA2fzjWLo-unsplash.jpg","1","0","36","37","","","","","","","","","","","","","","","","","","","","","","","","","","","",""
"","choice_confirmation","","html-keyboard-response","71","406760","0.0-59.0-2.0-0.0","0","0","WJ2Nv","People","","null","","","","null","","","","3","37","36","","","","","","","","","","","","","","","","","","","","","","","","","","","","","","","","","","","","","",""
"","explain_trial","","survey-text","72","429767","0.0-59.0-5.0-0.0","0","0","WJ2Nv","People","","23006","{""Q0"":""The clothes in this photograph make it resemble a painting or old artwork, so I believe it will sell for more.""}","","","","","","","3","37","36","","","","","","","","","","","{""Q0"":""The clothes in this photograph make it resemble a painting or old artwork, so I believe it will sell for more.""}","","","","","","","","","","","","","","","","","","","","","","","","","","",""
"","fixation","","html-keyboard-response","73","430789","0.0-60.0-0.0","0","0","WJ2Nv","People","","null","","","","null","","","","","","","","","","","","","","","","","","","","","","","","","","","","","","","","","","","","","","","","","","","",""
"","deliberation","","html-keyboard-response","74","433389","0.0-60.0-1.0","0","0","WJ2Nv","People","","2598","","","","68","","","","4","47","9","1","1","43","53","tyler-nix-ZGa9d1a_4tA-unsplash.jpg","carlos-andres-gomez-vJuk8Y86mRw-unsplash.jpg","1","1","47","9","","","","","","","","","","","","","","","","","","","","","","","","","","","",""
"","choice_confirmation","","html-keyboard-response","75","433904","0.0-60.0-2.0-0.0","0","0","WJ2Nv","People","","null","","","","null","","","","4","47","9","","","","","","","","","","","","","","","","","","","","","","","","","","","","","","","","","","","","","",""
"","explain_trial","","survey-text","76","465006","0.0-60.0-5.0-0.0","0","0","WJ2Nv","People","","31102","{""Q0"":""The other photograph just looks like a profile picture and would not be very useful for any other applications. The photo on the left could be used for advertisements or magazines, and so would be worth more.""}","","","","","","","4","47","9","","","","","","","","","","","{""Q0"":""The other photograph just looks like a profile picture and would not be very useful for any other applications. The photo on the left could be used for advertisements or magazines, and so would be worth more.""}","","","","","","","","","","","","","","","","","","","","","","","","","","",""
"","fixation","","html-keyboard-response","77","466014","0.0-61.0-0.0","0","0","WJ2Nv","People","","null","","","","null","","","","","","","","","","","","","","","","","","","","","","","","","","","","","","","","","","","","","","","","","","","",""
"","deliberation","","html-keyboard-response","78","467521","0.0-61.0-1.0","0","0","WJ2Nv","People","","1506","","","","68","","","","5","35","4","0","-1","68","41","oliver-ragfelt-khV4fTy6-D8-unsplash.jpg","barna-bartis-2x3vfVxwR7o-unsplash.jpg","1","1","35","4","","","","","","","","","","","","","","","","","","","","","","","","","","","",""
"","choice_confirmation","","html-keyboard-response","79","468026","0.0-61.0-2.0-0.0","0","0","WJ2Nv","People","","null","","","","null","","","","5","35","4","","","","","","","","","","","","","","","","","","","","","","","","","","","","","","","","","","","","","",""
"","fixation","","html-keyboard-response","80","469030","0.0-62.0-0.0","0","0","WJ2Nv","People","","null","","","","null","","","","","","","","","","","","","","","","","","","","","","","","","","","","","","","","","","","","","","","","","","","",""
"","deliberation","","html-keyboard-response","81","470313","0.0-62.0-1.0","0","0","WJ2Nv","People","","1283","","","","75","","","","6","3","0","1","-1","46","47","art-hauntington-jzY0KRJopEI-unsplash.jpg","abstral-official-cyOKLSgkgCE-unsplash.jpg","1","0","0","3","","","","","","","","","","","","","","","","","","","","","","","","","","","",""
"","choice_confirmation","","html-keyboard-response","82","470830","0.0-62.0-2.0-0.0","0","0","WJ2Nv","People","","null","","","","null","","","","6","3","0","","","","","","","","","","","","","","","","","","","","","","","","","","","","","","","","","","","","","",""
"","explain_trial","","survey-text","83","483497","0.0-62.0-5.0-0.0","0","0","WJ2Nv","People","","12666","{""Q0"":""This photo is more visually interesting than the other.""}","","","","","","","6","3","0","","","","","","","","","","","{""Q0"":""This photo is more visually interesting than the other.""}","","","","","","","","","","","","","","","","","","","","","","","","","","",""
"","fixation","","html-keyboard-response","84","484501","0.0-63.0-0.0","0","0","WJ2Nv","People","","null","","","","null","","","","","","","","","","","","","","","","","","","","","","","","","","","","","","","","","","","","","","","","","","","",""
"","deliberation","","html-keyboard-response","85","485771","0.0-63.0-1.0","0","0","WJ2Nv","People","","1270","","","","68","","","","7","45","28","0","1","42","50","sarah-noltner-pL5ZzPp1zqg-unsplash.jpg","justin-chen-J7Cf1Gch49E-unsplash.jpg","1","1","45","28","","","","","","","","","","","","","","","","","","","","","","","","","","","",""
"","choice_confirmation","","html-keyboard-response","86","486288","0.0-63.0-2.0-0.0","0","0","WJ2Nv","People","","null","","","","null","","","","7","45","28","","","","","","","","","","","","","","","","","","","","","","","","","","","","","","","","","","","","","",""
"","fixation","","html-keyboard-response","87","487297","0.0-64.0-0.0","0","0","WJ2Nv","People","","null","","","","null","","","","","","","","","","","","","","","","","","","","","","","","","","","","","","","","","","","","","","","","","","","",""
"","deliberation","","html-keyboard-response","88","488788","0.0-64.0-1.0","0","0","WJ2Nv","People","","1490","","","","68","","","","8","14","16","1","1","43","62","freddy-kearney-o-ioeoATbIM-unsplash.jpg","giano-currie-5-9YOsmf8IQ-unsplash.jpg","1","1","14","16","","","","","","","","","","","","","","","","","","","","","","","","","","","",""
"","choice_confirmation","","html-keyboard-response","89","489298","0.0-64.0-2.0-0.0","0","0","WJ2Nv","People","","null","","","","null","","","","8","14","16","","","","","","","","","","","","","","","","","","","","","","","","","","","","","","","","","","","","","",""
"","explain_trial","","survey-text","90","505083","0.0-64.0-5.0-0.0","0","0","WJ2Nv","People","","15785","{""Q0"":""This photograph features a more unique looking person, so it would have a higher perceived value.""}","","","","","","","8","14","16","","","","","","","","","","","{""Q0"":""This photograph features a more unique looking person, so it would have a higher perceived value.""}","","","","","","","","","","","","","","","","","","","","","","","","","","",""
"","fixation","","html-keyboard-response","91","506092","0.0-65.0-0.0","0","0","WJ2Nv","People","","null","","","","null","","","","","","","","","","","","","","","","","","","","","","","","","","","","","","","","","","","","","","","","","","","",""
"","deliberation","","html-keyboard-response","92","509862","0.0-65.0-1.0","0","0","WJ2Nv","People","","3770","","","","75","","","","9","24","22","0","1","61","65","joel-mott-LaK153ghdig-unsplash.jpg","jessica-radanavong-mrYkTuAesKE-unsplash.jpg","1","0","22","24","","","","","","","","","","","","","","","","","","","","","","","","","","","",""
"","choice_confirmation","","html-keyboard-response","93","510367","0.0-65.0-2.0-0.0","0","0","WJ2Nv","People","","null","","","","null","","","","9","24","22","","","","","","","","","","","","","","","","","","","","","","","","","","","","","","","","","","","","","",""
"","fixation","","html-keyboard-response","94","511373","0.0-66.0-0.0","0","0","WJ2Nv","People","","null","","","","null","","","","","","","","","","","","","","","","","","","","","","","","","","","","","","","","","","","","","","","","","","","",""
"","deliberation","","html-keyboard-response","95","513254","0.0-66.0-1.0","0","0","WJ2Nv","People","","1880","","","","75","","","","10","25","2","0","-1","61","42","joseph-gonzalez-iFgRcqHznqg-unsplash.jpg","arjunsyah-TBUA5KHJn6k-unsplash.jpg","1","0","2","25","","","","","","","","","","","","","","","","","","","","","","","","","","","",""
"","choice_confirmation","","html-keyboard-response","96","513770","0.0-66.0-2.0-0.0","0","0","WJ2Nv","People","","null","","","","null","","","","10","25","2","","","","","","","","","","","","","","","","","","","","","","","","","","","","","","","","","","","","","",""
"","fixation","","html-keyboard-response","97","514785","0.0-67.0-0.0","0","0","WJ2Nv","People","","null","","","","null","","","","","","","","","","","","","","","","","","","","","","","","","","","","","","","","","","","","","","","","","","","",""
"","deliberation","","html-keyboard-response","98","516486","0.0-67.0-1.0","0","0","WJ2Nv","People","","1701","","","","75","","","","11","33","19","0","1","43","43","olena-sergienko-0TSd6uCKTKc-unsplash.jpg","ha-nguy-n-OFSQ6bHjFjs-unsplash.jpg","1","0","19","33","","","","","","","","","","","","","","","","","","","","","","","","","","","",""
"","choice_confirmation","","html-keyboard-response","99","517003","0.0-67.0-2.0-0.0","0","0","WJ2Nv","People","","null","","","","null","","","","11","33","19","","","","","","","","","","","","","","","","","","","","","","","","","","","","","","","","","","","","","",""
"","practice_deliberation_again","","html-keyboard-response","100","519023","0.0-67.0-6.0-0.0","0","0","WJ2Nv","People","","2019","","","","78","","","","","","","","","","","","","","","","","","","","","","","","","","","","","","","","","","","","","","","","","","","",""
"","fixation","","html-keyboard-response","101","520028","0.0-68.0-0.0","0","0","WJ2Nv","People","","null","","","","null","","","","","","","","","","","","","","","","","","","","","","","","","","","","","","","","","","","","","","","","","","","",""
"","deliberation","","html-keyboard-response","102","521111","0.0-68.0-1.0","0","0","WJ2Nv","People","","1082","","","","75","","","","12","24","22","1","1","61","65","joel-mott-LaK153ghdig-unsplash.jpg","jessica-radanavong-mrYkTuAesKE-unsplash.jpg","2","0","22","24","","","","","","","","","","","","","","","","","","","","","","","","","","","",""
"","choice_confirmation","","html-keyboard-response","103","521621","0.0-68.0-2.0-0.0","0","0","WJ2Nv","People","","null","","","","null","","","","12","24","22","","","","","","","","","","","","","","","","","","","","","","","","","","","","","","","","","","","","","",""
"","explain_trial","","survey-text","104","548574","0.0-68.0-5.0-0.0","0","0","WJ2Nv","People","","26952","{""Q0"":""This photograph has a better contrast between the background and the subject, so I think it would be more visually interesting and sell for more.""}","","","","","","","12","24","22","","","","","","","","","","","{""Q0"":""This photograph has a better contrast between the background and the subject, so I think it would be more visually interesting and sell for more.""}","","","","","","","","","","","","","","","","","","","","","","","","","","",""
"","fixation","","html-keyboard-response","105","549579","0.0-69.0-0.0","0","0","WJ2Nv","People","","null","","","","null","","","","","","","","","","","","","","","","","","","","","","","","","","","","","","","","","","","","","","","","","","","",""
"","deliberation","","html-keyboard-response","106","552099","0.0-69.0-1.0","0","0","WJ2Nv","People","","2519","","","","75","","","","13","21","8","0","-1","41","57","jessica-felicio-_cvwXhGqG-o-unsplash.jpg","bruce-dixon-3M9WJQVHzog-unsplash.jpg","2","0","8","21","","","","","","","","","","","","","","","","","","","","","","","","","","","",""
"","choice_confirmation","","html-keyboard-response","107","552607","0.0-69.0-2.0-0.0","0","0","WJ2Nv","People","","null","","","","null","","","","13","21","8","","","","","","","","","","","","","","","","","","","","","","","","","","","","","","","","","","","","","",""
"","fixation","","html-keyboard-response","108","553610","0.0-70.0-0.0","0","0","WJ2Nv","People","","null","","","","null","","","","","","","","","","","","","","","","","","","","","","","","","","","","","","","","","","","","","","","","","","","",""
"","deliberation","","html-keyboard-response","109","554643","0.0-70.0-1.0","0","0","WJ2Nv","People","","1033","","","","68","","","","14","1","12","0","1","57","45","aiony-haust-jmATI5Q_YgY-unsplash.jpg","daniel-rigdon-dXmXKPP2L4E-unsplash.jpg","2","1","1","12","","","","","","","","","","","","","","","","","","","","","","","","","","","",""
"","choice_confirmation","","html-keyboard-response","110","555148","0.0-70.0-2.0-0.0","0","0","WJ2Nv","People","","null","","","","null","","","","14","1","12","","","","","","","","","","","","","","","","","","","","","","","","","","","","","","","","","","","","","",""
"","fixation","","html-keyboard-response","111","556170","0.0-71.0-0.0","0","0","WJ2Nv","People","","null","","","","null","","","","","","","","","","","","","","","","","","","","","","","","","","","","","","","","","","","","","","","","","","","",""
"","deliberation","","html-keyboard-response","112","557044","0.0-71.0-1.0","0","0","WJ2Nv","People","","872","","","","68","","","","15","47","9","0","1","43","53","tyler-nix-ZGa9d1a_4tA-unsplash.jpg","carlos-andres-gomez-vJuk8Y86mRw-unsplash.jpg","2","1","47","9","","","","","","","","","","","","","","","","","","","","","","","","","","","",""
"","choice_confirmation","","html-keyboard-response","113","557556","0.0-71.0-2.0-0.0","0","0","WJ2Nv","People","","null","","","","null","","","","15","47","9","","","","","","","","","","","","","","","","","","","","","","","","","","","","","","","","","","","","","",""
"","fixation","","html-keyboard-response","114","558577","0.0-72.0-0.0","0","0","WJ2Nv","People","","null","","","","null","","","","","","","","","","","","","","","","","","","","","","","","","","","","","","","","","","","","","","","","","","","",""
"","deliberation","","html-keyboard-response","115","559468","0.0-72.0-1.0","0","0","WJ2Nv","People","","890","","","","75","","","","16","33","19","1","1","43","43","olena-sergienko-0TSd6uCKTKc-unsplash.jpg","ha-nguy-n-OFSQ6bHjFjs-unsplash.jpg","2","0","19","33","","","","","","","","","","","","","","","","","","","","","","","","","","","",""
"","choice_confirmation","","html-keyboard-response","116","559981","0.0-72.0-2.0-0.0","0","0","WJ2Nv","People","","null","","","","null","","","","16","33","19","","","","","","","","","","","","","","","","","","","","","","","","","","","","","","","","","","","","","",""
"","explain_trial","","survey-text","117","586671","0.0-72.0-5.0-0.0","0","0","WJ2Nv","People","","26688","{""Q0"":""The other photo looks like a headshot for modeling or acting gigs. The photo that I chose could be more versatile, so I think would be likely to sell for more money at the auction.""}","","","","","","","16","33","19","","","","","","","","","","","{""Q0"":""The other photo looks like a headshot for modeling or acting gigs. The photo that I chose could be more versatile, so I think would be likely to sell for more money at the auction.""}","","","","","","","","","","","","","","","","","","","","","","","","","","",""
"","fixation","","html-keyboard-response","118","587684","0.0-73.0-0.0","0","0","WJ2Nv","People","","null","","","","null","","","","","","","","","","","","","","","","","","","","","","","","","","","","","","","","","","","","","","","","","","","",""
"","deliberation","","html-keyboard-response","119","588760","0.0-73.0-1.0","0","0","WJ2Nv","People","","1074","","","","68","","","","17","14","16","0","1","43","62","freddy-kearney-o-ioeoATbIM-unsplash.jpg","giano-currie-5-9YOsmf8IQ-unsplash.jpg","2","1","14","16","","","","","","","","","","","","","","","","","","","","","","","","","","","",""
"","choice_confirmation","","html-keyboard-response","120","589277","0.0-73.0-2.0-0.0","0","0","WJ2Nv","People","","null","","","","null","","","","17","14","16","","","","","","","","","","","","","","","","","","","","","","","","","","","","","","","","","","","","","",""
"","fixation","","html-keyboard-response","121","590287","0.0-74.0-0.0","0","0","WJ2Nv","People","","null","","","","null","","","","","","","","","","","","","","","","","","","","","","","","","","","","","","","","","","","","","","","","","","","",""
"","deliberation","","html-keyboard-response","122","591120","0.0-74.0-1.0","0","0","WJ2Nv","People","","833","","","","75","","","","18","25","2","1","-1","61","42","joseph-gonzalez-iFgRcqHznqg-unsplash.jpg","arjunsyah-TBUA5KHJn6k-unsplash.jpg","2","0","2","25","","","","","","","","","","","","","","","","","","","","","","","","","","","",""
"","choice_confirmation","","html-keyboard-response","123","591638","0.0-74.0-2.0-0.0","0","0","WJ2Nv","People","","null","","","","null","","","","18","25","2","","","","","","","","","","","","","","","","","","","","","","","","","","","","","","","","","","","","","",""
"","explain_trial","","survey-text","124","605955","0.0-74.0-5.0-0.0","0","0","WJ2Nv","People","","14315","{""Q0"":""The subject in this photograph is more unique looking and visually interesting.""}","","","","","","","18","25","2","","","","","","","","","","","{""Q0"":""The subject in this photograph is more unique looking and visually interesting.""}","","","","","","","","","","","","","","","","","","","","","","","","","","",""
"","fixation","","html-keyboard-response","125","606966","0.0-75.0-0.0","0","0","WJ2Nv","People","","null","","","","null","","","","","","","","","","","","","","","","","","","","","","","","","","","","","","","","","","","","","","","","","","","",""
"","deliberation","","html-keyboard-response","126","607762","0.0-75.0-1.0","0","0","WJ2Nv","People","","795","","","","75","","","","19","37","36","0","-1","61","60","pavel-anoshin-d0peGya6R5Y-unsplash.jpg","ospan-ali-mGdA2fzjWLo-unsplash.jpg","2","0","36","37","","","","","","","","","","","","","","","","","","","","","","","","","","","",""
"","choice_confirmation","","html-keyboard-response","127","608268","0.0-75.0-2.0-0.0","0","0","WJ2Nv","People","","null","","","","null","","","","19","37","36","","","","","","","","","","","","","","","","","","","","","","","","","","","","","","","","","","","","","",""
"","fixation","","html-keyboard-response","128","609284","0.0-76.0-0.0","0","0","WJ2Nv","People","","null","","","","null","","","","","","","","","","","","","","","","","","","","","","","","","","","","","","","","","","","","","","","","","","","",""
"","deliberation","","html-keyboard-response","129","610219","0.0-76.0-1.0","0","0","WJ2Nv","People","","934","","","","75","","","","20","3","0","0","-1","46","47","art-hauntington-jzY0KRJopEI-unsplash.jpg","abstral-official-cyOKLSgkgCE-unsplash.jpg","2","0","0","3","","","","","","","","","","","","","","","","","","","","","","","","","","","",""
"","choice_confirmation","","html-keyboard-response","130","610738","0.0-76.0-2.0-0.0","0","0","WJ2Nv","People","","null","","","","null","","","","20","3","0","","","","","","","","","","","","","","","","","","","","","","","","","","","","","","","","","","","","","",""
"","fixation","","html-keyboard-response","131","611749","0.0-77.0-0.0","0","0","WJ2Nv","People","","null","","","","null","","","","","","","","","","","","","","","","","","","","","","","","","","","","","","","","","","","","","","","","","","","",""
"","deliberation","","html-keyboard-response","132","613435","0.0-77.0-1.0","0","0","WJ2Nv","People","","1685","","","","68","","","","21","35","4","1","-1","68","41","oliver-ragfelt-khV4fTy6-D8-unsplash.jpg","barna-bartis-2x3vfVxwR7o-unsplash.jpg","2","1","35","4","","","","","","","","","","","","","","","","","","","","","","","","","","","",""
"","choice_confirmation","","html-keyboard-response","133","613955","0.0-77.0-2.0-0.0","0","0","WJ2Nv","People","","null","","","","null","","","","21","35","4","","","","","","","","","","","","","","","","","","","","","","","","","","","","","","","","","","","","","",""
"","explain_trial","","survey-text","134","641721","0.0-77.0-5.0-0.0","0","0","WJ2Nv","People","","27764","{""Q0"":""This photo has better contrast between the foreground and the background, and the person is more attractive than the person in the other photograph.""}","","","","","","","21","35","4","","","","","","","","","","","{""Q0"":""This photo has better contrast between the foreground and the background, and the person is more attractive than the person in the other photograph.""}","","","","","","","","","","","","","","","","","","","","","","","","","","",""
"","fixation","","html-keyboard-response","135","642724","0.0-78.0-0.0","0","0","WJ2Nv","People","","null","","","","null","","","","","","","","","","","","","","","","","","","","","","","","","","","","","","","","","","","","","","","","","","","",""
"","deliberation","","html-keyboard-response","136","645911","0.0-78.0-1.0","0","0","WJ2Nv","People","","3187","","","","68","","","","22","26","41","1","-1","59","41","juri-gianfrancesco-9EZadYaMzk4-unsplash.jpg","prince-akachi-i2hoD-C2RUA-unsplash.jpg","2","1","26","41","","","","","","","","","","","","","","","","","","","","","","","","","","","",""
"","choice_confirmation","","html-keyboard-response","137","646423","0.0-78.0-2.0-0.0","0","0","WJ2Nv","People","","null","","","","null","","","","22","26","41","","","","","","","","","","","","","","","","","","","","","","","","","","","","","","","","","","","","","",""
"","explain_trial","","survey-text","138","666276","0.0-78.0-5.0-0.0","0","0","WJ2Nv","People","","19852","{""Q0"":""Overall, this picture is more interesting. The other photograph is very drab and plain, and would not sell for as much.""}","","","","","","","22","26","41","","","","","","","","","","","{""Q0"":""Overall, this picture is more interesting. The other photograph is very drab and plain, and would not sell for as much.""}","","","","","","","","","","","","","","","","","","","","","","","","","","",""
"","fixation","","html-keyboard-response","139","667284","0.0-79.0-0.0","0","0","WJ2Nv","People","","null","","","","null","","","","","","","","","","","","","","","","","","","","","","","","","","","","","","","","","","","","","","","","","","","",""
"","deliberation","","html-keyboard-response","140","669882","0.0-79.0-1.0","0","0","WJ2Nv","People","","2598","","","","68","","","","23","45","28","1","1","42","50","sarah-noltner-pL5ZzPp1zqg-unsplash.jpg","justin-chen-J7Cf1Gch49E-unsplash.jpg","2","1","45","28","","","","","","","","","","","","","","","","","","","","","","","","","","","",""
"","choice_confirmation","","html-keyboard-response","141","670400","0.0-79.0-2.0-0.0","0","0","WJ2Nv","People","","null","","","","null","","","","23","45","28","","","","","","","","","","","","","","","","","","","","","","","","","","","","","","","","","","","","","",""
"","explain_trial","","survey-text","142","690620","0.0-79.0-5.0-0.0","0","0","WJ2Nv","People","","20219","{""Q0"":""These photographs are pretty similar, so I chose the photograph with the person that I found to be more attractive.""}","","","","","","","23","45","28","","","","","","","","","","","{""Q0"":""These photographs are pretty similar, so I chose the photograph with the person that I found to be more attractive.""}","","","","","","","","","","","","","","","","","","","","","","","","","","",""
"","start_critical_deliberation_block","","html-keyboard-response","143","692237","0.0-79.0-7.0-0.0","0","0","WJ2Nv","People","","1617","","","","78","","","","","","","","","","","","","","","","","","","","","","","","","","","","","","","","","","","","","","","","","","","",""
"","fixation","","html-keyboard-response","144","693244","0.0-80.0-0.0","0","0","WJ2Nv","People","","null","","","","null","","","","","","","","","","","","","","","","","","","","","","","","","","","","","","","","","","","","","","","","","","","",""
"","deliberation","","html-keyboard-response","145","694301","0.0-80.0-1.0","0","0","WJ2Nv","People","","1057","","","","68","","","","24","45","28","0","1","42","50","sarah-noltner-pL5ZzPp1zqg-unsplash.jpg","justin-chen-J7Cf1Gch49E-unsplash.jpg","3","1","45","28","","","","","","","","","","","","","","","","","","","","","","","","","","","",""
"","choice_confirmation","","html-keyboard-response","146","694819","0.0-80.0-2.0-0.0","0","0","WJ2Nv","People","","null","","","","null","","","","24","45","28","","","","","","","","","","","","","","","","","","","","","","","","","","","","","","","","","","","","","",""
"","fixation","","html-keyboard-response","147","695843","0.0-81.0-0.0","0","0","WJ2Nv","People","","null","","","","null","","","","","","","","","","","","","","","","","","","","","","","","","","","","","","","","","","","","","","","","","","","",""
"","deliberation","","html-keyboard-response","148","696646","0.0-81.0-1.0","0","0","WJ2Nv","People","","802","","","","68","","","","25","14","16","0","1","43","62","freddy-kearney-o-ioeoATbIM-unsplash.jpg","giano-currie-5-9YOsmf8IQ-unsplash.jpg","3","1","14","16","","","","","","","","","","","","","","","","","","","","","","","","","","","",""
"","choice_confirmation","","html-keyboard-response","149","697152","0.0-81.0-2.0-0.0","0","0","WJ2Nv","People","","null","","","","null","","","","25","14","16","","","","","","","","","","","","","","","","","","","","","","","","","","","","","","","","","","","","","",""
"","fixation","","html-keyboard-response","150","698166","0.0-82.0-0.0","0","0","WJ2Nv","People","","null","","","","null","","","","","","","","","","","","","","","","","","","","","","","","","","","","","","","","","","","","","","","","","","","",""
"","deliberation","","html-keyboard-response","151","699110","0.0-82.0-1.0","0","0","WJ2Nv","People","","944","","","","75","","","","26","37","36","0","-1","61","60","pavel-anoshin-d0peGya6R5Y-unsplash.jpg","ospan-ali-mGdA2fzjWLo-unsplash.jpg","3","0","36","37","","","","","","","","","","","","","","","","","","","","","","","","","","","",""
"","choice_confirmation","","html-keyboard-response","152","699618","0.0-82.0-2.0-0.0","0","0","WJ2Nv","People","","null","","","","null","","","","26","37","36","","","","","","","","","","","","","","","","","","","","","","","","","","","","","","","","","","","","","",""
"","fixation","","html-keyboard-response","153","700628","0.0-83.0-0.0","0","0","WJ2Nv","People","","null","","","","null","","","","","","","","","","","","","","","","","","","","","","","","","","","","","","","","","","","","","","","","","","","",""
"","deliberation","","html-keyboard-response","154","701310","0.0-83.0-1.0","0","0","WJ2Nv","People","","682","","","","68","","","","27","35","4","0","-1","68","41","oliver-ragfelt-khV4fTy6-D8-unsplash.jpg","barna-bartis-2x3vfVxwR7o-unsplash.jpg","3","1","35","4","","","","","","","","","","","","","","","","","","","","","","","","","","","",""
"","choice_confirmation","","html-keyboard-response","155","701826","0.0-83.0-2.0-0.0","0","0","WJ2Nv","People","","null","","","","null","","","","27","35","4","","","","","","","","","","","","","","","","","","","","","","","","","","","","","","","","","","","","","",""
"","fixation","","html-keyboard-response","156","702839","0.0-84.0-0.0","0","0","WJ2Nv","People","","null","","","","null","","","","","","","","","","","","","","","","","","","","","","","","","","","","","","","","","","","","","","","","","","","",""
"","deliberation","","html-keyboard-response","157","703639","0.0-84.0-1.0","0","0","WJ2Nv","People","","798","","","","68","","","","28","26","41","0","-1","59","41","juri-gianfrancesco-9EZadYaMzk4-unsplash.jpg","prince-akachi-i2hoD-C2RUA-unsplash.jpg","3","1","26","41","","","","","","","","","","","","","","","","","","","","","","","","","","","",""
"","choice_confirmation","","html-keyboard-response","158","704154","0.0-84.0-2.0-0.0","0","0","WJ2Nv","People","","null","","","","null","","","","28","26","41","","","","","","","","","","","","","","","","","","","","","","","","","","","","","","","","","","","","","",""
"","fixation","","html-keyboard-response","159","705159","0.0-85.0-0.0","0","0","WJ2Nv","People","","null","","","","null","","","","","","","","","","","","","","","","","","","","","","","","","","","","","","","","","","","","","","","","","","","",""
"","deliberation","","html-keyboard-response","160","705911","0.0-85.0-1.0","0","0","WJ2Nv","People","","751","","","","68","","","","29","47","9","0","1","43","53","tyler-nix-ZGa9d1a_4tA-unsplash.jpg","carlos-andres-gomez-vJuk8Y86mRw-unsplash.jpg","3","1","47","9","","","","","","","","","","","","","","","","","","","","","","","","","","","",""
"","choice_confirmation","","html-keyboard-response","161","706413","0.0-85.0-2.0-0.0","0","0","WJ2Nv","People","","null","","","","null","","","","29","47","9","","","","","","","","","","","","","","","","","","","","","","","","","","","","","","","","","","","","","",""
"","fixation","","html-keyboard-response","162","707421","0.0-86.0-0.0","0","0","WJ2Nv","People","","null","","","","null","","","","","","","","","","","","","","","","","","","","","","","","","","","","","","","","","","","","","","","","","","","",""
"","deliberation","","html-keyboard-response","163","708687","0.0-86.0-1.0","0","0","WJ2Nv","People","","1266","","","","75","","","","30","24","22","0","1","61","65","joel-mott-LaK153ghdig-unsplash.jpg","jessica-radanavong-mrYkTuAesKE-unsplash.jpg","3","0","22","24","","","","","","","","","","","","","","","","","","","","","","","","","","","",""
"","choice_confirmation","","html-keyboard-response","164","709190","0.0-86.0-2.0-0.0","0","0","WJ2Nv","People","","null","","","","null","","","","30","24","22","","","","","","","","","","","","","","","","","","","","","","","","","","","","","","","","","","","","","",""
"","fixation","","html-keyboard-response","165","710199","0.0-87.0-0.0","0","0","WJ2Nv","People","","null","","","","null","","","","","","","","","","","","","","","","","","","","","","","","","","","","","","","","","","","","","","","","","","","",""
"","deliberation","","html-keyboard-response","166","710856","0.0-87.0-1.0","0","0","WJ2Nv","People","","655","","","","68","","","","31","1","12","0","1","57","45","aiony-haust-jmATI5Q_YgY-unsplash.jpg","daniel-rigdon-dXmXKPP2L4E-unsplash.jpg","3","1","1","12","","","","","","","","","","","","","","","","","","","","","","","","","","","",""
"","choice_confirmation","","html-keyboard-response","167","711368","0.0-87.0-2.0-0.0","0","0","WJ2Nv","People","","null","","","","null","","","","31","1","12","","","","","","","","","","","","","","","","","","","","","","","","","","","","","","","","","","","","","",""
"","fixation","","html-keyboard-response","168","712376","0.0-88.0-0.0","0","0","WJ2Nv","People","","null","","","","null","","","","","","","","","","","","","","","","","","","","","","","","","","","","","","","","","","","","","","","","","","","",""
"","deliberation","","html-keyboard-response","169","713096","0.0-88.0-1.0","0","0","WJ2Nv","People","","719","","","","75","","","","32","25","2","0","-1","61","42","joseph-gonzalez-iFgRcqHznqg-unsplash.jpg","arjunsyah-TBUA5KHJn6k-unsplash.jpg","3","0","2","25","","","","","","","","","","","","","","","","","","","","","","","","","","","",""
"","choice_confirmation","","html-keyboard-response","170","713607","0.0-88.0-2.0-0.0","0","0","WJ2Nv","People","","null","","","","null","","","","32","25","2","","","","","","","","","","","","","","","","","","","","","","","","","","","","","","","","","","","","","",""
"","fixation","","html-keyboard-response","171","714619","0.0-89.0-0.0","0","0","WJ2Nv","People","","null","","","","null","","","","","","","","","","","","","","","","","","","","","","","","","","","","","","","","","","","","","","","","","","","",""
"","deliberation","","html-keyboard-response","172","715424","0.0-89.0-1.0","0","0","WJ2Nv","People","","804","","","","75","","","","33","3","0","0","-1","46","47","art-hauntington-jzY0KRJopEI-unsplash.jpg","abstral-official-cyOKLSgkgCE-unsplash.jpg","3","0","0","3","","","","","","","","","","","","","","","","","","","","","","","","","","","",""
"","choice_confirmation","","html-keyboard-response","173","715945","0.0-89.0-2.0-0.0","0","0","WJ2Nv","People","","null","","","","null","","","","33","3","0","","","","","","","","","","","","","","","","","","","","","","","","","","","","","","","","","","","","","",""
"","fixation","","html-keyboard-response","174","716956","0.0-90.0-0.0","0","0","WJ2Nv","People","","null","","","","null","","","","","","","","","","","","","","","","","","","","","","","","","","","","","","","","","","","","","","","","","","","",""
"","deliberation","","html-keyboard-response","175","717640","0.0-90.0-1.0","0","0","WJ2Nv","People","","683","","","","75","","","","34","33","19","0","1","43","43","olena-sergienko-0TSd6uCKTKc-unsplash.jpg","ha-nguy-n-OFSQ6bHjFjs-unsplash.jpg","3","0","19","33","","","","","","","","","","","","","","","","","","","","","","","","","","","",""
"","choice_confirmation","","html-keyboard-response","176","718149","0.0-90.0-2.0-0.0","0","0","WJ2Nv","People","","null","","","","null","","","","34","33","19","","","","","","","","","","","","","","","","","","","","","","","","","","","","","","","","","","","","","",""
"","fixation","","html-keyboard-response","177","719170","0.0-91.0-0.0","0","0","WJ2Nv","People","","null","","","","null","","","","","","","","","","","","","","","","","","","","","","","","","","","","","","","","","","","","","","","","","","","",""
"","deliberation","","html-keyboard-response","178","719865","0.0-91.0-1.0","0","0","WJ2Nv","People","","693","","","","75","","","","35","21","8","0","-1","41","57","jessica-felicio-_cvwXhGqG-o-unsplash.jpg","bruce-dixon-3M9WJQVHzog-unsplash.jpg","3","0","8","21","","","","","","","","","","","","","","","","","","","","","","","","","","","",""
"","choice_confirmation","","html-keyboard-response","179","720386","0.0-91.0-2.0-0.0","0","0","WJ2Nv","People","","null","","","","null","","","","35","21","8","","","","","","","","","","","","","","","","","","","","","","","","","","","","","","","","","","","","","",""
"","reward_learning_instructions","","instructions","180","758534","0.0-92.0-0.0","0","0","WJ2Nv","People","[{""page_index"":0,""viewing_time"":15132},{""page_index"":1,""viewing_time"":21431},{""page_index"":2,""viewing_time"":1584}]","38147","","","","","","","","","","","","","","","","","","","","","","","","","","","","","","","","","","","","","","","","","","","","","","","",""
"","","","survey-multi-choice","181","766809","0.0-92.0-1.0","0","0","WJ2Nv","People","","8272","{""Q0"":""True"",""Q1"":""True"",""Q2"":""Press the space bar to see its outcome"",""Q3"":""Press the relevant key while the outcome is presented""}","reward_comprehension_check","0","","","","","","","","","","","","","","","","","","","","","","","","","","","","","","","","","","","","","","","","","","","","",""
"","start_phase","","html-keyboard-response","182","768031","0.0-93.0","0","0","WJ2Nv","People","","1220","","","","78","","","","","","","","","","","","","","","","","","","","","","","","","","","","","","","","","","","","","","","","","","","",""
"","fixation","","html-keyboard-response","183","769036","0.0-94.0","0","0","WJ2Nv","People","","null","","","","null","","","","","","","","","","","","","","","","","","","","","","","","","","","","","","","","","","","","","","","","","","","",""
"","see_reward","","html-keyboard-response","184","769775","0.0-95.0","0","0","WJ2Nv","People","","738","","","","32","","19","","0","","","","1","","","","","1","","","","","159","738","","","","","","","","","","","","","","","","","","","","","","","","",""
"","reward_outcome","","html-keyboard-response","185","771782","0.0-96.0","0","0","WJ2Nv","People","","631","","","","38","","19","","0","","","","","","","","","","","","","","","","1","631","","","","","","","","","","","","","","","","","","","","","","",""
"","fixation","","html-keyboard-response","186","772789","0.0-99.0","0","0","WJ2Nv","People","","null","","","","null","","","","","","","","","","","","","","","","","","","","","","","","","","","","","","","","","","","","","","","","","","","",""
"","see_reward","","html-keyboard-response","187","773455","0.0-100.0","0","0","WJ2Nv","People","","665","","","","32","","2","","1","","","","-1","","","","","1","","","","","0","665","","","","","","","","","","","","","","","","","","","","","","","","",""
"","reward_outcome","","html-keyboard-response","188","775461","0.0-101.0","0","0","WJ2Nv","People","","848","","","","40","","2","","1","","","","","","","","","","","","","","","","-1","848","","","","","","","","","","","","","","","","","","","","","","",""
"","fixation","","html-keyboard-response","189","776474","0.0-104.0","0","0","WJ2Nv","People","","null","","","","null","","","","","","","","","","","","","","","","","","","","","","","","","","","","","","","","","","","","","","","","","","","",""
"","see_reward","","html-keyboard-response","190","776887","0.0-105.0","0","0","WJ2Nv","People","","413","","","","32","","1","","2","","","","1","","","","","1","","","","","150","413","","","","","","","","","","","","","","","","","","","","","","","","",""
"","reward_outcome","","html-keyboard-response","191","778894","0.0-106.0","0","0","WJ2Nv","People","","639","","","","38","","1","","2","","","","","","","","","","","","","","","","1","639","","","","","","","","","","","","","","","","","","","","","","",""
"","fixation","","html-keyboard-response","192","779903","0.0-109.0","0","0","WJ2Nv","People","","null","","","","null","","","","","","","","","","","","","","","","","","","","","","","","","","","","","","","","","","","","","","","","","","","",""
"","see_reward","","html-keyboard-response","193","780648","0.0-110.0","0","0","WJ2Nv","People","","743","","","","32","","45","","3","","","","1","","","","","1","","","","","159","743","","","","","","","","","","","","","","","","","","","","","","","","",""
"","reward_outcome","","html-keyboard-response","194","782663","0.0-111.0","0","0","WJ2Nv","People","","543","","","","38","","45","","3","","","","","","","","","","","","","","","","1","543","","","","","","","","","","","","","","","","","","","","","","",""
"","fixation","","html-keyboard-response","195","783673","0.0-114.0","0","0","WJ2Nv","People","","null","","","","null","","","","","","","","","","","","","","","","","","","","","","","","","","","","","","","","","","","","","","","","","","","",""
"","see_reward","","html-keyboard-response","196","784265","0.0-115.0","0","0","WJ2Nv","People","","591","","","","32","","47","","4","","","","1","","","","","1","","","","","155","591","","","","","","","","","","","","","","","","","","","","","","","","",""
"","reward_outcome","","html-keyboard-response","197","786278","0.0-116.0","0","0","WJ2Nv","People","","631","","","","38","","47","","4","","","","","","","","","","","","","","","","1","631","","","","","","","","","","","","","","","","","","","","","","",""
"","fixation","","html-keyboard-response","198","787290","0.0-119.0","0","0","WJ2Nv","People","","null","","","","null","","","","","","","","","","","","","","","","","","","","","","","","","","","","","","","","","","","","","","","","","","","",""
"","see_reward","","html-keyboard-response","199","787721","0.0-120.0","0","0","WJ2Nv","People","","430","","","","32","","26","","5","","","","-1","","","","","1","","","","","0","430","","","","","","","","","","","","","","","","","","","","","","","","",""
"","reward_outcome","","html-keyboard-response","200","789728","0.0-121.0","0","0","WJ2Nv","People","","735","","","","40","","26","","5","","","","","","","","","","","","","","","","-1","735","","","","","","","","","","","","","","","","","","","","","","",""
"","fixation","","html-keyboard-response","201","790744","0.0-124.0","0","0","WJ2Nv","People","","null","","","","null","","","","","","","","","","","","","","","","","","","","","","","","","","","","","","","","","","","","","","","","","","","",""
"","see_reward","","html-keyboard-response","202","791233","0.0-125.0","0","0","WJ2Nv","People","","489","","","","32","","14","","6","","","","1","","","","","1","","","","","157","489","","","","","","","","","","","","","","","","","","","","","","","","",""
"","reward_outcome","","html-keyboard-response","203","793237","0.0-126.0","0","0","WJ2Nv","People","","527","","","","38","","14","","6","","","","","","","","","","","","","","","","1","527","","","","","","","","","","","","","","","","","","","","","","",""
"","fixation","","html-keyboard-response","204","794247","0.0-129.0","0","0","WJ2Nv","People","","null","","","","null","","","","","","","","","","","","","","","","","","","","","","","","","","","","","","","","","","","","","","","","","","","",""
"","see_reward","","html-keyboard-response","205","794658","0.0-130.0","0","0","WJ2Nv","People","","410","","","","32","","45","","7","","","","1","","","","","1","","","","","159","410","","","","","","","","","","","","","","","","","","","","","","","","",""
"","reward_outcome","","html-keyboard-response","206","796672","0.0-131.0","0","0","WJ2Nv","People","","751","","","","38","","45","","7","","","","","","","","","","","","","","","","1","751","","","","","","","","","","","","","","","","","","","","","","",""
"","fixation","","html-keyboard-response","207","797679","0.0-134.0","0","0","WJ2Nv","People","","null","","","","null","","","","","","","","","","","","","","","","","","","","","","","","","","","","","","","","","","","","","","","","","","","",""
"","see_reward","","html-keyboard-response","208","798258","0.0-135.0","0","0","WJ2Nv","People","","578","","","","32","","2","","8","","","","-1","","","","","1","","","","","0","578","","","","","","","","","","","","","","","","","","","","","","","","",""
"","reward_outcome","","html-keyboard-response","209","800278","0.0-136.0","0","0","WJ2Nv","People","","647","","","","40","","2","","8","","","","","","","","","","","","","","","","-1","647","","","","","","","","","","","","","","","","","","","","","","",""
"","fixation","","html-keyboard-response","210","801288","0.0-139.0","0","0","WJ2Nv","People","","null","","","","null","","","","","","","","","","","","","","","","","","","","","","","","","","","","","","","","","","","","","","","","","","","",""
"","see_reward","","html-keyboard-response","211","802019","0.0-140.0","0","0","WJ2Nv","People","","730","","","","32","","35","","9","","","","-1","","","","","1","","","","","0","730","","","","","","","","","","","","","","","","","","","","","","","","",""
"","reward_outcome","","html-keyboard-response","212","804040","0.0-141.0","0","0","WJ2Nv","People","","614","","","","40","","35","","9","","","","","","","","","","","","","","","","-1","614","","","","","","","","","","","","","","","","","","","","","","",""
"","fixation","","html-keyboard-response","213","805050","0.0-144.0","0","0","WJ2Nv","People","","null","","","","null","","","","","","","","","","","","","","","","","","","","","","","","","","","","","","","","","","","","","","","","","","","",""
"","see_reward","","html-keyboard-response","214","805547","0.0-145.0","0","0","WJ2Nv","People","","497","","","","32","","0","","10","","","","-1","","","","","1","","","","","0","497","","","","","","","","","","","","","","","","","","","","","","","","",""
"","reward_outcome","","html-keyboard-response","215","807564","0.0-146.0","0","0","WJ2Nv","People","","679","","","","40","","0","","10","","","","","","","","","","","","","","","","-1","679","","","","","","","","","","","","","","","","","","","","","","",""
"","fixation","","html-keyboard-response","216","808576","0.0-149.0","0","0","WJ2Nv","People","","null","","","","null","","","","","","","","","","","","","","","","","","","","","","","","","","","","","","","","","","","","","","","","","","","",""
"","see_reward","","html-keyboard-response","217","809052","0.0-150.0","0","0","WJ2Nv","People","","474","","","","32","","47","","11","","","","1","","","","","1","","","","","155","474","","","","","","","","","","","","","","","","","","","","","","","","",""
"","reward_outcome","","html-keyboard-response","218","811061","0.0-151.0","0","0","WJ2Nv","People","","591","","","","38","","47","","11","","","","","","","","","","","","","","","","1","591","","","","","","","","","","","","","","","","","","","","","","",""
"","fixation","","html-keyboard-response","219","812072","0.0-154.0","0","0","WJ2Nv","People","","null","","","","null","","","","","","","","","","","","","","","","","","","","","","","","","","","","","","","","","","","","","","","","","","","",""
"","see_reward","","html-keyboard-response","220","812516","0.0-155.0","0","0","WJ2Nv","People","","443","","","","32","","26","","12","","","","-1","","","","","1","","","","","0","443","","","","","","","","","","","","","","","","","","","","","","","","",""
"","reward_outcome","","html-keyboard-response","221","814538","0.0-156.0","0","0","WJ2Nv","People","","614","","","","40","","26","","12","","","","","","","","","","","","","","","","-1","614","","","","","","","","","","","","","","","","","","","","","","",""
"","fixation","","html-keyboard-response","222","815559","0.0-159.0","0","0","WJ2Nv","People","","null","","","","null","","","","","","","","","","","","","","","","","","","","","","","","","","","","","","","","","","","","","","","","","","","",""
"","see_reward","","html-keyboard-response","223","816060","0.0-160.0","0","0","WJ2Nv","People","","501","","","","32","","19","","13","","","","1","","","","","1","","","","","159","501","","","","","","","","","","","","","","","","","","","","","","","","",""
"","reward_outcome","","html-keyboard-response","224","818069","0.0-161.0","0","0","WJ2Nv","People","","439","","","","38","","19","","13","","","","","","","","","","","","","","","","1","439","","","","","","","","","","","","","","","","","","","","","","",""
"","fixation","","html-keyboard-response","225","819077","0.0-164.0","0","0","WJ2Nv","People","","null","","","","null","","","","","","","","","","","","","","","","","","","","","","","","","","","","","","","","","","","","","","","","","","","",""
"","see_reward","","html-keyboard-response","226","819349","0.0-165.0","0","0","WJ2Nv","People","","271","","","","32","","14","","14","","","","1","","","","","1","","","","","157","271","","","","","","","","","","","","","","","","","","","","","","","","",""
"","reward_outcome","","html-keyboard-response","227","821362","0.0-166.0","0","0","WJ2Nv","People","","535","","","","38","","14","","14","","","","","","","","","","","","","","","","1","535","","","","","","","","","","","","","","","","","","","","","","",""
"","fixation","","html-keyboard-response","228","822373","0.0-169.0","0","0","WJ2Nv","People","","null","","","","null","","","","","","","","","","","","","","","","","","","","","","","","","","","","","","","","","","","","","","","","","","","",""
"","see_reward","","html-keyboard-response","229","822821","0.0-170.0","0","0","WJ2Nv","People","","447","","","","32","","22","","15","","","","1","","","","","1","","","","","151","447","","","","","","","","","","","","","","","","","","","","","","","","",""
"","reward_outcome","","html-keyboard-response","230","824831","0.0-171.0","0","0","WJ2Nv","People","","560","","","","38","","22","","15","","","","","","","","","","","","","","","","1","560","","","","","","","","","","","","","","","","","","","","","","",""
"","fixation","","html-keyboard-response","231","825842","0.0-174.0","0","0","WJ2Nv","People","","null","","","","null","","","","","","","","","","","","","","","","","","","","","","","","","","","","","","","","","","","","","","","","","","","",""
"","see_reward","","html-keyboard-response","232","826110","0.0-175.0","0","0","WJ2Nv","People","","267","","","","32","","1","","16","","","","1","","","","","1","","","","","150","267","","","","","","","","","","","","","","","","","","","","","","","","",""
"","reward_outcome","","html-keyboard-response","233","828114","0.0-176.0","0","0","WJ2Nv","People","","527","","","","38","","1","","16","","","","","","","","","","","","","","","","1","527","","","","","","","","","","","","","","","","","","","","","","",""
"","fixation","","html-keyboard-response","234","829137","0.0-179.0","0","0","WJ2Nv","People","","null","","","","null","","","","","","","","","","","","","","","","","","","","","","","","","","","","","","","","","","","","","","","","","","","",""
"","see_reward","","html-keyboard-response","235","829486","0.0-180.0","0","0","WJ2Nv","People","","348","","","","32","","22","","17","","","","1","","","","","1","","","","","151","348","","","","","","","","","","","","","","","","","","","","","","","","",""
"","reward_outcome","","html-keyboard-response","236","831505","0.0-181.0","0","0","WJ2Nv","People","","415","","","","38","","22","","17","","","","","","","","","","","","","","","","1","415","","","","","","","","","","","","","","","","","","","","","","",""
"","fixation","","html-keyboard-response","237","832510","0.0-184.0","0","0","WJ2Nv","People","","null","","","","null","","","","","","","","","","","","","","","","","","","","","","","","","","","","","","","","","","","","","","","","","","","",""
"","see_reward","","html-keyboard-response","238","833126","0.0-185.0","0","0","WJ2Nv","People","","616","","","","32","","0","","18","","","","-1","","","","","1","","","","","0","616","","","","","","","","","","","","","","","","","","","","","","","","",""
"","reward_outcome","","html-keyboard-response","239","835137","0.0-186.0","0","0","WJ2Nv","People","","631","","","","40","","0","","18","","","","","","","","","","","","","","","","-1","631","","","","","","","","","","","","","","","","","","","","","","",""
"","fixation","","html-keyboard-response","240","836146","0.0-189.0","0","0","WJ2Nv","People","","null","","","","null","","","","","","","","","","","","","","","","","","","","","","","","","","","","","","","","","","","","","","","","","","","",""
"","see_reward","","html-keyboard-response","241","836663","0.0-190.0","0","0","WJ2Nv","People","","515","","","","32","","8","","19","","","","-1","","","","","1","","","","","0","515","","","","","","","","","","","","","","","","","","","","","","","","",""
"","reward_outcome","","html-keyboard-response","242","838682","0.0-191.0","0","0","WJ2Nv","People","","527","","","","40","","8","","19","","","","","","","","","","","","","","","","-1","527","","","","","","","","","","","","","","","","","","","","","","",""
"","fixation","","html-keyboard-response","243","839689","0.0-194.0","0","0","WJ2Nv","People","","null","","","","null","","","","","","","","","","","","","","","","","","","","","","","","","","","","","","","","","","","","","","","","","","","",""
"","see_reward","","html-keyboard-response","244","840199","0.0-195.0","0","0","WJ2Nv","People","","510","","","","32","","36","","20","","","","-1","","","","","1","","","","","0","510","","","","","","","","","","","","","","","","","","","","","","","","",""
"","reward_outcome","","html-keyboard-response","245","842214","0.0-196.0","0","0","WJ2Nv","People","","599","","","","40","","36","","20","","","","","","","","","","","","","","","","-1","599","","","","","","","","","","","","","","","","","","","","","","",""
"","fixation","","html-keyboard-response","246","843224","0.0-199.0","0","0","WJ2Nv","People","","null","","","","null","","","","","","","","","","","","","","","","","","","","","","","","","","","","","","","","","","","","","","","","","","","",""
"","see_reward","","html-keyboard-response","247","843832","0.0-200.0","0","0","WJ2Nv","People","","607","","","","32","","8","","21","","","","-1","","","","","1","","","","","0","607","","","","","","","","","","","","","","","","","","","","","","","","",""
"","reward_outcome","","html-keyboard-response","248","845846","0.0-201.0","0","0","WJ2Nv","People","","359","","","","40","","8","","21","","","","","","","","","","","","","","","","-1","359","","","","","","","","","","","","","","","","","","","","","","",""
"","fixation","","html-keyboard-response","249","846866","0.0-204.0","0","0","WJ2Nv","People","","null","","","","null","","","","","","","","","","","","","","","","","","","","","","","","","","","","","","","","","","","","","","","","","","","",""
"","see_reward","","html-keyboard-response","250","847296","0.0-205.0","0","0","WJ2Nv","People","","430","","","","32","","36","","22","","","","-1","","","","","1","","","","","0","430","","","","","","","","","","","","","","","","","","","","","","","","",""
"","reward_outcome","","html-keyboard-response","251","849308","0.0-206.0","0","0","WJ2Nv","People","","279","","","","40","","36","","22","","","","","","","","","","","","","","","","-1","279","","","","","","","","","","","","","","","","","","","","","","",""
"","fixation","","html-keyboard-response","252","850317","0.0-209.0","0","0","WJ2Nv","People","","null","","","","null","","","","","","","","","","","","","","","","","","","","","","","","","","","","","","","","","","","","","","","","","","","",""
"","see_reward","","html-keyboard-response","253","850729","0.0-210.0","0","0","WJ2Nv","People","","411","","","","32","","35","","23","","","","-1","","","","","1","","","","","0","411","","","","","","","","","","","","","","","","","","","","","","","","",""
"","reward_outcome","","html-keyboard-response","254","852745","0.0-211.0","0","0","WJ2Nv","People","","439","","","","40","","35","","23","","","","","","","","","","","","","","","","-1","439","","","","","","","","","","","","","","","","","","","","","","",""
"","block_over","","html-keyboard-response","255","855617","0.0-213.0-0.0","0","0","WJ2Nv","People","","2872","","","","78","","","","","","","","","","","","","","","","","","","","","","","","","","","","","","","","","","","","","","","","","","","",""
"","fixation","","html-keyboard-response","256","856627","0.0-214.0","0","0","WJ2Nv","People","","null","","","","null","","","","","","","","","","","","","","","","","","","","","","","","","","","","","","","","","","","","","","","","","","","",""
"","see_reward","","html-keyboard-response","257","857122","0.0-215.0","0","0","WJ2Nv","People","","494","","","","32","","0","","24","","","","-1","","","","","2","","","","","0","494","","","","","","","","","","","","","","","","","","","","","","","","",""
"","reward_outcome","","html-keyboard-response","258","859132","0.0-216.0","0","0","WJ2Nv","People","","263","","","","40","","0","","24","","","","","","","","","","","","","","","","-1","263","","","","","","","","","","","","","","","","","","","","","","",""
"","fixation","","html-keyboard-response","259","860143","0.0-219.0","0","0","WJ2Nv","People","","null","","","","null","","","","","","","","","","","","","","","","","","","","","","","","","","","","","","","","","","","","","","","","","","","",""
"","see_reward","","html-keyboard-response","260","860530","0.0-220.0","0","0","WJ2Nv","People","","385","","","","32","","26","","25","","","","-1","","","","","2","","","","","0","385","","","","","","","","","","","","","","","","","","","","","","","","",""
"","reward_outcome","","html-keyboard-response","261","862545","0.0-221.0","0","0","WJ2Nv","People","","343","","","","40","","26","","25","","","","","","","","","","","","","","","","-1","343","","","","","","","","","","","","","","","","","","","","","","",""
"","fixation","","html-keyboard-response","262","863558","0.0-224.0","0","0","WJ2Nv","People","","null","","","","null","","","","","","","","","","","","","","","","","","","","","","","","","","","","","","","","","","","","","","","","","","","",""
"","see_reward","","html-keyboard-response","263","863810","0.0-225.0","0","0","WJ2Nv","People","","251","","","","32","","35","","26","","","","-1","","","","","2","","","","","0","251","","","","","","","","","","","","","","","","","","","","","","","","",""
"","reward_outcome","","html-keyboard-response","264","865824","0.0-226.0","0","0","WJ2Nv","People","","407","","","","40","","35","","26","","","","","","","","","","","","","","","","-1","407","","","","","","","","","","","","","","","","","","","","","","",""
"","fixation","","html-keyboard-response","265","866832","0.0-229.0","0","0","WJ2Nv","People","","null","","","","null","","","","","","","","","","","","","","","","","","","","","","","","","","","","","","","","","","","","","","","","","","","",""
"","see_reward","","html-keyboard-response","266","867203","0.0-230.0","0","0","WJ2Nv","People","","369","","","","32","","26","","27","","","","-1","","","","","2","","","","","0","369","","","","","","","","","","","","","","","","","","","","","","","","",""
"","reward_outcome","","html-keyboard-response","267","869212","0.0-231.0","0","0","WJ2Nv","People","","311","","","","40","","26","","27","","","","","","","","","","","","","","","","-1","311","","","","","","","","","","","","","","","","","","","","","","",""
"","fixation","","html-keyboard-response","268","870220","0.0-234.0","0","0","WJ2Nv","People","","null","","","","null","","","","","","","","","","","","","","","","","","","","","","","","","","","","","","","","","","","","","","","","","","","",""
"","see_reward","","html-keyboard-response","269","870675","0.0-235.0","0","0","WJ2Nv","People","","454","","","","32","","2","","28","","","","-1","","","","","2","","","","","0","454","","","","","","","","","","","","","","","","","","","","","","","","",""
"","reward_outcome","","html-keyboard-response","270","872696","0.0-236.0","0","0","WJ2Nv","People","","496","","","","40","","2","","28","","","","","","","","","","","","","","","","-1","496","","","","","","","","","","","","","","","","","","","","","","",""
"","fixation","","html-keyboard-response","271","873697","0.0-239.0","0","0","WJ2Nv","People","","null","","","","null","","","","","","","","","","","","","","","","","","","","","","","","","","","","","","","","","","","","","","","","","","","",""
"","see_reward","","html-keyboard-response","272","874124","0.0-240.0","0","0","WJ2Nv","People","","426","","","","32","","47","","29","","","","1","","","","","2","","","","","155","426","","","","","","","","","","","","","","","","","","","","","","","","",""
"","reward_outcome","","html-keyboard-response","273","876145","0.0-241.0","0","0","WJ2Nv","People","","399","","","","38","","47","","29","","","","","","","","","","","","","","","","1","399","","","","","","","","","","","","","","","","","","","","","","",""
"","fixation","","html-keyboard-response","274","877152","0.0-244.0","0","0","WJ2Nv","People","","null","","","","null","","","","","","","","","","","","","","","","","","","","","","","","","","","","","","","","","","","","","","","","","","","",""
"","see_reward","","html-keyboard-response","275","877701","0.0-245.0","0","0","WJ2Nv","People","","548","","","","32","","8","","30","","","","-1","","","","","2","","","","","0","548","","","","","","","","","","","","","","","","","","","","","","","","",""
"","reward_outcome","","html-keyboard-response","276","879721","0.0-246.0","0","0","WJ2Nv","People","","287","","","","40","","8","","30","","","","","","","","","","","","","","","","-1","287","","","","","","","","","","","","","","","","","","","","","","",""
"","fixation","","html-keyboard-response","277","880733","0.0-249.0","0","0","WJ2Nv","People","","null","","","","null","","","","","","","","","","","","","","","","","","","","","","","","","","","","","","","","","","","","","","","","","","","",""
"","see_reward","","html-keyboard-response","278","880989","0.0-250.0","0","0","WJ2Nv","People","","255","","","","32","","22","","31","","","","1","","","","","2","","","","","151","255","","","","","","","","","","","","","","","","","","","","","","","","",""
"","reward_outcome","","html-keyboard-response","279","883010","0.0-251.0","0","0","WJ2Nv","People","","511","","","","38","","22","","31","","","","","","","","","","","","","","","","1","511","","","","","","","","","","","","","","","","","","","","","","",""
"","fixation","","html-keyboard-response","280","884022","0.0-254.0","0","0","WJ2Nv","People","","null","","","","null","","","","","","","","","","","","","","","","","","","","","","","","","","","","","","","","","","","","","","","","","","","",""
"","see_reward","","html-keyboard-response","281","884397","0.0-255.0","0","0","WJ2Nv","People","","375","","","","32","","1","","32","","","","1","","","","","2","","","","","150","375","","","","","","","","","","","","","","","","","","","","","","","","",""
"","reward_outcome","","html-keyboard-response","282","886415","0.0-256.0","0","0","WJ2Nv","People","","375","","","","38","","1","","32","","","","","","","","","","","","","","","","1","375","","","","","","","","","","","","","","","","","","","","","","",""
"","fixation","","html-keyboard-response","283","887433","0.0-259.0","0","0","WJ2Nv","People","","null","","","","null","","","","","","","","","","","","","","","","","","","","","","","","","","","","","","","","","","","","","","","","","","","",""
"","see_reward","","html-keyboard-response","284","887854","0.0-260.0","0","0","WJ2Nv","People","","420","","","","32","","2","","33","","","","-1","","","","","2","","","","","0","420","","","","","","","","","","","","","","","","","","","","","","","","",""
"","reward_outcome","","html-keyboard-response","285","889874","0.0-261.0","0","0","WJ2Nv","People","","383","","","","40","","2","","33","","","","","","","","","","","","","","","","-1","383","","","","","","","","","","","","","","","","","","","","","","",""
"","fixation","","html-keyboard-response","286","890888","0.0-264.0","0","0","WJ2Nv","People","","null","","","","null","","","","","","","","","","","","","","","","","","","","","","","","","","","","","","","","","","","","","","","","","","","",""
"","see_reward","","html-keyboard-response","287","891398","0.0-265.0","0","0","WJ2Nv","People","","509","","","","32","","14","","34","","","","1","","","","","2","","","","","157","509","","","","","","","","","","","","","","","","","","","","","","","","",""
"","reward_outcome","","html-keyboard-response","288","893410","0.0-266.0","0","0","WJ2Nv","People","","319","","","","38","","14","","34","","","","","","","","","","","","","","","","1","319","","","","","","","","","","","","","","","","","","","","","","",""
"","fixation","","html-keyboard-response","289","894415","0.0-269.0","0","0","WJ2Nv","People","","null","","","","null","","","","","","","","","","","","","","","","","","","","","","","","","","","","","","","","","","","","","","","","","","","",""
"","see_reward","","html-keyboard-response","290","894775","0.0-270.0","0","0","WJ2Nv","People","","358","","","","32","","19","","35","","","","1","","","","","2","","","","","159","358","","","","","","","","","","","","","","","","","","","","","","","","",""
"","reward_outcome","","html-keyboard-response","291","896797","0.0-271.0","0","0","WJ2Nv","People","","463","","","","38","","19","","35","","","","","","","","","","","","","","","","1","463","","","","","","","","","","","","","","","","","","","","","","",""
"","fixation","","html-keyboard-response","292","897816","0.0-274.0","0","0","WJ2Nv","People","","null","","","","null","","","","","","","","","","","","","","","","","","","","","","","","","","","","","","","","","","","","","","","","","","","",""
"","see_reward","","html-keyboard-response","293","898143","0.0-275.0","0","0","WJ2Nv","People","","326","","","","32","","47","","36","","","","1","","","","","2","","","","","155","326","","","","","","","","","","","","","","","","","","","","","","","","",""
"","reward_outcome","","html-keyboard-response","294","900159","0.0-276.0","0","0","WJ2Nv","People","","447","","","","38","","47","","36","","","","","","","","","","","","","","","","1","447","","","","","","","","","","","","","","","","","","","","","","",""
"","fixation","","html-keyboard-response","295","901166","0.0-279.0","0","0","WJ2Nv","People","","null","","","","null","","","","","","","","","","","","","","","","","","","","","","","","","","","","","","","","","","","","","","","","","","","",""
"","see_reward","","html-keyboard-response","296","901527","0.0-280.0","0","0","WJ2Nv","People","","361","","","","32","","1","","37","","","","1","","","","","2","","","","","150","361","","","","","","","","","","","","","","","","","","","","","","","","",""
"","reward_outcome","","html-keyboard-response","297","903542","0.0-281.0","0","0","WJ2Nv","People","","383","","","","38","","1","","37","","","","","","","","","","","","","","","","1","383","","","","","","","","","","","","","","","","","","","","","","",""
"","fixation","","html-keyboard-response","298","904558","0.0-284.0","0","0","WJ2Nv","People","","null","","","","null","","","","","","","","","","","","","","","","","","","","","","","","","","","","","","","","","","","","","","","","","","","",""
"","see_reward","","html-keyboard-response","299","904864","0.0-285.0","0","0","WJ2Nv","People","","305","","","","32","","8","","38","","","","-1","","","","","2","","","","","0","305","","","","","","","","","","","","","","","","","","","","","","","","",""
"","reward_outcome","","html-keyboard-response","300","906872","0.0-286.0","0","0","WJ2Nv","People","","407","","","","40","","8","","38","","","","","","","","","","","","","","","","-1","407","","","","","","","","","","","","","","","","","","","","","","",""
"","fixation","","html-keyboard-response","301","907881","0.0-289.0","0","0","WJ2Nv","People","","null","","","","null","","","","","","","","","","","","","","","","","","","","","","","","","","","","","","","","","","","","","","","","","","","",""
"","see_reward","","html-keyboard-response","302","908272","0.0-290.0","0","0","WJ2Nv","People","","391","","","","32","","0","","39","","","","-1","","","","","2","","","","","0","391","","","","","","","","","","","","","","","","","","","","","","","","",""
"","reward_outcome","","html-keyboard-response","303","910288","0.0-291.0","0","0","WJ2Nv","People","","495","","","","40","","0","","39","","","","","","","","","","","","","","","","-1","495","","","","","","","","","","","","","","","","","","","","","","",""
"","fixation","","html-keyboard-response","304","911298","0.0-294.0","0","0","WJ2Nv","People","","null","","","","null","","","","","","","","","","","","","","","","","","","","","","","","","","","","","","","","","","","","","","","","","","","",""
"","see_reward","","html-keyboard-response","305","911705","0.0-295.0","0","0","WJ2Nv","People","","406","","","","32","","45","","40","","","","1","","","","","2","","","","","159","406","","","","","","","","","","","","","","","","","","","","","","","","",""
"","reward_outcome","","html-keyboard-response","306","913717","0.0-296.0","0","0","WJ2Nv","People","","399","","","","38","","45","","40","","","","","","","","","","","","","","","","1","399","","","","","","","","","","","","","","","","","","","","","","",""
"","fixation","","html-keyboard-response","307","914734","0.0-299.0","0","0","WJ2Nv","People","","null","","","","null","","","","","","","","","","","","","","","","","","","","","","","","","","","","","","","","","","","","","","","","","","","",""
"","see_reward","","html-keyboard-response","308","915009","0.0-300.0","0","0","WJ2Nv","People","","274","","","","32","","35","","41","","","","-1","","","","","2","","","","","0","274","","","","","","","","","","","","","","","","","","","","","","","","",""
"","reward_outcome","","html-keyboard-response","309","917017","0.0-301.0","0","0","WJ2Nv","People","","439","","","","40","","35","","41","","","","","","","","","","","","","","","","-1","439","","","","","","","","","","","","","","","","","","","","","","",""
"","fixation","","html-keyboard-response","310","918031","0.0-304.0","0","0","WJ2Nv","People","","null","","","","null","","","","","","","","","","","","","","","","","","","","","","","","","","","","","","","","","","","","","","","","","","","",""
"","see_reward","","html-keyboard-response","311","918289","0.0-305.0","0","0","WJ2Nv","People","","258","","","","32","","22","","42","","","","1","","","","","2","","","","","151","258","","","","","","","","","","","","","","","","","","","","","","","","",""
"","reward_outcome","","html-keyboard-response","312","920293","0.0-306.0","0","0","WJ2Nv","People","","447","","","","38","","22","","42","","","","","","","","","","","","","","","","1","447","","","","","","","","","","","","","","","","","","","","","","",""
"","fixation","","html-keyboard-response","313","921300","0.0-309.0","0","0","WJ2Nv","People","","null","","","","null","","","","","","","","","","","","","","","","","","","","","","","","","","","","","","","","","","","","","","","","","","","",""
"","see_reward","","html-keyboard-response","314","921698","0.0-310.0","0","0","WJ2Nv","People","","396","","","","32","","19","","43","","","","1","","","","","2","","","","","159","396","","","","","","","","","","","","","","","","","","","","","","","","",""
"","reward_outcome","","html-keyboard-response","315","923700","0.0-311.0","0","0","WJ2Nv","People","","431","","","","38","","19","","43","","","","","","","","","","","","","","","","1","431","","","","","","","","","","","","","","","","","","","","","","",""
"","fixation","","html-keyboard-response","316","924713","0.0-314.0","0","0","WJ2Nv","People","","null","","","","null","","","","","","","","","","","","","","","","","","","","","","","","","","","","","","","","","","","","","","","","","","","",""
"","see_reward","","html-keyboard-response","317","925146","0.0-315.0","0","0","WJ2Nv","People","","433","","","","32","","45","","44","","","","1","","","","","2","","","","","159","433","","","","","","","","","","","","","","","","","","","","","","","","",""
"","reward_outcome","","html-keyboard-response","318","927157","0.0-316.0","0","0","WJ2Nv","People","","423","","","","38","","45","","44","","","","","","","","","","","","","","","","1","423","","","","","","","","","","","","","","","","","","","","","","",""
"","fixation","","html-keyboard-response","319","928177","0.0-319.0","0","0","WJ2Nv","People","","null","","","","null","","","","","","","","","","","","","","","","","","","","","","","","","","","","","","","","","","","","","","","","","","","",""
"","see_reward","","html-keyboard-response","320","928531","0.0-320.0","0","0","WJ2Nv","People","","353","","","","32","","36","","45","","","","-1","","","","","2","","","","","0","353","","","","","","","","","","","","","","","","","","","","","","","","",""
"","reward_outcome","","html-keyboard-response","321","930542","0.0-321.0","0","0","WJ2Nv","People","","375","","","","40","","36","","45","","","","","","","","","","","","","","","","-1","375","","","","","","","","","","","","","","","","","","","","","","",""
"","fixation","","html-keyboard-response","322","931556","0.0-324.0","0","0","WJ2Nv","People","","null","","","","null","","","","","","","","","","","","","","","","","","","","","","","","","","","","","","","","","","","","","","","","","","","",""
"","see_reward","","html-keyboard-response","323","931947","0.0-325.0","0","0","WJ2Nv","People","","391","","","","32","","36","","46","","","","-1","","","","","2","","","","","0","391","","","","","","","","","","","","","","","","","","","","","","","","",""
"","reward_outcome","","html-keyboard-response","324","933965","0.0-326.0","0","0","WJ2Nv","People","","408","","","","40","","36","","46","","","","","","","","","","","","","","","","-1","408","","","","","","","","","","","","","","","","","","","","","","",""
"","fixation","","html-keyboard-response","325","934984","0.0-329.0","0","0","WJ2Nv","People","","null","","","","null","","","","","","","","","","","","","","","","","","","","","","","","","","","","","","","","","","","","","","","","","","","",""
"","see_reward","","html-keyboard-response","326","935315","0.0-330.0","0","0","WJ2Nv","People","","331","","","","32","","14","","47","","","","1","","","","","2","","","","","157","331","","","","","","","","","","","","","","","","","","","","","","","","",""
"","reward_outcome","","html-keyboard-response","327","937329","0.0-331.0","0","0","WJ2Nv","People","","399","","","","38","","14","","47","","","","","","","","","","","","","","","","1","399","","","","","","","","","","","","","","","","","","","","","","",""
"","block_over","","html-keyboard-response","328","938652","0.0-333.0-0.0","0","0","WJ2Nv","People","","1322","","","","78","","","","","","","","","","","","","","","","","","","","","","","","","","","","","","","","","","","","","","","","","","","",""
"","fixation","","html-keyboard-response","329","939662","0.0-334.0","0","0","WJ2Nv","People","","null","","","","null","","","","","","","","","","","","","","","","","","","","","","","","","","","","","","","","","","","","","","","","","","","",""
"","see_reward","","html-keyboard-response","330","940044","0.0-335.0","0","0","WJ2Nv","People","","382","","","","32","","19","","48","","","","1","","","","","3","","","","","159","382","","","","","","","","","","","","","","","","","","","","","","","","",""
"","reward_outcome","","html-keyboard-response","331","942057","0.0-336.0","0","0","WJ2Nv","People","","384","","","","38","","19","","48","","","","","","","","","","","","","","","","1","384","","","","","","","","","","","","","","","","","","","","","","",""
"","fixation","","html-keyboard-response","332","943066","0.0-339.0","0","0","WJ2Nv","People","","null","","","","null","","","","","","","","","","","","","","","","","","","","","","","","","","","","","","","","","","","","","","","","","","","",""
"","see_reward","","html-keyboard-response","333","943356","0.0-340.0","0","0","WJ2Nv","People","","290","","","","32","","22","","49","","","","1","","","","","3","","","","","151","290","","","","","","","","","","","","","","","","","","","","","","","","",""
"","reward_outcome","","html-keyboard-response","334","945364","0.0-341.0","0","0","WJ2Nv","People","","343","","","","38","","22","","49","","","","","","","","","","","","","","","","1","343","","","","","","","","","","","","","","","","","","","","","","",""
"","fixation","","html-keyboard-response","335","946377","0.0-344.0","0","0","WJ2Nv","People","","null","","","","null","","","","","","","","","","","","","","","","","","","","","","","","","","","","","","","","","","","","","","","","","","","",""
"","see_reward","","html-keyboard-response","336","946829","0.0-345.0","0","0","WJ2Nv","People","","451","","","","32","","2","","50","","","","-1","","","","","3","","","","","0","451","","","","","","","","","","","","","","","","","","","","","","","","",""
"","reward_outcome","","html-keyboard-response","337","948846","0.0-346.0","0","0","WJ2Nv","People","","359","","","","40","","2","","50","","","","","","","","","","","","","","","","-1","359","","","","","","","","","","","","","","","","","","","","","","",""
"","fixation","","html-keyboard-response","338","949858","0.0-349.0","0","0","WJ2Nv","People","","null","","","","null","","","","","","","","","","","","","","","","","","","","","","","","","","","","","","","","","","","","","","","","","","","",""
"","see_reward","","html-keyboard-response","339","950237","0.0-350.0","0","0","WJ2Nv","People","","379","","","","32","","45","","51","","","","1","","","","","3","","","","","159","379","","","","","","","","","","","","","","","","","","","","","","","","",""
"","reward_outcome","","html-keyboard-response","340","952246","0.0-351.0","0","0","WJ2Nv","People","","295","","","","38","","45","","51","","","","","","","","","","","","","","","","1","295","","","","","","","","","","","","","","","","","","","","","","",""
"","fixation","","html-keyboard-response","341","953253","0.0-354.0","0","0","WJ2Nv","People","","null","","","","null","","","","","","","","","","","","","","","","","","","","","","","","","","","","","","","","","","","","","","","","","","","",""
"","see_reward","","html-keyboard-response","342","953502","0.0-355.0","0","0","WJ2Nv","People","","248","","","","32","","36","","52","","","","-1","","","","","3","","","","","0","248","","","","","","","","","","","","","","","","","","","","","","","","",""
"","reward_outcome","","html-keyboard-response","343","955511","0.0-356.0","0","0","WJ2Nv","People","","439","","","","40","","36","","52","","","","","","","","","","","","","","","","-1","439","","","","","","","","","","","","","","","","","","","","","","",""
"","fixation","","html-keyboard-response","344","956521","0.0-359.0","0","0","WJ2Nv","People","","null","","","","null","","","","","","","","","","","","","","","","","","","","","","","","","","","","","","","","","","","","","","","","","","","",""
"","see_reward","","html-keyboard-response","345","956886","0.0-360.0","0","0","WJ2Nv","People","","364","","","","32","","47","","53","","","","1","","","","","3","","","","","155","364","","","","","","","","","","","","","","","","","","","","","","","","",""
