"success","ttype","start_time","trial_type","trial_index","time_elapsed","internal_node_id","warning","missed_checkup","PID","stim_type","view_history","rt","responses","repeat_instructions","key_press","response","stimulus_id","painting","index","stimulus_left","stimulus_right","explain_trial","reward_type","rating_left","rating_right","painting_left","painting_right","block","left_chosen","chosen_obj","unchosen_obj","explain_response","reward_amount","see_reward_rt","register_reward_response","register_reward_rt","deliberation_reward_tally","stimulus_left_deliberation_ind","stimulus_right_deliberation_ind","chosen_trial","gain_left","higher_outcome_chosen","old_pair","chosen_object","rt_pairs","left_object_chosen","rt_object","old_response","new_rating","deliberated_stim","initial_rating","outcome_eval_rt","outcome_eval_response","outcome_eval_gain","outcome_eval_acc","preamble","outcome_eval_confidence","outcome_eval_confidence_rt","total_reward_tally"
"true","full_screen","d01202023hr0059","fullscreen","0","62668","0.0-0.0","0","0","8biOj","Scenes","","","","","","","","","","","","","","","","","","","","","","","","","","","","","","","","","","","","","","","","","","","","","","","","",""
"","rating_instructions","","instructions","1","72769","0.0-1.0-0.0","0","0","8biOj","Scenes","[{""page_index"":0,""viewing_time"":8244},{""page_index"":1,""viewing_time"":1851}]","10096","","","","","","","","","","","","","","","","","","","","","","","","","","","","","","","","","","","","","","","","","","","","","","",""
"","rating_comprehension_check","","survey-multi-choice","2","77373","0.0-1.0-1.0","0","0","8biOj","Scenes","","4600","{""Q0"":""True"",""Q1"":""Mouse""}","0","","","","","","","","","","","","","","","","","","","","","","","","","","","","","","","","","","","","","","","","","","","","",""
"","start_phase","","html-keyboard-response","3","79822","0.0-2.0","0","0","8biOj","Scenes","","2440","","","78","","","","","","","","","","","","","","","","","","","","","","","","","","","","","","","","","","","","","","","","","","","",""
"","rating","","html-slider-response","4","83365","0.0-3.0","0","0","8biOj","Scenes","","3536","","","","75","110","bruno-van-der-kraan-qez8mNJ3ilU-unsplash.jpg","0","","","","","","","","","","","","","","","","","","","","","","","","","","","","","","","","","","","","","","","",""
"","rating","","html-slider-response","5","86235","0.0-4.0","0","0","8biOj","Scenes","","2867","","","","58","103","anton-darius-FBJugtbHsWU-unsplash.jpg","1","","","","","","","","","","","","","","","","","","","","","","","","","","","","","","","","","","","","","","","",""
"","rating","","html-slider-response","6","88726","0.0-5.0","0","0","8biOj","Scenes","","2489","","","","67","134","milada-vigerova-pQMM63GE7fo-unsplash.jpg","2","","","","","","","","","","","","","","","","","","","","","","","","","","","","","","","","","","","","","","","",""
"","rating","","html-slider-response","7","91594","0.0-6.0","0","0","8biOj","Scenes","","2866","","","","84","145","stephen-leonardi-gyIRjKPXupE-unsplash.jpg","3","","","","","","","","","","","","","","","","","","","","","","","","","","","","","","","","","","","","","","","",""
"","rating","","html-slider-response","8","93836","0.0-7.0","0","0","8biOj","Scenes","","2240","","","","61","137","olga-stalska-QaWRyEdlffY-unsplash.jpg","4","","","","","","","","","","","","","","","","","","","","","","","","","","","","","","","","","","","","","","","",""
"","rating","","html-slider-response","9","96434","0.0-8.0","0","0","8biOj","Scenes","","2596","","","","56","132","meng-ji-8BH_M-53CyA-unsplash.jpg","5","","","","","","","","","","","","","","","","","","","","","","","","","","","","","","","","","","","","","","","",""
"","rating","","html-slider-response","10","98400","0.0-9.0","0","0","8biOj","Scenes","","1964","","","","58","136","nicolas-jehly-LzVB84KkZOE-unsplash.jpg","6","","","","","","","","","","","","","","","","","","","","","","","","","","","","","","","","","","","","","","","",""
"","rating","","html-slider-response","11","100566","0.0-10.0","0","0","8biOj","Scenes","","2164","","","","96","127","kace-rodriguez-p3OzJuT_Dks-unsplash.jpg","7","","","","","","","","","","","","","","","","","","","","","","","","","","","","","","","","","","","","","","","",""
"","rating","","html-slider-response","12","102434","0.0-11.0","0","0","8biOj","Scenes","","1866","","","","55","122","jeff-king-bJHWJeiHfHc-unsplash.jpg","8","","","","","","","","","","","","","","","","","","","","","","","","","","","","","","","","","","","","","","","",""
"","rating","","html-slider-response","13","104510","0.0-12.0","0","0","8biOj","Scenes","","2074","","","","63","128","karsten-wurth-jS0zC2PJ17A-unsplash.jpg","9","","","","","","","","","","","","","","","","","","","","","","","","","","","","","","","","","","","","","","","",""
"","rating","","html-slider-response","14","106227","0.0-13.0","0","0","8biOj","Scenes","","1716","","","","58","121","jean-pierre-brungs-qxCqkbF7tUc-unsplash.jpg","10","","","","","","","","","","","","","","","","","","","","","","","","","","","","","","","","","","","","","","","",""
"","rating","","html-slider-response","15","109083","0.0-14.0","0","0","8biOj","Scenes","","2855","","","","54","107","benjamin-davies-Zm2n2O7Fph4-unsplash.jpg","11","","","","","","","","","","","","","","","","","","","","","","","","","","","","","","","","","","","","","","","",""
"","rating","","html-slider-response","16","111390","0.0-15.0","0","0","8biOj","Scenes","","2304","","","","57","111","claudio-testa-U3F2o6vz3bs-unsplash.jpg","12","","","","","","","","","","","","","","","","","","","","","","","","","","","","","","","","","","","","","","","",""
"","rating","","html-slider-response","17","113856","0.0-16.0","0","0","8biOj","Scenes","","2464","","","","98","135","mohammad-alizade-4wzRuAb-KWs-unsplash.jpg","13","","","","","","","","","","","","","","","","","","","","","","","","","","","","","","","","","","","","","","","",""
"","rating","","html-slider-response","18","115770","0.0-17.0","0","0","8biOj","Scenes","","1913","","","","58","114","daniel-sessler-z_9VmsxR8hs-unsplash.jpg","14","","","","","","","","","","","","","","","","","","","","","","","","","","","","","","","","","","","","","","","",""
"","rating","","html-slider-response","19","118296","0.0-18.0","0","0","8biOj","Scenes","","2524","","","","98","104","artem-sapegin-XGDBdSQ70O0-unsplash.jpg","15","","","","","","","","","","","","","","","","","","","","","","","","","","","","","","","","","","","","","","","",""
"","rating","","html-slider-response","20","122098","0.0-19.0","0","0","8biOj","Scenes","","3801","","","","49","149","yuriy-bogdanov-W51VK3Obcj0-unsplash.jpg","16","","","","","","","","","","","","","","","","","","","","","","","","","","","","","","","","","","","","","","","",""
"","rating","","html-slider-response","21","125023","0.0-20.0","0","0","8biOj","Scenes","","2922","","","","50","133","mickey-o-neil-xL66l--msXU-unsplash.jpg","17","","","","","","","","","","","","","","","","","","","","","","","","","","","","","","","","","","","","","","","",""
"","rating","","html-slider-response","22","127431","0.0-21.0","0","0","8biOj","Scenes","","2406","","","","52","130","lina-loos-04-C1NZk1hE-unsplash.jpg","18","","","","","","","","","","","","","","","","","","","","","","","","","","","","","","","","","","","","","","","",""
"","rating","","html-slider-response","23","129283","0.0-22.0","0","0","8biOj","Scenes","","1850","","","","61","147","tobias-keller-73F4pKoUkM0-unsplash.jpg","19","","","","","","","","","","","","","","","","","","","","","","","","","","","","","","","","","","","","","","","",""
"","rating","","html-slider-response","24","131783","0.0-23.0","0","0","8biOj","Scenes","","2498","","","","97","129","kurt-cotoaga-cqbLg3lZEpk-unsplash.jpg","20","","","","","","","","","","","","","","","","","","","","","","","","","","","","","","","","","","","","","","","",""
"","rating","","html-slider-response","25","134093","0.0-24.0","0","0","8biOj","Scenes","","2308","","","","67","101","aniket-deole-T-tOgjWZ0fQ-unsplash.jpg","21","","","","","","","","","","","","","","","","","","","","","","","","","","","","","","","","","","","","","","","",""
"","rating","","html-slider-response","26","137371","0.0-25.0","0","0","8biOj","Scenes","","3276","","","","100","112","cosmic-timetraveler-pYyOZ8q7AII-unsplash.jpg","22","","","","","","","","","","","","","","","","","","","","","","","","","","","","","","","","","","","","","","","",""
"","rating","","html-slider-response","27","139639","0.0-26.0","0","0","8biOj","Scenes","","2266","","","","100","109","brigitta-schneiter-hXXRLtTxXCU-unsplash.jpg","23","","","","","","","","","","","","","","","","","","","","","","","","","","","","","","","","","","","","","","","",""
"","rating","","html-slider-response","28","142181","0.0-27.0","0","0","8biOj","Scenes","","2540","","","","61","144","solotravelgoals-7kLufxYoqWk-unsplash.jpg","24","","","","","","","","","","","","","","","","","","","","","","","","","","","","","","","","","","","","","","","",""
"","rating","","html-slider-response","29","145797","0.0-28.0","0","0","8biOj","Scenes","","3614","","","","96","108","benjamin-voros-phIFdC6lA4E-unsplash.jpg","25","","","","","","","","","","","","","","","","","","","","","","","","","","","","","","","","","","","","","","","",""
"","rating","","html-slider-response","30","148003","0.0-29.0","0","0","8biOj","Scenes","","2204","","","","94","148","tom-gainor-ZqLeQDjY6fY-unsplash.jpg","26","","","","","","","","","","","","","","","","","","","","","","","","","","","","","","","","","","","","","","","",""
"","rating","","html-slider-response","31","150209","0.0-30.0","0","0","8biOj","Scenes","","2204","","","","66","141","sebastian-unrau-v4e3JI7DDHI-unsplash.jpg","27","","","","","","","","","","","","","","","","","","","","","","","","","","","","","","","","","","","","","","","",""
"","rating","","html-slider-response","32","157638","0.0-31.0","0","0","8biOj","Scenes","","7427","","","","88","119","james-wheeler-AFC0XvICMgs-unsplash.jpg","28","","","","","","","","","","","","","","","","","","","","","","","","","","","","","","","","","","","","","","","",""
"","rating","","html-slider-response","33","160925","0.0-32.0","0","0","8biOj","Scenes","","3284","","","","91","124","johannes-plenio-sPt5RIjKfpk-unsplash.jpg","29","","","","","","","","","","","","","","","","","","","","","","","","","","","","","","","","","","","","","","","",""
"","rating","","html-slider-response","34","162886","0.0-33.0","0","0","8biOj","Scenes","","1960","","","","63","143","sigurdur-fjalar-jonsson-1KxBabIntpE-unsplash.jpg","30","","","","","","","","","","","","","","","","","","","","","","","","","","","","","","","","","","","","","","","",""
"","rating","","html-slider-response","35","167485","0.0-34.0","0","0","8biOj","Scenes","","4597","","","","58","126","jordan-mcqueen-PJCZOWuOxbU-unsplash.jpg","31","","","","","","","","","","","","","","","","","","","","","","","","","","","","","","","","","","","","","","","",""
"","rating","","html-slider-response","36","169309","0.0-35.0","0","0","8biOj","Scenes","","1822","","","","64","106","ashim-d-silva-WeYamle9fDM-unsplash.jpg","32","","","","","","","","","","","","","","","","","","","","","","","","","","","","","","","","","","","","","","","",""
"","rating","","html-slider-response","37","171352","0.0-36.0","0","0","8biOj","Scenes","","2042","","","","48","105","ashim-d-silva-S2Q5mdOrrVc-unsplash.jpg","33","","","","","","","","","","","","","","","","","","","","","","","","","","","","","","","","","","","","","","","",""
"","rating","","html-slider-response","38","173395","0.0-37.0","0","0","8biOj","Scenes","","2041","","","","71","142","sergey-pesterev-y-b_FOmJXdg-unsplash.jpg","34","","","","","","","","","","","","","","","","","","","","","","","","","","","","","","","","","","","","","","","",""
"","rating","","html-slider-response","39","176564","0.0-38.0","0","0","8biOj","Scenes","","3169","","","","69","115","darrell-cassell-hoCXpPUMCoE-unsplash.jpg","35","","","","","","","","","","","","","","","","","","","","","","","","","","","","","","","","","","","","","","","",""
"","rating","","html-slider-response","40","178413","0.0-39.0","0","0","8biOj","Scenes","","1847","","","","66","125","john-lee-oMneOBYhJxY-unsplash.jpg","36","","","","","","","","","","","","","","","","","","","","","","","","","","","","","","","","","","","","","","","",""
"","rating","","html-slider-response","41","180587","0.0-40.0","0","0","8biOj","Scenes","","2173","","","","62","116","david-marcu-W5MhJ6cy1So-unsplash.jpg","37","","","","","","","","","","","","","","","","","","","","","","","","","","","","","","","","","","","","","","","",""
"","rating","","html-slider-response","42","182953","0.0-41.0","0","0","8biOj","Scenes","","2364","","","","88","139","samsommer-vddccTqwal8-unsplash.jpg","38","","","","","","","","","","","","","","","","","","","","","","","","","","","","","","","","","","","","","","","",""
"","rating","","html-slider-response","43","185227","0.0-42.0","0","0","8biOj","Scenes","","2272","","","","92","123","joel-jasmin-forestbird-efuwb5eBDrI-unsplash.jpg","39","","","","","","","","","","","","","","","","","","","","","","","","","","","","","","","","","","","","","","","",""
"","rating","","html-slider-response","44","187055","0.0-43.0","0","0","8biOj","Scenes","","1826","","","","58","146","thomas-morse-cuKKa0vWZSY-unsplash.jpg","40","","","","","","","","","","","","","","","","","","","","","","","","","","","","","","","","","","","","","","","",""
"","rating","","html-slider-response","45","189183","0.0-44.0","0","0","8biOj","Scenes","","2126","","","","93","120","jarrett-kow-1ZOyYPOBn7I-unsplash.jpg","41","","","","","","","","","","","","","","","","","","","","","","","","","","","","","","","","","","","","","","","",""
"","rating","","html-slider-response","46","191117","0.0-45.0","0","0","8biOj","Scenes","","1932","","","","58","138","petr-vysohlid-9fqwGqGLUxc-unsplash.jpg","42","","","","","","","","","","","","","","","","","","","","","","","","","","","","","","","","","","","","","","","",""
"","rating","","html-slider-response","47","192987","0.0-46.0","0","0","8biOj","Scenes","","1868","","","","58","100","aleksandra-boguslawska-MS7KD9Ti7FQ-unsplash.jpg","43","","","","","","","","","","","","","","","","","","","","","","","","","","","","","","","","","","","","","","","",""
"","rating","","html-slider-response","48","195017","0.0-47.0","0","0","8biOj","Scenes","","2028","","","","83","131","luca-bravo-hFzIoD0F_i8-unsplash.jpg","44","","","","","","","","","","","","","","","","","","","","","","","","","","","","","","","","","","","","","","","",""
"","rating","","html-slider-response","49","197505","0.0-48.0","0","0","8biOj","Scenes","","2486","","","","54","118","henry-be-NLF6hTe4PAg-unsplash.jpg","45","","","","","","","","","","","","","","","","","","","","","","","","","","","","","","","","","","","","","","","",""
"","rating","","html-slider-response","50","199567","0.0-49.0","0","0","8biOj","Scenes","","2060","","","","90","140","samuele-errico-piccarini-JEBqFu2AOOA-unsplash.jpg","46","","","","","","","","","","","","","","","","","","","","","","","","","","","","","","","","","","","","","","","",""
"","rating","","html-slider-response","51","201370","0.0-50.0","0","0","8biOj","Scenes","","1801","","","","56","102","anisur-rahman-K2b7UDed6uQ-unsplash.jpg","47","","","","","","","","","","","","","","","","","","","","","","","","","","","","","","","","","","","","","","","",""
"","rating","","html-slider-response","52","203774","0.0-51.0","0","0","8biOj","Scenes","","2402","","","","60","117","frank-mckenna-OD9EOzfSOh0-unsplash.jpg","48","","","","","","","","","","","","","","","","","","","","","","","","","","","","","","","","","","","","","","","",""
"","rating","","html-slider-response","53","207672","0.0-52.0","0","0","8biOj","Scenes","","3896","","","","57","113","damian-denis-D8R_txR_0PE-unsplash.jpg","49","","","","","","","","","","","","","","","","","","","","","","","","","","","","","","","","","","","","","","","",""
"","deliberation_instructions","","instructions","54","237765","0.0-53.0-0.0","0","0","8biOj","Scenes","[{""page_index"":0,""viewing_time"":9884},{""page_index"":1,""viewing_time"":7029},{""page_index"":2,""viewing_time"":4806},{""page_index"":3,""viewing_time"":6792},{""page_index"":4,""viewing_time"":1576}]","30088","","","","","","","","","","","","","","","","","","","","","","","","","","","","","","","","","","","","","","","","","","","","","","",""
"","deliberation_comprehension_check","","survey-multi-choice","55","253641","0.0-53.0-1.0","0","0","8biOj","Scenes","","15871","{""Q0"":""True"",""Q1"":""True"",""Q2"":""Consider carefully and take your time (up to 10 seconds)"",""Q3"":""True"",""Q4"":""D""}","0","","","","","","","","","","","","","","","","","","","","","","","","","","","","","","","","","","","","","","","","","","","","",""
"","start_phase","","html-keyboard-response","56","256109","0.0-54.0","0","0","8biOj","Scenes","","2461","","","78","","","","","","","","","","","","","","","","","","","","","","","","","","","","","","","","","","","","","","","","","","","",""
"","first_deliberation_block","","html-keyboard-response","57","260098","0.0-55.0","0","0","8biOj","Scenes","","3987","","","78","","","","","","","","","","","","","","","","","","","","","","","","","","","","","","","","","","","","","","","","","","","",""
"","fixation","","html-keyboard-response","58","261108","0.0-56.0-0.0","0","0","8biOj","Scenes","","null","","","null","","","","","","","","","","","","","","","","","","","","","","","","","","","","","","","","","","","","","","","","","","","",""
"","deliberation","","html-keyboard-response","59","263567","0.0-56.0-1.0","0","0","8biOj","Scenes","","2453","","","75","","","","0","106","125","1","-1","64","66","ashim-d-silva-WeYamle9fDM-unsplash.jpg","john-lee-oMneOBYhJxY-unsplash.jpg","1","0","125","106","","","","","","","","","","","","","","","","","","","","","","","","","","","",""
"","choice_confirmation","","html-keyboard-response","60","264076","0.0-56.0-2.0-0.0","0","0","8biOj","Scenes","","null","","","null","","","","0","106","125","","","","","","","","","","","","","","","","","","","","","","","","","","","","","","","","","","","","","",""
"","explain_trial","","survey-text","61","287818","0.0-56.0-5.0-0.0","0","0","8biOj","Scenes","","23737","{""Q0"":""I think this one would appeal to more people. The other one is slightly confusing looking.""}","","","","","","0","106","125","","","","","","","","","","","{""Q0"":""I think this one would appeal to more people. The other one is slightly confusing looking.""}","","","","","","","","","","","","","","","","","","","","","","","","","","",""
"","fixation","","html-keyboard-response","62","288829","0.0-57.0-0.0","0","0","8biOj","Scenes","","null","","","null","","","","","","","","","","","","","","","","","","","","","","","","","","","","","","","","","","","","","","","","","","","",""
"","deliberation","","html-keyboard-response","63","291272","0.0-57.0-1.0","0","0","8biOj","Scenes","","2440","","","75","","","","1","146","131","1","1","58","83","thomas-morse-cuKKa0vWZSY-unsplash.jpg","luca-bravo-hFzIoD0F_i8-unsplash.jpg","1","0","131","146","","","","","","","","","","","","","","","","","","","","","","","","","","","",""
"","choice_confirmation","","html-keyboard-response","64","291781","0.0-57.0-2.0-0.0","0","0","8biOj","Scenes","","null","","","null","","","","1","146","131","","","","","","","","","","","","","","","","","","","","","","","","","","","","","","","","","","","","","",""
"","explain_trial","","survey-text","65","317479","0.0-57.0-5.0-0.0","0","0","8biOj","Scenes","","25695","{""Q0"":""The colors, though darker, seem to make a more detailed, pleasing piece. ""}","","","","","","1","146","131","","","","","","","","","","","{""Q0"":""The colors, though darker, seem to make a more detailed, pleasing piece. ""}","","","","","","","","","","","","","","","","","","","","","","","","","","",""
"","fixation","","html-keyboard-response","66","318484","0.0-58.0-0.0","0","0","8biOj","Scenes","","null","","","null","","","","","","","","","","","","","","","","","","","","","","","","","","","","","","","","","","","","","","","","","","","",""
"","deliberation","","html-keyboard-response","67","320506","0.0-58.0-1.0","0","0","8biOj","Scenes","","2017","","","75","","","","2","126","119","0","-1","58","88","jordan-mcqueen-PJCZOWuOxbU-unsplash.jpg","james-wheeler-AFC0XvICMgs-unsplash.jpg","1","0","119","126","","","","","","","","","","","","","","","","","","","","","","","","","","","",""
"","choice_confirmation","","html-keyboard-response","68","321013","0.0-58.0-2.0-0.0","0","0","8biOj","Scenes","","null","","","null","","","","2","126","119","","","","","","","","","","","","","","","","","","","","","","","","","","","","","","","","","","","","","",""
"","fixation","","html-keyboard-response","69","322020","0.0-59.0-0.0","0","0","8biOj","Scenes","","null","","","null","","","","","","","","","","","","","","","","","","","","","","","","","","","","","","","","","","","","","","","","","","","",""
"","deliberation","","html-keyboard-response","70","325476","0.0-59.0-1.0","0","0","8biOj","Scenes","","3452","","","68","","","","3","117","137","0","1","60","61","frank-mckenna-OD9EOzfSOh0-unsplash.jpg","olga-stalska-QaWRyEdlffY-unsplash.jpg","1","1","117","137","","","","","","","","","","","","","","","","","","","","","","","","","","","",""
"","choice_confirmation","","html-keyboard-response","71","325980","0.0-59.0-2.0-0.0","0","0","8biOj","Scenes","","null","","","null","","","","3","117","137","","","","","","","","","","","","","","","","","","","","","","","","","","","","","","","","","","","","","",""
"","fixation","","html-keyboard-response","72","326989","0.0-60.0-0.0","0","0","8biOj","Scenes","","null","","","null","","","","","","","","","","","","","","","","","","","","","","","","","","","","","","","","","","","","","","","","","","","",""
"","deliberation","","html-keyboard-response","73","328732","0.0-60.0-1.0","0","0","8biOj","Scenes","","1740","","","75","","","","4","116","121","1","-1","62","58","david-marcu-W5MhJ6cy1So-unsplash.jpg","jean-pierre-brungs-qxCqkbF7tUc-unsplash.jpg","1","0","121","116","","","","","","","","","","","","","","","","","","","","","","","","","","","",""
"","choice_confirmation","","html-keyboard-response","74","329236","0.0-60.0-2.0-0.0","0","0","8biOj","Scenes","","null","","","null","","","","4","116","121","","","","","","","","","","","","","","","","","","","","","","","","","","","","","","","","","","","","","",""
"","explain_trial","","survey-text","75","355490","0.0-60.0-5.0-0.0","0","0","8biOj","Scenes","","26250","{""Q0"":""The picture has more depth than the other. The sky is also a bit more colorful.""}","","","","","","4","116","121","","","","","","","","","","","{""Q0"":""The picture has more depth than the other. The sky is also a bit more colorful.""}","","","","","","","","","","","","","","","","","","","","","","","","","","",""
"","fixation","","html-keyboard-response","76","356500","0.0-61.0-0.0","0","0","8biOj","Scenes","","null","","","null","","","","","","","","","","","","","","","","","","","","","","","","","","","","","","","","","","","","","","","","","","","",""
"","deliberation","","html-keyboard-response","77","358197","0.0-61.0-1.0","0","0","8biOj","Scenes","","1693","","","75","","","","5","134","110","1","1","67","75","milada-vigerova-pQMM63GE7fo-unsplash.jpg","bruno-van-der-kraan-qez8mNJ3ilU-unsplash.jpg","1","0","110","134","","","","","","","","","","","","","","","","","","","","","","","","","","","",""
"","choice_confirmation","","html-keyboard-response","78","358709","0.0-61.0-2.0-0.0","0","0","8biOj","Scenes","","null","","","null","","","","5","134","110","","","","","","","","","","","","","","","","","","","","","","","","","","","","","","","","","","","","","",""
"","explain_trial","","survey-text","79","400042","0.0-61.0-5.0-0.0","0","0","8biOj","Scenes","","41329","{""Q0"":""I think it greater highlights the mountains. I think more people would be interested in these mountains over the waterfall. ""}","","","","","","5","134","110","","","","","","","","","","","{""Q0"":""I think it greater highlights the mountains. I think more people would be interested in these mountains over the waterfall. ""}","","","","","","","","","","","","","","","","","","","","","","","","","","",""
"","fixation","","html-keyboard-response","80","401052","0.0-62.0-0.0","0","0","8biOj","Scenes","","null","","","null","","","","","","","","","","","","","","","","","","","","","","","","","","","","","","","","","","","","","","","","","","","",""
"","deliberation","","html-keyboard-response","81","402875","0.0-62.0-1.0","0","0","8biOj","Scenes","","1819","","","68","","","","6","114","115","1","1","58","69","daniel-sessler-z_9VmsxR8hs-unsplash.jpg","darrell-cassell-hoCXpPUMCoE-unsplash.jpg","1","1","114","115","","","","","","","","","","","","","","","","","","","","","","","","","","","",""
"","choice_confirmation","","html-keyboard-response","82","403380","0.0-62.0-2.0-0.0","0","0","8biOj","Scenes","","null","","","null","","","","6","114","115","","","","","","","","","","","","","","","","","","","","","","","","","","","","","","","","","","","","","",""
"","explain_trial","","survey-text","83","457893","0.0-62.0-5.0-0.0","0","0","8biOj","Scenes","","54508","{""Q0"":""I think this photograph is slightly less generic looking than the other. The other is also literally a sea of blue, whereas the one I picked has lots of different colors.""}","","","","","","6","114","115","","","","","","","","","","","{""Q0"":""I think this photograph is slightly less generic looking than the other. The other is also literally a sea of blue, whereas the one I picked has lots of different colors.""}","","","","","","","","","","","","","","","","","","","","","","","","","","",""
"","fixation","","html-keyboard-response","84","458901","0.0-63.0-0.0","0","0","8biOj","Scenes","","null","","","null","","","","","","","","","","","","","","","","","","","","","","","","","","","","","","","","","","","","","","","","","","","",""
"","deliberation","","html-keyboard-response","85","460474","0.0-63.0-1.0","0","0","8biOj","Scenes","","1570","","","75","","","","7","143","128","0","-1","63","63","sigurdur-fjalar-jonsson-1KxBabIntpE-unsplash.jpg","karsten-wurth-jS0zC2PJ17A-unsplash.jpg","1","0","128","143","","","","","","","","","","","","","","","","","","","","","","","","","","","",""
"","choice_confirmation","","html-keyboard-response","86","460979","0.0-63.0-2.0-0.0","0","0","8biOj","Scenes","","null","","","null","","","","7","143","128","","","","","","","","","","","","","","","","","","","","","","","","","","","","","","","","","","","","","",""
"","fixation","","html-keyboard-response","87","461988","0.0-64.0-0.0","0","0","8biOj","Scenes","","null","","","null","","","","","","","","","","","","","","","","","","","","","","","","","","","","","","","","","","","","","","","","","","","",""
"","deliberation","","html-keyboard-response","88","463296","0.0-64.0-1.0","0","0","8biOj","Scenes","","1304","","","68","","","","8","101","138","0","1","67","58","aniket-deole-T-tOgjWZ0fQ-unsplash.jpg","petr-vysohlid-9fqwGqGLUxc-unsplash.jpg","1","1","101","138","","","","","","","","","","","","","","","","","","","","","","","","","","","",""
"","choice_confirmation","","html-keyboard-response","89","463804","0.0-64.0-2.0-0.0","0","0","8biOj","Scenes","","null","","","null","","","","8","101","138","","","","","","","","","","","","","","","","","","","","","","","","","","","","","","","","","","","","","",""
"","fixation","","html-keyboard-response","90","464812","0.0-65.0-0.0","0","0","8biOj","Scenes","","null","","","null","","","","","","","","","","","","","","","","","","","","","","","","","","","","","","","","","","","","","","","","","","","",""
"","deliberation","","html-keyboard-response","91","466032","0.0-65.0-1.0","0","0","8biOj","Scenes","","1217","","","68","","","","9","145","100","1","-1","84","58","stephen-leonardi-gyIRjKPXupE-unsplash.jpg","aleksandra-boguslawska-MS7KD9Ti7FQ-unsplash.jpg","1","1","145","100","","","","","","","","","","","","","","","","","","","","","","","","","","","",""
"","choice_confirmation","","html-keyboard-response","92","466540","0.0-65.0-2.0-0.0","0","0","8biOj","Scenes","","null","","","null","","","","9","145","100","","","","","","","","","","","","","","","","","","","","","","","","","","","","","","","","","","","","","",""
"","explain_trial","","survey-text","93","505224","0.0-65.0-5.0-0.0","0","0","8biOj","Scenes","","38680","{""Q0"":""Although I think both would sell well, I chose the left option as it has a bit more variety. I really like the tress in this one as well.""}","","","","","","9","145","100","","","","","","","","","","","{""Q0"":""Although I think both would sell well, I chose the left option as it has a bit more variety. I really like the tress in this one as well.""}","","","","","","","","","","","","","","","","","","","","","","","","","","",""
"","fixation","","html-keyboard-response","94","506229","0.0-66.0-0.0","0","0","8biOj","Scenes","","null","","","null","","","","","","","","","","","","","","","","","","","","","","","","","","","","","","","","","","","","","","","","","","","",""
"","deliberation","","html-keyboard-response","95","507417","0.0-66.0-1.0","0","0","8biOj","Scenes","","1184","","","68","","","","10","141","144","0","-1","66","61","sebastian-unrau-v4e3JI7DDHI-unsplash.jpg","solotravelgoals-7kLufxYoqWk-unsplash.jpg","1","1","141","144","","","","","","","","","","","","","","","","","","","","","","","","","","","",""
"","choice_confirmation","","html-keyboard-response","96","507924","0.0-66.0-2.0-0.0","0","0","8biOj","Scenes","","null","","","null","","","","10","141","144","","","","","","","","","","","","","","","","","","","","","","","","","","","","","","","","","","","","","",""
"","fixation","","html-keyboard-response","97","508933","0.0-67.0-0.0","0","0","8biOj","Scenes","","null","","","null","","","","","","","","","","","","","","","","","","","","","","","","","","","","","","","","","","","","","","","","","","","",""
"","deliberation","","html-keyboard-response","98","510413","0.0-67.0-1.0","0","0","8biOj","Scenes","","1476","","","68","","","","11","142","147","0","1","71","61","sergey-pesterev-y-b_FOmJXdg-unsplash.jpg","tobias-keller-73F4pKoUkM0-unsplash.jpg","1","1","142","147","","","","","","","","","","","","","","","","","","","","","","","","","","","",""
"","choice_confirmation","","html-keyboard-response","99","510924","0.0-67.0-2.0-0.0","0","0","8biOj","Scenes","","null","","","null","","","","11","142","147","","","","","","","","","","","","","","","","","","","","","","","","","","","","","","","","","","","","","",""
"","practice_deliberation_again","","html-keyboard-response","100","513733","0.0-67.0-6.0-0.0","0","0","8biOj","Scenes","","2804","","","78","","","","","","","","","","","","","","","","","","","","","","","","","","","","","","","","","","","","","","","","","","","",""
"","fixation","","html-keyboard-response","101","514741","0.0-68.0-0.0","0","0","8biOj","Scenes","","null","","","null","","","","","","","","","","","","","","","","","","","","","","","","","","","","","","","","","","","","","","","","","","","",""
"","deliberation","","html-keyboard-response","102","515816","0.0-68.0-1.0","0","0","8biOj","Scenes","","1071","","","75","","","","12","134","110","0","1","67","75","milada-vigerova-pQMM63GE7fo-unsplash.jpg","bruno-van-der-kraan-qez8mNJ3ilU-unsplash.jpg","2","0","110","134","","","","","","","","","","","","","","","","","","","","","","","","","","","",""
"","choice_confirmation","","html-keyboard-response","103","516324","0.0-68.0-2.0-0.0","0","0","8biOj","Scenes","","null","","","null","","","","12","134","110","","","","","","","","","","","","","","","","","","","","","","","","","","","","","","","","","","","","","",""
"","fixation","","html-keyboard-response","104","517333","0.0-69.0-0.0","0","0","8biOj","Scenes","","null","","","null","","","","","","","","","","","","","","","","","","","","","","","","","","","","","","","","","","","","","","","","","","","",""
"","deliberation","","html-keyboard-response","105","518130","0.0-69.0-1.0","0","0","8biOj","Scenes","","793","","","68","","","","13","114","115","0","1","58","69","daniel-sessler-z_9VmsxR8hs-unsplash.jpg","darrell-cassell-hoCXpPUMCoE-unsplash.jpg","2","1","114","115","","","","","","","","","","","","","","","","","","","","","","","","","","","",""
"","choice_confirmation","","html-keyboard-response","106","518637","0.0-69.0-2.0-0.0","0","0","8biOj","Scenes","","null","","","null","","","","13","114","115","","","","","","","","","","","","","","","","","","","","","","","","","","","","","","","","","","","","","",""
"","fixation","","html-keyboard-response","107","519645","0.0-70.0-0.0","0","0","8biOj","Scenes","","null","","","null","","","","","","","","","","","","","","","","","","","","","","","","","","","","","","","","","","","","","","","","","","","",""
"","deliberation","","html-keyboard-response","108","520622","0.0-70.0-1.0","0","0","8biOj","Scenes","","972","","","68","","","","14","142","147","1","1","71","61","sergey-pesterev-y-b_FOmJXdg-unsplash.jpg","tobias-keller-73F4pKoUkM0-unsplash.jpg","2","1","142","147","","","","","","","","","","","","","","","","","","","","","","","","","","","",""
"","choice_confirmation","","html-keyboard-response","109","521132","0.0-70.0-2.0-0.0","0","0","8biOj","Scenes","","null","","","null","","","","14","142","147","","","","","","","","","","","","","","","","","","","","","","","","","","","","","","","","","","","","","",""
"","explain_trial","","survey-text","110","564893","0.0-70.0-5.0-0.0","0","0","8biOj","Scenes","","43756","{""Q0"":""Both are excellent candidates, however the option I chose seems to be more interesting than the other. The ice is also really cool looking.""}","","","","","","14","142","147","","","","","","","","","","","{""Q0"":""Both are excellent candidates, however the option I chose seems to be more interesting than the other. The ice is also really cool looking.""}","","","","","","","","","","","","","","","","","","","","","","","","","","",""
"","fixation","","html-keyboard-response","111","565901","0.0-71.0-0.0","0","0","8biOj","Scenes","","null","","","null","","","","","","","","","","","","","","","","","","","","","","","","","","","","","","","","","","","","","","","","","","","",""
"","deliberation","","html-keyboard-response","112","567634","0.0-71.0-1.0","0","0","8biOj","Scenes","","1729","","","75","","","","15","126","119","1","-1","58","88","jordan-mcqueen-PJCZOWuOxbU-unsplash.jpg","james-wheeler-AFC0XvICMgs-unsplash.jpg","2","0","119","126","","","","","","","","","","","","","","","","","","","","","","","","","","","",""
"","choice_confirmation","","html-keyboard-response","113","568139","0.0-71.0-2.0-0.0","0","0","8biOj","Scenes","","null","","","null","","","","15","126","119","","","","","","","","","","","","","","","","","","","","","","","","","","","","","","","","","","","","","",""
"","explain_trial","","survey-text","114","581200","0.0-71.0-5.0-0.0","0","0","8biOj","Scenes","","13057","{""Q0"":""The colors are so vibrant and soothing. ""}","","","","","","15","126","119","","","","","","","","","","","{""Q0"":""The colors are so vibrant and soothing. ""}","","","","","","","","","","","","","","","","","","","","","","","","","","",""
"","fixation","","html-keyboard-response","115","582204","0.0-72.0-0.0","0","0","8biOj","Scenes","","null","","","null","","","","","","","","","","","","","","","","","","","","","","","","","","","","","","","","","","","","","","","","","","","",""
"","deliberation","","html-keyboard-response","116","583089","0.0-72.0-1.0","0","0","8biOj","Scenes","","881","","","75","","","","16","146","131","0","1","58","83","thomas-morse-cuKKa0vWZSY-unsplash.jpg","luca-bravo-hFzIoD0F_i8-unsplash.jpg","2","0","131","146","","","","","","","","","","","","","","","","","","","","","","","","","","","",""
"","choice_confirmation","","html-keyboard-response","117","583596","0.0-72.0-2.0-0.0","0","0","8biOj","Scenes","","null","","","null","","","","16","146","131","","","","","","","","","","","","","","","","","","","","","","","","","","","","","","","","","","","","","",""
"","fixation","","html-keyboard-response","118","584604","0.0-73.0-0.0","0","0","8biOj","Scenes","","null","","","null","","","","","","","","","","","","","","","","","","","","","","","","","","","","","","","","","","","","","","","","","","","",""
"","deliberation","","html-keyboard-response","119","585880","0.0-73.0-1.0","0","0","8biOj","Scenes","","1272","","","68","","","","17","117","137","1","1","60","61","frank-mckenna-OD9EOzfSOh0-unsplash.jpg","olga-stalska-QaWRyEdlffY-unsplash.jpg","2","1","117","137","","","","","","","","","","","","","","","","","","","","","","","","","","","",""
"","choice_confirmation","","html-keyboard-response","120","586387","0.0-73.0-2.0-0.0","0","0","8biOj","Scenes","","null","","","null","","","","17","117","137","","","","","","","","","","","","","","","","","","","","","","","","","","","","","","","","","","","","","",""
"","explain_trial","","survey-text","121","614600","0.0-73.0-5.0-0.0","0","0","8biOj","Scenes","","28208","{""Q0"":""I could see this hanging up in someone's beach house. The sunset is what sells it for me. ""}","","","","","","17","117","137","","","","","","","","","","","{""Q0"":""I could see this hanging up in someone's beach house. The sunset is what sells it for me. ""}","","","","","","","","","","","","","","","","","","","","","","","","","","",""
"","fixation","","html-keyboard-response","122","615603","0.0-74.0-0.0","0","0","8biOj","Scenes","","null","","","null","","","","","","","","","","","","","","","","","","","","","","","","","","","","","","","","","","","","","","","","","","","",""
"","deliberation","","html-keyboard-response","123","616693","0.0-74.0-1.0","0","0","8biOj","Scenes","","1086","","","68","","","","18","141","144","1","-1","66","61","sebastian-unrau-v4e3JI7DDHI-unsplash.jpg","solotravelgoals-7kLufxYoqWk-unsplash.jpg","2","1","141","144","","","","","","","","","","","","","","","","","","","","","","","","","","","",""
"","choice_confirmation","","html-keyboard-response","124","617204","0.0-74.0-2.0-0.0","0","0","8biOj","Scenes","","null","","","null","","","","18","141","144","","","","","","","","","","","","","","","","","","","","","","","","","","","","","","","","","","","","","",""
"","explain_trial","","survey-text","125","653139","0.0-74.0-5.0-0.0","0","0","8biOj","Scenes","","35931","{""Q0"":""This picture has some excellent green and yellow colors. I think a collector would be more interested in this piece than the other.""}","","","","","","18","141","144","","","","","","","","","","","{""Q0"":""This picture has some excellent green and yellow colors. I think a collector would be more interested in this piece than the other.""}","","","","","","","","","","","","","","","","","","","","","","","","","","",""
"","fixation","","html-keyboard-response","126","654148","0.0-75.0-0.0","0","0","8biOj","Scenes","","null","","","null","","","","","","","","","","","","","","","","","","","","","","","","","","","","","","","","","","","","","","","","","","","",""
"","deliberation","","html-keyboard-response","127","655539","0.0-75.0-1.0","0","0","8biOj","Scenes","","1387","","","68","","","","19","116","121","0","-1","62","58","david-marcu-W5MhJ6cy1So-unsplash.jpg","jean-pierre-brungs-qxCqkbF7tUc-unsplash.jpg","2","1","116","121","","","","","","","","","","","","","","","","","","","","","","","","","","","",""
"","choice_confirmation","","html-keyboard-response","128","656044","0.0-75.0-2.0-0.0","0","0","8biOj","Scenes","","null","","","null","","","","19","116","121","","","","","","","","","","","","","","","","","","","","","","","","","","","","","","","","","","","","","",""
"","fixation","","html-keyboard-response","129","657052","0.0-76.0-0.0","0","0","8biOj","Scenes","","null","","","null","","","","","","","","","","","","","","","","","","","","","","","","","","","","","","","","","","","","","","","","","","","",""
"","deliberation","","html-keyboard-response","130","658060","0.0-76.0-1.0","0","0","8biOj","Scenes","","1005","","","75","","","","20","106","125","0","-1","64","66","ashim-d-silva-WeYamle9fDM-unsplash.jpg","john-lee-oMneOBYhJxY-unsplash.jpg","2","0","125","106","","","","","","","","","","","","","","","","","","","","","","","","","","","",""
"","choice_confirmation","","html-keyboard-response","131","658572","0.0-76.0-2.0-0.0","0","0","8biOj","Scenes","","null","","","null","","","","20","106","125","","","","","","","","","","","","","","","","","","","","","","","","","","","","","","","","","","","","","",""
"","fixation","","html-keyboard-response","132","659579","0.0-77.0-0.0","0","0","8biOj","Scenes","","null","","","null","","","","","","","","","","","","","","","","","","","","","","","","","","","","","","","","","","","","","","","","","","","",""
"","deliberation","","html-keyboard-response","133","660766","0.0-77.0-1.0","0","0","8biOj","Scenes","","1184","","","68","","","","21","101","138","1","1","67","58","aniket-deole-T-tOgjWZ0fQ-unsplash.jpg","petr-vysohlid-9fqwGqGLUxc-unsplash.jpg","2","1","101","138","","","","","","","","","","","","","","","","","","","","","","","","","","","",""
"","choice_confirmation","","html-keyboard-response","134","661275","0.0-77.0-2.0-0.0","0","0","8biOj","Scenes","","null","","","null","","","","21","101","138","","","","","","","","","","","","","","","","","","","","","","","","","","","","","","","","","","","","","",""
"","explain_trial","","survey-text","135","692363","0.0-77.0-5.0-0.0","0","0","8biOj","Scenes","","31083","{""Q0"":""This photo seems to have a bit more variety than the other. The flowers, the grass, the mountains are all stunning.""}","","","","","","21","101","138","","","","","","","","","","","{""Q0"":""This photo seems to have a bit more variety than the other. The flowers, the grass, the mountains are all stunning.""}","","","","","","","","","","","","","","","","","","","","","","","","","","",""
"","fixation","","html-keyboard-response","136","693372","0.0-78.0-0.0","0","0","8biOj","Scenes","","null","","","null","","","","","","","","","","","","","","","","","","","","","","","","","","","","","","","","","","","","","","","","","","","",""
"","deliberation","","html-keyboard-response","137","694263","0.0-78.0-1.0","0","0","8biOj","Scenes","","888","","","68","","","","22","145","100","0","-1","84","58","stephen-leonardi-gyIRjKPXupE-unsplash.jpg","aleksandra-boguslawska-MS7KD9Ti7FQ-unsplash.jpg","2","1","145","100","","","","","","","","","","","","","","","","","","","","","","","","","","","",""
"","choice_confirmation","","html-keyboard-response","138","694772","0.0-78.0-2.0-0.0","0","0","8biOj","Scenes","","null","","","null","","","","22","145","100","","","","","","","","","","","","","","","","","","","","","","","","","","","","","","","","","","","","","",""
"","fixation","","html-keyboard-response","139","695780","0.0-79.0-0.0","0","0","8biOj","Scenes","","null","","","null","","","","","","","","","","","","","","","","","","","","","","","","","","","","","","","","","","","","","","","","","","","",""
"","deliberation","","html-keyboard-response","140","697655","0.0-79.0-1.0","0","0","8biOj","Scenes","","1872","","","68","","","","23","143","128","1","-1","63","63","sigurdur-fjalar-jonsson-1KxBabIntpE-unsplash.jpg","karsten-wurth-jS0zC2PJ17A-unsplash.jpg","2","1","143","128","","","","","","","","","","","","","","","","","","","","","","","","","","","",""
"","choice_confirmation","","html-keyboard-response","141","698164","0.0-79.0-2.0-0.0","0","0","8biOj","Scenes","","null","","","null","","","","23","143","128","","","","","","","","","","","","","","","","","","","","","","","","","","","","","","","","","","","","","",""
"","explain_trial","","survey-text","142","731864","0.0-79.0-5.0-0.0","0","0","8biOj","Scenes","","33696","{""Q0"":""Both are really great, however my decision was based on the water and the design of the rock.""}","","","","","","23","143","128","","","","","","","","","","","{""Q0"":""Both are really great, however my decision was based on the water and the design of the rock.""}","","","","","","","","","","","","","","","","","","","","","","","","","","",""
"","start_critical_deliberation_block","","html-keyboard-response","143","736963","0.0-79.0-7.0-0.0","0","0","8biOj","Scenes","","5097","","","78","","","","","","","","","","","","","","","","","","","","","","","","","","","","","","","","","","","","","","","","","","","",""
"","fixation","","html-keyboard-response","144","737972","0.0-80.0-0.0","0","0","8biOj","Scenes","","null","","","null","","","","","","","","","","","","","","","","","","","","","","","","","","","","","","","","","","","","","","","","","","","",""
"","deliberation","","html-keyboard-response","145","738926","0.0-80.0-1.0","0","0","8biOj","Scenes","","949","","","68","","","","24","143","128","0","-1","63","63","sigurdur-fjalar-jonsson-1KxBabIntpE-unsplash.jpg","karsten-wurth-jS0zC2PJ17A-unsplash.jpg","3","1","143","128","","","","","","","","","","","","","","","","","","","","","","","","","","","",""
"","choice_confirmation","","html-keyboard-response","146","739436","0.0-80.0-2.0-0.0","0","0","8biOj","Scenes","","null","","","null","","","","24","143","128","","","","","","","","","","","","","","","","","","","","","","","","","","","","","","","","","","","","","",""
"","fixation","","html-keyboard-response","147","740445","0.0-81.0-0.0","0","0","8biOj","Scenes","","null","","","null","","","","","","","","","","","","","","","","","","","","","","","","","","","","","","","","","","","","","","","","","","","",""
"","deliberation","","html-keyboard-response","148","741402","0.0-81.0-1.0","0","0","8biOj","Scenes","","953","","","68","","","","25","116","121","0","-1","62","58","david-marcu-W5MhJ6cy1So-unsplash.jpg","jean-pierre-brungs-qxCqkbF7tUc-unsplash.jpg","3","1","116","121","","","","","","","","","","","","","","","","","","","","","","","","","","","",""
"","choice_confirmation","","html-keyboard-response","149","741907","0.0-81.0-2.0-0.0","0","0","8biOj","Scenes","","null","","","null","","","","25","116","121","","","","","","","","","","","","","","","","","","","","","","","","","","","","","","","","","","","","","",""
"","fixation","","html-keyboard-response","150","742915","0.0-82.0-0.0","0","0","8biOj","Scenes","","null","","","null","","","","","","","","","","","","","","","","","","","","","","","","","","","","","","","","","","","","","","","","","","","",""
"","deliberation","","html-keyboard-response","151","743843","0.0-82.0-1.0","0","0","8biOj","Scenes","","923","","","68","","","","26","141","144","0","-1","66","61","sebastian-unrau-v4e3JI7DDHI-unsplash.jpg","solotravelgoals-7kLufxYoqWk-unsplash.jpg","3","1","141","144","","","","","","","","","","","","","","","","","","","","","","","","","","","",""
"","choice_confirmation","","html-keyboard-response","152","744348","0.0-82.0-2.0-0.0","0","0","8biOj","Scenes","","null","","","null","","","","26","141","144","","","","","","","","","","","","","","","","","","","","","","","","","","","","","","","","","","","","","",""
"","fixation","","html-keyboard-response","153","745356","0.0-83.0-0.0","0","0","8biOj","Scenes","","null","","","null","","","","","","","","","","","","","","","","","","","","","","","","","","","","","","","","","","","","","","","","","","","",""
"","deliberation","","html-keyboard-response","154","746347","0.0-83.0-1.0","0","0","8biOj","Scenes","","987","","","68","","","","27","101","138","0","1","67","58","aniket-deole-T-tOgjWZ0fQ-unsplash.jpg","petr-vysohlid-9fqwGqGLUxc-unsplash.jpg","3","1","101","138","","","","","","","","","","","","","","","","","","","","","","","","","","","",""
"","choice_confirmation","","html-keyboard-response","155","746852","0.0-83.0-2.0-0.0","0","0","8biOj","Scenes","","null","","","null","","","","27","101","138","","","","","","","","","","","","","","","","","","","","","","","","","","","","","","","","","","","","","",""
"","fixation","","html-keyboard-response","156","747860","0.0-84.0-0.0","0","0","8biOj","Scenes","","null","","","null","","","","","","","","","","","","","","","","","","","","","","","","","","","","","","","","","","","","","","","","","","","",""
"","deliberation","","html-keyboard-response","157","748945","0.0-84.0-1.0","0","0","8biOj","Scenes","","1081","","","68","","","","28","145","100","0","-1","84","58","stephen-leonardi-gyIRjKPXupE-unsplash.jpg","aleksandra-boguslawska-MS7KD9Ti7FQ-unsplash.jpg","3","1","145","100","","","","","","","","","","","","","","","","","","","","","","","","","","","",""
"","choice_confirmation","","html-keyboard-response","158","749451","0.0-84.0-2.0-0.0","0","0","8biOj","Scenes","","null","","","null","","","","28","145","100","","","","","","","","","","","","","","","","","","","","","","","","","","","","","","","","","","","","","",""
"","fixation","","html-keyboard-response","159","750460","0.0-85.0-0.0","0","0","8biOj","Scenes","","null","","","null","","","","","","","","","","","","","","","","","","","","","","","","","","","","","","","","","","","","","","","","","","","",""
"","deliberation","","html-keyboard-response","160","751951","0.0-85.0-1.0","0","0","8biOj","Scenes","","1487","","","75","","","","29","134","110","0","1","67","75","milada-vigerova-pQMM63GE7fo-unsplash.jpg","bruno-van-der-kraan-qez8mNJ3ilU-unsplash.jpg","3","0","110","134","","","","","","","","","","","","","","","","","","","","","","","","","","","",""
"","choice_confirmation","","html-keyboard-response","161","752460","0.0-85.0-2.0-0.0","0","0","8biOj","Scenes","","null","","","null","","","","29","134","110","","","","","","","","","","","","","","","","","","","","","","","","","","","","","","","","","","","","","",""
"","fixation","","html-keyboard-response","162","753468","0.0-86.0-0.0","0","0","8biOj","Scenes","","null","","","null","","","","","","","","","","","","","","","","","","","","","","","","","","","","","","","","","","","","","","","","","","","",""
"","deliberation","","html-keyboard-response","163","754529","0.0-86.0-1.0","0","0","8biOj","Scenes","","1056","","","75","","","","30","106","125","0","-1","64","66","ashim-d-silva-WeYamle9fDM-unsplash.jpg","john-lee-oMneOBYhJxY-unsplash.jpg","3","0","125","106","","","","","","","","","","","","","","","","","","","","","","","","","","","",""
"","choice_confirmation","","html-keyboard-response","164","755036","0.0-86.0-2.0-0.0","0","0","8biOj","Scenes","","null","","","null","","","","30","106","125","","","","","","","","","","","","","","","","","","","","","","","","","","","","","","","","","","","","","",""
"","fixation","","html-keyboard-response","165","756044","0.0-87.0-0.0","0","0","8biOj","Scenes","","null","","","null","","","","","","","","","","","","","","","","","","","","","","","","","","","","","","","","","","","","","","","","","","","",""
"","deliberation","","html-keyboard-response","166","756957","0.0-87.0-1.0","0","0","8biOj","Scenes","","910","","","68","","","","31","142","147","0","1","71","61","sergey-pesterev-y-b_FOmJXdg-unsplash.jpg","tobias-keller-73F4pKoUkM0-unsplash.jpg","3","1","142","147","","","","","","","","","","","","","","","","","","","","","","","","","","","",""
"","choice_confirmation","","html-keyboard-response","167","757468","0.0-87.0-2.0-0.0","0","0","8biOj","Scenes","","null","","","null","","","","31","142","147","","","","","","","","","","","","","","","","","","","","","","","","","","","","","","","","","","","","","",""
"","fixation","","html-keyboard-response","168","758475","0.0-88.0-0.0","0","0","8biOj","Scenes","","null","","","null","","","","","","","","","","","","","","","","","","","","","","","","","","","","","","","","","","","","","","","","","","","",""
"","deliberation","","html-keyboard-response","169","759447","0.0-88.0-1.0","0","0","8biOj","Scenes","","968","","","75","","","","32","126","119","0","-1","58","88","jordan-mcqueen-PJCZOWuOxbU-unsplash.jpg","james-wheeler-AFC0XvICMgs-unsplash.jpg","3","0","119","126","","","","","","","","","","","","","","","","","","","","","","","","","","","",""
"","choice_confirmation","","html-keyboard-response","170","759957","0.0-88.0-2.0-0.0","0","0","8biOj","Scenes","","null","","","null","","","","32","126","119","","","","","","","","","","","","","","","","","","","","","","","","","","","","","","","","","","","","","",""
"","fixation","","html-keyboard-response","171","760964","0.0-89.0-0.0","0","0","8biOj","Scenes","","null","","","null","","","","","","","","","","","","","","","","","","","","","","","","","","","","","","","","","","","","","","","","","","","",""
"","deliberation","","html-keyboard-response","172","761848","0.0-89.0-1.0","0","0","8biOj","Scenes","","880","","","68","","","","33","117","137","0","1","60","61","frank-mckenna-OD9EOzfSOh0-unsplash.jpg","olga-stalska-QaWRyEdlffY-unsplash.jpg","3","1","117","137","","","","","","","","","","","","","","","","","","","","","","","","","","","",""
"","choice_confirmation","","html-keyboard-response","173","762356","0.0-89.0-2.0-0.0","0","0","8biOj","Scenes","","null","","","null","","","","33","117","137","","","","","","","","","","","","","","","","","","","","","","","","","","","","","","","","","","","","","",""
"","fixation","","html-keyboard-response","174","763364","0.0-90.0-0.0","0","0","8biOj","Scenes","","null","","","null","","","","","","","","","","","","","","","","","","","","","","","","","","","","","","","","","","","","","","","","","","","",""
"","deliberation","","html-keyboard-response","175","764235","0.0-90.0-1.0","0","0","8biOj","Scenes","","867","","","75","","","","34","146","131","0","1","58","83","thomas-morse-cuKKa0vWZSY-unsplash.jpg","luca-bravo-hFzIoD0F_i8-unsplash.jpg","3","0","131","146","","","","","","","","","","","","","","","","","","","","","","","","","","","",""
"","choice_confirmation","","html-keyboard-response","176","764740","0.0-90.0-2.0-0.0","0","0","8biOj","Scenes","","null","","","null","","","","34","146","131","","","","","","","","","","","","","","","","","","","","","","","","","","","","","","","","","","","","","",""
"","fixation","","html-keyboard-response","177","765748","0.0-91.0-0.0","0","0","8biOj","Scenes","","null","","","null","","","","","","","","","","","","","","","","","","","","","","","","","","","","","","","","","","","","","","","","","","","",""
"","deliberation","","html-keyboard-response","178","766447","0.0-91.0-1.0","0","0","8biOj","Scenes","","696","","","68","","","","35","114","115","0","1","58","69","daniel-sessler-z_9VmsxR8hs-unsplash.jpg","darrell-cassell-hoCXpPUMCoE-unsplash.jpg","3","1","114","115","","","","","","","","","","","","","","","","","","","","","","","","","","","",""
"","choice_confirmation","","html-keyboard-response","179","766980","0.0-91.0-2.0-0.0","0","0","8biOj","Scenes","","null","","","null","","","","35","114","115","","","","","","","","","","","","","","","","","","","","","","","","","","","","","","","","","","","","","",""
"","reward_learning_instructions","","instructions","180","795407","0.0-92.0-0.0","0","0","8biOj","Scenes","[{""page_index"":0,""viewing_time"":9607},{""page_index"":1,""viewing_time"":16694},{""page_index"":2,""viewing_time"":2122}]","28423","","","","","","","","","","","","","","","","","","","","","","","","","","","","","","","","","","","","","","","","","","","","","","",""
"","reward_comprehension_check","","survey-multi-choice","181","807705","0.0-92.0-1.0","0","0","8biOj","Scenes","","12294","{""Q0"":""True"",""Q1"":""True"",""Q2"":""Press the space bar to see its outcome"",""Q3"":""Press the relevant key while the outcome is presented""}","0","","","","","","","","","","","","","","","","","","","","","","","","","","","","","","","","","","","","","","","","","","","","",""
"","start_phase","","html-keyboard-response","182","809225","0.0-93.0","0","0","8biOj","Scenes","","1515","","","78","","","","","","","","","","","","","","","","","","","","","","","","","","","","","","","","","","","","","","","","","","","",""
"","fixation","","html-keyboard-response","183","810236","0.0-94.0","0","0","8biOj","Scenes","","null","","","null","","","","","","","","","","","","","","","","","","","","","","","","","","","","","","","","","","","","","","","","","","","",""
"","see_reward","","html-keyboard-response","184","811704","0.0-95.0","0","0","8biOj","Scenes","","1465","","","32","","119","","0","","","","-1","","","","","1","","","","","0","1465","","","","","","","","","","","","","","","","","","","","","","","","",""
"","reward_outcome","","html-keyboard-response","185","813716","0.0-96.0","0","0","8biOj","Scenes","","1952","","","40","","119","","0","","","","","","","","","","","","","","","","-1","1952","","","","","","","","","","","","","","","","","","","","","","",""
"","fixation","","html-keyboard-response","186","814723","0.0-99.0","0","0","8biOj","Scenes","","null","","","null","","","","","","","","","","","","","","","","","","","","","","","","","","","","","","","","","","","","","","","","","","","",""
"","see_reward","","html-keyboard-response","187","815701","0.0-100.0","0","0","8biOj","Scenes","","975","","","32","","145","","1","","","","-1","","","","","1","","","","","0","975","","","","","","","","","","","","","","","","","","","","","","","","",""
"","reward_outcome","","html-keyboard-response","188","817708","0.0-101.0","0","0","8biOj","Scenes","","1248","","","40","","145","","1","","","","","","","","","","","","","","","","-1","1248","","","","","","","","","","","","","","","","","","","","","","",""
"","fixation","","html-keyboard-response","189","818716","0.0-104.0","0","0","8biOj","Scenes","","null","","","null","","","","","","","","","","","","","","","","","","","","","","","","","","","","","","","","","","","","","","","","","","","",""
"","see_reward","","html-keyboard-response","190","819648","0.0-105.0","0","0","8biOj","Scenes","","928","","","32","","110","","2","","","","1","","","","","1","","","","","159","928","","","","","","","","","","","","","","","","","","","","","","","","",""
"","reward_outcome","","html-keyboard-response","191","821660","0.0-106.0","0","0","8biOj","Scenes","","1012","","","38","","110","","2","","","","","","","","","","","","","","","","1","1012","","","","","","","","","","","","","","","","","","","","","","",""
"","fixation","","html-keyboard-response","192","822667","0.0-109.0","0","0","8biOj","Scenes","","null","","","null","","","","","","","","","","","","","","","","","","","","","","","","","","","","","","","","","","","","","","","","","","","",""
"","see_reward","","html-keyboard-response","193","823552","0.0-110.0","0","0","8biOj","Scenes","","883","","","32","","143","","3","","","","-1","","","","","1","","","","","0","883","","","","","","","","","","","","","","","","","","","","","","","","",""
"","reward_outcome","","html-keyboard-response","194","825563","0.0-111.0","0","0","8biOj","Scenes","","944","","","40","","143","","3","","","","","","","","","","","","","","","","-1","944","","","","","","","","","","","","","","","","","","","","","","",""
"","fixation","","html-keyboard-response","195","826572","0.0-114.0","0","0","8biOj","Scenes","","null","","","null","","","","","","","","","","","","","","","","","","","","","","","","","","","","","","","","","","","","","","","","","","","",""
"","see_reward","","html-keyboard-response","196","827225","0.0-115.0","0","0","8biOj","Scenes","","649","","","32","","117","","4","","","","1","","","","","1","","","","","156","649","","","","","","","","","","","","","","","","","","","","","","","","",""
"","reward_outcome","","html-keyboard-response","197","829236","0.0-116.0","0","0","8biOj","Scenes","","852","","","38","","117","","4","","","","","","","","","","","","","","","","1","852","","","","","","","","","","","","","","","","","","","","","","",""
"","fixation","","html-keyboard-response","198","830244","0.0-119.0","0","0","8biOj","Scenes","","null","","","null","","","","","","","","","","","","","","","","","","","","","","","","","","","","","","","","","","","","","","","","","","","",""
"","see_reward","","html-keyboard-response","199","831063","0.0-120.0","0","0","8biOj","Scenes","","816","","","32","","101","","5","","","","1","","","","","1","","","","","147","816","","","","","","","","","","","","","","","","","","","","","","","","",""
"","reward_outcome","","html-keyboard-response","200","833068","0.0-121.0","0","0","8biOj","Scenes","","858","","","38","","101","","5","","","","","","","","","","","","","","","","1","858","","","","","","","","","","","","","","","","","","","","","","",""
"","fixation","","html-keyboard-response","201","834076","0.0-124.0","0","0","8biOj","Scenes","","null","","","null","","","","","","","","","","","","","","","","","","","","","","","","","","","","","","","","","","","","","","","","","","","",""
"","see_reward","","html-keyboard-response","202","834733","0.0-125.0","0","0","8biOj","Scenes","","654","","","32","","117","","6","","","","1","","","","","1","","","","","156","654","","","","","","","","","","","","","","","","","","","","","","","","",""
"","reward_outcome","","html-keyboard-response","203","836740","0.0-126.0","0","0","8biOj","Scenes","","825","","","38","","117","","6","","","","","","","","","","","","","","","","1","825","","","","","","","","","","","","","","","","","","","","","","",""
"","fixation","","html-keyboard-response","204","837748","0.0-129.0","0","0","8biOj","Scenes","","null","","","null","","","","","","","","","","","","","","","","","","","","","","","","","","","","","","","","","","","","","","","","","","","",""
"","see_reward","","html-keyboard-response","205","838305","0.0-130.0","0","0","8biOj","Scenes","","553","","","32","","119","","7","","","","-1","","","","","1","","","","","0","553","","","","","","","","","","","","","","","","","","","","","","","","",""
"","reward_outcome","","html-keyboard-response","206","840315","0.0-131.0","0","0","8biOj","Scenes","","479","","","40","","119","","7","","","","","","","","","","","","","","","","-1","479","","","","","","","","","","","","","","","","","","","","","","",""
"","fixation","","html-keyboard-response","207","841324","0.0-134.0","0","0","8biOj","Scenes","","null","","","null","","","","","","","","","","","","","","","","","","","","","","","","","","","","","","","","","","","","","","","","","","","",""
"","see_reward","","html-keyboard-response","208","841915","0.0-135.0","0","0","8biOj","Scenes","","588","","","32","","141","","8","","","","-1","","","","","1","","","","","0","588","","","","","","","","","","","","","","","","","","","","","","","","",""
"","reward_outcome","","html-keyboard-response","209","843924","0.0-136.0","0","0","8biOj","Scenes","","633","","","40","","141","","8","","","","","","","","","","","","","","","","-1","633","","","","","","","","","","","","","","","","","","","","","","",""
"","fixation","","html-keyboard-response","210","844933","0.0-139.0","0","0","8biOj","Scenes","","null","","","null","","","","","","","","","","","","","","","","","","","","","","","","","","","","","","","","","","","","","","","","","","","",""
"","see_reward","","html-keyboard-response","211","845383","0.0-140.0","0","0","8biOj","Scenes","","447","","","32","","145","","9","","","","-1","","","","","1","","","","","0","447","","","","","","","","","","","","","","","","","","","","","","","","",""
"","reward_outcome","","html-keyboard-response","212","847388","0.0-141.0","0","0","8biOj","Scenes","","652","","","40","","145","","9","","","","","","","","","","","","","","","","-1","652","","","","","","","","","","","","","","","","","","","","","","",""
"","fixation","","html-keyboard-response","213","848395","0.0-144.0","0","0","8biOj","Scenes","","null","","","null","","","","","","","","","","","","","","","","","","","","","","","","","","","","","","","","","","","","","","","","","","","",""
"","see_reward","","html-keyboard-response","214","848959","0.0-145.0","0","0","8biOj","Scenes","","560","","","32","","110","","10","","","","1","","","","","1","","","","","159","560","","","","","","","","","","","","","","","","","","","","","","","","",""
"","reward_outcome","","html-keyboard-response","215","850972","0.0-146.0","0","0","8biOj","Scenes","","583","","","38","","110","","10","","","","","","","","","","","","","","","","1","583","","","","","","","","","","","","","","","","","","","","","","",""
"","fixation","","html-keyboard-response","216","851981","0.0-149.0","0","0","8biOj","Scenes","","null","","","null","","","","","","","","","","","","","","","","","","","","","","","","","","","","","","","","","","","","","","","","","","","",""
"","see_reward","","html-keyboard-response","217","852524","0.0-150.0","0","0","8biOj","Scenes","","541","","","32","","101","","11","","","","1","","","","","1","","","","","147","541","","","","","","","","","","","","","","","","","","","","","","","","",""
"","reward_outcome","","html-keyboard-response","218","854531","0.0-151.0","0","0","8biOj","Scenes","","582","","","38","","101","","11","","","","","","","","","","","","","","","","1","582","","","","","","","","","","","","","","","","","","","","","","",""
"","fixation","","html-keyboard-response","219","855540","0.0-154.0","0","0","8biOj","Scenes","","null","","","null","","","","","","","","","","","","","","","","","","","","","","","","","","","","","","","","","","","","","","","","","","","",""
"","see_reward","","html-keyboard-response","220","856186","0.0-155.0","0","0","8biOj","Scenes","","642","","","32","","141","","12","","","","-1","","","","","1","","","","","0","642","","","","","","","","","","","","","","","","","","","","","","","","",""
"","reward_outcome","","html-keyboard-response","221","858196","0.0-156.0","0","0","8biOj","Scenes","","714","","","40","","141","","12","","","","","","","","","","","","","","","","-1","714","","","","","","","","","","","","","","","","","","","","","","",""
"","fixation","","html-keyboard-response","222","859204","0.0-159.0","0","0","8biOj","Scenes","","null","","","null","","","","","","","","","","","","","","","","","","","","","","","","","","","","","","","","","","","","","","","","","","","",""
"","see_reward","","html-keyboard-response","223","859785","0.0-160.0","0","0","8biOj","Scenes","","577","","","32","","142","","13","","","","1","","","","","1","","","","","157","577","","","","","","","","","","","","","","","","","","","","","","","","",""
"","reward_outcome","","html-keyboard-response","224","861795","0.0-161.0","0","0","8biOj","Scenes","","597","","","38","","142","","13","","","","","","","","","","","","","","","","1","597","","","","","","","","","","","","","","","","","","","","","","",""
"","fixation","","html-keyboard-response","225","862803","0.0-164.0","0","0","8biOj","Scenes","","null","","","null","","","","","","","","","","","","","","","","","","","","","","","","","","","","","","","","","","","","","","","","","","","",""
"","see_reward","","html-keyboard-response","226","863373","0.0-165.0","0","0","8biOj","Scenes","","567","","","32","","114","","14","","","","1","","","","","1","","","","","146","567","","","","","","","","","","","","","","","","","","","","","","","","",""
"","reward_outcome","","html-keyboard-response","227","865380","0.0-166.0","0","0","8biOj","Scenes","","530","","","38","","114","","14","","","","","","","","","","","","","","","","1","530","","","","","","","","","","","","","","","","","","","","","","",""
"","fixation","","html-keyboard-response","228","866388","0.0-169.0","0","0","8biOj","Scenes","","null","","","null","","","","","","","","","","","","","","","","","","","","","","","","","","","","","","","","","","","","","","","","","","","",""
"","see_reward","","html-keyboard-response","229","867074","0.0-170.0","0","0","8biOj","Scenes","","684","","","32","","114","","15","","","","1","","","","","1","","","","","146","684","","","","","","","","","","","","","","","","","","","","","","","","",""
"","reward_outcome","","html-keyboard-response","230","869085","0.0-171.0","0","0","8biOj","Scenes","","540","","","38","","114","","15","","","","","","","","","","","","","","","","1","540","","","","","","","","","","","","","","","","","","","","","","",""
"","fixation","","html-keyboard-response","231","870092","0.0-174.0","0","0","8biOj","Scenes","","null","","","null","","","","","","","","","","","","","","","","","","","","","","","","","","","","","","","","","","","","","","","","","","","",""
"","see_reward","","html-keyboard-response","232","870657","0.0-175.0","0","0","8biOj","Scenes","","561","","","32","","142","","16","","","","1","","","","","1","","","","","157","561","","","","","","","","","","","","","","","","","","","","","","","","",""
"","reward_outcome","","html-keyboard-response","233","872668","0.0-176.0","0","0","8biOj","Scenes","","804","","","38","","142","","16","","","","","","","","","","","","","","","","1","804","","","","","","","","","","","","","","","","","","","","","","",""
"","fixation","","html-keyboard-response","234","873675","0.0-179.0","0","0","8biOj","Scenes","","null","","","null","","","","","","","","","","","","","","","","","","","","","","","","","","","","","","","","","","","","","","","","","","","",""
"","see_reward","","html-keyboard-response","235","874552","0.0-180.0","0","0","8biOj","Scenes","","873","","","32","","125","","17","","","","-1","","","","","1","","","","","0","873","","","","","","","","","","","","","","","","","","","","","","","","",""
"","reward_outcome","","html-keyboard-response","236","876564","0.0-181.0","0","0","8biOj","Scenes","","778","","","40","","125","","17","","","","","","","","","","","","","","","","-1","778","","","","","","","","","","","","","","","","","","","","","","",""
"","fixation","","html-keyboard-response","237","877572","0.0-184.0","0","0","8biOj","Scenes","","null","","","null","","","","","","","","","","","","","","","","","","","","","","","","","","","","","","","","","","","","","","","","","","","",""
"","see_reward","","html-keyboard-response","238","878217","0.0-185.0","0","0","8biOj","Scenes","","642","","","32","","131","","18","","","","1","","","","","1","","","","","150","642","","","","","","","","","","","","","","","","","","","","","","","","",""
"","reward_outcome","","html-keyboard-response","239","880229","0.0-186.0","0","0","8biOj","Scenes","","804","","","38","","131","","18","","","","","","","","","","","","","","","","1","804","","","","","","","","","","","","","","","","","","","","","","",""
"","fixation","","html-keyboard-response","240","881236","0.0-189.0","0","0","8biOj","Scenes","","null","","","null","","","","","","","","","","","","","","","","","","","","","","","","","","","","","","","","","","","","","","","","","","","",""
"","see_reward","","html-keyboard-response","241","881701","0.0-190.0","0","0","8biOj","Scenes","","462","","","32","","125","","19","","","","-1","","","","","1","","","","","0","462","","","","","","","","","","","","","","","","","","","","","","","","",""
"","reward_outcome","","html-keyboard-response","242","883708","0.0-191.0","0","0","8biOj","Scenes","","674","","","40","","125","","19","","","","","","","","","","","","","","","","-1","674","","","","","","","","","","","","","","","","","","","","","","",""
"","fixation","","html-keyboard-response","243","884716","0.0-194.0","0","0","8biOj","Scenes","","null","","","null","","","","","","","","","","","","","","","","","","","","","","","","","","","","","","","","","","","","","","","","","","","",""
"","see_reward","","html-keyboard-response","244","885189","0.0-195.0","0","0","8biOj","Scenes","","469","","","32","","116","","20","","","","-1","","","","","1","","","","","0","469","","","","","","","","","","","","","","","","","","","","","","","","",""
"","reward_outcome","","html-keyboard-response","245","887195","0.0-196.0","0","0","8biOj","Scenes","","847","","","40","","116","","20","","","","","","","","","","","","","","","","-1","847","","","","","","","","","","","","","","","","","","","","","","",""
"","fixation","","html-keyboard-response","246","888204","0.0-199.0","0","0","8biOj","Scenes","","null","","","null","","","","","","","","","","","","","","","","","","","","","","","","","","","","","","","","","","","","","","","","","","","",""
"","see_reward","","html-keyboard-response","247","888676","0.0-200.0","0","0","8biOj","Scenes","","468","","","32","","116","","21","","","","-1","","","","","1","","","","","0","468","","","","","","","","","","","","","","","","","","","","","","","","",""
"","reward_outcome","","html-keyboard-response","248","890684","0.0-201.0","0","0","8biOj","Scenes","","732","","","40","","116","","21","","","","","","","","","","","","","","","","-1","732","","","","","","","","","","","","","","","","","","","","","","",""
"","fixation","","html-keyboard-response","249","891692","0.0-204.0","0","0","8biOj","Scenes","","null","","","null","","","","","","","","","","","","","","","","","","","","","","","","","","","","","","","","","","","","","","","","","","","",""
"","see_reward","","html-keyboard-response","250","892380","0.0-205.0","0","0","8biOj","Scenes","","685","","","32","","143","","22","","","","-1","","","","","1","","","","","0","685","","","","","","","","","","","","","","","","","","","","","","","","",""
"","reward_outcome","","html-keyboard-response","251","894387","0.0-206.0","0","0","8biOj","Scenes","","864","","","40","","143","","22","","","","","","","","","","","","","","","","-1","864","","","","","","","","","","","","","","","","","","","","","","",""
"","fixation","","html-keyboard-response","252","895395","0.0-209.0","0","0","8biOj","Scenes","","null","","","null","","","","","","","","","","","","","","","","","","","","","","","","","","","","","","","","","","","","","","","","","","","",""
"","see_reward","","html-keyboard-response","253","895888","0.0-210.0","0","0","8biOj","Scenes","","488","","","32","","131","","23","","","","1","","","","","1","","","","","150","488","","","","","","","","","","","","","","","","","","","","","","","","",""
"","reward_outcome","","html-keyboard-response","254","897900","0.0-211.0","0","0","8biOj","Scenes","","599","","","38","","131","","23","","","","","","","","","","","","","","","","1","599","","","","","","","","","","","","","","","","","","","","","","",""
"","block_over","","html-keyboard-response","255","900755","0.0-213.0-0.0","0","0","8biOj","Scenes","","2852","","","78","","","","","","","","","","","","","","","","","","","","","","","","","","","","","","","","","","","","","","","","","","","",""
"","fixation","","html-keyboard-response","256","901763","0.0-214.0","0","0","8biOj","Scenes","","null","","","null","","","","","","","","","","","","","","","","","","","","","","","","","","","","","","","","","","","","","","","","","","","",""
"","see_reward","","html-keyboard-response","257","903706","0.0-215.0","0","0","8biOj","Scenes","","1938","","","32","","117","","24","","","","1","","","","","2","","","","","156","1938","","","","","","","","","","","","","","","","","","","","","","","","",""
"","reward_outcome","","html-keyboard-response","258","905716","0.0-216.0","0","0","8biOj","Scenes","","734","","","38","","117","","24","","","","","","","","","","","","","","","","1","734","","","","","","","","","","","","","","","","","","","","","","",""
"","fixation","","html-keyboard-response","259","906725","0.0-219.0","0","0","8biOj","Scenes","","null","","","null","","","","","","","","","","","","","","","","","","","","","","","","","","","","","","","","","","","","","","","","","","","",""
"","see_reward","","html-keyboard-response","260","907136","0.0-220.0","0","0","8biOj","Scenes","","407","","","32","","117","","25","","","","1","","","","","2","","","","","156","407","","","","","","","","","","","","","","","","","","","","","","","","",""
"","reward_outcome","","html-keyboard-response","261","909148","0.0-221.0","0","0","8biOj","Scenes","","504","","","38","","117","","25","","","","","","","","","","","","","","","","1","504","","","","","","","","","","","","","","","","","","","","","","",""
"","fixation","","html-keyboard-response","262","910156","0.0-224.0","0","0","8biOj","Scenes","","null","","","null","","","","","","","","","","","","","","","","","","","","","","","","","","","","","","","","","","","","","","","","","","","",""
"","see_reward","","html-keyboard-response","263","910608","0.0-225.0","0","0","8biOj","Scenes","","448","","","32","","143","","26","","","","-1","","","","","2","","","","","0","448","","","","","","","","","","","","","","","","","","","","","","","","",""
"","reward_outcome","","html-keyboard-response","264","912620","0.0-226.0","0","0","8biOj","Scenes","","587","","","40","","143","","26","","","","","","","","","","","","","","","","-1","587","","","","","","","","","","","","","","","","","","","","","","",""
"","fixation","","html-keyboard-response","265","913628","0.0-229.0","0","0","8biOj","Scenes","","null","","","null","","","","","","","","","","","","","","","","","","","","","","","","","","","","","","","","","","","","","","","","","","","",""
"","see_reward","","html-keyboard-response","266","913992","0.0-230.0","0","0","8biOj","Scenes","","360","","","32","","101","","27","","","","1","","","","","2","","","","","147","360","","","","","","","","","","","","","","","","","","","","","","","","",""
"","reward_outcome","","html-keyboard-response","267","916003","0.0-231.0","0","0","8biOj","Scenes","","470","","","38","","101","","27","","","","","","","","","","","","","","","","1","470","","","","","","","","","","","","","","","","","","","","","","",""
"","fixation","","html-keyboard-response","268","917012","0.0-234.0","0","0","8biOj","Scenes","","null","","","null","","","","","","","","","","","","","","","","","","","","","","","","","","","","","","","","","","","","","","","","","","","",""
"","see_reward","","html-keyboard-response","269","917531","0.0-235.0","0","0","8biOj","Scenes","","516","","","32","","110","","28","","","","1","","","","","2","","","","","159","516","","","","","","","","","","","","","","","","","","","","","","","","",""
"","reward_outcome","","html-keyboard-response","270","919540","0.0-236.0","0","0","8biOj","Scenes","","610","","","38","","110","","28","","","","","","","","","","","","","","","","1","610","","","","","","","","","","","","","","","","","","","","","","",""
"","fixation","","html-keyboard-response","271","920548","0.0-239.0","0","0","8biOj","Scenes","","null","","","null","","","","","","","","","","","","","","","","","","","","","","","","","","","","","","","","","","","","","","","","","","","",""
"","see_reward","","html-keyboard-response","272","921075","0.0-240.0","0","0","8biOj","Scenes","","524","","","32","","119","","29","","","","-1","","","","","2","","","","","0","524","","","","","","","","","","","","","","","","","","","","","","","","",""
"","reward_outcome","","html-keyboard-response","273","923083","0.0-241.0","0","0","8biOj","Scenes","","487","","","40","","119","","29","","","","","","","","","","","","","","","","-1","487","","","","","","","","","","","","","","","","","","","","","","",""
"","fixation","","html-keyboard-response","274","924092","0.0-244.0","0","0","8biOj","Scenes","","null","","","null","","","","","","","","","","","","","","","","","","","","","","","","","","","","","","","","","","","","","","","","","","","",""
"","see_reward","","html-keyboard-response","275","924713","0.0-245.0","0","0","8biOj","Scenes","","617","","","32","","131","","30","","","","1","","","","","2","","","","","150","617","","","","","","","","","","","","","","","","","","","","","","","","",""
"","reward_outcome","","html-keyboard-response","276","926724","0.0-246.0","0","0","8biOj","Scenes","","754","","","38","","131","","30","","","","","","","","","","","","","","","","1","754","","","","","","","","","","","","","","","","","","","","","","",""
"","fixation","","html-keyboard-response","277","927732","0.0-249.0","0","0","8biOj","Scenes","","null","","","null","","","","","","","","","","","","","","","","","","","","","","","","","","","","","","","","","","","","","","","","","","","",""
"","see_reward","","html-keyboard-response","278","928420","0.0-250.0","0","0","8biOj","Scenes","","685","","","32","","110","","31","","","","1","","","","","2","","","","","159","685","","","","","","","","","","","","","","","","","","","","","","","","",""
"","reward_outcome","","html-keyboard-response","279","930428","0.0-251.0","0","0","8biOj","Scenes","","639","","","38","","110","","31","","","","","","","","","","","","","","","","1","639","","","","","","","","","","","","","","","","","","","","","","",""
"","fixation","","html-keyboard-response","280","931435","0.0-254.0","0","0","8biOj","Scenes","","null","","","null","","","","","","","","","","","","","","","","","","","","","","","","","","","","","","","","","","","","","","","","","","","",""
"","see_reward","","html-keyboard-response","281","932184","0.0-255.0","0","0","8biOj","Scenes","","745","","","32","","142","","32","","","","1","","","","","2","","","","","157","745","","","","","","","","","","","","","","","","","","","","","","","","",""
"","reward_outcome","","html-keyboard-response","282","934188","0.0-256.0","0","0","8biOj","Scenes","","636","","","38","","142","","32","","","","","","","","","","","","","","","","1","636","","","","","","","","","","","","","","","","","","","","","","",""
"","fixation","","html-keyboard-response","283","935195","0.0-259.0","0","0","8biOj","Scenes","","null","","","null","","","","","","","","","","","","","","","","","","","","","","","","","","","","","","","","","","","","","","","","","","","",""
"","see_reward","","html-keyboard-response","284","935789","0.0-260.0","0","0","8biOj","Scenes","","590","","","32","","141","","33","","","","-1","","","","","2","","","","","0","590","","","","","","","","","","","","","","","","","","","","","","","","",""
"","reward_outcome","","html-keyboard-response","285","937796","0.0-261.0","0","0","8biOj","Scenes","","519","","","40","","141","","33","","","","","","","","","","","","","","","","-1","519","","","","","","","","","","","","","","","","","","","","","","",""
"","fixation","","html-keyboard-response","286","938804","0.0-264.0","0","0","8biOj","Scenes","","null","","","null","","","","","","","","","","","","","","","","","","","","","","","","","","","","","","","","","","","","","","","","","","","",""
"","see_reward","","html-keyboard-response","287","939408","0.0-265.0","0","0","8biOj","Scenes","","600","","","32","","116","","34","","","","-1","","","","","2","","","","","0","600","","","","","","","","","","","","","","","","","","","","","","","","",""
"","reward_outcome","","html-keyboard-response","288","941420","0.0-266.0","0","0","8biOj","Scenes","","540","","","40","","116","","34","","","","","","","","","","","","","","","","-1","540","","","","","","","","","","","","","","","","","","","","","","",""
"","fixation","","html-keyboard-response","289","942428","0.0-269.0","0","0","8biOj","Scenes","","null","","","null","","","","","","","","","","","","","","","","","","","","","","","","","","","","","","","","","","","","","","","","","","","",""
"","see_reward","","html-keyboard-response","290","942993","0.0-270.0","0","0","8biOj","Scenes","","563","","","32","","125","","35","","","","-1","","","","","2","","","","","0","563","","","","","","","","","","","","","","","","","","","","","","","","",""
"","reward_outcome","","html-keyboard-response","291","945004","0.0-271.0","0","0","8biOj","Scenes","","610","","","40","","125","","35","","","","","","","","","","","","","","","","-1","610","","","","","","","","","","","","","","","","","","","","","","",""
"","fixation","","html-keyboard-response","292","946012","0.0-274.0","0","0","8biOj","Scenes","","null","","","null","","","","","","","","","","","","","","","","","","","","","","","","","","","","","","","","","","","","","","","","","","","",""
"","see_reward","","html-keyboard-response","293","946625","0.0-275.0","0","0","8biOj","Scenes","","611","","","32","","119","","36","","","","-1","","","","","2","","","","","0","611","","","","","","","","","","","","","","","","","","","","","","","","",""
"","reward_outcome","","html-keyboard-response","294","948635","0.0-276.0","0","0","8biOj","Scenes","","490","","","40","","119","","36","","","","","","","","","","","","","","","","-1","490","","","","","","","","","","","","","","","","","","","","","","",""
"","fixation","","html-keyboard-response","295","949643","0.0-279.0","0","0","8biOj","Scenes","","null","","","null","","","","","","","","","","","","","","","","","","","","","","","","","","","","","","","","","","","","","","","","","","","",""
"","see_reward","","html-keyboard-response","296","950038","0.0-280.0","0","0","8biOj","Scenes","","390","","","32","","141","","37","","","","-1","","","","","2","","","","","0","390","","","","","","","","","","","","","","","","","","","","","","","","",""
"","reward_outcome","","html-keyboard-response","297","952044","0.0-281.0","0","0","8biOj","Scenes","","600","","","40","","141","","37","","","","","","","","","","","","","","","","-1","600","","","","","","","","","","","","","","","","","","","","","","",""
"","fixation","","html-keyboard-response","298","953051","0.0-284.0","0","0","8biOj","Scenes","","null","","","null","","","","","","","","","","","","","","","","","","","","","","","","","","","","","","","","","","","","","","","","","","","",""
"","see_reward","","html-keyboard-response","299","953615","0.0-285.0","0","0","8biOj","Scenes","","559","","","32","","142","","38","","","","1","","","","","2","","","","","157","559","","","","","","","","","","","","","","","","","","","","","","","","",""
"","reward_outcome","","html-keyboard-response","300","955619","0.0-286.0","0","0","8biOj","Scenes","","450","","","38","","142","","38","","","","","","","","","","","","","","","","1","450","","","","","","","","","","","","","","","","","","","","","","",""
"","fixation","","html-keyboard-response","301","956628","0.0-289.0","0","0","8biOj","Scenes","","null","","","null","","","","","","","","","","","","","","","","","","","","","","","","","","","","","","","","","","","","","","","","","","","",""
"","see_reward","","html-keyboard-response","302","957057","0.0-290.0","0","0","8biOj","Scenes","","426","","","32","","131","","39","","","","1","","","","","2","","","","","150","426","","","","","","","","","","","","","","","","","","","","","","","","",""
"","reward_outcome","","html-keyboard-response","303","959068","0.0-291.0","0","0","8biOj","Scenes","","634","","","38","","131","","39","","","","","","","","","","","","","","","","1","634","","","","","","","","","","","","","","","","","","","","","","",""
"","fixation","","html-keyboard-response","304","960076","0.0-294.0","0","0","8biOj","Scenes","","null","","","null","","","","","","","","","","","","","","","","","","","","","","","","","","","","","","","","","","","","","","","","","","","",""
"","see_reward","","html-keyboard-response","305","960694","0.0-295.0","0","0","8biOj","Scenes","","615","","","32","","114","","40","","","","1","","","","","2","","","","","146","615","","","","","","","","","","","","","","","","","","","","","","","","",""
"","reward_outcome","","html-keyboard-response","306","962700","0.0-296.0","0","0","8biOj","Scenes","","679","","","38","","114","","40","","","","","","","","","","","","","","","","1","679","","","","","","","","","","","","","","","","","","","","","","",""
"","fixation","","html-keyboard-response","307","963708","0.0-299.0","0","0","8biOj","Scenes","","null","","","null","","","","","","","","","","","","","","","","","","","","","","","","","","","","","","","","","","","","","","","","","","","",""
"","see_reward","","html-keyboard-response","308","964403","0.0-300.0","0","0","8biOj","Scenes","","692","","","32","","143","","41","","","","-1","","","","","2","","","","","0","692","","","","","","","","","","","","","","","","","","","","","","","","",""
"","reward_outcome","","html-keyboard-response","309","966413","0.0-301.0","0","0","8biOj","Scenes","","573","","","40","","143","","41","","","","","","","","","","","","","","","","-1","573","","","","","","","","","","","","","","","","","","","","","","",""
"","fixation","","html-keyboard-response","310","967421","0.0-304.0","0","0","8biOj","Scenes","","null","","","null","","","","","","","","","","","","","","","","","","","","","","","","","","","","","","","","","","","","","","","","","","","",""
"","see_reward","","html-keyboard-response","311","968029","0.0-305.0","0","0","8biOj","Scenes","","604","","","32","","145","","42","","","","-1","","","","","2","","","","","0","604","","","","","","","","","","","","","","","","","","","","","","","","",""
"","reward_outcome","","html-keyboard-response","312","970037","0.0-306.0","0","0","8biOj","Scenes","","749","","","40","","145","","42","","","","","","","","","","","","","","","","-1","749","","","","","","","","","","","","","","","","","","","","","","",""
"","fixation","","html-keyboard-response","313","971045","0.0-309.0","0","0","8biOj","Scenes","","null","","","null","","","","","","","","","","","","","","","","","","","","","","","","","","","","","","","","","","","","","","","","","","","",""
"","see_reward","","html-keyboard-response","314","971542","0.0-310.0","0","0","8biOj","Scenes","","494","","","32","","116","","43","","","","-1","","","","","2","","","","","0","494","","","","","","","","","","","","","","","","","","","","","","","","",""
"","reward_outcome","","html-keyboard-response","315","973548","0.0-311.0","0","0","8biOj","Scenes","","566","","","40","","116","","43","","","","","","","","","","","","","","","","-1","566","","","","","","","","","","","","","","","","","","","","","","",""
"","fixation","","html-keyboard-response","316","974557","0.0-314.0","0","0","8biOj","Scenes","","null","","","null","","","","","","","","","","","","","","","","","","","","","","","","","","","","","","","","","","","","","","","","","","","",""
"","see_reward","","html-keyboard-response","317","974969","0.0-315.0","0","0","8biOj","Scenes","","408","","","32","","101","","44","","","","1","","","","","2","","","","","147","408","","","","","","","","","","","","","","","","","","","","","","","","",""
"","reward_outcome","","html-keyboard-response","318","976980","0.0-316.0","0","0","8biOj","Scenes","","538","","","38","","101","","44","","","","","","","","","","","","","","","","1","538","","","","","","","","","","","","","","","","","","","","","","",""
"","fixation","","html-keyboard-response","319","977988","0.0-319.0","0","0","8biOj","Scenes","","null","","","null","","","","","","","","","","","","","","","","","","","","","","","","","","","","","","","","","","","","","","","","","","","",""
"","see_reward","","html-keyboard-response","320","978460","0.0-320.0","0","0","8biOj","Scenes","","469","","","32","","125","","45","","","","-1","","","","","2","","","","","0","469","","","","","","","","","","","","","","","","","","","","","","","","",""
"","reward_outcome","","html-keyboard-response","321","980469","0.0-321.0","0","0","8biOj","Scenes","","475","","","40","","125","","45","","","","","","","","","","","","","","","","-1","475","","","","","","","","","","","","","","","","","","","","","","",""
"","fixation","","html-keyboard-response","322","981476","0.0-324.0","0","0","8biOj","Scenes","","null","","","null","","","","","","","","","","","","","","","","","","","","","","","","","","","","","","","","","","","","","","","","","","","",""
"","see_reward","","html-keyboard-response","323","982018","0.0-325.0","0","0","8biOj","Scenes","","539","","","32","","114","","46","","","","1","","","","","2","","","","","146","539","","","","","","","","","","","","","","","","","","","","","","","","",""
"","reward_outcome","","html-keyboard-response","324","984028","0.0-326.0","0","0","8biOj","Scenes","","471","","","38","","114","","46","","","","","","","","","","","","","","","","1","471","","","","","","","","","","","","","","","","","","","","","","",""
"","fixation","","html-keyboard-response","325","985037","0.0-329.0","0","0","8biOj","Scenes","","null","","","null","","","","","","","","","","","","","","","","","","","","","","","","","","","","","","","","","","","","","","","","","","","",""
"","see_reward","","html-keyboard-response","326","985537","0.0-330.0","0","0","8biOj","Scenes","","497","","","32","","145","","47","","","","-1","","","","","2","","","","","0","497","","","","","","","","","","","","","","","","","","","","","","","","",""
"","reward_outcome","","html-keyboard-response","327","987549","0.0-331.0","0","0","8biOj","Scenes","","515","","","40","","145","","47","","","","","","","","","","","","","","","","-1","515","","","","","","","","","","","","","","","","","","","","","","",""
"","block_over","","html-keyboard-response","328","989530","0.0-333.0-0.0","0","0","8biOj","Scenes","","1978","","","78","","","","","","","","","","","","","","","","","","","","","","","","","","","","","","","","","","","","","","","","","","","",""
"","fixation","","html-keyboard-response","329","990541","0.0-334.0","0","0","8biOj","Scenes","","null","","","null","","","","","","","","","","","","","","","","","","","","","","","","","","","","","","","","","","","","","","","","","","","",""
"","see_reward","","html-keyboard-response","330","991084","0.0-335.0","0","0","8biOj","Scenes","","539","","","32","","119","","48","","","","-1","","","","","3","","","","","0","539","","","","","","","","","","","","","","","","","","","","","","","","",""
"","reward_outcome","","html-keyboard-response","331","993092","0.0-336.0","0","0","8biOj","Scenes","","490","","","40","","119","","48","","","","","","","","","","","","","","","","-1","490","","","","","","","","","","","","","","","","","","","","","","",""
"","fixation","","html-keyboard-response","332","994101","0.0-339.0","0","0","8biOj","Scenes","","null","","","null","","","","","","","","","","","","","","","","","","","","","","","","","","","","","","","","","","","","","","","","","","","",""
"","see_reward","","html-keyboard-response","333","994506","0.0-340.0","0","0","8biOj","Scenes","","401","","","32","","116","","49","","","","-1","","","","","3","","","","","0","401","","","","","","","","","","","","","","","","","","","","","","","","",""
"","reward_outcome","","html-keyboard-response","334","996516","0.0-341.0","0","0","8biOj","Scenes","","428","","","40","","116","","49","","","","","","","","","","","","","","","","-1","428","","","","","","","","","","","","","","","","","","","","","","",""
"","fixation","","html-keyboard-response","335","997524","0.0-344.0","0","0","8biOj","Scenes","","null","","","null","","","","","","","","","","","","","","","","","","","","","","","","","","","","","","","","","","","","","","","","","","","",""
"","see_reward","","html-keyboard-response","336","997884","0.0-345.0","0","0","8biOj","Scenes","","356","","","32","","114","","50","","","","1","","","","","3","","","","","146","356","","","","","","","","","","","","","","","","","","","","","","","","",""
"","reward_outcome","","html-keyboard-response","337","999893","0.0-346.0","0","0","8biOj","Scenes","","515","","","38","","114","","50","","","","","","","","","","","","","","","","1","515","","","","","","","","","","","","","","","","","","","","","","",""
"","fixation","","html-keyboard-response","338","1000900","0.0-349.0","0","0","8biOj","Scenes","","null","","","null","","","","","","","","","","","","","","","","","","","","","","","","","","","","","","","","","","","","","","","","","","","",""
"","see_reward","","html-keyboard-response","339","1001268","0.0-350.0","0","0","8biOj","Scenes","","364","","","32","","142","","51","","","","1","","","","","3","","","","","157","364","","","","","","","","","","","","","","","","","","","","","","","","",""
"","reward_outcome","","html-keyboard-response","340","1003276","0.0-351.0","0","0","8biOj","Scenes","","520","","","38","","142","","51","","","","","","","","","","","","","","","","1","520","","","","","","","","","","","","","","","","","","","","","","",""
"","fixation","","html-keyboard-response","341","1004285","0.0-354.0","0","0","8biOj","Scenes","","null","","","null","","","","","","","","","","","","","","","","","","","","","","","","","","","","","","","","","","","","","","","","","","","",""
"","see_reward","","html-keyboard-response","342","1004719","0.0-355.0","0","0","8biOj","Scenes","","432","","","32","","141","","52","","","","-1","","","","","3","","","","","0","432","","","","","","","","","","","","","","","","","","","","","","","","",""
"","reward_outcome","","html-keyboard-response","343","1006724","0.0-356.0","0","0","8biOj","Scenes","","565","","","40","","141","","52","","","","","","","","","","","","","","","","-1","565","","","","","","","","","","","","","","","","","","","","","","",""
"","fixation","","html-keyboard-response","344","1007733","0.0-359.0","0","0","8biOj","Scenes","","null","","","null","","","","","","","","","","","","","","","","","","","","","","","","","","","","","","","","","","","","","","","","","","","",""
"","see_reward","","html-keyboard-response","345","1008314","0.0-360.0","0","0","8biOj","Scenes","","578","","","32","","110","","53","","","","1","","","","","3","","","","","159","578","","","","","","","","","","","","","","","","","","","","","","","","",""
"","reward_outcome","","html-keyboard-response","346","1010324","0.0-361.0","0","0","8biOj","Scenes","","605","","","38","","110","","53","","","","","","","","","","","","","","","","1","605","","","","","","","","","","","","","","","","","","","","","","",""
"","fixation","","html-keyboard-response","347","1011333","0.0-364.0","0","0","8biOj","Scenes","","null","","","null","","","","","","","","","","","","","","","","","","","","","","","","","","","","","","","","","","","","","","","","","","","",""
"","see_reward","","html-keyboard-response","348","1011716","0.0-365.0","0","0","8biOj","Scenes","","379","","","32","","143","","54","","","","-1","","","","","3","","","","","0","379","","","","","","","","","","","","","","","","","","","","","","","","",""
