"success","ttype","start_time","trial_type","trial_index","time_elapsed","internal_node_id","warning","missed_checkup","PID","stim_type","view_history","rt","responses","category","repeat_instructions","key_press","response","stimulus_id","painting","index","stimulus_left","stimulus_right","explain_trial","reward_type","rating_left","rating_right","painting_left","painting_right","block","left_chosen","chosen_obj","unchosen_obj","explain_response","reward_amount","see_reward_rt","register_reward_response","register_reward_rt","deliberation_reward_tally","stimulus_left_deliberation_ind","stimulus_right_deliberation_ind","chosen_trial","gain_left","higher_outcome_chosen","old_pair","chosen_object","rt_pairs","left_object_chosen","rt_object","old_response","new_rating","deliberated_stim","initial_rating","outcome_eval_rt","outcome_eval_response","outcome_eval_gain","outcome_eval_acc","preamble","outcome_eval_confidence","outcome_eval_confidence_rt","total_reward_tally"
"true","full_screen","d01182023hr1644","fullscreen","0","118207","0.0-0.0","0","0","YJmUD","People","","","","","","","","","","","","","","","","","","","","","","","","","","","","","","","","","","","","","","","","","","","","","","","","","",""
"","rating_instructions","","instructions","1","174418","0.0-1.0-0.0","0","0","YJmUD","People","[{""page_index"":0,""viewing_time"":54297},{""page_index"":1,""viewing_time"":1910}]","56208","","","","","","","","","","","","","","","","","","","","","","","","","","","","","","","","","","","","","","","","","","","","","","","",""
"","","","survey-multi-choice","2","180187","0.0-1.0-1.0","0","0","YJmUD","People","","5754","{""Q0"":""True"",""Q1"":""Mouse""}","rating_comprehension_check","0","","","","","","","","","","","","","","","","","","","","","","","","","","","","","","","","","","","","","","","","","","","","",""
"","start_phase","","html-keyboard-response","3","181617","0.0-2.0","0","0","YJmUD","People","","1419","","","","78","","","","","","","","","","","","","","","","","","","","","","","","","","","","","","","","","","","","","","","","","","","",""
"","rating","","html-slider-response","4","186275","0.0-3.0","0","0","YJmUD","People","","4653","","","","","100","28","justin-chen-J7Cf1Gch49E-unsplash.jpg","0","","","","","","","","","","","","","","","","","","","","","","","","","","","","","","","","","","","","","","","",""
"","rating","","html-slider-response","5","190621","0.0-4.0","0","0","YJmUD","People","","4338","","","","","11","17","gleb-lukomets-paBzWCPN23k-unsplash.jpg","1","","","","","","","","","","","","","","","","","","","","","","","","","","","","","","","","","","","","","","","",""
"","rating","","html-slider-response","6","194753","0.0-5.0","0","0","YJmUD","People","","4125","","","","","77","2","arjunsyah-TBUA5KHJn6k-unsplash.jpg","2","","","","","","","","","","","","","","","","","","","","","","","","","","","","","","","","","","","","","","","",""
"","rating","","html-slider-response","7","200172","0.0-6.0","0","0","YJmUD","People","","5416","","","","","9","38","petr-sevcovic-HzDF-rxlSeM-unsplash.jpg","3","","","","","","","","","","","","","","","","","","","","","","","","","","","","","","","","","","","","","","","",""
"","rating","","html-slider-response","8","203132","0.0-7.0","0","0","YJmUD","People","","2954","","","","","54","25","joseph-gonzalez-iFgRcqHznqg-unsplash.jpg","4","","","","","","","","","","","","","","","","","","","","","","","","","","","","","","","","","","","","","","","",""
"","rating","","html-slider-response","9","210074","0.0-8.0","0","0","YJmUD","People","","6937","","","","","36","24","joel-mott-LaK153ghdig-unsplash.jpg","5","","","","","","","","","","","","","","","","","","","","","","","","","","","","","","","","","","","","","","","",""
"","rating","","html-slider-response","10","216921","0.0-9.0","0","0","YJmUD","People","","6843","","","","","36","0","abstral-official-cyOKLSgkgCE-unsplash.jpg","6","","","","","","","","","","","","","","","","","","","","","","","","","","","","","","","","","","","","","","","",""
"","rating","","html-slider-response","11","221844","0.0-10.0","0","0","YJmUD","People","","4920","","","","","56","30","matheus-ferrero-pg_WCHWSdT8-unsplash.jpg","7","","","","","","","","","","","","","","","","","","","","","","","","","","","","","","","","","","","","","","","",""
"","rating","","html-slider-response","12","233092","0.0-11.0","0","0","YJmUD","People","","11242","","","","","79","7","brooke-cagle-HRZUzoX1e6w-unsplash.jpg","8","","","","","","","","","","","","","","","","","","","","","","","","","","","","","","","","","","","","","","","",""
"","rating","","html-slider-response","13","240068","0.0-12.0","0","0","YJmUD","People","","6969","","","","","86","43","raamin-ka-0qJBEzudn5E-unsplash.jpg","9","","","","","","","","","","","","","","","","","","","","","","","","","","","","","","","","","","","","","","","",""
"","rating","","html-slider-response","14","248866","0.0-13.0","0","0","YJmUD","People","","8792","","","","","63","3","art-hauntington-jzY0KRJopEI-unsplash.jpg","10","","","","","","","","","","","","","","","","","","","","","","","","","","","","","","","","","","","","","","","",""
"","rating","","html-slider-response","15","255298","0.0-14.0","0","0","YJmUD","People","","6427","","","","","24","16","giano-currie-5-9YOsmf8IQ-unsplash.jpg","11","","","","","","","","","","","","","","","","","","","","","","","","","","","","","","","","","","","","","","","",""
"","rating","","html-slider-response","16","258776","0.0-15.0","0","0","YJmUD","People","","3472","","","","","58","29","leilani-angel-K84vnnzxmTQ-unsplash.jpg","12","","","","","","","","","","","","","","","","","","","","","","","","","","","","","","","","","","","","","","","",""
"","rating","","html-slider-response","17","263595","0.0-16.0","0","0","YJmUD","People","","4814","","","","","43","10","charles-etoroma-95UF6LXe-Lo-unsplash.jpg","13","","","","","","","","","","","","","","","","","","","","","","","","","","","","","","","","","","","","","","","",""
"","rating","","html-slider-response","18","292588","0.0-17.0","0","0","YJmUD","People","","28988","","","","","9","18","good-faces-xmSWVeGEnJw-unsplash.jpg","14","","","","","","","","","","","","","","","","","","","","","","","","","","","","","","","","","","","","","","","",""
"","rating","","html-slider-response","19","297759","0.0-18.0","0","0","YJmUD","People","","5167","","","","","19","27","jurica-koletic-7YVZYZeITc8-unsplash.jpg","15","","","","","","","","","","","","","","","","","","","","","","","","","","","","","","","","","","","","","","","",""
"","rating","","html-slider-response","20","333894","0.0-19.0","0","0","YJmUD","People","","36130","","","","","23","47","tyler-nix-ZGa9d1a_4tA-unsplash.jpg","16","","","","","","","","","","","","","","","","","","","","","","","","","","","","","","","","","","","","","","","",""
"","rating","","html-slider-response","21","336604","0.0-20.0","0","0","YJmUD","People","","2705","","","","","39","37","pavel-anoshin-d0peGya6R5Y-unsplash.jpg","17","","","","","","","","","","","","","","","","","","","","","","","","","","","","","","","","","","","","","","","",""
"","rating","","html-slider-response","22","339580","0.0-21.0","0","0","YJmUD","People","","2973","","","","","55","1","aiony-haust-jmATI5Q_YgY-unsplash.jpg","18","","","","","","","","","","","","","","","","","","","","","","","","","","","","","","","","","","","","","","","",""
"","rating","","html-slider-response","23","350431","0.0-22.0","0","0","YJmUD","People","","10847","","","","","50","46","stefan-stefancik-QXevDflbl8A-unsplash.jpg","19","","","","","","","","","","","","","","","","","","","","","","","","","","","","","","","","","","","","","","","",""
"","rating","","html-slider-response","24","368706","0.0-23.0","0","0","YJmUD","People","","18269","","","","","32","45","sarah-noltner-pL5ZzPp1zqg-unsplash.jpg","20","","","","","","","","","","","","","","","","","","","","","","","","","","","","","","","","","","","","","","","",""
"","rating","","html-slider-response","25","373095","0.0-24.0","0","0","YJmUD","People","","4385","","","","","41","36","ospan-ali-mGdA2fzjWLo-unsplash.jpg","21","","","","","","","","","","","","","","","","","","","","","","","","","","","","","","","","","","","","","","","",""
"","rating","","html-slider-response","26","382317","0.0-25.0","0","0","YJmUD","People","","9216","","","","","97","15","gabriel-silverio-u3WmDyKGsrY-unsplash.jpg","22","","","","","","","","","","","","","","","","","","","","","","","","","","","","","","","","","","","","","","","",""
"","rating","","html-slider-response","27","386783","0.0-26.0","0","0","YJmUD","People","","4460","","","","","0","19","ha-nguy-n-OFSQ6bHjFjs-unsplash.jpg","23","","","","","","","","","","","","","","","","","","","","","","","","","","","","","","","","","","","","","","","",""
"","rating","","html-slider-response","28","389822","0.0-27.0","0","0","YJmUD","People","","3032","","","","","41","35","oliver-ragfelt-khV4fTy6-D8-unsplash.jpg","24","","","","","","","","","","","","","","","","","","","","","","","","","","","","","","","","","","","","","","","",""
"","rating","","html-slider-response","29","394907","0.0-28.0","0","0","YJmUD","People","","5082","","","","","61","20","houcine-ncib-B4TjXnI0Y2c-unsplash.jpg","25","","","","","","","","","","","","","","","","","","","","","","","","","","","","","","","","","","","","","","","",""
"","rating","","html-slider-response","30","409534","0.0-29.0","0","0","YJmUD","People","","14622","","","","","76","13","erik-lucatero-d2MSDujJl2g-unsplash.jpg","26","","","","","","","","","","","","","","","","","","","","","","","","","","","","","","","","","","","","","","","",""
"","rating","","html-slider-response","31","418945","0.0-30.0","0","0","YJmUD","People","","9407","","","","","73","6","ben-o-bro-C5XyLljkMrY-unsplash.jpg","27","","","","","","","","","","","","","","","","","","","","","","","","","","","","","","","","","","","","","","","",""
"","rating","","html-slider-response","32","423017","0.0-31.0","0","0","YJmUD","People","","4068","","","","","25","14","freddy-kearney-o-ioeoATbIM-unsplash.jpg","28","","","","","","","","","","","","","","","","","","","","","","","","","","","","","","","","","","","","","","","",""
"","rating","","html-slider-response","33","453532","0.0-32.0","0","0","YJmUD","People","","30509","","","","","82","11","christian-ferrer-8vT-DgHZDG4-unsplash.jpg","29","","","","","","","","","","","","","","","","","","","","","","","","","","","","","","","","","","","","","","","",""
"","rating","","html-slider-response","34","457015","0.0-33.0","0","0","YJmUD","People","","3473","","","","","45","49","vicky-hladynets-_gDoyVv5F4c-unsplash.jpg","30","","","","","","","","","","","","","","","","","","","","","","","","","","","","","","","","","","","","","","","",""
"","rating","","html-slider-response","35","461592","0.0-34.0","0","0","YJmUD","People","","4575","","","","","24","8","bruce-dixon-3M9WJQVHzog-unsplash.jpg","31","","","","","","","","","","","","","","","","","","","","","","","","","","","","","","","","","","","","","","","",""
"","rating","","html-slider-response","36","468294","0.0-35.0","0","0","YJmUD","People","","6698","","","","","59","22","jessica-radanavong-mrYkTuAesKE-unsplash.jpg","32","","","","","","","","","","","","","","","","","","","","","","","","","","","","","","","","","","","","","","","",""
"","rating","","html-slider-response","37","506818","0.0-36.0","0","0","YJmUD","People","","38519","","","","","100","41","prince-akachi-i2hoD-C2RUA-unsplash.jpg","33","","","","","","","","","","","","","","","","","","","","","","","","","","","","","","","","","","","","","","","",""
"","rating","","html-slider-response","38","511489","0.0-37.0","0","0","YJmUD","People","","4666","","","","","42","33","olena-sergienko-0TSd6uCKTKc-unsplash.jpg","34","","","","","","","","","","","","","","","","","","","","","","","","","","","","","","","","","","","","","","","",""
"","rating","","html-slider-response","39","514894","0.0-38.0","0","0","YJmUD","People","","3400","","","","","66","44","rikonavt-HQjfrvdTfak-unsplash.jpg","35","","","","","","","","","","","","","","","","","","","","","","","","","","","","","","","","","","","","","","","",""
"","rating","","html-slider-response","40","521898","0.0-39.0","0","0","YJmUD","People","","6999","","","","","36","12","daniel-rigdon-dXmXKPP2L4E-unsplash.jpg","36","","","","","","","","","","","","","","","","","","","","","","","","","","","","","","","","","","","","","","","",""
"","rating","","html-slider-response","41","526233","0.0-40.0","0","0","YJmUD","People","","4328","","","","","86","32","nathan-dumlao-ger61_TX6oI-unsplash.jpg","37","","","","","","","","","","","","","","","","","","","","","","","","","","","","","","","","","","","","","","","",""
"","rating","","html-slider-response","42","546987","0.0-41.0","0","0","YJmUD","People","","20747","","","","","74","23","joanna-nix-walkup-H4fEMshfwTE-unsplash.jpg","38","","","","","","","","","","","","","","","","","","","","","","","","","","","","","","","","","","","","","","","",""
"","rating","","html-slider-response","43","551220","0.0-42.0","0","0","YJmUD","People","","4226","","","","","35","48","velizar-ivanov-7ktP9yZA1g4-unsplash.jpg","39","","","","","","","","","","","","","","","","","","","","","","","","","","","","","","","","","","","","","","","",""
"","rating","","html-slider-response","44","555102","0.0-43.0","0","0","YJmUD","People","","3878","","","","","17","42","prince-akachi-l3IHXOdMyHQ-unsplash.jpg","40","","","","","","","","","","","","","","","","","","","","","","","","","","","","","","","","","","","","","","","",""
"","rating","","html-slider-response","45","558471","0.0-44.0","0","0","YJmUD","People","","3365","","","","","100","40","prince-akachi-4Yv84VgQkRM-unsplash.jpg","41","","","","","","","","","","","","","","","","","","","","","","","","","","","","","","","","","","","","","","","",""
"","rating","","html-slider-response","46","562719","0.0-45.0","0","0","YJmUD","People","","4242","","","","","73","31","mathilda-khoo-vLR0YP_otCo-unsplash.jpg","42","","","","","","","","","","","","","","","","","","","","","","","","","","","","","","","","","","","","","","","",""
"","rating","","html-slider-response","47","570684","0.0-46.0","0","0","YJmUD","People","","7958","","","","","30","9","carlos-andres-gomez-vJuk8Y86mRw-unsplash.jpg","43","","","","","","","","","","","","","","","","","","","","","","","","","","","","","","","","","","","","","","","",""
"","rating","","html-slider-response","48","573295","0.0-47.0","0","0","YJmUD","People","","2605","","","","","21","34","oliver-johnson-1TUIcKob7Zs-unsplash.jpg","44","","","","","","","","","","","","","","","","","","","","","","","","","","","","","","","","","","","","","","","",""
"","rating","","html-slider-response","49","579561","0.0-48.0","0","0","YJmUD","People","","6259","","","","","91","21","jessica-felicio-_cvwXhGqG-o-unsplash.jpg","45","","","","","","","","","","","","","","","","","","","","","","","","","","","","","","","","","","","","","","","",""
"","rating","","html-slider-response","50","593230","0.0-49.0","0","0","YJmUD","People","","13661","","","","","100","26","juri-gianfrancesco-9EZadYaMzk4-unsplash.jpg","46","","","","","","","","","","","","","","","","","","","","","","","","","","","","","","","","","","","","","","","",""
"","rating","","html-slider-response","51","597287","0.0-50.0","0","0","YJmUD","People","","4050","","","","","0","5","batel-studio-ttSRjiYG_WM-unsplash.jpg","47","","","","","","","","","","","","","","","","","","","","","","","","","","","","","","","","","","","","","","","",""
"","rating","","html-slider-response","52","603013","0.0-51.0","0","0","YJmUD","People","","5720","","","","","63","4","barna-bartis-2x3vfVxwR7o-unsplash.jpg","48","","","","","","","","","","","","","","","","","","","","","","","","","","","","","","","","","","","","","","","",""
"","rating","","html-slider-response","53","606648","0.0-52.0","0","0","YJmUD","People","","3629","","","","","61","39","philip-martin-5aGUyCW_PJw-unsplash.jpg","49","","","","","","","","","","","","","","","","","","","","","","","","","","","","","","","","","","","","","","","",""
"","deliberation_instructions","","instructions","54","1138727","0.0-53.0-0.0","0","0","YJmUD","People","[{""page_index"":0,""viewing_time"":433632},{""page_index"":1,""viewing_time"":9732},{""page_index"":2,""viewing_time"":12211},{""page_index"":3,""viewing_time"":9619},{""page_index"":4,""viewing_time"":66870}]","532065","","","","","","","","","","","","","","","","","","","","","","","","","","","","","","","","","","","","","","","","","","","","","","","",""
"","","","survey-multi-choice","55","1217149","0.0-53.0-1.0","0","0","YJmUD","People","","78402","{""Q0"":""True"",""Q1"":""True"",""Q2"":""Consider carefully and take your time (up to 10 seconds)"",""Q3"":""True"",""Q4"":""D""}","deliberation_comprehension_check","0","","","","","","","","","","","","","","","","","","","","","","","","","","","","","","","","","","","","","","","","","","","","",""
"","start_phase","","html-keyboard-response","56","1253067","0.0-54.0","0","0","YJmUD","People","","35913","","","","78","","","","","","","","","","","","","","","","","","","","","","","","","","","","","","","","","","","","","","","","","","","",""
"","first_deliberation_block","","html-keyboard-response","57","1254119","0.0-55.0","0","0","YJmUD","People","","1049","","","","78","","","","","","","","","","","","","","","","","","","","","","","","","","","","","","","","","","","","","","","","","","","",""
"","fixation","","html-keyboard-response","58","1255134","0.0-56.0-0.0","0","0","YJmUD","People","","null","","","","null","","","","","","","","","","","","","","","","","","","","","","","","","","","","","","","","","","","","","","","","","","","",""
"","deliberation","","html-keyboard-response","59","1256462","0.0-56.0-1.0","0","0","YJmUD","People","","1318","","","","75","","","","0","36","31","1","-1","41","73","ospan-ali-mGdA2fzjWLo-unsplash.jpg","mathilda-khoo-vLR0YP_otCo-unsplash.jpg","1","0","31","36","","","","","","","","","","","","","","","","","","","","","","","","","","","",""
"","choice_confirmation","","html-keyboard-response","60","1256982","0.0-56.0-2.0-0.0","0","0","YJmUD","People","","null","","","","null","","","","0","36","31","","","","","","","","","","","","","","","","","","","","","","","","","","","","","","","","","","","","","",""
"","explain_trial","","survey-text","61","1312901","0.0-56.0-5.0-0.0","0","0","YJmUD","People","","55909","{""Q0"":""It looks more dramatic, like it has more of a story behind it.""}","","","","","","","0","36","31","","","","","","","","","","","{""Q0"":""It looks more dramatic, like it has more of a story behind it.""}","","","","","","","","","","","","","","","","","","","","","","","","","","",""
"","fixation","","html-keyboard-response","62","1313918","0.0-57.0-0.0","0","0","YJmUD","People","","null","","","","null","","","","","","","","","","","","","","","","","","","","","","","","","","","","","","","","","","","","","","","","","","","",""
"","deliberation","","html-keyboard-response","63","1318877","0.0-57.0-1.0","0","0","YJmUD","People","","4954","","","","75","","","","1","20","37","1","-1","61","39","houcine-ncib-B4TjXnI0Y2c-unsplash.jpg","pavel-anoshin-d0peGya6R5Y-unsplash.jpg","1","0","37","20","","","","","","","","","","","","","","","","","","","","","","","","","","","",""
"","choice_confirmation","","html-keyboard-response","64","1319396","0.0-57.0-2.0-0.0","0","0","YJmUD","People","","null","","","","null","","","","1","20","37","","","","","","","","","","","","","","","","","","","","","","","","","","","","","","","","","","","","","",""
"","explain_trial","","survey-text","65","1337906","0.0-57.0-5.0-0.0","0","0","YJmUD","People","","18505","{""Q0"":""It just looks better to me""}","","","","","","","1","20","37","","","","","","","","","","","{""Q0"":""It just looks better to me""}","","","","","","","","","","","","","","","","","","","","","","","","","","",""
"","fixation","","html-keyboard-response","66","1338928","0.0-58.0-0.0","0","0","YJmUD","People","","null","","","","null","","","","","","","","","","","","","","","","","","","","","","","","","","","","","","","","","","","","","","","","","","","",""
"","deliberation","","html-keyboard-response","67","1348943","0.0-58.0-1.0","0","0","YJmUD","People","","null","","","","null","","","","2","49","45","0","-1","45","32","vicky-hladynets-_gDoyVv5F4c-unsplash.jpg","sarah-noltner-pL5ZzPp1zqg-unsplash.jpg","1","","","","","","","","","","","","","","","","","","","","","","","","","","","","","","",""
"","deliberation_too_slow","","html-keyboard-response","68","1350458","0.0-58.0-4.0-0.0","1","0","YJmUD","People","","null","","","","null","","","","2","","","","","","","","","","","","","","","","","","","","","","","","","","","","","","","","","","","","","","","",""
"","fixation","","html-keyboard-response","69","1351479","0.0-58.1-0.1","0","0","YJmUD","People","","null","","","","null","","","","","","","","","","","","","","","","","","","","","","","","","","","","","","","","","","","","","","","","","","","",""
"","deliberation","","html-keyboard-response","70","1353763","0.0-58.1-1.1","0","0","YJmUD","People","","2280","","","","68","","","","2","49","45","0","-1","45","32","vicky-hladynets-_gDoyVv5F4c-unsplash.jpg","sarah-noltner-pL5ZzPp1zqg-unsplash.jpg","1","1","49","45","","","","","","","","","","","","","","","","","","","","","","","","","","","",""
"","choice_confirmation","","html-keyboard-response","71","1354270","0.0-58.1-2.1-0.1","0","0","YJmUD","People","","null","","","","null","","","","2","49","45","","","","","","","","","","","","","","","","","","","","","","","","","","","","","","","","","","","","","",""
"","fixation","","html-keyboard-response","72","1355277","0.0-59.0-0.0","0","0","YJmUD","People","","null","","","","null","","","","","","","","","","","","","","","","","","","","","","","","","","","","","","","","","","","","","","","","","","","",""
"","deliberation","","html-keyboard-response","73","1357283","0.0-59.0-1.0","0","0","YJmUD","People","","2002","","","","68","","","","3","44","4","0","-1","66","63","rikonavt-HQjfrvdTfak-unsplash.jpg","barna-bartis-2x3vfVxwR7o-unsplash.jpg","1","1","44","4","","","","","","","","","","","","","","","","","","","","","","","","","","","",""
"","choice_confirmation","","html-keyboard-response","74","1357792","0.0-59.0-2.0-0.0","0","0","YJmUD","People","","null","","","","null","","","","3","44","4","","","","","","","","","","","","","","","","","","","","","","","","","","","","","","","","","","","","","",""
"","fixation","","html-keyboard-response","75","1358799","0.0-60.0-0.0","0","0","YJmUD","People","","null","","","","null","","","","","","","","","","","","","","","","","","","","","","","","","","","","","","","","","","","","","","","","","","","",""
"","deliberation","","html-keyboard-response","76","1360832","0.0-60.0-1.0","0","0","YJmUD","People","","2028","","","","75","","","","4","35","22","0","1","41","59","oliver-ragfelt-khV4fTy6-D8-unsplash.jpg","jessica-radanavong-mrYkTuAesKE-unsplash.jpg","1","0","22","35","","","","","","","","","","","","","","","","","","","","","","","","","","","",""
"","choice_confirmation","","html-keyboard-response","77","1361342","0.0-60.0-2.0-0.0","0","0","YJmUD","People","","null","","","","null","","","","4","35","22","","","","","","","","","","","","","","","","","","","","","","","","","","","","","","","","","","","","","",""
"","fixation","","html-keyboard-response","78","1362359","0.0-61.0-0.0","0","0","YJmUD","People","","null","","","","null","","","","","","","","","","","","","","","","","","","","","","","","","","","","","","","","","","","","","","","","","","","",""
"","deliberation","","html-keyboard-response","79","1364986","0.0-61.0-1.0","0","0","YJmUD","People","","2623","","","","75","","","","5","3","6","0","-1","63","73","art-hauntington-jzY0KRJopEI-unsplash.jpg","ben-o-bro-C5XyLljkMrY-unsplash.jpg","1","0","6","3","","","","","","","","","","","","","","","","","","","","","","","","","","","",""
"","choice_confirmation","","html-keyboard-response","80","1365500","0.0-61.0-2.0-0.0","0","0","YJmUD","People","","null","","","","null","","","","5","3","6","","","","","","","","","","","","","","","","","","","","","","","","","","","","","","","","","","","","","",""
"","fixation","","html-keyboard-response","81","1366524","0.0-62.0-0.0","0","0","YJmUD","People","","null","","","","null","","","","","","","","","","","","","","","","","","","","","","","","","","","","","","","","","","","","","","","","","","","",""
"","deliberation","","html-keyboard-response","82","1368305","0.0-62.0-1.0","0","0","YJmUD","People","","1776","","","","75","","","","6","1","33","0","-1","55","42","aiony-haust-jmATI5Q_YgY-unsplash.jpg","olena-sergienko-0TSd6uCKTKc-unsplash.jpg","1","0","33","1","","","","","","","","","","","","","","","","","","","","","","","","","","","",""
"","choice_confirmation","","html-keyboard-response","83","1368820","0.0-62.0-2.0-0.0","0","0","YJmUD","People","","null","","","","null","","","","6","1","33","","","","","","","","","","","","","","","","","","","","","","","","","","","","","","","","","","","","","",""
"","fixation","","html-keyboard-response","84","1369844","0.0-63.0-0.0","0","0","YJmUD","People","","null","","","","null","","","","","","","","","","","","","","","","","","","","","","","","","","","","","","","","","","","","","","","","","","","",""
"","deliberation","","html-keyboard-response","85","1371513","0.0-63.0-1.0","0","0","YJmUD","People","","1666","","","","75","","","","7","48","30","1","1","35","56","velizar-ivanov-7ktP9yZA1g4-unsplash.jpg","matheus-ferrero-pg_WCHWSdT8-unsplash.jpg","1","0","30","48","","","","","","","","","","","","","","","","","","","","","","","","","","","",""
"","choice_confirmation","","html-keyboard-response","86","1372027","0.0-63.0-2.0-0.0","0","0","YJmUD","People","","null","","","","null","","","","7","48","30","","","","","","","","","","","","","","","","","","","","","","","","","","","","","","","","","","","","","",""
"","explain_trial","","survey-text","87","1389332","0.0-63.0-5.0-0.0","0","0","YJmUD","People","","17300","{""Q0"":""I like the greenery better with this photograph""}","","","","","","","7","48","30","","","","","","","","","","","{""Q0"":""I like the greenery better with this photograph""}","","","","","","","","","","","","","","","","","","","","","","","","","","",""
"","fixation","","html-keyboard-response","88","1390350","0.0-64.0-0.0","0","0","YJmUD","People","","null","","","","null","","","","","","","","","","","","","","","","","","","","","","","","","","","","","","","","","","","","","","","","","","","",""
"","deliberation","","html-keyboard-response","89","1394862","0.0-64.0-1.0","0","0","YJmUD","People","","4508","","","","68","","","","8","0","25","1","1","36","54","abstral-official-cyOKLSgkgCE-unsplash.jpg","joseph-gonzalez-iFgRcqHznqg-unsplash.jpg","1","1","0","25","","","","","","","","","","","","","","","","","","","","","","","","","","","",""
"","choice_confirmation","","html-keyboard-response","90","1395378","0.0-64.0-2.0-0.0","0","0","YJmUD","People","","null","","","","null","","","","8","0","25","","","","","","","","","","","","","","","","","","","","","","","","","","","","","","","","","","","","","",""
"","explain_trial","","survey-text","91","1421964","0.0-64.0-5.0-0.0","0","0","YJmUD","People","","26581","{""Q0"":""I like that it looks like it has an outdoor background""}","","","","","","","8","0","25","","","","","","","","","","","{""Q0"":""I like that it looks like it has an outdoor background""}","","","","","","","","","","","","","","","","","","","","","","","","","","",""
"","fixation","","html-keyboard-response","92","1422985","0.0-65.0-0.0","0","0","YJmUD","People","","null","","","","null","","","","","","","","","","","","","","","","","","","","","","","","","","","","","","","","","","","","","","","","","","","",""
"","deliberation","","html-keyboard-response","93","1428056","0.0-65.0-1.0","0","0","YJmUD","People","","5065","","","","68","","","","9","46","12","1","1","50","36","stefan-stefancik-QXevDflbl8A-unsplash.jpg","daniel-rigdon-dXmXKPP2L4E-unsplash.jpg","1","1","46","12","","","","","","","","","","","","","","","","","","","","","","","","","","","",""
"","choice_confirmation","","html-keyboard-response","94","1428577","0.0-65.0-2.0-0.0","0","0","YJmUD","People","","null","","","","null","","","","9","46","12","","","","","","","","","","","","","","","","","","","","","","","","","","","","","","","","","","","","","",""
"","explain_trial","","survey-text","95","1441523","0.0-65.0-5.0-0.0","0","0","YJmUD","People","","12941","{""Q0"":""I think it has good color tones""}","","","","","","","9","46","12","","","","","","","","","","","{""Q0"":""I think it has good color tones""}","","","","","","","","","","","","","","","","","","","","","","","","","","",""
"","fixation","","html-keyboard-response","96","1442530","0.0-66.0-0.0","0","0","YJmUD","People","","null","","","","null","","","","","","","","","","","","","","","","","","","","","","","","","","","","","","","","","","","","","","","","","","","",""
"","deliberation","","html-keyboard-response","97","1447623","0.0-66.0-1.0","0","0","YJmUD","People","","5088","","","","68","","","","10","24","29","0","1","36","58","joel-mott-LaK153ghdig-unsplash.jpg","leilani-angel-K84vnnzxmTQ-unsplash.jpg","1","1","24","29","","","","","","","","","","","","","","","","","","","","","","","","","","","",""
"","choice_confirmation","","html-keyboard-response","98","1448137","0.0-66.0-2.0-0.0","0","0","YJmUD","People","","null","","","","null","","","","10","24","29","","","","","","","","","","","","","","","","","","","","","","","","","","","","","","","","","","","","","",""
"","fixation","","html-keyboard-response","99","1449155","0.0-67.0-0.0","0","0","YJmUD","People","","null","","","","null","","","","","","","","","","","","","","","","","","","","","","","","","","","","","","","","","","","","","","","","","","","",""
"","deliberation","","html-keyboard-response","100","1451330","0.0-67.0-1.0","0","0","YJmUD","People","","2170","","","","68","","","","11","39","10","1","1","61","43","philip-martin-5aGUyCW_PJw-unsplash.jpg","charles-etoroma-95UF6LXe-Lo-unsplash.jpg","1","1","39","10","","","","","","","","","","","","","","","","","","","","","","","","","","","",""
"","choice_confirmation","","html-keyboard-response","101","1451834","0.0-67.0-2.0-0.0","0","0","YJmUD","People","","null","","","","null","","","","11","39","10","","","","","","","","","","","","","","","","","","","","","","","","","","","","","","","","","","","","","",""
"","explain_trial","","survey-text","102","1485108","0.0-67.0-5.0-0.0","0","0","YJmUD","People","","33269","{""Q0"":""I love the background of this one and his outfit in it is perfect""}","","","","","","","11","39","10","","","","","","","","","","","{""Q0"":""I love the background of this one and his outfit in it is perfect""}","","","","","","","","","","","","","","","","","","","","","","","","","","",""
"","practice_deliberation_again","","html-keyboard-response","103","1486760","0.0-67.0-6.0-0.0","0","0","YJmUD","People","","1646","","","","78","","","","","","","","","","","","","","","","","","","","","","","","","","","","","","","","","","","","","","","","","","","",""
"","fixation","","html-keyboard-response","104","1487769","0.0-68.0-0.0","0","0","YJmUD","People","","null","","","","null","","","","","","","","","","","","","","","","","","","","","","","","","","","","","","","","","","","","","","","","","","","",""
"","deliberation","","html-keyboard-response","105","1490330","0.0-68.0-1.0","0","0","YJmUD","People","","2553","","","","68","","","","12","0","25","0","1","36","54","abstral-official-cyOKLSgkgCE-unsplash.jpg","joseph-gonzalez-iFgRcqHznqg-unsplash.jpg","2","1","0","25","","","","","","","","","","","","","","","","","","","","","","","","","","","",""
"","choice_confirmation","","html-keyboard-response","106","1490852","0.0-68.0-2.0-0.0","0","0","YJmUD","People","","null","","","","null","","","","12","0","25","","","","","","","","","","","","","","","","","","","","","","","","","","","","","","","","","","","","","",""
"","fixation","","html-keyboard-response","107","1491874","0.0-69.0-0.0","0","0","YJmUD","People","","null","","","","null","","","","","","","","","","","","","","","","","","","","","","","","","","","","","","","","","","","","","","","","","","","",""
"","deliberation","","html-keyboard-response","108","1493094","0.0-69.0-1.0","0","0","YJmUD","People","","1214","","","","68","","","","13","39","10","0","1","61","43","philip-martin-5aGUyCW_PJw-unsplash.jpg","charles-etoroma-95UF6LXe-Lo-unsplash.jpg","2","1","39","10","","","","","","","","","","","","","","","","","","","","","","","","","","","",""
"","choice_confirmation","","html-keyboard-response","109","1493607","0.0-69.0-2.0-0.0","0","0","YJmUD","People","","null","","","","null","","","","13","39","10","","","","","","","","","","","","","","","","","","","","","","","","","","","","","","","","","","","","","",""
"","fixation","","html-keyboard-response","110","1494629","0.0-70.0-0.0","0","0","YJmUD","People","","null","","","","null","","","","","","","","","","","","","","","","","","","","","","","","","","","","","","","","","","","","","","","","","","","",""
"","deliberation","","html-keyboard-response","111","1495815","0.0-70.0-1.0","0","0","YJmUD","People","","1180","","","","75","","","","14","1","33","1","-1","55","42","aiony-haust-jmATI5Q_YgY-unsplash.jpg","olena-sergienko-0TSd6uCKTKc-unsplash.jpg","2","0","33","1","","","","","","","","","","","","","","","","","","","","","","","","","","","",""
"","choice_confirmation","","html-keyboard-response","112","1496335","0.0-70.0-2.0-0.0","0","0","YJmUD","People","","null","","","","null","","","","14","1","33","","","","","","","","","","","","","","","","","","","","","","","","","","","","","","","","","","","","","",""
"","explain_trial","","survey-text","113","1506736","0.0-70.0-5.0-0.0","0","0","YJmUD","People","","10392","{""Q0"":""I just think it looks better\n""}","","","","","","","14","1","33","","","","","","","","","","","{""Q0"":""I just think it looks better\n""}","","","","","","","","","","","","","","","","","","","","","","","","","","",""
"","fixation","","html-keyboard-response","114","1507756","0.0-71.0-0.0","0","0","YJmUD","People","","null","","","","null","","","","","","","","","","","","","","","","","","","","","","","","","","","","","","","","","","","","","","","","","","","",""
"","deliberation","","html-keyboard-response","115","1510734","0.0-71.0-1.0","0","0","YJmUD","People","","2972","","","","75","","","","15","3","6","1","-1","63","73","art-hauntington-jzY0KRJopEI-unsplash.jpg","ben-o-bro-C5XyLljkMrY-unsplash.jpg","2","0","6","3","","","","","","","","","","","","","","","","","","","","","","","","","","","",""
"","choice_confirmation","","html-keyboard-response","116","1511252","0.0-71.0-2.0-0.0","0","0","YJmUD","People","","null","","","","null","","","","15","3","6","","","","","","","","","","","","","","","","","","","","","","","","","","","","","","","","","","","","","",""
"","explain_trial","","survey-text","117","1532868","0.0-71.0-5.0-0.0","0","0","YJmUD","People","","21609","{""Q0"":""It makes me feel like I want to know his story""}","","","","","","","15","3","6","","","","","","","","","","","{""Q0"":""It makes me feel like I want to know his story""}","","","","","","","","","","","","","","","","","","","","","","","","","","",""
"","fixation","","html-keyboard-response","118","1533883","0.0-72.0-0.0","0","0","YJmUD","People","","null","","","","null","","","","","","","","","","","","","","","","","","","","","","","","","","","","","","","","","","","","","","","","","","","",""
"","deliberation","","html-keyboard-response","119","1536143","0.0-72.0-1.0","0","0","YJmUD","People","","2257","","","","68","","","","16","46","12","0","1","50","36","stefan-stefancik-QXevDflbl8A-unsplash.jpg","daniel-rigdon-dXmXKPP2L4E-unsplash.jpg","2","1","46","12","","","","","","","","","","","","","","","","","","","","","","","","","","","",""
"","choice_confirmation","","html-keyboard-response","120","1536659","0.0-72.0-2.0-0.0","0","0","YJmUD","People","","null","","","","null","","","","16","46","12","","","","","","","","","","","","","","","","","","","","","","","","","","","","","","","","","","","","","",""
"","fixation","","html-keyboard-response","121","1537684","0.0-73.0-0.0","0","0","YJmUD","People","","null","","","","null","","","","","","","","","","","","","","","","","","","","","","","","","","","","","","","","","","","","","","","","","","","",""
"","deliberation","","html-keyboard-response","122","1539444","0.0-73.0-1.0","0","0","YJmUD","People","","1756","","","","75","","","","17","36","31","0","-1","41","73","ospan-ali-mGdA2fzjWLo-unsplash.jpg","mathilda-khoo-vLR0YP_otCo-unsplash.jpg","2","0","31","36","","","","","","","","","","","","","","","","","","","","","","","","","","","",""
"","choice_confirmation","","html-keyboard-response","123","1539966","0.0-73.0-2.0-0.0","0","0","YJmUD","People","","null","","","","null","","","","17","36","31","","","","","","","","","","","","","","","","","","","","","","","","","","","","","","","","","","","","","",""
"","fixation","","html-keyboard-response","124","1540985","0.0-74.0-0.0","0","0","YJmUD","People","","null","","","","null","","","","","","","","","","","","","","","","","","","","","","","","","","","","","","","","","","","","","","","","","","","",""
"","deliberation","","html-keyboard-response","125","1542217","0.0-74.0-1.0","0","0","YJmUD","People","","1226","","","","75","","","","18","20","37","0","-1","61","39","houcine-ncib-B4TjXnI0Y2c-unsplash.jpg","pavel-anoshin-d0peGya6R5Y-unsplash.jpg","2","0","37","20","","","","","","","","","","","","","","","","","","","","","","","","","","","",""
"","choice_confirmation","","html-keyboard-response","126","1542732","0.0-74.0-2.0-0.0","0","0","YJmUD","People","","null","","","","null","","","","18","20","37","","","","","","","","","","","","","","","","","","","","","","","","","","","","","","","","","","","","","",""
"","fixation","","html-keyboard-response","127","1543754","0.0-75.0-0.0","0","0","YJmUD","People","","null","","","","null","","","","","","","","","","","","","","","","","","","","","","","","","","","","","","","","","","","","","","","","","","","",""
"","deliberation","","html-keyboard-response","128","1547539","0.0-75.0-1.0","0","0","YJmUD","People","","3780","","","","68","","","","19","35","22","1","1","41","59","oliver-ragfelt-khV4fTy6-D8-unsplash.jpg","jessica-radanavong-mrYkTuAesKE-unsplash.jpg","2","1","35","22","","","","","","","","","","","","","","","","","","","","","","","","","","","",""
"","choice_confirmation","","html-keyboard-response","129","1548060","0.0-75.0-2.0-0.0","0","0","YJmUD","People","","null","","","","null","","","","19","35","22","","","","","","","","","","","","","","","","","","","","","","","","","","","","","","","","","","","","","",""
"","explain_trial","","survey-text","130","1581547","0.0-75.0-5.0-0.0","0","0","YJmUD","People","","33480","{""Q0"":""His eyes look dramatic in this photo and I like the wall color""}","","","","","","","19","35","22","","","","","","","","","","","{""Q0"":""His eyes look dramatic in this photo and I like the wall color""}","","","","","","","","","","","","","","","","","","","","","","","","","","",""
"","fixation","","html-keyboard-response","131","1582563","0.0-76.0-0.0","0","0","YJmUD","People","","null","","","","null","","","","","","","","","","","","","","","","","","","","","","","","","","","","","","","","","","","","","","","","","","","",""
"","deliberation","","html-keyboard-response","132","1589943","0.0-76.0-1.0","0","0","YJmUD","People","","7374","","","","68","","","","20","49","45","1","-1","45","32","vicky-hladynets-_gDoyVv5F4c-unsplash.jpg","sarah-noltner-pL5ZzPp1zqg-unsplash.jpg","2","1","49","45","","","","","","","","","","","","","","","","","","","","","","","","","","","",""
"","choice_confirmation","","html-keyboard-response","133","1590452","0.0-76.0-2.0-0.0","0","0","YJmUD","People","","null","","","","null","","","","20","49","45","","","","","","","","","","","","","","","","","","","","","","","","","","","","","","","","","","","","","",""
"","explain_trial","","survey-text","134","1597566","0.0-76.0-5.0-0.0","0","0","YJmUD","People","","7110","{""Q0"":""I like that it is bright""}","","","","","","","20","49","45","","","","","","","","","","","{""Q0"":""I like that it is bright""}","","","","","","","","","","","","","","","","","","","","","","","","","","",""
"","fixation","","html-keyboard-response","135","1598586","0.0-77.0-0.0","0","0","YJmUD","People","","null","","","","null","","","","","","","","","","","","","","","","","","","","","","","","","","","","","","","","","","","","","","","","","","","",""
"","deliberation","","html-keyboard-response","136","1600922","0.0-77.0-1.0","0","0","YJmUD","People","","2330","","","","68","","","","21","44","4","1","-1","66","63","rikonavt-HQjfrvdTfak-unsplash.jpg","barna-bartis-2x3vfVxwR7o-unsplash.jpg","2","1","44","4","","","","","","","","","","","","","","","","","","","","","","","","","","","",""
"","choice_confirmation","","html-keyboard-response","137","1601434","0.0-77.0-2.0-0.0","0","0","YJmUD","People","","null","","","","null","","","","21","44","4","","","","","","","","","","","","","","","","","","","","","","","","","","","","","","","","","","","","","",""
"","explain_trial","","survey-text","138","1615960","0.0-77.0-5.0-0.0","0","0","YJmUD","People","","14519","{""Q0"":""I think she looks very beautiful and radiant right here.""}","","","","","","","21","44","4","","","","","","","","","","","{""Q0"":""I think she looks very beautiful and radiant right here.""}","","","","","","","","","","","","","","","","","","","","","","","","","","",""
"","fixation","","html-keyboard-response","139","1616980","0.0-78.0-0.0","0","0","YJmUD","People","","null","","","","null","","","","","","","","","","","","","","","","","","","","","","","","","","","","","","","","","","","","","","","","","","","",""
"","deliberation","","html-keyboard-response","140","1619121","0.0-78.0-1.0","0","0","YJmUD","People","","2135","","","","75","","","","22","48","30","0","1","35","56","velizar-ivanov-7ktP9yZA1g4-unsplash.jpg","matheus-ferrero-pg_WCHWSdT8-unsplash.jpg","2","0","30","48","","","","","","","","","","","","","","","","","","","","","","","","","","","",""
"","choice_confirmation","","html-keyboard-response","141","1619637","0.0-78.0-2.0-0.0","0","0","YJmUD","People","","null","","","","null","","","","22","48","30","","","","","","","","","","","","","","","","","","","","","","","","","","","","","","","","","","","","","",""
"","fixation","","html-keyboard-response","142","1620648","0.0-79.0-0.0","0","0","YJmUD","People","","null","","","","null","","","","","","","","","","","","","","","","","","","","","","","","","","","","","","","","","","","","","","","","","","","",""
"","deliberation","","html-keyboard-response","143","1621625","0.0-79.0-1.0","0","0","YJmUD","People","","973","","","","68","","","","23","24","29","1","1","36","58","joel-mott-LaK153ghdig-unsplash.jpg","leilani-angel-K84vnnzxmTQ-unsplash.jpg","2","1","24","29","","","","","","","","","","","","","","","","","","","","","","","","","","","",""
"","choice_confirmation","","html-keyboard-response","144","1622133","0.0-79.0-2.0-0.0","0","0","YJmUD","People","","null","","","","null","","","","23","24","29","","","","","","","","","","","","","","","","","","","","","","","","","","","","","","","","","","","","","",""
"","explain_trial","","survey-text","145","1631933","0.0-79.0-5.0-0.0","0","0","YJmUD","People","","9792","{""Q0"":""I like the palm trees in the background""}","","","","","","","23","24","29","","","","","","","","","","","{""Q0"":""I like the palm trees in the background""}","","","","","","","","","","","","","","","","","","","","","","","","","","",""
"","start_critical_deliberation_block","","html-keyboard-response","146","1634078","0.0-79.0-7.0-0.0","0","0","YJmUD","People","","2138","","","","78","","","","","","","","","","","","","","","","","","","","","","","","","","","","","","","","","","","","","","","","","","","",""
"","fixation","","html-keyboard-response","147","1635090","0.0-80.0-0.0","0","0","YJmUD","People","","null","","","","null","","","","","","","","","","","","","","","","","","","","","","","","","","","","","","","","","","","","","","","","","","","",""
"","deliberation","","html-keyboard-response","148","1636408","0.0-80.0-1.0","0","0","YJmUD","People","","1311","","","","75","","","","24","36","31","0","-1","41","73","ospan-ali-mGdA2fzjWLo-unsplash.jpg","mathilda-khoo-vLR0YP_otCo-unsplash.jpg","3","0","31","36","","","","","","","","","","","","","","","","","","","","","","","","","","","",""
"","choice_confirmation","","html-keyboard-response","149","1636917","0.0-80.0-2.0-0.0","0","0","YJmUD","People","","null","","","","null","","","","24","36","31","","","","","","","","","","","","","","","","","","","","","","","","","","","","","","","","","","","","","",""
"","fixation","","html-keyboard-response","150","1637939","0.0-81.0-0.0","0","0","YJmUD","People","","null","","","","null","","","","","","","","","","","","","","","","","","","","","","","","","","","","","","","","","","","","","","","","","","","",""
"","deliberation","","html-keyboard-response","151","1639819","0.0-81.0-1.0","0","0","YJmUD","People","","1875","","","","75","","","","25","48","30","0","1","35","56","velizar-ivanov-7ktP9yZA1g4-unsplash.jpg","matheus-ferrero-pg_WCHWSdT8-unsplash.jpg","3","0","30","48","","","","","","","","","","","","","","","","","","","","","","","","","","","",""
"","choice_confirmation","","html-keyboard-response","152","1640340","0.0-81.0-2.0-0.0","0","0","YJmUD","People","","null","","","","null","","","","25","48","30","","","","","","","","","","","","","","","","","","","","","","","","","","","","","","","","","","","","","",""
"","fixation","","html-keyboard-response","153","1641363","0.0-82.0-0.0","0","0","YJmUD","People","","null","","","","null","","","","","","","","","","","","","","","","","","","","","","","","","","","","","","","","","","","","","","","","","","","",""
"","deliberation","","html-keyboard-response","154","1642508","0.0-82.0-1.0","0","0","YJmUD","People","","1140","","","","68","","","","26","35","22","0","1","41","59","oliver-ragfelt-khV4fTy6-D8-unsplash.jpg","jessica-radanavong-mrYkTuAesKE-unsplash.jpg","3","1","35","22","","","","","","","","","","","","","","","","","","","","","","","","","","","",""
"","choice_confirmation","","html-keyboard-response","155","1643022","0.0-82.0-2.0-0.0","0","0","YJmUD","People","","null","","","","null","","","","26","35","22","","","","","","","","","","","","","","","","","","","","","","","","","","","","","","","","","","","","","",""
"","fixation","","html-keyboard-response","156","1644045","0.0-83.0-0.0","0","0","YJmUD","People","","null","","","","null","","","","","","","","","","","","","","","","","","","","","","","","","","","","","","","","","","","","","","","","","","","",""
"","deliberation","","html-keyboard-response","157","1644826","0.0-83.0-1.0","0","0","YJmUD","People","","775","","","","68","","","","27","46","12","0","1","50","36","stefan-stefancik-QXevDflbl8A-unsplash.jpg","daniel-rigdon-dXmXKPP2L4E-unsplash.jpg","3","1","46","12","","","","","","","","","","","","","","","","","","","","","","","","","","","",""
"","choice_confirmation","","html-keyboard-response","158","1645334","0.0-83.0-2.0-0.0","0","0","YJmUD","People","","null","","","","null","","","","27","46","12","","","","","","","","","","","","","","","","","","","","","","","","","","","","","","","","","","","","","",""
"","fixation","","html-keyboard-response","159","1646359","0.0-84.0-0.0","0","0","YJmUD","People","","null","","","","null","","","","","","","","","","","","","","","","","","","","","","","","","","","","","","","","","","","","","","","","","","","",""
"","deliberation","","html-keyboard-response","160","1647924","0.0-84.0-1.0","0","0","YJmUD","People","","1558","","","","75","","","","28","20","37","0","-1","61","39","houcine-ncib-B4TjXnI0Y2c-unsplash.jpg","pavel-anoshin-d0peGya6R5Y-unsplash.jpg","3","0","37","20","","","","","","","","","","","","","","","","","","","","","","","","","","","",""
"","choice_confirmation","","html-keyboard-response","161","1648433","0.0-84.0-2.0-0.0","0","0","YJmUD","People","","null","","","","null","","","","28","20","37","","","","","","","","","","","","","","","","","","","","","","","","","","","","","","","","","","","","","",""
"","fixation","","html-keyboard-response","162","1649453","0.0-85.0-0.0","0","0","YJmUD","People","","null","","","","null","","","","","","","","","","","","","","","","","","","","","","","","","","","","","","","","","","","","","","","","","","","",""
"","deliberation","","html-keyboard-response","163","1650529","0.0-85.0-1.0","0","0","YJmUD","People","","1070","","","","68","","","","29","0","25","0","1","36","54","abstral-official-cyOKLSgkgCE-unsplash.jpg","joseph-gonzalez-iFgRcqHznqg-unsplash.jpg","3","1","0","25","","","","","","","","","","","","","","","","","","","","","","","","","","","",""
"","choice_confirmation","","html-keyboard-response","164","1651048","0.0-85.0-2.0-0.0","0","0","YJmUD","People","","null","","","","null","","","","29","0","25","","","","","","","","","","","","","","","","","","","","","","","","","","","","","","","","","","","","","",""
"","fixation","","html-keyboard-response","165","1652055","0.0-86.0-0.0","0","0","YJmUD","People","","null","","","","null","","","","","","","","","","","","","","","","","","","","","","","","","","","","","","","","","","","","","","","","","","","",""
"","deliberation","","html-keyboard-response","166","1653406","0.0-86.0-1.0","0","0","YJmUD","People","","1348","","","","75","","","","30","3","6","0","-1","63","73","art-hauntington-jzY0KRJopEI-unsplash.jpg","ben-o-bro-C5XyLljkMrY-unsplash.jpg","3","0","6","3","","","","","","","","","","","","","","","","","","","","","","","","","","","",""
"","choice_confirmation","","html-keyboard-response","167","1653916","0.0-86.0-2.0-0.0","0","0","YJmUD","People","","null","","","","null","","","","30","3","6","","","","","","","","","","","","","","","","","","","","","","","","","","","","","","","","","","","","","",""
"","fixation","","html-keyboard-response","168","1654937","0.0-87.0-0.0","0","0","YJmUD","People","","null","","","","null","","","","","","","","","","","","","","","","","","","","","","","","","","","","","","","","","","","","","","","","","","","",""
"","deliberation","","html-keyboard-response","169","1656327","0.0-87.0-1.0","0","0","YJmUD","People","","1384","","","","68","","","","31","24","29","0","1","36","58","joel-mott-LaK153ghdig-unsplash.jpg","leilani-angel-K84vnnzxmTQ-unsplash.jpg","3","1","24","29","","","","","","","","","","","","","","","","","","","","","","","","","","","",""
"","choice_confirmation","","html-keyboard-response","170","1656833","0.0-87.0-2.0-0.0","0","0","YJmUD","People","","null","","","","null","","","","31","24","29","","","","","","","","","","","","","","","","","","","","","","","","","","","","","","","","","","","","","",""
"","fixation","","html-keyboard-response","171","1657854","0.0-88.0-0.0","0","0","YJmUD","People","","null","","","","null","","","","","","","","","","","","","","","","","","","","","","","","","","","","","","","","","","","","","","","","","","","",""
"","deliberation","","html-keyboard-response","172","1659409","0.0-88.0-1.0","0","0","YJmUD","People","","1550","","","","68","","","","32","39","10","0","1","61","43","philip-martin-5aGUyCW_PJw-unsplash.jpg","charles-etoroma-95UF6LXe-Lo-unsplash.jpg","3","1","39","10","","","","","","","","","","","","","","","","","","","","","","","","","","","",""
"","choice_confirmation","","html-keyboard-response","173","1659927","0.0-88.0-2.0-0.0","0","0","YJmUD","People","","null","","","","null","","","","32","39","10","","","","","","","","","","","","","","","","","","","","","","","","","","","","","","","","","","","","","",""
"","fixation","","html-keyboard-response","174","1660948","0.0-89.0-0.0","0","0","YJmUD","People","","null","","","","null","","","","","","","","","","","","","","","","","","","","","","","","","","","","","","","","","","","","","","","","","","","",""
"","deliberation","","html-keyboard-response","175","1663439","0.0-89.0-1.0","0","0","YJmUD","People","","2487","","","","68","","","","33","49","45","0","-1","45","32","vicky-hladynets-_gDoyVv5F4c-unsplash.jpg","sarah-noltner-pL5ZzPp1zqg-unsplash.jpg","3","1","49","45","","","","","","","","","","","","","","","","","","","","","","","","","","","",""
"","choice_confirmation","","html-keyboard-response","176","1663944","0.0-89.0-2.0-0.0","0","0","YJmUD","People","","null","","","","null","","","","33","49","45","","","","","","","","","","","","","","","","","","","","","","","","","","","","","","","","","","","","","",""
"","fixation","","html-keyboard-response","177","1664955","0.0-90.0-0.0","0","0","YJmUD","People","","null","","","","null","","","","","","","","","","","","","","","","","","","","","","","","","","","","","","","","","","","","","","","","","","","",""
"","deliberation","","html-keyboard-response","178","1667498","0.0-90.0-1.0","0","0","YJmUD","People","","2539","","","","68","","","","34","44","4","0","-1","66","63","rikonavt-HQjfrvdTfak-unsplash.jpg","barna-bartis-2x3vfVxwR7o-unsplash.jpg","3","1","44","4","","","","","","","","","","","","","","","","","","","","","","","","","","","",""
"","choice_confirmation","","html-keyboard-response","179","1668015","0.0-90.0-2.0-0.0","0","0","YJmUD","People","","null","","","","null","","","","34","44","4","","","","","","","","","","","","","","","","","","","","","","","","","","","","","","","","","","","","","",""
"","fixation","","html-keyboard-response","180","1669036","0.0-91.0-0.0","0","0","YJmUD","People","","null","","","","null","","","","","","","","","","","","","","","","","","","","","","","","","","","","","","","","","","","","","","","","","","","",""
"","deliberation","","html-keyboard-response","181","1670889","0.0-91.0-1.0","0","0","YJmUD","People","","1848","","","","75","","","","35","1","33","0","-1","55","42","aiony-haust-jmATI5Q_YgY-unsplash.jpg","olena-sergienko-0TSd6uCKTKc-unsplash.jpg","3","0","33","1","","","","","","","","","","","","","","","","","","","","","","","","","","","",""
"","choice_confirmation","","html-keyboard-response","182","1671436","0.0-91.0-2.0-0.0","0","0","YJmUD","People","","null","","","","null","","","","35","1","33","","","","","","","","","","","","","","","","","","","","","","","","","","","","","","","","","","","","","",""
"","reward_learning_instructions","","instructions","183","1858623","0.0-92.0-0.0","0","0","YJmUD","People","[{""page_index"":0,""viewing_time"":161449},{""page_index"":1,""viewing_time"":23391},{""page_index"":2,""viewing_time"":2341}]","187182","","","","","","","","","","","","","","","","","","","","","","","","","","","","","","","","","","","","","","","","","","","","","","","",""
"","","","survey-multi-choice","184","1868256","0.0-92.0-1.0","0","0","YJmUD","People","","9618","{""Q0"":""True"",""Q1"":""True"",""Q2"":""Press the space bar to see its outcome"",""Q3"":""Press the relevant key while the outcome is presented""}","reward_comprehension_check","0","","","","","","","","","","","","","","","","","","","","","","","","","","","","","","","","","","","","","","","","","","","","",""
"","start_phase","","html-keyboard-response","185","1870522","0.0-93.0","0","0","YJmUD","People","","2259","","","","78","","","","","","","","","","","","","","","","","","","","","","","","","","","","","","","","","","","","","","","","","","","",""
"","fixation","","html-keyboard-response","186","1871536","0.0-94.0","0","0","YJmUD","People","","null","","","","null","","","","","","","","","","","","","","","","","","","","","","","","","","","","","","","","","","","","","","","","","","","",""
"","see_reward","","html-keyboard-response","187","1874082","0.0-95.0","0","0","YJmUD","People","","2542","","","","32","","39","","0","","","","1","","","","","1","","","","","159","2542","","","","","","","","","","","","","","","","","","","","","","","","",""
"","reward_outcome","","html-keyboard-response","188","1876109","0.0-96.0","0","0","YJmUD","People","","831","","","","38","","39","","0","","","","","","","","","","","","","","","","1","831","","","","","","","","","","","","","","","","","","","","","","",""
"","fixation","","html-keyboard-response","189","1877130","0.0-99.0","0","0","YJmUD","People","","null","","","","null","","","","","","","","","","","","","","","","","","","","","","","","","","","","","","","","","","","","","","","","","","","",""
"","see_reward","","html-keyboard-response","190","1878012","0.0-100.0","0","0","YJmUD","People","","878","","","","32","","31","","1","","","","-1","","","","","1","","","","","0","878","","","","","","","","","","","","","","","","","","","","","","","","",""
"","reward_outcome","","html-keyboard-response","191","1880033","0.0-101.0","0","0","YJmUD","People","","1042","","","","40","","31","","1","","","","","","","","","","","","","","","","-1","1042","","","","","","","","","","","","","","","","","","","","","","",""
"","fixation","","html-keyboard-response","192","1881053","0.0-104.0","0","0","YJmUD","People","","null","","","","null","","","","","","","","","","","","","","","","","","","","","","","","","","","","","","","","","","","","","","","","","","","",""
"","see_reward","","html-keyboard-response","193","1881989","0.0-105.0","0","0","YJmUD","People","","931","","","","32","","49","","2","","","","-1","","","","","1","","","","","0","931","","","","","","","","","","","","","","","","","","","","","","","","",""
"","reward_outcome","","html-keyboard-response","194","1884008","0.0-106.0","0","0","YJmUD","People","","725","","","","40","","49","","2","","","","","","","","","","","","","","","","-1","725","","","","","","","","","","","","","","","","","","","","","","",""
"","fixation","","html-keyboard-response","195","1885030","0.0-109.0","0","0","YJmUD","People","","null","","","","null","","","","","","","","","","","","","","","","","","","","","","","","","","","","","","","","","","","","","","","","","","","",""
"","see_reward","","html-keyboard-response","196","1886183","0.0-110.0","0","0","YJmUD","People","","1147","","","","32","","44","","3","","","","-1","","","","","1","","","","","0","1147","","","","","","","","","","","","","","","","","","","","","","","","",""
"","reward_outcome","","html-keyboard-response","197","1888198","0.0-111.0","0","0","YJmUD","People","","668","","","","40","","44","","3","","","","","","","","","","","","","","","","-1","668","","","","","","","","","","","","","","","","","","","","","","",""
"","fixation","","html-keyboard-response","198","1889218","0.0-114.0","0","0","YJmUD","People","","null","","","","null","","","","","","","","","","","","","","","","","","","","","","","","","","","","","","","","","","","","","","","","","","","",""
"","see_reward","","html-keyboard-response","199","1890285","0.0-115.0","0","0","YJmUD","People","","1061","","","","32","","24","","4","","","","1","","","","","1","","","","","141","1061","","","","","","","","","","","","","","","","","","","","","","","","",""
"","reward_outcome","","html-keyboard-response","200","1892301","0.0-116.0","0","0","YJmUD","People","","1635","","","","38","","24","","4","","","","","","","","","","","","","","","","1","1635","","","","","","","","","","","","","","","","","","","","","","",""
"","fixation","","html-keyboard-response","201","1893327","0.0-119.0","0","0","YJmUD","People","","null","","","","null","","","","","","","","","","","","","","","","","","","","","","","","","","","","","","","","","","","","","","","","","","","",""
"","see_reward","","html-keyboard-response","202","1893863","0.0-120.0","0","0","YJmUD","People","","527","","","","32","","35","","5","","","","1","","","","","1","","","","","158","527","","","","","","","","","","","","","","","","","","","","","","","","",""
"","reward_outcome","","html-keyboard-response","203","1895878","0.0-121.0","0","0","YJmUD","People","","818","","","","38","","35","","5","","","","","","","","","","","","","","","","1","818","","","","","","","","","","","","","","","","","","","","","","",""
"","fixation","","html-keyboard-response","204","1896897","0.0-124.0","0","0","YJmUD","People","","null","","","","null","","","","","","","","","","","","","","","","","","","","","","","","","","","","","","","","","","","","","","","","","","","",""
"","see_reward","","html-keyboard-response","205","1897908","0.0-125.0","0","0","YJmUD","People","","1007","","","","32","","6","","6","","","","-1","","","","","1","","","","","0","1007","","","","","","","","","","","","","","","","","","","","","","","","",""
"","reward_outcome","","html-keyboard-response","206","1899935","0.0-126.0","0","0","YJmUD","People","","736","","","","40","","6","","6","","","","","","","","","","","","","","","","-1","736","","","","","","","","","","","","","","","","","","","","","","",""
"","fixation","","html-keyboard-response","207","1900953","0.0-129.0","0","0","YJmUD","People","","null","","","","null","","","","","","","","","","","","","","","","","","","","","","","","","","","","","","","","","","","","","","","","","","","",""
"","see_reward","","html-keyboard-response","208","1901677","0.0-130.0","0","0","YJmUD","People","","721","","","","32","","31","","7","","","","-1","","","","","1","","","","","0","721","","","","","","","","","","","","","","","","","","","","","","","","",""
"","reward_outcome","","html-keyboard-response","209","1903692","0.0-131.0","0","0","YJmUD","People","","1288","","","","40","","31","","7","","","","","","","","","","","","","","","","-1","1288","","","","","","","","","","","","","","","","","","","","","","",""
"","fixation","","html-keyboard-response","210","1904716","0.0-134.0","0","0","YJmUD","People","","null","","","","null","","","","","","","","","","","","","","","","","","","","","","","","","","","","","","","","","","","","","","","","","","","",""
"","see_reward","","html-keyboard-response","211","1905283","0.0-135.0","0","0","YJmUD","People","","563","","","","32","","46","","8","","","","1","","","","","1","","","","","145","563","","","","","","","","","","","","","","","","","","","","","","","","",""
"","reward_outcome","","html-keyboard-response","212","1907303","0.0-136.0","0","0","YJmUD","People","","865","","","","38","","46","","8","","","","","","","","","","","","","","","","1","865","","","","","","","","","","","","","","","","","","","","","","",""
"","fixation","","html-keyboard-response","213","1908320","0.0-139.0","0","0","YJmUD","People","","null","","","","null","","","","","","","","","","","","","","","","","","","","","","","","","","","","","","","","","","","","","","","","","","","",""
"","see_reward","","html-keyboard-response","214","1908880","0.0-140.0","0","0","YJmUD","People","","554","","","","32","","0","","9","","","","1","","","","","1","","","","","155","554","","","","","","","","","","","","","","","","","","","","","","","","",""
"","reward_outcome","","html-keyboard-response","215","1910900","0.0-141.0","0","0","YJmUD","People","","null","","","","null","","0","","9","","","","","","","","","","","","","","","","NaN","null","","","","","","","","","","","","","","","","","","","","","","",""
"","respond_faster","","html-keyboard-response","216","1912419","0.0-142.0-0.0","1","0","YJmUD","People","","null","","","","null","","","","","","","","","","","","","","","","","","","","","","","","","","","","","","","","","","","","","","","","","","","",""
"","fixation","","html-keyboard-response","217","1913441","0.0-144.0","0","0","YJmUD","People","","null","","","","null","","","","","","","","","","","","","","","","","","","","","","","","","","","","","","","","","","","","","","","","","","","",""
"","see_reward","","html-keyboard-response","218","1913915","0.0-145.0","0","0","YJmUD","People","","469","","","","32","","0","","10","","","","1","","","","","1","","","","","155","469","","","","","","","","","","","","","","","","","","","","","","","","",""
"","reward_outcome","","html-keyboard-response","219","1915938","0.0-146.0","0","0","YJmUD","People","","null","","","","null","","0","","10","","","","","","","","","","","","","","","","NaN","null","","","","","","","","","","","","","","","","","","","","","","",""
"","respond_faster","","html-keyboard-response","220","1917461","0.0-147.0-0.0","1","0","YJmUD","People","","null","","","","null","","","","","","","","","","","","","","","","","","","","","","","","","","","","","","","","","","","","","","","","","","","",""
"","fixation","","html-keyboard-response","221","1918485","0.0-149.0","0","0","YJmUD","People","","null","","","","null","","","","","","","","","","","","","","","","","","","","","","","","","","","","","","","","","","","","","","","","","","","",""
"","see_reward","","html-keyboard-response","222","1918893","0.0-150.0","0","0","YJmUD","People","","403","","","","32","","33","","11","","","","-1","","","","","1","","","","","0","403","","","","","","","","","","","","","","","","","","","","","","","","",""
"","reward_outcome","","html-keyboard-response","223","1920905","0.0-151.0","0","0","YJmUD","People","","459","","","","40","","33","","11","","","","","","","","","","","","","","","","-1","459","","","","","","","","","","","","","","","","","","","","","","",""
"","fixation","","html-keyboard-response","224","1921916","0.0-154.0","0","0","YJmUD","People","","null","","","","null","","","","","","","","","","","","","","","","","","","","","","","","","","","","","","","","","","","","","","","","","","","",""
"","see_reward","","html-keyboard-response","225","1922401","0.0-155.0","0","0","YJmUD","People","","481","","","","32","","44","","12","","","","-1","","","","","1","","","","","0","481","","","","","","","","","","","","","","","","","","","","","","","","",""
"","reward_outcome","","html-keyboard-response","226","1924421","0.0-156.0","0","0","YJmUD","People","","806","","","","40","","44","","12","","","","","","","","","","","","","","","","-1","806","","","","","","","","","","","","","","","","","","","","","","",""
"","fixation","","html-keyboard-response","227","1925438","0.0-159.0","0","0","YJmUD","People","","null","","","","null","","","","","","","","","","","","","","","","","","","","","","","","","","","","","","","","","","","","","","","","","","","",""
"","see_reward","","html-keyboard-response","228","1925897","0.0-160.0","0","0","YJmUD","People","","454","","","","32","","37","","13","","","","-1","","","","","1","","","","","0","454","","","","","","","","","","","","","","","","","","","","","","","","",""
"","reward_outcome","","html-keyboard-response","229","1927917","0.0-161.0","0","0","YJmUD","People","","571","","","","40","","37","","13","","","","","","","","","","","","","","","","-1","571","","","","","","","","","","","","","","","","","","","","","","",""
"","fixation","","html-keyboard-response","230","1928938","0.0-164.0","0","0","YJmUD","People","","null","","","","null","","","","","","","","","","","","","","","","","","","","","","","","","","","","","","","","","","","","","","","","","","","",""
"","see_reward","","html-keyboard-response","231","1929327","0.0-165.0","0","0","YJmUD","People","","384","","","","32","","49","","14","","","","-1","","","","","1","","","","","0","384","","","","","","","","","","","","","","","","","","","","","","","","",""
"","reward_outcome","","html-keyboard-response","232","1931346","0.0-166.0","0","0","YJmUD","People","","562","","","","40","","49","","14","","","","","","","","","","","","","","","","-1","562","","","","","","","","","","","","","","","","","","","","","","",""
"","fixation","","html-keyboard-response","233","1932366","0.0-169.0","0","0","YJmUD","People","","null","","","","null","","","","","","","","","","","","","","","","","","","","","","","","","","","","","","","","","","","","","","","","","","","",""
"","see_reward","","html-keyboard-response","234","1932612","0.0-170.0","0","0","YJmUD","People","","242","","","","32","","37","","15","","","","-1","","","","","1","","","","","0","242","","","","","","","","","","","","","","","","","","","","","","","","",""
"","reward_outcome","","html-keyboard-response","235","1934627","0.0-171.0","0","0","YJmUD","People","","430","","","","40","","37","","15","","","","","","","","","","","","","","","","-1","430","","","","","","","","","","","","","","","","","","","","","","",""
"","fixation","","html-keyboard-response","236","1935652","0.0-174.0","0","0","YJmUD","People","","null","","","","null","","","","","","","","","","","","","","","","","","","","","","","","","","","","","","","","","","","","","","","","","","","",""
"","see_reward","","html-keyboard-response","237","1936248","0.0-175.0","0","0","YJmUD","People","","593","","","","32","","35","","16","","","","1","","","","","1","","","","","158","593","","","","","","","","","","","","","","","","","","","","","","","","",""
"","reward_outcome","","html-keyboard-response","238","1938258","0.0-176.0","0","0","YJmUD","People","","1047","","","","38","","35","","16","","","","","","","","","","","","","","","","1","1047","","","","","","","","","","","","","","","","","","","","","","",""
"","fixation","","html-keyboard-response","239","1939277","0.0-179.0","0","0","YJmUD","People","","null","","","","null","","","","","","","","","","","","","","","","","","","","","","","","","","","","","","","","","","","","","","","","","","","",""
"","see_reward","","html-keyboard-response","240","1940114","0.0-180.0","0","0","YJmUD","People","","832","","","","32","","33","","17","","","","-1","","","","","1","","","","","0","832","","","","","","","","","","","","","","","","","","","","","","","","",""
"","reward_outcome","","html-keyboard-response","241","1942140","0.0-181.0","0","0","YJmUD","People","","1414","","","","40","","33","","17","","","","","","","","","","","","","","","","-1","1414","","","","","","","","","","","","","","","","","","","","","","",""
"","fixation","","html-keyboard-response","242","1943166","0.0-184.0","0","0","YJmUD","People","","null","","","","null","","","","","","","","","","","","","","","","","","","","","","","","","","","","","","","","","","","","","","","","","","","",""
"","see_reward","","html-keyboard-response","243","1943940","0.0-185.0","0","0","YJmUD","People","","767","","","","32","","39","","18","","","","1","","","","","1","","","","","159","767","","","","","","","","","","","","","","","","","","","","","","","","",""
"","reward_outcome","","html-keyboard-response","244","1945953","0.0-186.0","0","0","YJmUD","People","","1491","","","","38","","39","","18","","","","","","","","","","","","","","","","1","1491","","","","","","","","","","","","","","","","","","","","","","",""
"","fixation","","html-keyboard-response","245","1946973","0.0-189.0","0","0","YJmUD","People","","null","","","","null","","","","","","","","","","","","","","","","","","","","","","","","","","","","","","","","","","","","","","","","","","","",""
"","see_reward","","html-keyboard-response","246","1947794","0.0-190.0","0","0","YJmUD","People","","817","","","","32","","30","","19","","","","1","","","","","1","","","","","150","817","","","","","","","","","","","","","","","","","","","","","","","","",""
"","reward_outcome","","html-keyboard-response","247","1949800","0.0-191.0","0","0","YJmUD","People","","789","","","","38","","30","","19","","","","","","","","","","","","","","","","1","789","","","","","","","","","","","","","","","","","","","","","","",""
"","fixation","","html-keyboard-response","248","1950806","0.0-194.0","0","0","YJmUD","People","","null","","","","null","","","","","","","","","","","","","","","","","","","","","","","","","","","","","","","","","","","","","","","","","","","",""
"","see_reward","","html-keyboard-response","249","1951489","0.0-195.0","0","0","YJmUD","People","","678","","","","32","","46","","20","","","","1","","","","","1","","","","","145","678","","","","","","","","","","","","","","","","","","","","","","","","",""
"","reward_outcome","","html-keyboard-response","250","1953501","0.0-196.0","0","0","YJmUD","People","","826","","","","38","","46","","20","","","","","","","","","","","","","","","","1","826","","","","","","","","","","","","","","","","","","","","","","",""
"","fixation","","html-keyboard-response","251","1954518","0.0-199.0","0","0","YJmUD","People","","null","","","","null","","","","","","","","","","","","","","","","","","","","","","","","","","","","","","","","","","","","","","","","","","","",""
"","see_reward","","html-keyboard-response","252","1955554","0.0-200.0","0","0","YJmUD","People","","1032","","","","32","","24","","21","","","","1","","","","","1","","","","","141","1032","","","","","","","","","","","","","","","","","","","","","","","","",""
"","reward_outcome","","html-keyboard-response","253","1957573","0.0-201.0","0","0","YJmUD","People","","757","","","","38","","24","","21","","","","","","","","","","","","","","","","1","757","","","","","","","","","","","","","","","","","","","","","","",""
"","fixation","","html-keyboard-response","254","1958595","0.0-204.0","0","0","YJmUD","People","","null","","","","null","","","","","","","","","","","","","","","","","","","","","","","","","","","","","","","","","","","","","","","","","","","",""
"","see_reward","","html-keyboard-response","255","1959148","0.0-205.0","0","0","YJmUD","People","","549","","","","32","","6","","22","","","","-1","","","","","1","","","","","0","549","","","","","","","","","","","","","","","","","","","","","","","","",""
"","reward_outcome","","html-keyboard-response","256","1961166","0.0-206.0","0","0","YJmUD","People","","593","","","","40","","6","","22","","","","","","","","","","","","","","","","-1","593","","","","","","","","","","","","","","","","","","","","","","",""
"","fixation","","html-keyboard-response","257","1962189","0.0-209.0","0","0","YJmUD","People","","null","","","","null","","","","","","","","","","","","","","","","","","","","","","","","","","","","","","","","","","","","","","","","","","","",""
"","see_reward","","html-keyboard-response","258","1962974","0.0-210.0","0","0","YJmUD","People","","779","","","","32","","30","","23","","","","1","","","","","1","","","","","150","779","","","","","","","","","","","","","","","","","","","","","","","","",""
"","reward_outcome","","html-keyboard-response","259","1964987","0.0-211.0","0","0","YJmUD","People","","1254","","","","38","","30","","23","","","","","","","","","","","","","","","","1","1254","","","","","","","","","","","","","","","","","","","","","","",""
"","block_over","","html-keyboard-response","260","1967108","0.0-213.0-0.0","0","0","YJmUD","People","","2116","","","","78","","","","","","","","","","","","","","","","","","","","","","","","","","","","","","","","","","","","","","","","","","","",""
"","fixation","","html-keyboard-response","261","1968120","0.0-214.0","0","0","YJmUD","People","","null","","","","null","","","","","","","","","","","","","","","","","","","","","","","","","","","","","","","","","","","","","","","","","","","",""
"","see_reward","","html-keyboard-response","262","1969242","0.0-215.0","0","0","YJmUD","People","","1116","","","","32","","44","","24","","","","-1","","","","","2","","","","","0","1116","","","","","","","","","","","","","","","","","","","","","","","","",""
"","reward_outcome","","html-keyboard-response","263","1971267","0.0-216.0","0","0","YJmUD","People","","630","","","","40","","44","","24","","","","","","","","","","","","","","","","-1","630","","","","","","","","","","","","","","","","","","","","","","",""
"","fixation","","html-keyboard-response","264","1972274","0.0-219.0","0","0","YJmUD","People","","null","","","","null","","","","","","","","","","","","","","","","","","","","","","","","","","","","","","","","","","","","","","","","","","","",""
"","see_reward","","html-keyboard-response","265","1972789","0.0-220.0","0","0","YJmUD","People","","510","","","","32","","39","","25","","","","1","","","","","2","","","","","159","510","","","","","","","","","","","","","","","","","","","","","","","","",""
"","reward_outcome","","html-keyboard-response","266","1974806","0.0-221.0","0","0","YJmUD","People","","715","","","","38","","39","","25","","","","","","","","","","","","","","","","1","715","","","","","","","","","","","","","","","","","","","","","","",""
"","fixation","","html-keyboard-response","267","1975831","0.0-224.0","0","0","YJmUD","People","","null","","","","null","","","","","","","","","","","","","","","","","","","","","","","","","","","","","","","","","","","","","","","","","","","",""
"","see_reward","","html-keyboard-response","268","1976278","0.0-225.0","0","0","YJmUD","People","","442","","","","32","","37","","26","","","","-1","","","","","2","","","","","0","442","","","","","","","","","","","","","","","","","","","","","","","","",""
"","reward_outcome","","html-keyboard-response","269","1978289","0.0-226.0","0","0","YJmUD","People","","666","","","","40","","37","","26","","","","","","","","","","","","","","","","-1","666","","","","","","","","","","","","","","","","","","","","","","",""
"","fixation","","html-keyboard-response","270","1979307","0.0-229.0","0","0","YJmUD","People","","null","","","","null","","","","","","","","","","","","","","","","","","","","","","","","","","","","","","","","","","","","","","","","","","","",""
"","see_reward","","html-keyboard-response","271","1979968","0.0-230.0","0","0","YJmUD","People","","657","","","","32","","30","","27","","","","1","","","","","2","","","","","150","657","","","","","","","","","","","","","","","","","","","","","","","","",""
"","reward_outcome","","html-keyboard-response","272","1981988","0.0-231.0","0","0","YJmUD","People","","1273","","","","38","","30","","27","","","","","","","","","","","","","","","","1","1273","","","","","","","","","","","","","","","","","","","","","","",""
"","fixation","","html-keyboard-response","273","1983008","0.0-234.0","0","0","YJmUD","People","","null","","","","null","","","","","","","","","","","","","","","","","","","","","","","","","","","","","","","","","","","","","","","","","","","",""
"","see_reward","","html-keyboard-response","274","1983570","0.0-235.0","0","0","YJmUD","People","","556","","","","32","","37","","28","","","","-1","","","","","2","","","","","0","556","","","","","","","","","","","","","","","","","","","","","","","","",""
"","reward_outcome","","html-keyboard-response","275","1985591","0.0-236.0","0","0","YJmUD","People","","1647","","","","40","","37","","28","","","","","","","","","","","","","","","","-1","1647","","","","","","","","","","","","","","","","","","","","","","",""
"","fixation","","html-keyboard-response","276","1986600","0.0-239.0","0","0","YJmUD","People","","null","","","","null","","","","","","","","","","","","","","","","","","","","","","","","","","","","","","","","","","","","","","","","","","","",""
"","see_reward","","html-keyboard-response","277","1987345","0.0-240.0","0","0","YJmUD","People","","739","","","","32","","33","","29","","","","-1","","","","","2","","","","","0","739","","","","","","","","","","","","","","","","","","","","","","","","",""
"","reward_outcome","","html-keyboard-response","278","1989352","0.0-241.0","0","0","YJmUD","People","","721","","","","40","","33","","29","","","","","","","","","","","","","","","","-1","721","","","","","","","","","","","","","","","","","","","","","","",""
"","fixation","","html-keyboard-response","279","1990375","0.0-244.0","0","0","YJmUD","People","","null","","","","null","","","","","","","","","","","","","","","","","","","","","","","","","","","","","","","","","","","","","","","","","","","",""
"","see_reward","","html-keyboard-response","280","1990812","0.0-245.0","0","0","YJmUD","People","","430","","","","32","","31","","30","","","","-1","","","","","2","","","","","0","430","","","","","","","","","","","","","","","","","","","","","","","","",""
"","reward_outcome","","html-keyboard-response","281","1992825","0.0-246.0","0","0","YJmUD","People","","520","","","","40","","31","","30","","","","","","","","","","","","","","","","-1","520","","","","","","","","","","","","","","","","","","","","","","",""
"","fixation","","html-keyboard-response","282","1993846","0.0-249.0","0","0","YJmUD","People","","null","","","","null","","","","","","","","","","","","","","","","","","","","","","","","","","","","","","","","","","","","","","","","","","","",""
"","see_reward","","html-keyboard-response","283","1994305","0.0-250.0","0","0","YJmUD","People","","455","","","","32","","31","","31","","","","-1","","","","","2","","","","","0","455","","","","","","","","","","","","","","","","","","","","","","","","",""
"","reward_outcome","","html-keyboard-response","284","1996320","0.0-251.0","0","0","YJmUD","People","","427","","","","40","","31","","31","","","","","","","","","","","","","","","","-1","427","","","","","","","","","","","","","","","","","","","","","","",""
"","fixation","","html-keyboard-response","285","1997343","0.0-254.0","0","0","YJmUD","People","","null","","","","null","","","","","","","","","","","","","","","","","","","","","","","","","","","","","","","","","","","","","","","","","","","",""
"","see_reward","","html-keyboard-response","286","1997883","0.0-255.0","0","0","YJmUD","People","","535","","","","32","","44","","32","","","","-1","","","","","2","","","","","0","535","","","","","","","","","","","","","","","","","","","","","","","","",""
"","reward_outcome","","html-keyboard-response","287","1999899","0.0-256.0","0","0","YJmUD","People","","615","","","","40","","44","","32","","","","","","","","","","","","","","","","-1","615","","","","","","","","","","","","","","","","","","","","","","",""
"","fixation","","html-keyboard-response","288","2000919","0.0-259.0","0","0","YJmUD","People","","null","","","","null","","","","","","","","","","","","","","","","","","","","","","","","","","","","","","","","","","","","","","","","","","","",""
"","see_reward","","html-keyboard-response","289","2001388","0.0-260.0","0","0","YJmUD","People","","463","","","","32","","30","","33","","","","1","","","","","2","","","","","150","463","","","","","","","","","","","","","","","","","","","","","","","","",""
"","reward_outcome","","html-keyboard-response","290","2003401","0.0-261.0","0","0","YJmUD","People","","538","","","","38","","30","","33","","","","","","","","","","","","","","","","1","538","","","","","","","","","","","","","","","","","","","","","","",""
"","fixation","","html-keyboard-response","291","2004422","0.0-264.0","0","0","YJmUD","People","","null","","","","null","","","","","","","","","","","","","","","","","","","","","","","","","","","","","","","","","","","","","","","","","","","",""
"","see_reward","","html-keyboard-response","292","2005313","0.0-265.0","0","0","YJmUD","People","","887","","","","32","","46","","34","","","","1","","","","","2","","","","","145","887","","","","","","","","","","","","","","","","","","","","","","","","",""
"","reward_outcome","","html-keyboard-response","293","2007332","0.0-266.0","0","0","YJmUD","People","","801","","","","38","","46","","34","","","","","","","","","","","","","","","","1","801","","","","","","","","","","","","","","","","","","","","","","",""
"","fixation","","html-keyboard-response","294","2008354","0.0-269.0","0","0","YJmUD","People","","null","","","","null","","","","","","","","","","","","","","","","","","","","","","","","","","","","","","","","","","","","","","","","","","","",""
"","see_reward","","html-keyboard-response","295","2009209","0.0-270.0","0","0","YJmUD","People","","849","","","","32","","35","","35","","","","1","","","","","2","","","","","158","849","","","","","","","","","","","","","","","","","","","","","","","","",""
"","reward_outcome","","html-keyboard-response","296","2011226","0.0-271.0","0","0","YJmUD","People","","686","","","","38","","35","","35","","","","","","","","","","","","","","","","1","686","","","","","","","","","","","","","","","","","","","","","","",""
"","fixation","","html-keyboard-response","297","2012235","0.0-274.0","0","0","YJmUD","People","","null","","","","null","","","","","","","","","","","","","","","","","","","","","","","","","","","","","","","","","","","","","","","","","","","",""
"","see_reward","","html-keyboard-response","298","2013017","0.0-275.0","0","0","YJmUD","People","","777","","","","32","","49","","36","","","","-1","","","","","2","","","","","0","777","","","","","","","","","","","","","","","","","","","","","","","","",""
"","reward_outcome","","html-keyboard-response","299","2015029","0.0-276.0","0","0","YJmUD","People","","551","","","","40","","49","","36","","","","","","","","","","","","","","","","-1","551","","","","","","","","","","","","","","","","","","","","","","",""
"","fixation","","html-keyboard-response","300","2016044","0.0-279.0","0","0","YJmUD","People","","null","","","","null","","","","","","","","","","","","","","","","","","","","","","","","","","","","","","","","","","","","","","","","","","","",""
"","see_reward","","html-keyboard-response","301","2016711","0.0-280.0","0","0","YJmUD","People","","662","","","","32","","46","","37","","","","1","","","","","2","","","","","145","662","","","","","","","","","","","","","","","","","","","","","","","","",""
"","reward_outcome","","html-keyboard-response","302","2018727","0.0-281.0","0","0","YJmUD","People","","1208","","","","38","","46","","37","","","","","","","","","","","","","","","","1","1208","","","","","","","","","","","","","","","","","","","","","","",""
"","fixation","","html-keyboard-response","303","2019750","0.0-284.0","0","0","YJmUD","People","","null","","","","null","","","","","","","","","","","","","","","","","","","","","","","","","","","","","","","","","","","","","","","","","","","",""
"","see_reward","","html-keyboard-response","304","2020734","0.0-285.0","0","0","YJmUD","People","","979","","","","32","","24","","38","","","","1","","","","","2","","","","","141","979","","","","","","","","","","","","","","","","","","","","","","","","",""
"","reward_outcome","","html-keyboard-response","305","2022745","0.0-286.0","0","0","YJmUD","People","","688","","","","38","","24","","38","","","","","","","","","","","","","","","","1","688","","","","","","","","","","","","","","","","","","","","","","",""
"","fixation","","html-keyboard-response","306","2023752","0.0-289.0","0","0","YJmUD","People","","null","","","","null","","","","","","","","","","","","","","","","","","","","","","","","","","","","","","","","","","","","","","","","","","","",""
"","see_reward","","html-keyboard-response","307","2024444","0.0-290.0","0","0","YJmUD","People","","689","","","","32","","0","","39","","","","1","","","","","2","","","","","155","689","","","","","","","","","","","","","","","","","","","","","","","","",""
"","reward_outcome","","html-keyboard-response","308","2026464","0.0-291.0","0","0","YJmUD","People","","949","","","","38","","0","","39","","","","","","","","","","","","","","","","1","949","","","","","","","","","","","","","","","","","","","","","","",""
"","fixation","","html-keyboard-response","309","2027472","0.0-294.0","0","0","YJmUD","People","","null","","","","null","","","","","","","","","","","","","","","","","","","","","","","","","","","","","","","","","","","","","","","","","","","",""
"","see_reward","","html-keyboard-response","310","2028051","0.0-295.0","0","0","YJmUD","People","","574","","","","32","","6","","40","","","","-1","","","","","2","","","","","0","574","","","","","","","","","","","","","","","","","","","","","","","","",""
"","reward_outcome","","html-keyboard-response","311","2030071","0.0-296.0","0","0","YJmUD","People","","712","","","","40","","6","","40","","","","","","","","","","","","","","","","-1","712","","","","","","","","","","","","","","","","","","","","","","",""
"","fixation","","html-keyboard-response","312","2031093","0.0-299.0","0","0","YJmUD","People","","null","","","","null","","","","","","","","","","","","","","","","","","","","","","","","","","","","","","","","","","","","","","","","","","","",""
"","see_reward","","html-keyboard-response","313","2032077","0.0-300.0","0","0","YJmUD","People","","976","","","","32","","39","","41","","","","1","","","","","2","","","","","159","976","","","","","","","","","","","","","","","","","","","","","","","","",""
"","reward_outcome","","html-keyboard-response","314","2034089","0.0-301.0","0","0","YJmUD","People","","546","","","","38","","39","","41","","","","","","","","","","","","","","","","1","546","","","","","","","","","","","","","","","","","","","","","","",""
"","fixation","","html-keyboard-response","315","2035108","0.0-304.0","0","0","YJmUD","People","","null","","","","null","","","","","","","","","","","","","","","","","","","","","","","","","","","","","","","","","","","","","","","","","","","",""
"","see_reward","","html-keyboard-response","316","2037827","0.0-305.0","0","0","YJmUD","People","","2712","","","","32","","6","","42","","","","-1","","","","","2","","","","","0","2712","","","","","","","","","","","","","","","","","","","","","","","","",""
"","reward_outcome","","html-keyboard-response","317","2039855","0.0-306.0","0","0","YJmUD","People","","604","","","","40","","6","","42","","","","","","","","","","","","","","","","-1","604","","","","","","","","","","","","","","","","","","","","","","",""
"","fixation","","html-keyboard-response","318","2040875","0.0-309.0","0","0","YJmUD","People","","null","","","","null","","","","","","","","","","","","","","","","","","","","","","","","","","","","","","","","","","","","","","","","","","","",""
"","see_reward","","html-keyboard-response","319","2042505","0.0-310.0","0","0","YJmUD","People","","1625","","","","32","","24","","43","","","","1","","","","","2","","","","","141","1625","","","","","","","","","","","","","","","","","","","","","","","","",""
"","reward_outcome","","html-keyboard-response","320","2044514","0.0-311.0","0","0","YJmUD","People","","1051","","","","38","","24","","43","","","","","","","","","","","","","","","","1","1051","","","","","","","","","","","","","","","","","","","","","","",""
"","fixation","","html-keyboard-response","321","2045521","0.0-314.0","0","0","YJmUD","People","","null","","","","null","","","","","","","","","","","","","","","","","","","","","","","","","","","","","","","","","","","","","","","","","","","",""
"","see_reward","","html-keyboard-response","322","2046358","0.0-315.0","0","0","YJmUD","People","","831","","","","32","","33","","44","","","","-1","","","","","2","","","","","0","831","","","","","","","","","","","","","","","","","","","","","","","","",""
"","reward_outcome","","html-keyboard-response","323","2048372","0.0-316.0","0","0","YJmUD","People","","699","","","","40","","33","","44","","","","","","","","","","","","","","","","-1","699","","","","","","","","","","","","","","","","","","","","","","",""
"","fixation","","html-keyboard-response","324","2049395","0.0-319.0","0","0","YJmUD","People","","null","","","","null","","","","","","","","","","","","","","","","","","","","","","","","","","","","","","","","","","","","","","","","","","","",""
"","see_reward","","html-keyboard-response","325","2050966","0.0-320.0","0","0","YJmUD","People","","1566","","","","32","","0","","45","","","","1","","","","","2","","","","","155","1566","","","","","","","","","","","","","","","","","","","","","","","","",""
"","reward_outcome","","html-keyboard-response","326","2052987","0.0-321.0","0","0","YJmUD","People","","1045","","","","38","","0","","45","","","","","","","","","","","","","","","","1","1045","","","","","","","","","","","","","","","","","","","","","","",""
"","fixation","","html-keyboard-response","327","2054012","0.0-324.0","0","0","YJmUD","People","","null","","","","null","","","","","","","","","","","","","","","","","","","","","","","","","","","","","","","","","","","","","","","","","","","",""
"","see_reward","","html-keyboard-response","328","2054600","0.0-325.0","0","0","YJmUD","People","","586","","","","32","","35","","46","","","","1","","","","","2","","","","","158","586","","","","","","","","","","","","","","","","","","","","","","","","",""
"","reward_outcome","","html-keyboard-response","329","2056613","0.0-326.0","0","0","YJmUD","People","","null","","","","null","","35","","46","","","","","","","","","","","","","","","","NaN","null","","","","","","","","","","","","","","","","","","","","","","",""
"","respond_faster","","html-keyboard-response","330","2058131","0.0-327.0-0.0","1","0","YJmUD","People","","null","","","","null","","","","","","","","","","","","","","","","","","","","","","","","","","","","","","","","","","","","","","","","","","","",""
"","fixation","","html-keyboard-response","331","2059151","0.0-329.0","0","0","YJmUD","People","","null","","","","null","","","","","","","","","","","","","","","","","","","","","","","","","","","","","","","","","","","","","","","","","","","",""
"","see_reward","","html-keyboard-response","332","2059675","0.0-330.0","0","0","YJmUD","People","","520","","","","32","","49","","47","","","","-1","","","","","2","","","","","0","520","","","","","","","","","","","","","","","","","","","","","","","","",""
"","reward_outcome","","html-keyboard-response","333","2061693","0.0-331.0","0","0","YJmUD","People","","null","","","","null","","49","","47","","","","","","","","","","","","","","","","NaN","null","","","","","","","","","","","","","","","","","","","","","","",""
"","respond_faster","","html-keyboard-response","334","2063210","0.0-332.0-0.0","1","0","YJmUD","People","","null","","","","null","","","","","","","","","","","","","","","","","","","","","","","","","","","","","","","","","","","","","","","","","","","",""
"","block_over","","html-keyboard-response","335","2065710","0.0-333.0-0.0","0","0","YJmUD","People","","2496","","","","78","","","","","","","","","","","","","","","","","","","","","","","","","","","","","","","","","","","","","","","","","","","",""
"","fixation","","html-keyboard-response","336","2066720","0.0-334.0","0","0","YJmUD","People","","null","","","","null","","","","","","","","","","","","","","","","","","","","","","","","","","","","","","","","","","","","","","","","","","","",""
"","see_reward","","html-keyboard-response","337","2067910","0.0-335.0","0","0","YJmUD","People","","1179","","","","32","","24","","48","","","","1","","","","","3","","","","","141","1179","","","","","","","","","","","","","","","","","","","","","","","","",""
"","reward_outcome","","html-keyboard-response","338","2069923","0.0-336.0","0","0","YJmUD","People","","1037","","","","38","","24","","48","","","","","","","","","","","","","","","","1","1037","","","","","","","","","","","","","","","","","","","","","","",""
"","fixation","","html-keyboard-response","339","2070944","0.0-339.0","0","0","YJmUD","People","","null","","","","null","","","","","","","","","","","","","","","","","","","","","","","","","","","","","","","","","","","","","","","","","","","",""
"","see_reward","","html-keyboard-response","340","2071463","0.0-340.0","0","0","YJmUD","People","","515","","","","32","","35","","49","","","","1","","","","","3","","","","","158","515","","","","","","","","","","","","","","","","","","","","","","","","",""
"","reward_outcome","","html-keyboard-response","341","2073483","0.0-341.0","0","0","YJmUD","People","","591","","","","38","","35","","49","","","","","","","","","","","","","","","","1","591","","","","","","","","","","","","","","","","","","","","","","",""
"","fixation","","html-keyboard-response","342","2074501","0.0-344.0","0","0","YJmUD","People","","null","","","","null","","","","","","","","","","","","","","","","","","","","","","","","","","","","","","","","","","","","","","","","","","","",""
"","see_reward","","html-keyboard-response","343","2074875","0.0-345.0","0","0","YJmUD","People","","370","","","","32","","0","","50","","","","1","","","","","3","","","","","155","370","","","","","","","","","","","","","","","","","","","","","","","","",""
"","reward_outcome","","html-keyboard-response","344","2076895","0.0-346.0","0","0","YJmUD","People","","578","","","","38","","0","","50","","","","","","","","","","","","","","","","1","578","","","","","","","","","","","","","","","","","","","","","","",""
"","fixation","","html-keyboard-response","345","2077912","0.0-349.0","0","0","YJmUD","People","","null","","","","null","","","","","","","","","","","","","","","","","","","","","","","","","","","","","","","","","","","","","","","","","","","",""
"","see_reward","","html-keyboard-response","346","2078627","0.0-350.0","0","0","YJmUD","People","","711","","","","32","","31","","51","","","","-1","","","","","3","","","","","0","711","","","","","","","","","","","","","","","","","","","","","","","","",""
"","reward_outcome","","html-keyboard-response","347","2080640","0.0-351.0","0","0","YJmUD","People","","616","","","","40","","31","","51","","","","","","","","","","","","","","","","-1","616","","","","","","","","","","","","","","","","","","","","","","",""
"","fixation","","html-keyboard-response","348","2081648","0.0-354.0","0","0","YJmUD","People","","null","","","","null","","","","","","","","","","","","","","","","","","","","","","","","","","","","","","","","","","","","","","","","","","","",""
"","see_reward","","html-keyboard-response","349","2082052","0.0-355.0","0","0","YJmUD","People","","401","","","","32","","6","","52","","","","-1","","","","","3","","","","","0","401","","","","","","","","","","","","","","","","","","","","","","","","",""
"","reward_outcome","","html-keyboard-response","350","2084079","0.0-356.0","0","0","YJmUD","People","","512","","","","40","","6","","52","","","","","","","","","","","","","","","","-1","512","","","","","","","","","","","","","","","","","","","","","","",""
