"success","ttype","start_time","trial_type","trial_index","time_elapsed","internal_node_id","warning","missed_checkup","PID","stim_type","view_history","rt","responses","category","repeat_instructions","key_press","response","stimulus_id","painting","index","stimulus_left","stimulus_right","explain_trial","reward_type","rating_left","rating_right","painting_left","painting_right","block","left_chosen","chosen_obj","unchosen_obj","explain_response","reward_amount","see_reward_rt","register_reward_response","register_reward_rt","deliberation_reward_tally","stimulus_left_deliberation_ind","stimulus_right_deliberation_ind","chosen_trial","gain_left","higher_outcome_chosen","old_pair","chosen_object","rt_pairs","left_object_chosen","rt_object","old_response","new_rating","deliberated_stim","initial_rating","outcome_eval_rt","outcome_eval_response","outcome_eval_gain","outcome_eval_acc","preamble","outcome_eval_confidence","outcome_eval_confidence_rt","total_reward_tally"
"true","full_screen","d01182023hr1359","fullscreen","0","27383","0.0-0.0","0","0","iDB50","People","","","","","","","","","","","","","","","","","","","","","","","","","","","","","","","","","","","","","","","","","","","","","","","","","",""
"","rating_instructions","","instructions","1","46255","0.0-1.0-0.0","0","0","iDB50","People","[{""page_index"":0,""viewing_time"":16113},{""page_index"":1,""viewing_time"":2744}]","18862","","","","","","","","","","","","","","","","","","","","","","","","","","","","","","","","","","","","","","","","","","","","","","","",""
"","","","survey-multi-choice","2","67858","0.0-1.0-1.0","0","0","iDB50","People","","21587","{""Q0"":""True"",""Q1"":""Mouse""}","rating_comprehension_check","0","","","","","","","","","","","","","","","","","","","","","","","","","","","","","","","","","","","","","","","","","","","","",""
"","start_phase","","html-keyboard-response","3","110510","0.0-2.0","0","0","iDB50","People","","42639","","","","78","","","","","","","","","","","","","","","","","","","","","","","","","","","","","","","","","","","","","","","","","","","",""
"","rating","","html-slider-response","4","115665","0.0-3.0","0","0","iDB50","People","","5140","","","","","52","17","gleb-lukomets-paBzWCPN23k-unsplash.jpg","0","","","","","","","","","","","","","","","","","","","","","","","","","","","","","","","","","","","","","","","",""
"","rating","","html-slider-response","5","120727","0.0-4.0","0","0","iDB50","People","","5051","","","","","22","15","gabriel-silverio-u3WmDyKGsrY-unsplash.jpg","1","","","","","","","","","","","","","","","","","","","","","","","","","","","","","","","","","","","","","","","",""
"","rating","","html-slider-response","6","125058","0.0-5.0","0","0","iDB50","People","","4322","","","","","12","13","erik-lucatero-d2MSDujJl2g-unsplash.jpg","2","","","","","","","","","","","","","","","","","","","","","","","","","","","","","","","","","","","","","","","",""
"","rating","","html-slider-response","7","128222","0.0-6.0","0","0","iDB50","People","","3152","","","","","75","11","christian-ferrer-8vT-DgHZDG4-unsplash.jpg","3","","","","","","","","","","","","","","","","","","","","","","","","","","","","","","","","","","","","","","","",""
"","rating","","html-slider-response","8","134543","0.0-7.0","0","0","iDB50","People","","6309","","","","","90","1","aiony-haust-jmATI5Q_YgY-unsplash.jpg","4","","","","","","","","","","","","","","","","","","","","","","","","","","","","","","","","","","","","","","","",""
"","rating","","html-slider-response","9","140148","0.0-8.0","0","0","iDB50","People","","5591","","","","","98","20","houcine-ncib-B4TjXnI0Y2c-unsplash.jpg","5","","","","","","","","","","","","","","","","","","","","","","","","","","","","","","","","","","","","","","","",""
"","rating","","html-slider-response","10","143943","0.0-9.0","0","0","iDB50","People","","3785","","","","","61","28","justin-chen-J7Cf1Gch49E-unsplash.jpg","6","","","","","","","","","","","","","","","","","","","","","","","","","","","","","","","","","","","","","","","",""
"","rating","","html-slider-response","11","152029","0.0-10.0","0","0","iDB50","People","","8076","","","","","37","47","tyler-nix-ZGa9d1a_4tA-unsplash.jpg","7","","","","","","","","","","","","","","","","","","","","","","","","","","","","","","","","","","","","","","","",""
"","rating","","html-slider-response","12","155720","0.0-11.0","0","0","iDB50","People","","3682","","","","","64","10","charles-etoroma-95UF6LXe-Lo-unsplash.jpg","8","","","","","","","","","","","","","","","","","","","","","","","","","","","","","","","","","","","","","","","",""
"","rating","","html-slider-response","13","160369","0.0-12.0","0","0","iDB50","People","","4637","","","","","73","30","matheus-ferrero-pg_WCHWSdT8-unsplash.jpg","9","","","","","","","","","","","","","","","","","","","","","","","","","","","","","","","","","","","","","","","",""
"","rating","","html-slider-response","14","164544","0.0-13.0","0","0","iDB50","People","","4166","","","","","68","27","jurica-koletic-7YVZYZeITc8-unsplash.jpg","10","","","","","","","","","","","","","","","","","","","","","","","","","","","","","","","","","","","","","","","",""
"","rating","","html-slider-response","15","171237","0.0-14.0","0","0","iDB50","People","","6681","","","","","52","33","olena-sergienko-0TSd6uCKTKc-unsplash.jpg","11","","","","","","","","","","","","","","","","","","","","","","","","","","","","","","","","","","","","","","","",""
"","rating","","html-slider-response","16","176439","0.0-15.0","0","0","iDB50","People","","5191","","","","","29","7","brooke-cagle-HRZUzoX1e6w-unsplash.jpg","12","","","","","","","","","","","","","","","","","","","","","","","","","","","","","","","","","","","","","","","",""
"","rating","","html-slider-response","17","199004","0.0-16.0","0","0","iDB50","People","","22553","","","","","12","4","barna-bartis-2x3vfVxwR7o-unsplash.jpg","13","","","","","","","","","","","","","","","","","","","","","","","","","","","","","","","","","","","","","","","",""
"","rating","","html-slider-response","18","218731","0.0-17.0","0","0","iDB50","People","","19715","","","","","68","35","oliver-ragfelt-khV4fTy6-D8-unsplash.jpg","14","","","","","","","","","","","","","","","","","","","","","","","","","","","","","","","","","","","","","","","",""
"","rating","","html-slider-response","19","224634","0.0-18.0","0","0","iDB50","People","","5892","","","","","89","36","ospan-ali-mGdA2fzjWLo-unsplash.jpg","15","","","","","","","","","","","","","","","","","","","","","","","","","","","","","","","","","","","","","","","",""
"","rating","","html-slider-response","20","233348","0.0-19.0","0","0","iDB50","People","","8702","","","","","35","0","abstral-official-cyOKLSgkgCE-unsplash.jpg","16","","","","","","","","","","","","","","","","","","","","","","","","","","","","","","","","","","","","","","","",""
"","rating","","html-slider-response","21","248221","0.0-20.0","0","0","iDB50","People","","14861","","","","","6","32","nathan-dumlao-ger61_TX6oI-unsplash.jpg","17","","","","","","","","","","","","","","","","","","","","","","","","","","","","","","","","","","","","","","","",""
"","rating","","html-slider-response","22","252058","0.0-21.0","0","0","iDB50","People","","3826","","","","","64","14","freddy-kearney-o-ioeoATbIM-unsplash.jpg","18","","","","","","","","","","","","","","","","","","","","","","","","","","","","","","","","","","","","","","","",""
"","rating","","html-slider-response","23","258227","0.0-22.0","0","0","iDB50","People","","6159","","","","","68","43","raamin-ka-0qJBEzudn5E-unsplash.jpg","19","","","","","","","","","","","","","","","","","","","","","","","","","","","","","","","","","","","","","","","",""
"","rating","","html-slider-response","24","263390","0.0-23.0","0","0","iDB50","People","","5151","","","","","40","22","jessica-radanavong-mrYkTuAesKE-unsplash.jpg","20","","","","","","","","","","","","","","","","","","","","","","","","","","","","","","","","","","","","","","","",""
"","rating","","html-slider-response","25","301746","0.0-24.0","0","0","iDB50","People","","38344","","","","","89","5","batel-studio-ttSRjiYG_WM-unsplash.jpg","21","","","","","","","","","","","","","","","","","","","","","","","","","","","","","","","","","","","","","","","",""
"","rating","","html-slider-response","26","326967","0.0-25.0","0","0","iDB50","People","","25210","","","","","91","19","ha-nguy-n-OFSQ6bHjFjs-unsplash.jpg","22","","","","","","","","","","","","","","","","","","","","","","","","","","","","","","","","","","","","","","","",""
"","rating","","html-slider-response","27","330830","0.0-26.0","0","0","iDB50","People","","3850","","","","","70","34","oliver-johnson-1TUIcKob7Zs-unsplash.jpg","23","","","","","","","","","","","","","","","","","","","","","","","","","","","","","","","","","","","","","","","",""
"","rating","","html-slider-response","28","344562","0.0-27.0","0","0","iDB50","People","","13721","","","","","39","42","prince-akachi-l3IHXOdMyHQ-unsplash.jpg","24","","","","","","","","","","","","","","","","","","","","","","","","","","","","","","","","","","","","","","","",""
"","rating","","html-slider-response","29","347754","0.0-28.0","0","0","iDB50","People","","3179","","","","","66","6","ben-o-bro-C5XyLljkMrY-unsplash.jpg","25","","","","","","","","","","","","","","","","","","","","","","","","","","","","","","","","","","","","","","","",""
"","rating","","html-slider-response","30","351533","0.0-29.0","0","0","iDB50","People","","3770","","","","","91","16","giano-currie-5-9YOsmf8IQ-unsplash.jpg","26","","","","","","","","","","","","","","","","","","","","","","","","","","","","","","","","","","","","","","","",""
"","rating","","html-slider-response","31","355150","0.0-30.0","0","0","iDB50","People","","3609","","","","","18","8","bruce-dixon-3M9WJQVHzog-unsplash.jpg","27","","","","","","","","","","","","","","","","","","","","","","","","","","","","","","","","","","","","","","","",""
"","rating","","html-slider-response","32","358493","0.0-31.0","0","0","iDB50","People","","3332","","","","","45","39","philip-martin-5aGUyCW_PJw-unsplash.jpg","28","","","","","","","","","","","","","","","","","","","","","","","","","","","","","","","","","","","","","","","",""
"","rating","","html-slider-response","33","362026","0.0-32.0","0","0","iDB50","People","","3522","","","","","76","25","joseph-gonzalez-iFgRcqHznqg-unsplash.jpg","29","","","","","","","","","","","","","","","","","","","","","","","","","","","","","","","","","","","","","","","",""
"","rating","","html-slider-response","34","366686","0.0-33.0","0","0","iDB50","People","","4649","","","","","97","3","art-hauntington-jzY0KRJopEI-unsplash.jpg","30","","","","","","","","","","","","","","","","","","","","","","","","","","","","","","","","","","","","","","","",""
"","rating","","html-slider-response","35","371593","0.0-34.0","0","0","iDB50","People","","4896","","","","","37","48","velizar-ivanov-7ktP9yZA1g4-unsplash.jpg","31","","","","","","","","","","","","","","","","","","","","","","","","","","","","","","","","","","","","","","","",""
"","rating","","html-slider-response","36","375121","0.0-35.0","0","0","iDB50","People","","3516","","","","","71","26","juri-gianfrancesco-9EZadYaMzk4-unsplash.jpg","32","","","","","","","","","","","","","","","","","","","","","","","","","","","","","","","","","","","","","","","",""
"","rating","","html-slider-response","37","379342","0.0-36.0","0","0","iDB50","People","","4210","","","","","82","44","rikonavt-HQjfrvdTfak-unsplash.jpg","33","","","","","","","","","","","","","","","","","","","","","","","","","","","","","","","","","","","","","","","",""
"","rating","","html-slider-response","38","386922","0.0-37.0","0","0","iDB50","People","","7569","","","","","16","21","jessica-felicio-_cvwXhGqG-o-unsplash.jpg","34","","","","","","","","","","","","","","","","","","","","","","","","","","","","","","","","","","","","","","","",""
"","rating","","html-slider-response","39","390962","0.0-38.0","0","0","iDB50","People","","4028","","","","","54","45","sarah-noltner-pL5ZzPp1zqg-unsplash.jpg","35","","","","","","","","","","","","","","","","","","","","","","","","","","","","","","","","","","","","","","","",""
"","rating","","html-slider-response","40","395978","0.0-39.0","0","0","iDB50","People","","5005","","","","","6","29","leilani-angel-K84vnnzxmTQ-unsplash.jpg","36","","","","","","","","","","","","","","","","","","","","","","","","","","","","","","","","","","","","","","","",""
"","rating","","html-slider-response","41","400257","0.0-40.0","0","0","iDB50","People","","4259","","","","","65","40","prince-akachi-4Yv84VgQkRM-unsplash.jpg","37","","","","","","","","","","","","","","","","","","","","","","","","","","","","","","","","","","","","","","","",""
"","rating","","html-slider-response","42","404269","0.0-41.0","0","0","iDB50","People","","4000","","","","","35","9","carlos-andres-gomez-vJuk8Y86mRw-unsplash.jpg","38","","","","","","","","","","","","","","","","","","","","","","","","","","","","","","","","","","","","","","","",""
"","rating","","html-slider-response","43","407634","0.0-42.0","0","0","iDB50","People","","3356","","","","","66","23","joanna-nix-walkup-H4fEMshfwTE-unsplash.jpg","39","","","","","","","","","","","","","","","","","","","","","","","","","","","","","","","","","","","","","","","",""
"","rating","","html-slider-response","44","412957","0.0-43.0","0","0","iDB50","People","","5315","","","","","17","2","arjunsyah-TBUA5KHJn6k-unsplash.jpg","40","","","","","","","","","","","","","","","","","","","","","","","","","","","","","","","","","","","","","","","",""
"","rating","","html-slider-response","45","417139","0.0-44.0","0","0","iDB50","People","","4171","","","","","83","12","daniel-rigdon-dXmXKPP2L4E-unsplash.jpg","41","","","","","","","","","","","","","","","","","","","","","","","","","","","","","","","","","","","","","","","",""
"","rating","","html-slider-response","46","424859","0.0-45.0","0","0","iDB50","People","","7710","","","","","90","31","mathilda-khoo-vLR0YP_otCo-unsplash.jpg","42","","","","","","","","","","","","","","","","","","","","","","","","","","","","","","","","","","","","","","","",""
"","rating","","html-slider-response","47","432362","0.0-46.0","0","0","iDB50","People","","7495","","","","","98","46","stefan-stefancik-QXevDflbl8A-unsplash.jpg","43","","","","","","","","","","","","","","","","","","","","","","","","","","","","","","","","","","","","","","","",""
"","rating","","html-slider-response","48","438599","0.0-47.0","0","0","iDB50","People","","6228","","","","","59","38","petr-sevcovic-HzDF-rxlSeM-unsplash.jpg","44","","","","","","","","","","","","","","","","","","","","","","","","","","","","","","","","","","","","","","","",""
"","rating","","html-slider-response","49","441722","0.0-48.0","0","0","iDB50","People","","3114","","","","","26","18","good-faces-xmSWVeGEnJw-unsplash.jpg","45","","","","","","","","","","","","","","","","","","","","","","","","","","","","","","","","","","","","","","","",""
"","rating","","html-slider-response","50","445042","0.0-49.0","0","0","iDB50","People","","3305","","","","","59","49","vicky-hladynets-_gDoyVv5F4c-unsplash.jpg","46","","","","","","","","","","","","","","","","","","","","","","","","","","","","","","","","","","","","","","","",""
"","rating","","html-slider-response","51","453380","0.0-50.0","0","0","iDB50","People","","8327","","","","","5","37","pavel-anoshin-d0peGya6R5Y-unsplash.jpg","47","","","","","","","","","","","","","","","","","","","","","","","","","","","","","","","","","","","","","","","",""
"","rating","","html-slider-response","52","460386","0.0-51.0","0","0","iDB50","People","","6994","","","","","73","41","prince-akachi-i2hoD-C2RUA-unsplash.jpg","48","","","","","","","","","","","","","","","","","","","","","","","","","","","","","","","","","","","","","","","",""
"","rating","","html-slider-response","53","468182","0.0-52.0","0","0","iDB50","People","","7784","","","","","79","24","joel-mott-LaK153ghdig-unsplash.jpg","49","","","","","","","","","","","","","","","","","","","","","","","","","","","","","","","","","","","","","","","",""
"","deliberation_instructions","","instructions","54","639825","0.0-53.0-0.0","0","0","iDB50","People","[{""page_index"":0,""viewing_time"":63630},{""page_index"":1,""viewing_time"":17882},{""page_index"":2,""viewing_time"":32897},{""page_index"":3,""viewing_time"":54416},{""page_index"":4,""viewing_time"":2793}]","171620","","","","","","","","","","","","","","","","","","","","","","","","","","","","","","","","","","","","","","","","","","","","","","","",""
"","","","survey-multi-choice","55","712758","0.0-53.0-1.0","0","0","iDB50","People","","72897","{""Q0"":""True"",""Q1"":""True"",""Q2"":""Consider carefully and take your time (up to 10 seconds)"",""Q3"":""True"",""Q4"":""D""}","deliberation_comprehension_check","0","","","","","","","","","","","","","","","","","","","","","","","","","","","","","","","","","","","","","","","","","","","","",""
"","start_phase","","html-keyboard-response","56","719851","0.0-54.0","0","0","iDB50","People","","7084","","","","78","","","","","","","","","","","","","","","","","","","","","","","","","","","","","","","","","","","","","","","","","","","",""
"","first_deliberation_block","","html-keyboard-response","57","722548","0.0-55.0","0","0","iDB50","People","","2690","","","","78","","","","","","","","","","","","","","","","","","","","","","","","","","","","","","","","","","","","","","","","","","","",""
"","fixation","","html-keyboard-response","58","723560","0.0-56.0-0.0","0","0","iDB50","People","","null","","","","null","","","","","","","","","","","","","","","","","","","","","","","","","","","","","","","","","","","","","","","","","","","",""
"","deliberation","","html-keyboard-response","59","724888","0.0-56.0-1.0","0","0","iDB50","People","","1317","","","","68","","","","0","11","49","0","1","75","59","christian-ferrer-8vT-DgHZDG4-unsplash.jpg","vicky-hladynets-_gDoyVv5F4c-unsplash.jpg","1","1","11","49","","","","","","","","","","","","","","","","","","","","","","","","","","","",""
"","choice_confirmation","","html-keyboard-response","60","725408","0.0-56.0-2.0-0.0","0","0","iDB50","People","","null","","","","null","","","","0","11","49","","","","","","","","","","","","","","","","","","","","","","","","","","","","","","","","","","","","","",""
"","fixation","","html-keyboard-response","61","726425","0.0-57.0-0.0","0","0","iDB50","People","","null","","","","null","","","","","","","","","","","","","","","","","","","","","","","","","","","","","","","","","","","","","","","","","","","",""
"","deliberation","","html-keyboard-response","62","728026","0.0-57.0-1.0","0","0","iDB50","People","","1592","","","","68","","","","1","30","27","0","1","73","68","matheus-ferrero-pg_WCHWSdT8-unsplash.jpg","jurica-koletic-7YVZYZeITc8-unsplash.jpg","1","1","30","27","","","","","","","","","","","","","","","","","","","","","","","","","","","",""
"","choice_confirmation","","html-keyboard-response","63","728538","0.0-57.0-2.0-0.0","0","0","iDB50","People","","null","","","","null","","","","1","30","27","","","","","","","","","","","","","","","","","","","","","","","","","","","","","","","","","","","","","",""
"","fixation","","html-keyboard-response","64","729554","0.0-58.0-0.0","0","0","iDB50","People","","null","","","","null","","","","","","","","","","","","","","","","","","","","","","","","","","","","","","","","","","","","","","","","","","","",""
"","deliberation","","html-keyboard-response","65","730879","0.0-58.0-1.0","0","0","iDB50","People","","1316","","","","75","","","","2","39","47","0","-1","45","37","philip-martin-5aGUyCW_PJw-unsplash.jpg","tyler-nix-ZGa9d1a_4tA-unsplash.jpg","1","0","47","39","","","","","","","","","","","","","","","","","","","","","","","","","","","",""
"","choice_confirmation","","html-keyboard-response","66","731392","0.0-58.0-2.0-0.0","0","0","iDB50","People","","null","","","","null","","","","2","39","47","","","","","","","","","","","","","","","","","","","","","","","","","","","","","","","","","","","","","",""
"","fixation","","html-keyboard-response","67","732408","0.0-59.0-0.0","0","0","iDB50","People","","null","","","","null","","","","","","","","","","","","","","","","","","","","","","","","","","","","","","","","","","","","","","","","","","","",""
"","deliberation","","html-keyboard-response","68","734969","0.0-59.0-1.0","0","0","iDB50","People","","2556","","","","75","","","","3","45","14","0","1","54","64","sarah-noltner-pL5ZzPp1zqg-unsplash.jpg","freddy-kearney-o-ioeoATbIM-unsplash.jpg","1","0","14","45","","","","","","","","","","","","","","","","","","","","","","","","","","","",""
"","choice_confirmation","","html-keyboard-response","69","735481","0.0-59.0-2.0-0.0","0","0","iDB50","People","","null","","","","null","","","","3","45","14","","","","","","","","","","","","","","","","","","","","","","","","","","","","","","","","","","","","","",""
"","fixation","","html-keyboard-response","70","736496","0.0-60.0-0.0","0","0","iDB50","People","","null","","","","null","","","","","","","","","","","","","","","","","","","","","","","","","","","","","","","","","","","","","","","","","","","",""
"","deliberation","","html-keyboard-response","71","738424","0.0-60.0-1.0","0","0","iDB50","People","","1923","","","","75","","","","4","34","10","1","-1","70","64","oliver-johnson-1TUIcKob7Zs-unsplash.jpg","charles-etoroma-95UF6LXe-Lo-unsplash.jpg","1","0","10","34","","","","","","","","","","","","","","","","","","","","","","","","","","","",""
"","choice_confirmation","","html-keyboard-response","72","738935","0.0-60.0-2.0-0.0","0","0","iDB50","People","","null","","","","null","","","","4","34","10","","","","","","","","","","","","","","","","","","","","","","","","","","","","","","","","","","","","","",""
"","explain_trial","","survey-text","73","886388","0.0-60.0-5.0-0.0","0","0","iDB50","People","","147430","{""Q0"":""I like that the background is white because it showcases how happy the man is and the picture invokes happiness in me. The picture feels more real and candid. The other picture just seems plain like you have seen it many times""}","","","","","","","4","34","10","","","","","","","","","","","{""Q0"":""I like that the background is white because it showcases how happy the man is and the picture invokes happiness in me. The picture feels more real and candid. The other picture just seems plain like you have seen it many times""}","","","","","","","","","","","","","","","","","","","","","","","","","","",""
"","fixation","","html-keyboard-response","74","887407","0.0-61.0-0.0","0","0","iDB50","People","","null","","","","null","","","","","","","","","","","","","","","","","","","","","","","","","","","","","","","","","","","","","","","","","","","",""
"","deliberation","","html-keyboard-response","75","889763","0.0-61.0-1.0","0","0","iDB50","People","","2347","","","","68","","","","5","35","28","1","-1","68","61","oliver-ragfelt-khV4fTy6-D8-unsplash.jpg","justin-chen-J7Cf1Gch49E-unsplash.jpg","1","1","35","28","","","","","","","","","","","","","","","","","","","","","","","","","","","",""
"","choice_confirmation","","html-keyboard-response","76","890281","0.0-61.0-2.0-0.0","0","0","iDB50","People","","null","","","","null","","","","5","35","28","","","","","","","","","","","","","","","","","","","","","","","","","","","","","","","","","","","","","",""
"","explain_trial","","survey-text","77","988146","0.0-61.0-5.0-0.0","0","0","iDB50","People","","97851","{""Q0"":""The male has very striking blue eyes that catch the buyers attention. He looks more professional ,like a model and not a man just taking a cute selfie. Its just very eye catching""}","","","","","","","5","35","28","","","","","","","","","","","{""Q0"":""The male has very striking blue eyes that catch the buyers attention. He looks more professional ,like a model and not a man just taking a cute selfie. Its just very eye catching""}","","","","","","","","","","","","","","","","","","","","","","","","","","",""
"","fixation","","html-keyboard-response","78","989162","0.0-62.0-0.0","0","0","iDB50","People","","null","","","","null","","","","","","","","","","","","","","","","","","","","","","","","","","","","","","","","","","","","","","","","","","","",""
"","deliberation","","html-keyboard-response","79","993881","0.0-62.0-1.0","0","0","iDB50","People","","4711","","","","68","","","","6","17","26","1","-1","52","71","gleb-lukomets-paBzWCPN23k-unsplash.jpg","juri-gianfrancesco-9EZadYaMzk4-unsplash.jpg","1","1","17","26","","","","","","","","","","","","","","","","","","","","","","","","","","","",""
"","choice_confirmation","","html-keyboard-response","80","994394","0.0-62.0-2.0-0.0","0","0","iDB50","People","","null","","","","null","","","","6","17","26","","","","","","","","","","","","","","","","","","","","","","","","","","","","","","","","","","","","","",""
"","explain_trial","","survey-text","81","1098855","0.0-62.0-5.0-0.0","0","0","iDB50","People","","104451","{""Q0"":""I like that she just looks natural in her environment and she doesn't have to try to look like shes looking at anything specific. I like the monotone colors and it reminds of a modern Mona Lisa""}","","","","","","","6","17","26","","","","","","","","","","","{""Q0"":""I like that she just looks natural in her environment and she doesn't have to try to look like shes looking at anything specific. I like the monotone colors and it reminds of a modern Mona Lisa""}","","","","","","","","","","","","","","","","","","","","","","","","","","",""
"","fixation","","html-keyboard-response","82","1099871","0.0-63.0-0.0","0","0","iDB50","People","","null","","","","null","","","","","","","","","","","","","","","","","","","","","","","","","","","","","","","","","","","","","","","","","","","",""
"","deliberation","","html-keyboard-response","83","1104017","0.0-63.0-1.0","0","0","iDB50","People","","4140","","","","68","","","","7","38","6","0","-1","59","66","petr-sevcovic-HzDF-rxlSeM-unsplash.jpg","ben-o-bro-C5XyLljkMrY-unsplash.jpg","1","1","38","6","","","","","","","","","","","","","","","","","","","","","","","","","","","",""
"","choice_confirmation","","html-keyboard-response","84","1104527","0.0-63.0-2.0-0.0","0","0","iDB50","People","","null","","","","null","","","","7","38","6","","","","","","","","","","","","","","","","","","","","","","","","","","","","","","","","","","","","","",""
"","fixation","","html-keyboard-response","85","1105543","0.0-64.0-0.0","0","0","iDB50","People","","null","","","","null","","","","","","","","","","","","","","","","","","","","","","","","","","","","","","","","","","","","","","","","","","","",""
"","deliberation","","html-keyboard-response","86","1107174","0.0-64.0-1.0","0","0","iDB50","People","","1614","","","","75","","","","8","22","40","1","1","40","65","jessica-radanavong-mrYkTuAesKE-unsplash.jpg","prince-akachi-4Yv84VgQkRM-unsplash.jpg","1","0","40","22","","","","","","","","","","","","","","","","","","","","","","","","","","","",""
"","choice_confirmation","","html-keyboard-response","87","1107688","0.0-64.0-2.0-0.0","0","0","iDB50","People","","null","","","","null","","","","8","22","40","","","","","","","","","","","","","","","","","","","","","","","","","","","","","","","","","","","","","",""
"","explain_trial","","survey-text","88","1366611","0.0-64.0-5.0-0.0","0","0","iDB50","People","","258913","{""Q0"":""I felt more people would buy it purely for the expression on the mans face and and the cloths he is wearing. I feel like its cloths a black man would not usually wear and the colors really stand out with that background. The other picture reminds me of any thug you could find in the street and take a picture of ""}","","","","","","","8","22","40","","","","","","","","","","","{""Q0"":""I felt more people would buy it purely for the expression on the mans face and and the cloths he is wearing. I feel like its cloths a black man would not usually wear and the colors really stand out with that background. The other picture reminds me of any thug you could find in the street and take a picture of ""}","","","","","","","","","","","","","","","","","","","","","","","","","","",""
"","fixation","","html-keyboard-response","89","1367628","0.0-65.0-0.0","0","0","iDB50","People","","null","","","","null","","","","","","","","","","","","","","","","","","","","","","","","","","","","","","","","","","","","","","","","","","","",""
"","deliberation","","html-keyboard-response","90","1369598","0.0-65.0-1.0","0","0","iDB50","People","","1961","","","","75","","","","9","48","43","0","1","37","68","velizar-ivanov-7ktP9yZA1g4-unsplash.jpg","raamin-ka-0qJBEzudn5E-unsplash.jpg","1","0","43","48","","","","","","","","","","","","","","","","","","","","","","","","","","","",""
"","choice_confirmation","","html-keyboard-response","91","1370109","0.0-65.0-2.0-0.0","0","0","iDB50","People","","null","","","","null","","","","9","48","43","","","","","","","","","","","","","","","","","","","","","","","","","","","","","","","","","","","","","",""
"","fixation","","html-keyboard-response","92","1371127","0.0-66.0-0.0","0","0","iDB50","People","","null","","","","null","","","","","","","","","","","","","","","","","","","","","","","","","","","","","","","","","","","","","","","","","","","",""
"","deliberation","","html-keyboard-response","93","1375031","0.0-66.0-1.0","0","0","iDB50","People","","3895","","","","75","","","","10","33","41","1","-1","52","73","olena-sergienko-0TSd6uCKTKc-unsplash.jpg","prince-akachi-i2hoD-C2RUA-unsplash.jpg","1","0","41","33","","","","","","","","","","","","","","","","","","","","","","","","","","","",""
"","choice_confirmation","","html-keyboard-response","94","1375548","0.0-66.0-2.0-0.0","0","0","iDB50","People","","null","","","","null","","","","10","33","41","","","","","","","","","","","","","","","","","","","","","","","","","","","","","","","","","","","","","",""
"","explain_trial","","survey-text","95","1534027","0.0-66.0-5.0-0.0","0","0","iDB50","People","","158472","{""Q0"":""The picture looks more exotic and different, people like to own things that look rare or exotic. The background is blurry so it makes you wonder where the photo was taken. The other picture I find not as intriguing or beautiful""}","","","","","","","10","33","41","","","","","","","","","","","{""Q0"":""The picture looks more exotic and different, people like to own things that look rare or exotic. The background is blurry so it makes you wonder where the photo was taken. The other picture I find not as intriguing or beautiful""}","","","","","","","","","","","","","","","","","","","","","","","","","","",""
"","fixation","","html-keyboard-response","96","1535043","0.0-67.0-0.0","0","0","iDB50","People","","null","","","","null","","","","","","","","","","","","","","","","","","","","","","","","","","","","","","","","","","","","","","","","","","","",""
"","deliberation","","html-keyboard-response","97","1538553","0.0-67.0-1.0","0","0","iDB50","People","","3502","","","","75","","","","11","23","42","1","1","66","39","joanna-nix-walkup-H4fEMshfwTE-unsplash.jpg","prince-akachi-l3IHXOdMyHQ-unsplash.jpg","1","0","42","23","","","","","","","","","","","","","","","","","","","","","","","","","","","",""
"","choice_confirmation","","html-keyboard-response","98","1539065","0.0-67.0-2.0-0.0","0","0","iDB50","People","","null","","","","null","","","","11","23","42","","","","","","","","","","","","","","","","","","","","","","","","","","","","","","","","","","","","","",""
"","explain_trial","","survey-text","99","1643322","0.0-67.0-5.0-0.0","0","0","iDB50","People","","104247","{""Q0"":""The photo looks vintage and it almost feels like the women is glaring into my sole. The red trees in the background with the black women up front is very contrasting and makes you want to look at the picture more.""}","","","","","","","11","23","42","","","","","","","","","","","{""Q0"":""The photo looks vintage and it almost feels like the women is glaring into my sole. The red trees in the background with the black women up front is very contrasting and makes you want to look at the picture more.""}","","","","","","","","","","","","","","","","","","","","","","","","","","",""
"","practice_deliberation_again","","html-keyboard-response","100","1711112","0.0-67.0-6.0-0.0","0","0","iDB50","People","","67782","","","","78","","","","","","","","","","","","","","","","","","","","","","","","","","","","","","","","","","","","","","","","","","","",""
"","fixation","","html-keyboard-response","101","1712123","0.0-68.0-0.0","0","0","iDB50","People","","null","","","","null","","","","","","","","","","","","","","","","","","","","","","","","","","","","","","","","","","","","","","","","","","","",""
"","deliberation","","html-keyboard-response","102","1715130","0.0-68.0-1.0","0","0","iDB50","People","","2997","","","","75","","","","12","48","43","1","1","37","68","velizar-ivanov-7ktP9yZA1g4-unsplash.jpg","raamin-ka-0qJBEzudn5E-unsplash.jpg","2","0","43","48","","","","","","","","","","","","","","","","","","","","","","","","","","","",""
"","choice_confirmation","","html-keyboard-response","103","1715646","0.0-68.0-2.0-0.0","0","0","iDB50","People","","null","","","","null","","","","12","48","43","","","","","","","","","","","","","","","","","","","","","","","","","","","","","","","","","","","","","",""
"","explain_trial","","survey-text","104","1859383","0.0-68.0-5.0-0.0","0","0","iDB50","People","","143712","{""Q0"":""The all black top hat, clothing and nail polish is a little different than you usually see. It also helps that the women is beautiful and smiling. I felt more people would pick a smiling women over a frowning women""}","","","","","","","12","48","43","","","","","","","","","","","{""Q0"":""The all black top hat, clothing and nail polish is a little different than you usually see. It also helps that the women is beautiful and smiling. I felt more people would pick a smiling women over a frowning women""}","","","","","","","","","","","","","","","","","","","","","","","","","","",""
"","fixation","","html-keyboard-response","105","1860398","0.0-69.0-0.0","0","0","iDB50","People","","null","","","","null","","","","","","","","","","","","","","","","","","","","","","","","","","","","","","","","","","","","","","","","","","","",""
"","deliberation","","html-keyboard-response","106","1864077","0.0-69.0-1.0","0","0","iDB50","People","","3669","","","","75","","","","13","23","42","0","1","66","39","joanna-nix-walkup-H4fEMshfwTE-unsplash.jpg","prince-akachi-l3IHXOdMyHQ-unsplash.jpg","2","0","42","23","","","","","","","","","","","","","","","","","","","","","","","","","","","",""
"","choice_confirmation","","html-keyboard-response","107","1864590","0.0-69.0-2.0-0.0","0","0","iDB50","People","","null","","","","null","","","","13","23","42","","","","","","","","","","","","","","","","","","","","","","","","","","","","","","","","","","","","","",""
"","fixation","","html-keyboard-response","108","1865608","0.0-70.0-0.0","0","0","iDB50","People","","null","","","","null","","","","","","","","","","","","","","","","","","","","","","","","","","","","","","","","","","","","","","","","","","","",""
"","deliberation","","html-keyboard-response","109","1867361","0.0-70.0-1.0","0","0","iDB50","People","","1744","","","","68","","","","14","35","28","0","-1","68","61","oliver-ragfelt-khV4fTy6-D8-unsplash.jpg","justin-chen-J7Cf1Gch49E-unsplash.jpg","2","1","35","28","","","","","","","","","","","","","","","","","","","","","","","","","","","",""
"","choice_confirmation","","html-keyboard-response","110","1867871","0.0-70.0-2.0-0.0","0","0","iDB50","People","","null","","","","null","","","","14","35","28","","","","","","","","","","","","","","","","","","","","","","","","","","","","","","","","","","","","","",""
"","fixation","","html-keyboard-response","111","1868887","0.0-71.0-0.0","0","0","iDB50","People","","null","","","","null","","","","","","","","","","","","","","","","","","","","","","","","","","","","","","","","","","","","","","","","","","","",""
"","deliberation","","html-keyboard-response","112","1871443","0.0-71.0-1.0","0","0","iDB50","People","","2548","","","","75","","","","15","39","47","1","-1","45","37","philip-martin-5aGUyCW_PJw-unsplash.jpg","tyler-nix-ZGa9d1a_4tA-unsplash.jpg","2","0","47","39","","","","","","","","","","","","","","","","","","","","","","","","","","","",""
"","choice_confirmation","","html-keyboard-response","113","1871959","0.0-71.0-2.0-0.0","0","0","iDB50","People","","null","","","","null","","","","15","39","47","","","","","","","","","","","","","","","","","","","","","","","","","","","","","","","","","","","","","",""
"","explain_trial","","survey-text","114","1985038","0.0-71.0-5.0-0.0","0","0","iDB50","People","","113067","{""Q0"":""I felt that it was more photogenic and people would want a black man dressed in nice cloths over one in regular cloths. The man looks very dapper and the orange tie grabs your eye more than the orange hat in the other pic.""}","","","","","","","15","39","47","","","","","","","","","","","{""Q0"":""I felt that it was more photogenic and people would want a black man dressed in nice cloths over one in regular cloths. The man looks very dapper and the orange tie grabs your eye more than the orange hat in the other pic.""}","","","","","","","","","","","","","","","","","","","","","","","","","","",""
"","fixation","","html-keyboard-response","115","1986055","0.0-72.0-0.0","0","0","iDB50","People","","null","","","","null","","","","","","","","","","","","","","","","","","","","","","","","","","","","","","","","","","","","","","","","","","","",""
"","deliberation","","html-keyboard-response","116","1987764","0.0-72.0-1.0","0","0","iDB50","People","","1701","","","","68","","","","16","30","27","1","1","73","68","matheus-ferrero-pg_WCHWSdT8-unsplash.jpg","jurica-koletic-7YVZYZeITc8-unsplash.jpg","2","1","30","27","","","","","","","","","","","","","","","","","","","","","","","","","","","",""
"","choice_confirmation","","html-keyboard-response","117","1988278","0.0-72.0-2.0-0.0","0","0","iDB50","People","","null","","","","null","","","","16","30","27","","","","","","","","","","","","","","","","","","","","","","","","","","","","","","","","","","","","","",""
"","explain_trial","","survey-text","118","2207165","0.0-72.0-5.0-0.0","0","0","iDB50","People","","218875","{""Q0"":""I think this photo would sell more purely for the background and the red lipstick. The big green leaves will make the nature lovers happy. The women has very white skin and it makes everything around her pop, specially the lipstick. The other picture just looks like a school photo with not much going on ""}","","","","","","","16","30","27","","","","","","","","","","","{""Q0"":""I think this photo would sell more purely for the background and the red lipstick. The big green leaves will make the nature lovers happy. The women has very white skin and it makes everything around her pop, specially the lipstick. The other picture just looks like a school photo with not much going on ""}","","","","","","","","","","","","","","","","","","","","","","","","","","",""
"","fixation","","html-keyboard-response","119","2208178","0.0-73.0-0.0","0","0","iDB50","People","","null","","","","null","","","","","","","","","","","","","","","","","","","","","","","","","","","","","","","","","","","","","","","","","","","",""
"","deliberation","","html-keyboard-response","120","2210731","0.0-73.0-1.0","0","0","iDB50","People","","2547","","","","68","","","","17","11","49","1","1","75","59","christian-ferrer-8vT-DgHZDG4-unsplash.jpg","vicky-hladynets-_gDoyVv5F4c-unsplash.jpg","2","1","11","49","","","","","","","","","","","","","","","","","","","","","","","","","","","",""
"","choice_confirmation","","html-keyboard-response","121","2211242","0.0-73.0-2.0-0.0","0","0","iDB50","People","","null","","","","null","","","","17","11","49","","","","","","","","","","","","","","","","","","","","","","","","","","","","","","","","","","","","","",""
"","explain_trial","","survey-text","122","2476637","0.0-73.0-5.0-0.0","0","0","iDB50","People","","265383","{""Q0"":""I think this one would sell more because there is a lot more going on in it than the other. It has more of a striking pose and a smoulding look that makes you want to get to know her more.  The other picture looks like it is washed out in half of it so it does not look like a whole or complete photo.""}","","","","","","","17","11","49","","","","","","","","","","","{""Q0"":""I think this one would sell more because there is a lot more going on in it than the other. It has more of a striking pose and a smoulding look that makes you want to get to know her more.  The other picture looks like it is washed out in half of it so it does not look like a whole or complete photo.""}","","","","","","","","","","","","","","","","","","","","","","","","","","",""
"","fixation","","html-keyboard-response","123","2477654","0.0-74.0-0.0","0","0","iDB50","People","","null","","","","null","","","","","","","","","","","","","","","","","","","","","","","","","","","","","","","","","","","","","","","","","","","",""
"","deliberation","","html-keyboard-response","124","2479821","0.0-74.0-1.0","0","0","iDB50","People","","2156","","","","68","","","","18","17","26","0","-1","52","71","gleb-lukomets-paBzWCPN23k-unsplash.jpg","juri-gianfrancesco-9EZadYaMzk4-unsplash.jpg","2","1","17","26","","","","","","","","","","","","","","","","","","","","","","","","","","","",""
"","choice_confirmation","","html-keyboard-response","125","2480332","0.0-74.0-2.0-0.0","0","0","iDB50","People","","null","","","","null","","","","18","17","26","","","","","","","","","","","","","","","","","","","","","","","","","","","","","","","","","","","","","",""
"","fixation","","html-keyboard-response","126","2481341","0.0-75.0-0.0","0","0","iDB50","People","","null","","","","null","","","","","","","","","","","","","","","","","","","","","","","","","","","","","","","","","","","","","","","","","","","",""
"","deliberation","","html-keyboard-response","127","2484067","0.0-75.0-1.0","0","0","iDB50","People","","2716","","","","75","","","","19","45","14","1","1","54","64","sarah-noltner-pL5ZzPp1zqg-unsplash.jpg","freddy-kearney-o-ioeoATbIM-unsplash.jpg","2","0","14","45","","","","","","","","","","","","","","","","","","","","","","","","","","","",""
"","choice_confirmation","","html-keyboard-response","128","2484582","0.0-75.0-2.0-0.0","0","0","iDB50","People","","null","","","","null","","","","19","45","14","","","","","","","","","","","","","","","","","","","","","","","","","","","","","","","","","","","","","",""
"","explain_trial","","survey-text","129","2602125","0.0-75.0-5.0-0.0","0","0","iDB50","People","","117533","{""Q0"":""When I see this picture it makes me wonder what kind of life this old man had and all the wisdom he could give. I think people would want to look at this picture longer and come up with their own story of who he is.""}","","","","","","","19","45","14","","","","","","","","","","","{""Q0"":""When I see this picture it makes me wonder what kind of life this old man had and all the wisdom he could give. I think people would want to look at this picture longer and come up with their own story of who he is.""}","","","","","","","","","","","","","","","","","","","","","","","","","","",""
"","fixation","","html-keyboard-response","130","2603144","0.0-76.0-0.0","0","0","iDB50","People","","null","","","","null","","","","","","","","","","","","","","","","","","","","","","","","","","","","","","","","","","","","","","","","","","","",""
"","deliberation","","html-keyboard-response","131","2606078","0.0-76.0-1.0","0","0","iDB50","People","","2924","","","","75","","","","20","34","10","0","-1","70","64","oliver-johnson-1TUIcKob7Zs-unsplash.jpg","charles-etoroma-95UF6LXe-Lo-unsplash.jpg","2","0","10","34","","","","","","","","","","","","","","","","","","","","","","","","","","","",""
"","choice_confirmation","","html-keyboard-response","132","2606592","0.0-76.0-2.0-0.0","0","0","iDB50","People","","null","","","","null","","","","20","34","10","","","","","","","","","","","","","","","","","","","","","","","","","","","","","","","","","","","","","",""
"","fixation","","html-keyboard-response","133","2607609","0.0-77.0-0.0","0","0","iDB50","People","","null","","","","null","","","","","","","","","","","","","","","","","","","","","","","","","","","","","","","","","","","","","","","","","","","",""
"","deliberation","","html-keyboard-response","134","2608792","0.0-77.0-1.0","0","0","iDB50","People","","1176","","","","75","","","","21","33","41","0","-1","52","73","olena-sergienko-0TSd6uCKTKc-unsplash.jpg","prince-akachi-i2hoD-C2RUA-unsplash.jpg","2","0","41","33","","","","","","","","","","","","","","","","","","","","","","","","","","","",""
"","choice_confirmation","","html-keyboard-response","135","2609303","0.0-77.0-2.0-0.0","0","0","iDB50","People","","null","","","","null","","","","21","33","41","","","","","","","","","","","","","","","","","","","","","","","","","","","","","","","","","","","","","",""
"","fixation","","html-keyboard-response","136","2610320","0.0-78.0-0.0","0","0","iDB50","People","","null","","","","null","","","","","","","","","","","","","","","","","","","","","","","","","","","","","","","","","","","","","","","","","","","",""
"","deliberation","","html-keyboard-response","137","2611486","0.0-78.0-1.0","0","0","iDB50","People","","1158","","","","75","","","","22","22","40","0","1","40","65","jessica-radanavong-mrYkTuAesKE-unsplash.jpg","prince-akachi-4Yv84VgQkRM-unsplash.jpg","2","0","40","22","","","","","","","","","","","","","","","","","","","","","","","","","","","",""
"","choice_confirmation","","html-keyboard-response","138","2612001","0.0-78.0-2.0-0.0","0","0","iDB50","People","","null","","","","null","","","","22","22","40","","","","","","","","","","","","","","","","","","","","","","","","","","","","","","","","","","","","","",""
"","fixation","","html-keyboard-response","139","2613017","0.0-79.0-0.0","0","0","iDB50","People","","null","","","","null","","","","","","","","","","","","","","","","","","","","","","","","","","","","","","","","","","","","","","","","","","","",""
"","deliberation","","html-keyboard-response","140","2621192","0.0-79.0-1.0","0","0","iDB50","People","","8167","","","","75","","","","23","38","6","1","-1","59","66","petr-sevcovic-HzDF-rxlSeM-unsplash.jpg","ben-o-bro-C5XyLljkMrY-unsplash.jpg","2","0","6","38","","","","","","","","","","","","","","","","","","","","","","","","","","","",""
"","choice_confirmation","","html-keyboard-response","141","2621702","0.0-79.0-2.0-0.0","0","0","iDB50","People","","null","","","","null","","","","23","38","6","","","","","","","","","","","","","","","","","","","","","","","","","","","","","","","","","","","","","",""
"","explain_trial","","survey-text","142","2854313","0.0-79.0-5.0-0.0","0","0","iDB50","People","","232601","{""Q0"":""This one took me a longer to choose because both picture are handsome men smiling. But I ultimately went with one on the right because thats where my eyes wanted to go back to. The one on the right shows a man genuinely smiling and you can tell its not fake for a picture. People like pictures that are natural and not trying too hard. ""}","","","","","","","23","38","6","","","","","","","","","","","{""Q0"":""This one took me a longer to choose because both picture are handsome men smiling. But I ultimately went with one on the right because thats where my eyes wanted to go back to. The one on the right shows a man genuinely smiling and you can tell its not fake for a picture. People like pictures that are natural and not trying too hard. ""}","","","","","","","","","","","","","","","","","","","","","","","","","","",""
"","start_critical_deliberation_block","","html-keyboard-response","143","2875828","0.0-79.0-7.0-0.0","0","0","iDB50","People","","21505","","","","78","","","","","","","","","","","","","","","","","","","","","","","","","","","","","","","","","","","","","","","","","","","",""
"","fixation","","html-keyboard-response","144","2876845","0.0-80.0-0.0","0","0","iDB50","People","","null","","","","null","","","","","","","","","","","","","","","","","","","","","","","","","","","","","","","","","","","","","","","","","","","",""
"","deliberation","","html-keyboard-response","145","2878289","0.0-80.0-1.0","0","0","iDB50","People","","1435","","","","75","","","","24","39","47","0","-1","45","37","philip-martin-5aGUyCW_PJw-unsplash.jpg","tyler-nix-ZGa9d1a_4tA-unsplash.jpg","3","0","47","39","","","","","","","","","","","","","","","","","","","","","","","","","","","",""
"","choice_confirmation","","html-keyboard-response","146","2878805","0.0-80.0-2.0-0.0","0","0","iDB50","People","","null","","","","null","","","","24","39","47","","","","","","","","","","","","","","","","","","","","","","","","","","","","","","","","","","","","","",""
"","fixation","","html-keyboard-response","147","2879820","0.0-81.0-0.0","0","0","iDB50","People","","null","","","","null","","","","","","","","","","","","","","","","","","","","","","","","","","","","","","","","","","","","","","","","","","","",""
"","deliberation","","html-keyboard-response","148","2880943","0.0-81.0-1.0","0","0","iDB50","People","","1118","","","","75","","","","25","48","43","0","1","37","68","velizar-ivanov-7ktP9yZA1g4-unsplash.jpg","raamin-ka-0qJBEzudn5E-unsplash.jpg","3","0","43","48","","","","","","","","","","","","","","","","","","","","","","","","","","","",""
"","choice_confirmation","","html-keyboard-response","149","2881451","0.0-81.0-2.0-0.0","0","0","iDB50","People","","null","","","","null","","","","25","48","43","","","","","","","","","","","","","","","","","","","","","","","","","","","","","","","","","","","","","",""
"","fixation","","html-keyboard-response","150","2882462","0.0-82.0-0.0","0","0","iDB50","People","","null","","","","null","","","","","","","","","","","","","","","","","","","","","","","","","","","","","","","","","","","","","","","","","","","",""
"","deliberation","","html-keyboard-response","151","2883564","0.0-82.0-1.0","0","0","iDB50","People","","1090","","","","75","","","","26","38","6","0","-1","59","66","petr-sevcovic-HzDF-rxlSeM-unsplash.jpg","ben-o-bro-C5XyLljkMrY-unsplash.jpg","3","0","6","38","","","","","","","","","","","","","","","","","","","","","","","","","","","",""
"","choice_confirmation","","html-keyboard-response","152","2884078","0.0-82.0-2.0-0.0","0","0","iDB50","People","","null","","","","null","","","","26","38","6","","","","","","","","","","","","","","","","","","","","","","","","","","","","","","","","","","","","","",""
"","fixation","","html-keyboard-response","153","2885095","0.0-83.0-0.0","0","0","iDB50","People","","null","","","","null","","","","","","","","","","","","","","","","","","","","","","","","","","","","","","","","","","","","","","","","","","","",""
"","deliberation","","html-keyboard-response","154","2886063","0.0-83.0-1.0","0","0","iDB50","People","","959","","","","75","","","","27","23","42","0","1","66","39","joanna-nix-walkup-H4fEMshfwTE-unsplash.jpg","prince-akachi-l3IHXOdMyHQ-unsplash.jpg","3","0","42","23","","","","","","","","","","","","","","","","","","","","","","","","","","","",""
"","choice_confirmation","","html-keyboard-response","155","2886574","0.0-83.0-2.0-0.0","0","0","iDB50","People","","null","","","","null","","","","27","23","42","","","","","","","","","","","","","","","","","","","","","","","","","","","","","","","","","","","","","",""
"","fixation","","html-keyboard-response","156","2887590","0.0-84.0-0.0","0","0","iDB50","People","","null","","","","null","","","","","","","","","","","","","","","","","","","","","","","","","","","","","","","","","","","","","","","","","","","",""
"","deliberation","","html-keyboard-response","157","2888903","0.0-84.0-1.0","0","0","iDB50","People","","1305","","","","75","","","","28","34","10","0","-1","70","64","oliver-johnson-1TUIcKob7Zs-unsplash.jpg","charles-etoroma-95UF6LXe-Lo-unsplash.jpg","3","0","10","34","","","","","","","","","","","","","","","","","","","","","","","","","","","",""
"","choice_confirmation","","html-keyboard-response","158","2889414","0.0-84.0-2.0-0.0","0","0","iDB50","People","","null","","","","null","","","","28","34","10","","","","","","","","","","","","","","","","","","","","","","","","","","","","","","","","","","","","","",""
"","fixation","","html-keyboard-response","159","2890430","0.0-85.0-0.0","0","0","iDB50","People","","null","","","","null","","","","","","","","","","","","","","","","","","","","","","","","","","","","","","","","","","","","","","","","","","","",""
"","deliberation","","html-keyboard-response","160","2891362","0.0-85.0-1.0","0","0","iDB50","People","","927","","","","75","","","","29","22","40","0","1","40","65","jessica-radanavong-mrYkTuAesKE-unsplash.jpg","prince-akachi-4Yv84VgQkRM-unsplash.jpg","3","0","40","22","","","","","","","","","","","","","","","","","","","","","","","","","","","",""
"","choice_confirmation","","html-keyboard-response","161","2891878","0.0-85.0-2.0-0.0","0","0","iDB50","People","","null","","","","null","","","","29","22","40","","","","","","","","","","","","","","","","","","","","","","","","","","","","","","","","","","","","","",""
"","fixation","","html-keyboard-response","162","2892896","0.0-86.0-0.0","0","0","iDB50","People","","null","","","","null","","","","","","","","","","","","","","","","","","","","","","","","","","","","","","","","","","","","","","","","","","","",""
"","deliberation","","html-keyboard-response","163","2893913","0.0-86.0-1.0","0","0","iDB50","People","","1011","","","","68","","","","30","11","49","0","1","75","59","christian-ferrer-8vT-DgHZDG4-unsplash.jpg","vicky-hladynets-_gDoyVv5F4c-unsplash.jpg","3","1","11","49","","","","","","","","","","","","","","","","","","","","","","","","","","","",""
"","choice_confirmation","","html-keyboard-response","164","2894421","0.0-86.0-2.0-0.0","0","0","iDB50","People","","null","","","","null","","","","30","11","49","","","","","","","","","","","","","","","","","","","","","","","","","","","","","","","","","","","","","",""
"","fixation","","html-keyboard-response","165","2895439","0.0-87.0-0.0","0","0","iDB50","People","","null","","","","null","","","","","","","","","","","","","","","","","","","","","","","","","","","","","","","","","","","","","","","","","","","",""
"","deliberation","","html-keyboard-response","166","2896642","0.0-87.0-1.0","0","0","iDB50","People","","1195","","","","68","","","","31","17","26","0","-1","52","71","gleb-lukomets-paBzWCPN23k-unsplash.jpg","juri-gianfrancesco-9EZadYaMzk4-unsplash.jpg","3","1","17","26","","","","","","","","","","","","","","","","","","","","","","","","","","","",""
"","choice_confirmation","","html-keyboard-response","167","2897158","0.0-87.0-2.0-0.0","0","0","iDB50","People","","null","","","","null","","","","31","17","26","","","","","","","","","","","","","","","","","","","","","","","","","","","","","","","","","","","","","",""
"","fixation","","html-keyboard-response","168","2898174","0.0-88.0-0.0","0","0","iDB50","People","","null","","","","null","","","","","","","","","","","","","","","","","","","","","","","","","","","","","","","","","","","","","","","","","","","",""
"","deliberation","","html-keyboard-response","169","2899285","0.0-88.0-1.0","0","0","iDB50","People","","1102","","","","75","","","","32","33","41","0","-1","52","73","olena-sergienko-0TSd6uCKTKc-unsplash.jpg","prince-akachi-i2hoD-C2RUA-unsplash.jpg","3","0","41","33","","","","","","","","","","","","","","","","","","","","","","","","","","","",""
"","choice_confirmation","","html-keyboard-response","170","2899797","0.0-88.0-2.0-0.0","0","0","iDB50","People","","null","","","","null","","","","32","33","41","","","","","","","","","","","","","","","","","","","","","","","","","","","","","","","","","","","","","",""
"","fixation","","html-keyboard-response","171","2900840","0.0-89.0-0.0","0","0","iDB50","People","","null","","","","null","","","","","","","","","","","","","","","","","","","","","","","","","","","","","","","","","","","","","","","","","","","",""
"","deliberation","","html-keyboard-response","172","2901852","0.0-89.0-1.0","0","0","iDB50","People","","1004","","","","68","","","","33","35","28","0","-1","68","61","oliver-ragfelt-khV4fTy6-D8-unsplash.jpg","justin-chen-J7Cf1Gch49E-unsplash.jpg","3","1","35","28","","","","","","","","","","","","","","","","","","","","","","","","","","","",""
"","choice_confirmation","","html-keyboard-response","173","2902367","0.0-89.0-2.0-0.0","0","0","iDB50","People","","null","","","","null","","","","33","35","28","","","","","","","","","","","","","","","","","","","","","","","","","","","","","","","","","","","","","",""
"","fixation","","html-keyboard-response","174","2903382","0.0-90.0-0.0","0","0","iDB50","People","","null","","","","null","","","","","","","","","","","","","","","","","","","","","","","","","","","","","","","","","","","","","","","","","","","",""
"","deliberation","","html-keyboard-response","175","2904659","0.0-90.0-1.0","0","0","iDB50","People","","1268","","","","68","","","","34","30","27","0","1","73","68","matheus-ferrero-pg_WCHWSdT8-unsplash.jpg","jurica-koletic-7YVZYZeITc8-unsplash.jpg","3","1","30","27","","","","","","","","","","","","","","","","","","","","","","","","","","","",""
"","choice_confirmation","","html-keyboard-response","176","2905171","0.0-90.0-2.0-0.0","0","0","iDB50","People","","null","","","","null","","","","34","30","27","","","","","","","","","","","","","","","","","","","","","","","","","","","","","","","","","","","","","",""
"","fixation","","html-keyboard-response","177","2906181","0.0-91.0-0.0","0","0","iDB50","People","","null","","","","null","","","","","","","","","","","","","","","","","","","","","","","","","","","","","","","","","","","","","","","","","","","",""
"","deliberation","","html-keyboard-response","178","2907785","0.0-91.0-1.0","0","0","iDB50","People","","1594","","","","75","","","","35","45","14","0","1","54","64","sarah-noltner-pL5ZzPp1zqg-unsplash.jpg","freddy-kearney-o-ioeoATbIM-unsplash.jpg","3","0","14","45","","","","","","","","","","","","","","","","","","","","","","","","","","","",""
"","choice_confirmation","","html-keyboard-response","179","2908342","0.0-91.0-2.0-0.0","0","0","iDB50","People","","null","","","","null","","","","35","45","14","","","","","","","","","","","","","","","","","","","","","","","","","","","","","","","","","","","","","",""
"","reward_learning_instructions","","instructions","180","3001918","0.0-92.0-0.0","0","0","iDB50","People","[{""page_index"":0,""viewing_time"":23781},{""page_index"":1,""viewing_time"":66576},{""page_index"":2,""viewing_time"":3209}]","93568","","","","","","","","","","","","","","","","","","","","","","","","","","","","","","","","","","","","","","","","","","","","","","","",""
"","","","survey-multi-choice","181","3048660","0.0-92.0-1.0","0","0","iDB50","People","","46718","{""Q0"":""True"",""Q1"":""True"",""Q2"":""Press the space bar to see its outcome"",""Q3"":""Press the relevant key while the outcome is presented""}","reward_comprehension_check","0","","","","","","","","","","","","","","","","","","","","","","","","","","","","","","","","","","","","","","","","","","","","",""
"","start_phase","","html-keyboard-response","182","3062703","0.0-93.0","0","0","iDB50","People","","14031","","","","78","","","","","","","","","","","","","","","","","","","","","","","","","","","","","","","","","","","","","","","","","","","",""
"","fixation","","html-keyboard-response","183","3063717","0.0-94.0","0","0","iDB50","People","","null","","","","null","","","","","","","","","","","","","","","","","","","","","","","","","","","","","","","","","","","","","","","","","","","",""
"","see_reward","","html-keyboard-response","184","3064211","0.0-95.0","0","0","iDB50","People","","483","","","","32","","30","","0","","","","1","","","","","1","","","","","141","483","","","","","","","","","","","","","","","","","","","","","","","","",""
"","reward_outcome","","html-keyboard-response","185","3066236","0.0-96.0","0","0","iDB50","People","","1047","","","","38","","30","","0","","","","","","","","","","","","","","","","1","1047","","","","","","","","","","","","","","","","","","","","","","",""
"","fixation","","html-keyboard-response","186","3067253","0.0-99.0","0","0","iDB50","People","","null","","","","null","","","","","","","","","","","","","","","","","","","","","","","","","","","","","","","","","","","","","","","","","","","",""
"","see_reward","","html-keyboard-response","187","3069012","0.0-100.0","0","0","iDB50","People","","1750","","","","32","","35","","1","","","","-1","","","","","1","","","","","0","1750","","","","","","","","","","","","","","","","","","","","","","","","",""
"","reward_outcome","","html-keyboard-response","188","3071031","0.0-101.0","0","0","iDB50","People","","802","","","","40","","35","","1","","","","","","","","","","","","","","","","-1","802","","","","","","","","","","","","","","","","","","","","","","",""
"","fixation","","html-keyboard-response","189","3072043","0.0-104.0","0","0","iDB50","People","","null","","","","null","","","","","","","","","","","","","","","","","","","","","","","","","","","","","","","","","","","","","","","","","","","",""
"","see_reward","","html-keyboard-response","190","3072764","0.0-105.0","0","0","iDB50","People","","712","","","","32","","11","","2","","","","1","","","","","1","","","","","148","712","","","","","","","","","","","","","","","","","","","","","","","","",""
"","reward_outcome","","html-keyboard-response","191","3074782","0.0-106.0","0","0","iDB50","People","","824","","","","38","","11","","2","","","","","","","","","","","","","","","","1","824","","","","","","","","","","","","","","","","","","","","","","",""
"","fixation","","html-keyboard-response","192","3075918","0.0-109.0","0","0","iDB50","People","","null","","","","null","","","","","","","","","","","","","","","","","","","","","","","","","","","","","","","","","","","","","","","","","","","",""
"","see_reward","","html-keyboard-response","193","3076501","0.0-110.0","0","0","iDB50","People","","571","","","","32","","30","","3","","","","1","","","","","1","","","","","141","571","","","","","","","","","","","","","","","","","","","","","","","","",""
"","reward_outcome","","html-keyboard-response","194","3078511","0.0-111.0","0","0","iDB50","People","","1029","","","","38","","30","","3","","","","","","","","","","","","","","","","1","1029","","","","","","","","","","","","","","","","","","","","","","",""
"","fixation","","html-keyboard-response","195","3079526","0.0-114.0","0","0","iDB50","People","","null","","","","null","","","","","","","","","","","","","","","","","","","","","","","","","","","","","","","","","","","","","","","","","","","",""
"","see_reward","","html-keyboard-response","196","3080260","0.0-115.0","0","0","iDB50","People","","722","","","","32","","41","","4","","","","-1","","","","","1","","","","","0","722","","","","","","","","","","","","","","","","","","","","","","","","",""
"","reward_outcome","","html-keyboard-response","197","3082274","0.0-116.0","0","0","iDB50","People","","970","","","","40","","41","","4","","","","","","","","","","","","","","","","-1","970","","","","","","","","","","","","","","","","","","","","","","",""
"","fixation","","html-keyboard-response","198","3083286","0.0-119.0","0","0","iDB50","People","","null","","","","null","","","","","","","","","","","","","","","","","","","","","","","","","","","","","","","","","","","","","","","","","","","",""
"","see_reward","","html-keyboard-response","199","3083972","0.0-120.0","0","0","iDB50","People","","676","","","","32","","17","","5","","","","-1","","","","","1","","","","","0","676","","","","","","","","","","","","","","","","","","","","","","","","",""
"","reward_outcome","","html-keyboard-response","200","3085983","0.0-121.0","0","0","iDB50","People","","680","","","","40","","17","","5","","","","","","","","","","","","","","","","-1","680","","","","","","","","","","","","","","","","","","","","","","",""
"","fixation","","html-keyboard-response","201","3087000","0.0-124.0","0","0","iDB50","People","","null","","","","null","","","","","","","","","","","","","","","","","","","","","","","","","","","","","","","","","","","","","","","","","","","",""
"","see_reward","","html-keyboard-response","202","3087737","0.0-125.0","0","0","iDB50","People","","729","","","","32","","10","","6","","","","-1","","","","","1","","","","","0","729","","","","","","","","","","","","","","","","","","","","","","","","",""
"","reward_outcome","","html-keyboard-response","203","3089751","0.0-126.0","0","0","iDB50","People","","695","","","","40","","10","","6","","","","","","","","","","","","","","","","-1","695","","","","","","","","","","","","","","","","","","","","","","",""
"","fixation","","html-keyboard-response","204","3090766","0.0-129.0","0","0","iDB50","People","","null","","","","null","","","","","","","","","","","","","","","","","","","","","","","","","","","","","","","","","","","","","","","","","","","",""
"","see_reward","","html-keyboard-response","205","3091592","0.0-130.0","0","0","iDB50","People","","815","","","","32","","40","","7","","","","1","","","","","1","","","","","157","815","","","","","","","","","","","","","","","","","","","","","","","","",""
"","reward_outcome","","html-keyboard-response","206","3093607","0.0-131.0","0","0","iDB50","People","","937","","","","38","","40","","7","","","","","","","","","","","","","","","","1","937","","","","","","","","","","","","","","","","","","","","","","",""
"","fixation","","html-keyboard-response","207","3094628","0.0-134.0","0","0","iDB50","People","","null","","","","null","","","","","","","","","","","","","","","","","","","","","","","","","","","","","","","","","","","","","","","","","","","",""
"","see_reward","","html-keyboard-response","208","3095430","0.0-135.0","0","0","iDB50","People","","790","","","","32","","14","","8","","","","1","","","","","1","","","","","145","790","","","","","","","","","","","","","","","","","","","","","","","","",""
"","reward_outcome","","html-keyboard-response","209","3097448","0.0-136.0","0","0","iDB50","People","","752","","","","38","","14","","8","","","","","","","","","","","","","","","","1","752","","","","","","","","","","","","","","","","","","","","","","",""
"","fixation","","html-keyboard-response","210","3098463","0.0-139.0","0","0","iDB50","People","","null","","","","null","","","","","","","","","","","","","","","","","","","","","","","","","","","","","","","","","","","","","","","","","","","",""
"","see_reward","","html-keyboard-response","211","3099289","0.0-140.0","0","0","iDB50","People","","815","","","","32","","10","","9","","","","-1","","","","","1","","","","","0","815","","","","","","","","","","","","","","","","","","","","","","","","",""
"","reward_outcome","","html-keyboard-response","212","3101303","0.0-141.0","0","0","iDB50","People","","957","","","","40","","10","","9","","","","","","","","","","","","","","","","-1","957","","","","","","","","","","","","","","","","","","","","","","",""
"","fixation","","html-keyboard-response","213","3102317","0.0-144.0","0","0","iDB50","People","","null","","","","null","","","","","","","","","","","","","","","","","","","","","","","","","","","","","","","","","","","","","","","","","","","",""
"","see_reward","","html-keyboard-response","214","3103725","0.0-145.0","0","0","iDB50","People","","1402","","","","32","","6","","10","","","","-1","","","","","1","","","","","0","1402","","","","","","","","","","","","","","","","","","","","","","","","",""
"","reward_outcome","","html-keyboard-response","215","3105734","0.0-146.0","0","0","iDB50","People","","689","","","","40","","6","","10","","","","","","","","","","","","","","","","-1","689","","","","","","","","","","","","","","","","","","","","","","",""
"","fixation","","html-keyboard-response","216","3106743","0.0-149.0","0","0","iDB50","People","","null","","","","null","","","","","","","","","","","","","","","","","","","","","","","","","","","","","","","","","","","","","","","","","","","",""
"","see_reward","","html-keyboard-response","217","3107482","0.0-150.0","0","0","iDB50","People","","728","","","","32","","47","","11","","","","-1","","","","","1","","","","","0","728","","","","","","","","","","","","","","","","","","","","","","","","",""
"","reward_outcome","","html-keyboard-response","218","3109495","0.0-151.0","0","0","iDB50","People","","null","","","","null","","47","","11","","","","","","","","","","","","","","","","NaN","null","","","","","","","","","","","","","","","","","","","","","","",""
"","respond_faster","","html-keyboard-response","219","3111006","0.0-152.0-0.0","1","0","iDB50","People","","null","","","","null","","","","","","","","","","","","","","","","","","","","","","","","","","","","","","","","","","","","","","","","","","","",""
"","fixation","","html-keyboard-response","220","3112026","0.0-154.0","0","0","iDB50","People","","null","","","","null","","","","","","","","","","","","","","","","","","","","","","","","","","","","","","","","","","","","","","","","","","","",""
"","see_reward","","html-keyboard-response","221","3113283","0.0-155.0","0","0","iDB50","People","","1248","","","","32","","14","","12","","","","1","","","","","1","","","","","145","1248","","","","","","","","","","","","","","","","","","","","","","","","",""
"","reward_outcome","","html-keyboard-response","222","3115299","0.0-156.0","0","0","iDB50","People","","574","","","","38","","14","","12","","","","","","","","","","","","","","","","1","574","","","","","","","","","","","","","","","","","","","","","","",""
"","fixation","","html-keyboard-response","223","3116308","0.0-159.0","0","0","iDB50","People","","null","","","","null","","","","","","","","","","","","","","","","","","","","","","","","","","","","","","","","","","","","","","","","","","","",""
"","see_reward","","html-keyboard-response","224","3116906","0.0-160.0","0","0","iDB50","People","","589","","","","32","","11","","13","","","","1","","","","","1","","","","","148","589","","","","","","","","","","","","","","","","","","","","","","","","",""
"","reward_outcome","","html-keyboard-response","225","3118919","0.0-161.0","0","0","iDB50","People","","696","","","","38","","11","","13","","","","","","","","","","","","","","","","1","696","","","","","","","","","","","","","","","","","","","","","","",""
"","fixation","","html-keyboard-response","226","3119934","0.0-164.0","0","0","iDB50","People","","null","","","","null","","","","","","","","","","","","","","","","","","","","","","","","","","","","","","","","","","","","","","","","","","","",""
"","see_reward","","html-keyboard-response","227","3120592","0.0-165.0","0","0","iDB50","People","","649","","","","32","","43","","14","","","","1","","","","","1","","","","","150","649","","","","","","","","","","","","","","","","","","","","","","","","",""
"","reward_outcome","","html-keyboard-response","228","3122607","0.0-166.0","0","0","iDB50","People","","648","","","","38","","43","","14","","","","","","","","","","","","","","","","1","648","","","","","","","","","","","","","","","","","","","","","","",""
"","fixation","","html-keyboard-response","229","3123622","0.0-169.0","0","0","iDB50","People","","null","","","","null","","","","","","","","","","","","","","","","","","","","","","","","","","","","","","","","","","","","","","","","","","","",""
"","see_reward","","html-keyboard-response","230","3124290","0.0-170.0","0","0","iDB50","People","","659","","","","32","","6","","15","","","","-1","","","","","1","","","","","0","659","","","","","","","","","","","","","","","","","","","","","","","","",""
"","reward_outcome","","html-keyboard-response","231","3126303","0.0-171.0","0","0","iDB50","People","","551","","","","40","","6","","15","","","","","","","","","","","","","","","","-1","551","","","","","","","","","","","","","","","","","","","","","","",""
"","fixation","","html-keyboard-response","232","3127319","0.0-174.0","0","0","iDB50","People","","null","","","","null","","","","","","","","","","","","","","","","","","","","","","","","","","","","","","","","","","","","","","","","","","","",""
"","see_reward","","html-keyboard-response","233","3127897","0.0-175.0","0","0","iDB50","People","","568","","","","32","","17","","16","","","","-1","","","","","1","","","","","0","568","","","","","","","","","","","","","","","","","","","","","","","","",""
"","reward_outcome","","html-keyboard-response","234","3129910","0.0-176.0","0","0","iDB50","People","","675","","","","40","","17","","16","","","","","","","","","","","","","","","","-1","675","","","","","","","","","","","","","","","","","","","","","","",""
"","fixation","","html-keyboard-response","235","3130928","0.0-179.0","0","0","iDB50","People","","null","","","","null","","","","","","","","","","","","","","","","","","","","","","","","","","","","","","","","","","","","","","","","","","","",""
"","see_reward","","html-keyboard-response","236","3131612","0.0-180.0","0","0","iDB50","People","","673","","","","32","","42","","17","","","","1","","","","","1","","","","","155","673","","","","","","","","","","","","","","","","","","","","","","","","",""
"","reward_outcome","","html-keyboard-response","237","3133628","0.0-181.0","0","0","iDB50","People","","735","","","","38","","42","","17","","","","","","","","","","","","","","","","1","735","","","","","","","","","","","","","","","","","","","","","","",""
"","fixation","","html-keyboard-response","238","3134639","0.0-184.0","0","0","iDB50","People","","null","","","","null","","","","","","","","","","","","","","","","","","","","","","","","","","","","","","","","","","","","","","","","","","","",""
"","see_reward","","html-keyboard-response","239","3135250","0.0-185.0","0","0","iDB50","People","","602","","","","32","","43","","18","","","","1","","","","","1","","","","","150","602","","","","","","","","","","","","","","","","","","","","","","","","",""
"","reward_outcome","","html-keyboard-response","240","3137407","0.0-186.0","0","0","iDB50","People","","982","","","","38","","43","","18","","","","","","","","","","","","","","","","1","982","","","","","","","","","","","","","","","","","","","","","","",""
"","fixation","","html-keyboard-response","241","3138424","0.0-189.0","0","0","iDB50","People","","null","","","","null","","","","","","","","","","","","","","","","","","","","","","","","","","","","","","","","","","","","","","","","","","","",""
"","see_reward","","html-keyboard-response","242","3139046","0.0-190.0","0","0","iDB50","People","","612","","","","32","","42","","19","","","","1","","","","","1","","","","","155","612","","","","","","","","","","","","","","","","","","","","","","","","",""
"","reward_outcome","","html-keyboard-response","243","3141062","0.0-191.0","0","0","iDB50","People","","781","","","","38","","42","","19","","","","","","","","","","","","","","","","1","781","","","","","","","","","","","","","","","","","","","","","","",""
"","fixation","","html-keyboard-response","244","3142071","0.0-194.0","0","0","iDB50","People","","null","","","","null","","","","","","","","","","","","","","","","","","","","","","","","","","","","","","","","","","","","","","","","","","","",""
"","see_reward","","html-keyboard-response","245","3142740","0.0-195.0","0","0","iDB50","People","","662","","","","32","","41","","20","","","","-1","","","","","1","","","","","0","662","","","","","","","","","","","","","","","","","","","","","","","","",""
"","reward_outcome","","html-keyboard-response","246","3144750","0.0-196.0","0","0","iDB50","People","","729","","","","40","","41","","20","","","","","","","","","","","","","","","","-1","729","","","","","","","","","","","","","","","","","","","","","","",""
"","fixation","","html-keyboard-response","247","3145759","0.0-199.0","0","0","iDB50","People","","null","","","","null","","","","","","","","","","","","","","","","","","","","","","","","","","","","","","","","","","","","","","","","","","","",""
"","see_reward","","html-keyboard-response","248","3146468","0.0-200.0","0","0","iDB50","People","","700","","","","32","","35","","21","","","","-1","","","","","1","","","","","0","700","","","","","","","","","","","","","","","","","","","","","","","","",""
"","reward_outcome","","html-keyboard-response","249","3148479","0.0-201.0","0","0","iDB50","People","","629","","","","38","","35","","21","","","","","","","","","","","","","","","","1","629","","","","","","","","","","","","","","","","","","","","","","",""
"","fixation","","html-keyboard-response","250","3149500","0.0-204.0","0","0","iDB50","People","","null","","","","null","","","","","","","","","","","","","","","","","","","","","","","","","","","","","","","","","","","","","","","","","","","",""
"","see_reward","","html-keyboard-response","251","3150370","0.0-205.0","0","0","iDB50","People","","863","","","","32","","40","","22","","","","1","","","","","1","","","","","157","863","","","","","","","","","","","","","","","","","","","","","","","","",""
"","reward_outcome","","html-keyboard-response","252","3152383","0.0-206.0","0","0","iDB50","People","","901","","","","38","","40","","22","","","","","","","","","","","","","","","","1","901","","","","","","","","","","","","","","","","","","","","","","",""
"","fixation","","html-keyboard-response","253","3153398","0.0-209.0","0","0","iDB50","People","","null","","","","null","","","","","","","","","","","","","","","","","","","","","","","","","","","","","","","","","","","","","","","","","","","",""
"","see_reward","","html-keyboard-response","254","3154386","0.0-210.0","0","0","iDB50","People","","979","","","","32","","47","","23","","","","-1","","","","","1","","","","","0","979","","","","","","","","","","","","","","","","","","","","","","","","",""
"","reward_outcome","","html-keyboard-response","255","3156398","0.0-211.0","0","0","iDB50","People","","737","","","","40","","47","","23","","","","","","","","","","","","","","","","-1","737","","","","","","","","","","","","","","","","","","","","","","",""
"","block_over","","html-keyboard-response","256","3160858","0.0-213.0-0.0","0","0","iDB50","People","","4452","","","","78","","","","","","","","","","","","","","","","","","","","","","","","","","","","","","","","","","","","","","","","","","","",""
"","fixation","","html-keyboard-response","257","3161874","0.0-214.0","0","0","iDB50","People","","null","","","","null","","","","","","","","","","","","","","","","","","","","","","","","","","","","","","","","","","","","","","","","","","","",""
"","see_reward","","html-keyboard-response","258","3162692","0.0-215.0","0","0","iDB50","People","","810","","","","32","","17","","24","","","","-1","","","","","2","","","","","0","810","","","","","","","","","","","","","","","","","","","","","","","","",""
"","reward_outcome","","html-keyboard-response","259","3164702","0.0-216.0","0","0","iDB50","People","","750","","","","40","","17","","24","","","","","","","","","","","","","","","","-1","750","","","","","","","","","","","","","","","","","","","","","","",""
"","fixation","","html-keyboard-response","260","3165720","0.0-219.0","0","0","iDB50","People","","null","","","","null","","","","","","","","","","","","","","","","","","","","","","","","","","","","","","","","","","","","","","","","","","","",""
"","see_reward","","html-keyboard-response","261","3166435","0.0-220.0","0","0","iDB50","People","","706","","","","32","","10","","25","","","","-1","","","","","2","","","","","0","706","","","","","","","","","","","","","","","","","","","","","","","","",""
"","reward_outcome","","html-keyboard-response","262","3168446","0.0-221.0","0","0","iDB50","People","","560","","","","40","","10","","25","","","","","","","","","","","","","","","","-1","560","","","","","","","","","","","","","","","","","","","","","","",""
"","fixation","","html-keyboard-response","263","3169455","0.0-224.0","0","0","iDB50","People","","null","","","","null","","","","","","","","","","","","","","","","","","","","","","","","","","","","","","","","","","","","","","","","","","","",""
"","see_reward","","html-keyboard-response","264","3170076","0.0-225.0","0","0","iDB50","People","","612","","","","32","","42","","26","","","","1","","","","","2","","","","","155","612","","","","","","","","","","","","","","","","","","","","","","","","",""
"","reward_outcome","","html-keyboard-response","265","3172084","0.0-226.0","0","0","iDB50","People","","836","","","","38","","42","","26","","","","","","","","","","","","","","","","1","836","","","","","","","","","","","","","","","","","","","","","","",""
"","fixation","","html-keyboard-response","266","3173094","0.0-229.0","0","0","iDB50","People","","null","","","","null","","","","","","","","","","","","","","","","","","","","","","","","","","","","","","","","","","","","","","","","","","","",""
"","see_reward","","html-keyboard-response","267","3173976","0.0-230.0","0","0","iDB50","People","","871","","","","32","","10","","27","","","","-1","","","","","2","","","","","0","871","","","","","","","","","","","","","","","","","","","","","","","","",""
"","reward_outcome","","html-keyboard-response","268","3175991","0.0-231.0","0","0","iDB50","People","","603","","","","40","","10","","27","","","","","","","","","","","","","","","","-1","603","","","","","","","","","","","","","","","","","","","","","","",""
"","fixation","","html-keyboard-response","269","3177007","0.0-234.0","0","0","iDB50","People","","null","","","","null","","","","","","","","","","","","","","","","","","","","","","","","","","","","","","","","","","","","","","","","","","","",""
"","see_reward","","html-keyboard-response","270","3177698","0.0-235.0","0","0","iDB50","People","","679","","","","32","","35","","28","","","","-1","","","","","2","","","","","0","679","","","","","","","","","","","","","","","","","","","","","","","","",""
"","reward_outcome","","html-keyboard-response","271","3179710","0.0-236.0","0","0","iDB50","People","","467","","","","40","","35","","28","","","","","","","","","","","","","","","","-1","467","","","","","","","","","","","","","","","","","","","","","","",""
"","fixation","","html-keyboard-response","272","3180727","0.0-239.0","0","0","iDB50","People","","null","","","","null","","","","","","","","","","","","","","","","","","","","","","","","","","","","","","","","","","","","","","","","","","","",""
"","see_reward","","html-keyboard-response","273","3181276","0.0-240.0","0","0","iDB50","People","","539","","","","32","","42","","29","","","","1","","","","","2","","","","","155","539","","","","","","","","","","","","","","","","","","","","","","","","",""
"","reward_outcome","","html-keyboard-response","274","3183291","0.0-241.0","0","0","iDB50","People","","623","","","","38","","42","","29","","","","","","","","","","","","","","","","1","623","","","","","","","","","","","","","","","","","","","","","","",""
"","fixation","","html-keyboard-response","275","3184301","0.0-244.0","0","0","iDB50","People","","null","","","","null","","","","","","","","","","","","","","","","","","","","","","","","","","","","","","","","","","","","","","","","","","","",""
"","see_reward","","html-keyboard-response","276","3184966","0.0-245.0","0","0","iDB50","People","","658","","","","32","","14","","30","","","","1","","","","","2","","","","","145","658","","","","","","","","","","","","","","","","","","","","","","","","",""
"","reward_outcome","","html-keyboard-response","277","3186975","0.0-246.0","0","0","iDB50","People","","874","","","","38","","14","","30","","","","","","","","","","","","","","","","1","874","","","","","","","","","","","","","","","","","","","","","","",""
"","fixation","","html-keyboard-response","278","3187991","0.0-249.0","0","0","iDB50","People","","null","","","","null","","","","","","","","","","","","","","","","","","","","","","","","","","","","","","","","","","","","","","","","","","","",""
"","see_reward","","html-keyboard-response","279","3188615","0.0-250.0","0","0","iDB50","People","","615","","","","32","","47","","31","","","","-1","","","","","2","","","","","0","615","","","","","","","","","","","","","","","","","","","","","","","","",""
"","reward_outcome","","html-keyboard-response","280","3190630","0.0-251.0","0","0","iDB50","People","","695","","","","40","","47","","31","","","","","","","","","","","","","","","","-1","695","","","","","","","","","","","","","","","","","","","","","","",""
"","fixation","","html-keyboard-response","281","3191639","0.0-254.0","0","0","iDB50","People","","null","","","","null","","","","","","","","","","","","","","","","","","","","","","","","","","","","","","","","","","","","","","","","","","","",""
"","see_reward","","html-keyboard-response","282","3192556","0.0-255.0","0","0","iDB50","People","","909","","","","32","","6","","32","","","","-1","","","","","2","","","","","0","909","","","","","","","","","","","","","","","","","","","","","","","","",""
"","reward_outcome","","html-keyboard-response","283","3194567","0.0-256.0","0","0","iDB50","People","","683","","","","40","","6","","32","","","","","","","","","","","","","","","","-1","683","","","","","","","","","","","","","","","","","","","","","","",""
"","fixation","","html-keyboard-response","284","3195583","0.0-259.0","0","0","iDB50","People","","null","","","","null","","","","","","","","","","","","","","","","","","","","","","","","","","","","","","","","","","","","","","","","","","","",""
"","see_reward","","html-keyboard-response","285","3196225","0.0-260.0","0","0","iDB50","People","","634","","","","32","","47","","33","","","","-1","","","","","2","","","","","0","634","","","","","","","","","","","","","","","","","","","","","","","","",""
"","reward_outcome","","html-keyboard-response","286","3198372","0.0-261.0","0","0","iDB50","People","","986","","","","40","","47","","33","","","","","","","","","","","","","","","","-1","986","","","","","","","","","","","","","","","","","","","","","","",""
"","fixation","","html-keyboard-response","287","3199392","0.0-264.0","0","0","iDB50","People","","null","","","","null","","","","","","","","","","","","","","","","","","","","","","","","","","","","","","","","","","","","","","","","","","","",""
"","see_reward","","html-keyboard-response","288","3200145","0.0-265.0","0","0","iDB50","People","","744","","","","32","","41","","34","","","","-1","","","","","2","","","","","0","744","","","","","","","","","","","","","","","","","","","","","","","","",""
"","reward_outcome","","html-keyboard-response","289","3202157","0.0-266.0","0","0","iDB50","People","","788","","","","40","","41","","34","","","","","","","","","","","","","","","","-1","788","","","","","","","","","","","","","","","","","","","","","","",""
"","fixation","","html-keyboard-response","290","3203180","0.0-269.0","0","0","iDB50","People","","null","","","","null","","","","","","","","","","","","","","","","","","","","","","","","","","","","","","","","","","","","","","","","","","","",""
"","see_reward","","html-keyboard-response","291","3203864","0.0-270.0","0","0","iDB50","People","","675","","","","32","","35","","35","","","","-1","","","","","2","","","","","0","675","","","","","","","","","","","","","","","","","","","","","","","","",""
"","reward_outcome","","html-keyboard-response","292","3205876","0.0-271.0","0","0","iDB50","People","","735","","","","40","","35","","35","","","","","","","","","","","","","","","","-1","735","","","","","","","","","","","","","","","","","","","","","","",""
"","fixation","","html-keyboard-response","293","3206891","0.0-274.0","0","0","iDB50","People","","null","","","","null","","","","","","","","","","","","","","","","","","","","","","","","","","","","","","","","","","","","","","","","","","","",""
"","see_reward","","html-keyboard-response","294","3207535","0.0-275.0","0","0","iDB50","People","","634","","","","32","","41","","36","","","","-1","","","","","2","","","","","0","634","","","","","","","","","","","","","","","","","","","","","","","","",""
"","reward_outcome","","html-keyboard-response","295","3209548","0.0-276.0","0","0","iDB50","People","","774","","","","40","","41","","36","","","","","","","","","","","","","","","","-1","774","","","","","","","","","","","","","","","","","","","","","","",""
"","fixation","","html-keyboard-response","296","3210562","0.0-279.0","0","0","iDB50","People","","null","","","","null","","","","","","","","","","","","","","","","","","","","","","","","","","","","","","","","","","","","","","","","","","","",""
"","see_reward","","html-keyboard-response","297","3211523","0.0-280.0","0","0","iDB50","People","","953","","","","32","","43","","37","","","","1","","","","","2","","","","","150","953","","","","","","","","","","","","","","","","","","","","","","","","",""
"","reward_outcome","","html-keyboard-response","298","3213538","0.0-281.0","0","0","iDB50","People","","815","","","","38","","43","","37","","","","","","","","","","","","","","","","1","815","","","","","","","","","","","","","","","","","","","","","","",""
"","fixation","","html-keyboard-response","299","3214547","0.0-284.0","0","0","iDB50","People","","null","","","","null","","","","","","","","","","","","","","","","","","","","","","","","","","","","","","","","","","","","","","","","","","","",""
"","see_reward","","html-keyboard-response","300","3215172","0.0-285.0","0","0","iDB50","People","","619","","","","32","","40","","38","","","","1","","","","","2","","","","","157","619","","","","","","","","","","","","","","","","","","","","","","","","",""
"","reward_outcome","","html-keyboard-response","301","3217192","0.0-286.0","0","0","iDB50","People","","787","","","","38","","40","","38","","","","","","","","","","","","","","","","1","787","","","","","","","","","","","","","","","","","","","","","","",""
"","fixation","","html-keyboard-response","302","3218203","0.0-289.0","0","0","iDB50","People","","null","","","","null","","","","","","","","","","","","","","","","","","","","","","","","","","","","","","","","","","","","","","","","","","","",""
"","see_reward","","html-keyboard-response","303","3218848","0.0-290.0","0","0","iDB50","People","","637","","","","32","","6","","39","","","","-1","","","","","2","","","","","0","637","","","","","","","","","","","","","","","","","","","","","","","","",""
"","reward_outcome","","html-keyboard-response","304","3220859","0.0-291.0","0","0","iDB50","People","","795","","","","40","","6","","39","","","","","","","","","","","","","","","","-1","795","","","","","","","","","","","","","","","","","","","","","","",""
"","fixation","","html-keyboard-response","305","3221875","0.0-294.0","0","0","iDB50","People","","null","","","","null","","","","","","","","","","","","","","","","","","","","","","","","","","","","","","","","","","","","","","","","","","","",""
"","see_reward","","html-keyboard-response","306","3222740","0.0-295.0","0","0","iDB50","People","","858","","","","32","","30","","40","","","","1","","","","","2","","","","","141","858","","","","","","","","","","","","","","","","","","","","","","","","",""
"","reward_outcome","","html-keyboard-response","307","3224756","0.0-296.0","0","0","iDB50","People","","810","","","","38","","30","","40","","","","","","","","","","","","","","","","1","810","","","","","","","","","","","","","","","","","","","","","","",""
"","fixation","","html-keyboard-response","308","3225772","0.0-299.0","0","0","iDB50","People","","null","","","","null","","","","","","","","","","","","","","","","","","","","","","","","","","","","","","","","","","","","","","","","","","","",""
"","see_reward","","html-keyboard-response","309","3226374","0.0-300.0","0","0","iDB50","People","","592","","","","32","","43","","41","","","","1","","","","","2","","","","","150","592","","","","","","","","","","","","","","","","","","","","","","","","",""
"","reward_outcome","","html-keyboard-response","310","3228389","0.0-301.0","0","0","iDB50","People","","770","","","","38","","43","","41","","","","","","","","","","","","","","","","1","770","","","","","","","","","","","","","","","","","","","","","","",""
"","fixation","","html-keyboard-response","311","3229404","0.0-304.0","0","0","iDB50","People","","null","","","","null","","","","","","","","","","","","","","","","","","","","","","","","","","","","","","","","","","","","","","","","","","","",""
"","see_reward","","html-keyboard-response","312","3230165","0.0-305.0","0","0","iDB50","People","","752","","","","32","","17","","42","","","","-1","","","","","2","","","","","0","752","","","","","","","","","","","","","","","","","","","","","","","","",""
"","reward_outcome","","html-keyboard-response","313","3232180","0.0-306.0","0","0","iDB50","People","","925","","","","40","","17","","42","","","","","","","","","","","","","","","","-1","925","","","","","","","","","","","","","","","","","","","","","","",""
"","fixation","","html-keyboard-response","314","3233197","0.0-309.0","0","0","iDB50","People","","null","","","","null","","","","","","","","","","","","","","","","","","","","","","","","","","","","","","","","","","","","","","","","","","","",""
"","see_reward","","html-keyboard-response","315","3234195","0.0-310.0","0","0","iDB50","People","","990","","","","32","","11","","43","","","","1","","","","","2","","","","","148","990","","","","","","","","","","","","","","","","","","","","","","","","",""
"","reward_outcome","","html-keyboard-response","316","3236215","0.0-311.0","0","0","iDB50","People","","684","","","","38","","11","","43","","","","","","","","","","","","","","","","1","684","","","","","","","","","","","","","","","","","","","","","","",""
"","fixation","","html-keyboard-response","317","3237224","0.0-314.0","0","0","iDB50","People","","null","","","","null","","","","","","","","","","","","","","","","","","","","","","","","","","","","","","","","","","","","","","","","","","","",""
"","see_reward","","html-keyboard-response","318","3238232","0.0-315.0","0","0","iDB50","People","","999","","","","32","","14","","44","","","","1","","","","","2","","","","","145","999","","","","","","","","","","","","","","","","","","","","","","","","",""
"","reward_outcome","","html-keyboard-response","319","3240244","0.0-316.0","0","0","iDB50","People","","635","","","","38","","14","","44","","","","","","","","","","","","","","","","1","635","","","","","","","","","","","","","","","","","","","","","","",""
"","fixation","","html-keyboard-response","320","3241283","0.0-319.0","0","0","iDB50","People","","null","","","","null","","","","","","","","","","","","","","","","","","","","","","","","","","","","","","","","","","","","","","","","","","","",""
"","see_reward","","html-keyboard-response","321","3241995","0.0-320.0","0","0","iDB50","People","","703","","","","32","","40","","45","","","","1","","","","","2","","","","","157","703","","","","","","","","","","","","","","","","","","","","","","","","",""
"","reward_outcome","","html-keyboard-response","322","3244011","0.0-321.0","0","0","iDB50","People","","680","","","","38","","40","","45","","","","","","","","","","","","","","","","1","680","","","","","","","","","","","","","","","","","","","","","","",""
"","fixation","","html-keyboard-response","323","3245027","0.0-324.0","0","0","iDB50","People","","null","","","","null","","","","","","","","","","","","","","","","","","","","","","","","","","","","","","","","","","","","","","","","","","","",""
"","see_reward","","html-keyboard-response","324","3245546","0.0-325.0","0","0","iDB50","People","","511","","","","32","","11","","46","","","","1","","","","","2","","","","","148","511","","","","","","","","","","","","","","","","","","","","","","","","",""
"","reward_outcome","","html-keyboard-response","325","3247557","0.0-326.0","0","0","iDB50","People","","577","","","","38","","11","","46","","","","","","","","","","","","","","","","1","577","","","","","","","","","","","","","","","","","","","","","","",""
"","fixation","","html-keyboard-response","326","3248572","0.0-329.0","0","0","iDB50","People","","null","","","","null","","","","","","","","","","","","","","","","","","","","","","","","","","","","","","","","","","","","","","","","","","","",""
"","see_reward","","html-keyboard-response","327","3249216","0.0-330.0","0","0","iDB50","People","","608","","","","32","","30","","47","","","","1","","","","","2","","","","","141","608","","","","","","","","","","","","","","","","","","","","","","","","",""
"","reward_outcome","","html-keyboard-response","328","3251227","0.0-331.0","0","0","iDB50","People","","632","","","","38","","30","","47","","","","","","","","","","","","","","","","1","632","","","","","","","","","","","","","","","","","","","","","","",""
"","block_over","","html-keyboard-response","329","3262929","0.0-333.0-0.0","0","0","iDB50","People","","11694","","","","78","","","","","","","","","","","","","","","","","","","","","","","","","","","","","","","","","","","","","","","","","","","",""
"","fixation","","html-keyboard-response","330","3263938","0.0-334.0","0","0","iDB50","People","","null","","","","null","","","","","","","","","","","","","","","","","","","","","","","","","","","","","","","","","","","","","","","","","","","",""
"","see_reward","","html-keyboard-response","331","3264484","0.0-335.0","0","0","iDB50","People","","537","","","","32","","47","","48","","","","-1","","","","","3","","","","","0","537","","","","","","","","","","","","","","","","","","","","","","","","",""
"","reward_outcome","","html-keyboard-response","332","3266499","0.0-336.0","0","0","iDB50","People","","799","","","","40","","47","","48","","","","","","","","","","","","","","","","-1","799","","","","","","","","","","","","","","","","","","","","","","",""
