"success","ttype","start_time","trial_type","trial_index","time_elapsed","internal_node_id","warning","missed_checkup","PID","stim_type","view_history","rt","responses","repeat_instructions","key_press","response","stimulus_id","painting","index","stimulus_left","stimulus_right","explain_trial","reward_type","rating_left","rating_right","painting_left","painting_right","block","left_chosen","chosen_obj","unchosen_obj","explain_response","reward_amount","see_reward_rt","register_reward_response","register_reward_rt","deliberation_reward_tally","stimulus_left_deliberation_ind","stimulus_right_deliberation_ind","chosen_trial","gain_left","higher_outcome_chosen","old_pair","chosen_object","rt_pairs","left_object_chosen","rt_object","old_response","new_rating","deliberated_stim","initial_rating","outcome_eval_rt","outcome_eval_response","outcome_eval_gain","outcome_eval_acc","preamble","outcome_eval_confidence","outcome_eval_confidence_rt","total_reward_tally"
"true","full_screen","d01192023hr2037","fullscreen","0","32185","0.0-0.0","0","0","AnZ4v","Scenes","","","","","","","","","","","","","","","","","","","","","","","","","","","","","","","","","","","","","","","","","","","","","","","","",""
"","rating_instructions","","instructions","1","51640","0.0-1.0-0.0","0","0","AnZ4v","Scenes","[{""page_index"":0,""viewing_time"":15549},{""page_index"":1,""viewing_time"":3903}]","19453","","","","","","","","","","","","","","","","","","","","","","","","","","","","","","","","","","","","","","","","","","","","","","",""
"","rating_comprehension_check","","survey-multi-choice","2","60247","0.0-1.0-1.0","0","0","AnZ4v","Scenes","","8605","{""Q0"":""True"",""Q1"":""Mouse""}","0","","","","","","","","","","","","","","","","","","","","","","","","","","","","","","","","","","","","","","","","","","","","",""
"","start_phase","","html-keyboard-response","3","64603","0.0-2.0","0","0","AnZ4v","Scenes","","4354","","","78","","","","","","","","","","","","","","","","","","","","","","","","","","","","","","","","","","","","","","","","","","","",""
"","rating","","html-slider-response","4","71004","0.0-3.0","0","0","AnZ4v","Scenes","","6399","","","","73","116","david-marcu-W5MhJ6cy1So-unsplash.jpg","0","","","","","","","","","","","","","","","","","","","","","","","","","","","","","","","","","","","","","","","",""
"","rating","","html-slider-response","5","77375","0.0-4.0","0","0","AnZ4v","Scenes","","6370","","","","39","102","anisur-rahman-K2b7UDed6uQ-unsplash.jpg","1","","","","","","","","","","","","","","","","","","","","","","","","","","","","","","","","","","","","","","","",""
"","rating","","html-slider-response","6","82728","0.0-5.0","0","0","AnZ4v","Scenes","","5352","","","","94","142","sergey-pesterev-y-b_FOmJXdg-unsplash.jpg","2","","","","","","","","","","","","","","","","","","","","","","","","","","","","","","","","","","","","","","","",""
"","rating","","html-slider-response","7","85848","0.0-6.0","0","0","AnZ4v","Scenes","","3118","","","","64","115","darrell-cassell-hoCXpPUMCoE-unsplash.jpg","3","","","","","","","","","","","","","","","","","","","","","","","","","","","","","","","","","","","","","","","",""
"","rating","","html-slider-response","8","90084","0.0-7.0","0","0","AnZ4v","Scenes","","4236","","","","89","129","kurt-cotoaga-cqbLg3lZEpk-unsplash.jpg","4","","","","","","","","","","","","","","","","","","","","","","","","","","","","","","","","","","","","","","","",""
"","rating","","html-slider-response","9","93135","0.0-8.0","0","0","AnZ4v","Scenes","","3050","","","","79","109","brigitta-schneiter-hXXRLtTxXCU-unsplash.jpg","5","","","","","","","","","","","","","","","","","","","","","","","","","","","","","","","","","","","","","","","",""
"","rating","","html-slider-response","10","96522","0.0-9.0","0","0","AnZ4v","Scenes","","3385","","","","85","132","meng-ji-8BH_M-53CyA-unsplash.jpg","6","","","","","","","","","","","","","","","","","","","","","","","","","","","","","","","","","","","","","","","",""
"","rating","","html-slider-response","11","100942","0.0-10.0","0","0","AnZ4v","Scenes","","4418","","","","46","148","tom-gainor-ZqLeQDjY6fY-unsplash.jpg","7","","","","","","","","","","","","","","","","","","","","","","","","","","","","","","","","","","","","","","","",""
"","rating","","html-slider-response","12","105645","0.0-11.0","0","0","AnZ4v","Scenes","","4703","","","","75","104","artem-sapegin-XGDBdSQ70O0-unsplash.jpg","8","","","","","","","","","","","","","","","","","","","","","","","","","","","","","","","","","","","","","","","",""
"","rating","","html-slider-response","13","109465","0.0-12.0","0","0","AnZ4v","Scenes","","3818","","","","57","141","sebastian-unrau-v4e3JI7DDHI-unsplash.jpg","9","","","","","","","","","","","","","","","","","","","","","","","","","","","","","","","","","","","","","","","",""
"","rating","","html-slider-response","14","112933","0.0-13.0","0","0","AnZ4v","Scenes","","3466","","","","61","134","milada-vigerova-pQMM63GE7fo-unsplash.jpg","10","","","","","","","","","","","","","","","","","","","","","","","","","","","","","","","","","","","","","","","",""
"","rating","","html-slider-response","15","118187","0.0-14.0","0","0","AnZ4v","Scenes","","5252","","","","66","145","stephen-leonardi-gyIRjKPXupE-unsplash.jpg","11","","","","","","","","","","","","","","","","","","","","","","","","","","","","","","","","","","","","","","","",""
"","rating","","html-slider-response","16","124476","0.0-15.0","0","0","AnZ4v","Scenes","","6288","","","","57","110","bruno-van-der-kraan-qez8mNJ3ilU-unsplash.jpg","12","","","","","","","","","","","","","","","","","","","","","","","","","","","","","","","","","","","","","","","",""
"","rating","","html-slider-response","17","128728","0.0-16.0","0","0","AnZ4v","Scenes","","4250","","","","81","112","cosmic-timetraveler-pYyOZ8q7AII-unsplash.jpg","13","","","","","","","","","","","","","","","","","","","","","","","","","","","","","","","","","","","","","","","",""
"","rating","","html-slider-response","18","132080","0.0-17.0","0","0","AnZ4v","Scenes","","3352","","","","69","143","sigurdur-fjalar-jonsson-1KxBabIntpE-unsplash.jpg","14","","","","","","","","","","","","","","","","","","","","","","","","","","","","","","","","","","","","","","","",""
"","rating","","html-slider-response","19","135483","0.0-18.0","0","0","AnZ4v","Scenes","","3401","","","","85","127","kace-rodriguez-p3OzJuT_Dks-unsplash.jpg","15","","","","","","","","","","","","","","","","","","","","","","","","","","","","","","","","","","","","","","","",""
"","rating","","html-slider-response","20","139452","0.0-19.0","0","0","AnZ4v","Scenes","","3968","","","","55","101","aniket-deole-T-tOgjWZ0fQ-unsplash.jpg","16","","","","","","","","","","","","","","","","","","","","","","","","","","","","","","","","","","","","","","","",""
"","rating","","html-slider-response","21","145558","0.0-20.0","0","0","AnZ4v","Scenes","","6104","","","","43","138","petr-vysohlid-9fqwGqGLUxc-unsplash.jpg","17","","","","","","","","","","","","","","","","","","","","","","","","","","","","","","","","","","","","","","","",""
"","rating","","html-slider-response","22","149911","0.0-21.0","0","0","AnZ4v","Scenes","","4353","","","","54","120","jarrett-kow-1ZOyYPOBn7I-unsplash.jpg","18","","","","","","","","","","","","","","","","","","","","","","","","","","","","","","","","","","","","","","","",""
"","rating","","html-slider-response","23","152962","0.0-22.0","0","0","AnZ4v","Scenes","","3049","","","","57","114","daniel-sessler-z_9VmsxR8hs-unsplash.jpg","19","","","","","","","","","","","","","","","","","","","","","","","","","","","","","","","","","","","","","","","",""
"","rating","","html-slider-response","24","158449","0.0-23.0","0","0","AnZ4v","Scenes","","5486","","","","55","128","karsten-wurth-jS0zC2PJ17A-unsplash.jpg","20","","","","","","","","","","","","","","","","","","","","","","","","","","","","","","","","","","","","","","","",""
"","rating","","html-slider-response","25","162919","0.0-24.0","0","0","AnZ4v","Scenes","","4468","","","","59","140","samuele-errico-piccarini-JEBqFu2AOOA-unsplash.jpg","21","","","","","","","","","","","","","","","","","","","","","","","","","","","","","","","","","","","","","","","",""
"","rating","","html-slider-response","26","166322","0.0-25.0","0","0","AnZ4v","Scenes","","3402","","","","28","149","yuriy-bogdanov-W51VK3Obcj0-unsplash.jpg","22","","","","","","","","","","","","","","","","","","","","","","","","","","","","","","","","","","","","","","","",""
"","rating","","html-slider-response","27","169642","0.0-26.0","0","0","AnZ4v","Scenes","","3318","","","","71","125","john-lee-oMneOBYhJxY-unsplash.jpg","23","","","","","","","","","","","","","","","","","","","","","","","","","","","","","","","","","","","","","","","",""
"","rating","","html-slider-response","28","173709","0.0-27.0","0","0","AnZ4v","Scenes","","4067","","","","57","113","damian-denis-D8R_txR_0PE-unsplash.jpg","24","","","","","","","","","","","","","","","","","","","","","","","","","","","","","","","","","","","","","","","",""
"","rating","","html-slider-response","29","177180","0.0-28.0","0","0","AnZ4v","Scenes","","3469","","","","59","100","aleksandra-boguslawska-MS7KD9Ti7FQ-unsplash.jpg","25","","","","","","","","","","","","","","","","","","","","","","","","","","","","","","","","","","","","","","","",""
"","rating","","html-slider-response","30","180916","0.0-29.0","0","0","AnZ4v","Scenes","","3735","","","","69","130","lina-loos-04-C1NZk1hE-unsplash.jpg","26","","","","","","","","","","","","","","","","","","","","","","","","","","","","","","","","","","","","","","","",""
"","rating","","html-slider-response","31","184920","0.0-30.0","0","0","AnZ4v","Scenes","","4002","","","","56","118","henry-be-NLF6hTe4PAg-unsplash.jpg","27","","","","","","","","","","","","","","","","","","","","","","","","","","","","","","","","","","","","","","","",""
"","rating","","html-slider-response","32","188037","0.0-31.0","0","0","AnZ4v","Scenes","","3116","","","","73","108","benjamin-voros-phIFdC6lA4E-unsplash.jpg","28","","","","","","","","","","","","","","","","","","","","","","","","","","","","","","","","","","","","","","","",""
"","rating","","html-slider-response","33","191624","0.0-32.0","0","0","AnZ4v","Scenes","","3585","","","","76","124","johannes-plenio-sPt5RIjKfpk-unsplash.jpg","29","","","","","","","","","","","","","","","","","","","","","","","","","","","","","","","","","","","","","","","",""
"","rating","","html-slider-response","34","194943","0.0-33.0","0","0","AnZ4v","Scenes","","3318","","","","63","111","claudio-testa-U3F2o6vz3bs-unsplash.jpg","30","","","","","","","","","","","","","","","","","","","","","","","","","","","","","","","","","","","","","","","",""
"","rating","","html-slider-response","35","198228","0.0-34.0","0","0","AnZ4v","Scenes","","3283","","","","42","121","jean-pierre-brungs-qxCqkbF7tUc-unsplash.jpg","31","","","","","","","","","","","","","","","","","","","","","","","","","","","","","","","","","","","","","","","",""
"","rating","","html-slider-response","36","201448","0.0-35.0","0","0","AnZ4v","Scenes","","3218","","","","58","123","joel-jasmin-forestbird-efuwb5eBDrI-unsplash.jpg","32","","","","","","","","","","","","","","","","","","","","","","","","","","","","","","","","","","","","","","","",""
"","rating","","html-slider-response","37","206085","0.0-36.0","0","0","AnZ4v","Scenes","","4636","","","","53","103","anton-darius-FBJugtbHsWU-unsplash.jpg","33","","","","","","","","","","","","","","","","","","","","","","","","","","","","","","","","","","","","","","","",""
"","rating","","html-slider-response","38","210404","0.0-37.0","0","0","AnZ4v","Scenes","","4318","","","","53","146","thomas-morse-cuKKa0vWZSY-unsplash.jpg","34","","","","","","","","","","","","","","","","","","","","","","","","","","","","","","","","","","","","","","","",""
"","rating","","html-slider-response","39","214490","0.0-38.0","0","0","AnZ4v","Scenes","","4086","","","","61","147","tobias-keller-73F4pKoUkM0-unsplash.jpg","35","","","","","","","","","","","","","","","","","","","","","","","","","","","","","","","","","","","","","","","",""
"","rating","","html-slider-response","40","217409","0.0-39.0","0","0","AnZ4v","Scenes","","2917","","","","70","135","mohammad-alizade-4wzRuAb-KWs-unsplash.jpg","36","","","","","","","","","","","","","","","","","","","","","","","","","","","","","","","","","","","","","","","",""
"","rating","","html-slider-response","41","220695","0.0-40.0","0","0","AnZ4v","Scenes","","3285","","","","46","107","benjamin-davies-Zm2n2O7Fph4-unsplash.jpg","37","","","","","","","","","","","","","","","","","","","","","","","","","","","","","","","","","","","","","","","",""
"","rating","","html-slider-response","42","224131","0.0-41.0","0","0","AnZ4v","Scenes","","3435","","","","23","105","ashim-d-silva-S2Q5mdOrrVc-unsplash.jpg","38","","","","","","","","","","","","","","","","","","","","","","","","","","","","","","","","","","","","","","","",""
"","rating","","html-slider-response","43","227066","0.0-42.0","0","0","AnZ4v","Scenes","","2933","","","","55","137","olga-stalska-QaWRyEdlffY-unsplash.jpg","39","","","","","","","","","","","","","","","","","","","","","","","","","","","","","","","","","","","","","","","",""
"","rating","","html-slider-response","44","230469","0.0-43.0","0","0","AnZ4v","Scenes","","3402","","","","76","131","luca-bravo-hFzIoD0F_i8-unsplash.jpg","40","","","","","","","","","","","","","","","","","","","","","","","","","","","","","","","","","","","","","","","",""
"","rating","","html-slider-response","45","233203","0.0-44.0","0","0","AnZ4v","Scenes","","2732","","","","62","139","samsommer-vddccTqwal8-unsplash.jpg","41","","","","","","","","","","","","","","","","","","","","","","","","","","","","","","","","","","","","","","","",""
"","rating","","html-slider-response","46","236206","0.0-45.0","0","0","AnZ4v","Scenes","","3001","","","","54","133","mickey-o-neil-xL66l--msXU-unsplash.jpg","42","","","","","","","","","","","","","","","","","","","","","","","","","","","","","","","","","","","","","","","",""
"","rating","","html-slider-response","47","240610","0.0-46.0","0","0","AnZ4v","Scenes","","4402","","","","67","136","nicolas-jehly-LzVB84KkZOE-unsplash.jpg","43","","","","","","","","","","","","","","","","","","","","","","","","","","","","","","","","","","","","","","","",""
"","rating","","html-slider-response","48","243344","0.0-47.0","0","0","AnZ4v","Scenes","","2733","","","","73","119","james-wheeler-AFC0XvICMgs-unsplash.jpg","44","","","","","","","","","","","","","","","","","","","","","","","","","","","","","","","","","","","","","","","",""
"","rating","","html-slider-response","49","246480","0.0-48.0","0","0","AnZ4v","Scenes","","3135","","","","60","126","jordan-mcqueen-PJCZOWuOxbU-unsplash.jpg","45","","","","","","","","","","","","","","","","","","","","","","","","","","","","","","","","","","","","","","","",""
"","rating","","html-slider-response","50","249700","0.0-49.0","0","0","AnZ4v","Scenes","","3218","","","","88","106","ashim-d-silva-WeYamle9fDM-unsplash.jpg","46","","","","","","","","","","","","","","","","","","","","","","","","","","","","","","","","","","","","","","","",""
"","rating","","html-slider-response","51","253501","0.0-50.0","0","0","AnZ4v","Scenes","","3799","","","","35","122","jeff-king-bJHWJeiHfHc-unsplash.jpg","47","","","","","","","","","","","","","","","","","","","","","","","","","","","","","","","","","","","","","","","",""
"","rating","","html-slider-response","52","257937","0.0-51.0","0","0","AnZ4v","Scenes","","4434","","","","53","117","frank-mckenna-OD9EOzfSOh0-unsplash.jpg","48","","","","","","","","","","","","","","","","","","","","","","","","","","","","","","","","","","","","","","","",""
"","rating","","html-slider-response","53","262608","0.0-52.0","0","0","AnZ4v","Scenes","","4669","","","","71","144","solotravelgoals-7kLufxYoqWk-unsplash.jpg","49","","","","","","","","","","","","","","","","","","","","","","","","","","","","","","","","","","","","","","","",""
"","deliberation_instructions","","instructions","54","370412","0.0-53.0-0.0","0","0","AnZ4v","Scenes","[{""page_index"":0,""viewing_time"":20258},{""page_index"":1,""viewing_time"":28401},{""page_index"":2,""viewing_time"":28421},{""page_index"":3,""viewing_time"":28419},{""page_index"":4,""viewing_time"":2303}]","107802","","","","","","","","","","","","","","","","","","","","","","","","","","","","","","","","","","","","","","","","","","","","","","",""
"","deliberation_comprehension_check","","survey-multi-choice","55","406155","0.0-53.0-1.0","0","0","AnZ4v","Scenes","","35739","{""Q0"":""True"",""Q1"":""True"",""Q2"":""Consider carefully and take your time (up to 10 seconds)"",""Q3"":""True"",""Q4"":""D""}","0","","","","","","","","","","","","","","","","","","","","","","","","","","","","","","","","","","","","","","","","","","","","",""
"","start_phase","","html-keyboard-response","56","417801","0.0-54.0","0","0","AnZ4v","Scenes","","11645","","","78","","","","","","","","","","","","","","","","","","","","","","","","","","","","","","","","","","","","","","","","","","","",""
"","first_deliberation_block","","html-keyboard-response","57","422965","0.0-55.0","0","0","AnZ4v","Scenes","","5163","","","78","","","","","","","","","","","","","","","","","","","","","","","","","","","","","","","","","","","","","","","","","","","",""
"","fixation","","html-keyboard-response","58","423971","0.0-56.0-0.0","0","0","AnZ4v","Scenes","","null","","","null","","","","","","","","","","","","","","","","","","","","","","","","","","","","","","","","","","","","","","","","","","","",""
"","deliberation","","html-keyboard-response","59","425773","0.0-56.0-1.0","0","0","AnZ4v","Scenes","","1801","","","75","","","","0","137","110","0","1","55","57","olga-stalska-QaWRyEdlffY-unsplash.jpg","bruno-van-der-kraan-qez8mNJ3ilU-unsplash.jpg","1","0","110","137","","","","","","","","","","","","","","","","","","","","","","","","","","","",""
"","choice_confirmation","","html-keyboard-response","60","426276","0.0-56.0-2.0-0.0","0","0","AnZ4v","Scenes","","null","","","null","","","","0","137","110","","","","","","","","","","","","","","","","","","","","","","","","","","","","","","","","","","","","","",""
"","fixation","","html-keyboard-response","61","427286","0.0-57.0-0.0","0","0","AnZ4v","Scenes","","null","","","null","","","","","","","","","","","","","","","","","","","","","","","","","","","","","","","","","","","","","","","","","","","",""
"","deliberation","","html-keyboard-response","62","428911","0.0-57.0-1.0","0","0","AnZ4v","Scenes","","1623","","","68","","","","1","125","118","1","1","71","56","john-lee-oMneOBYhJxY-unsplash.jpg","henry-be-NLF6hTe4PAg-unsplash.jpg","1","1","125","118","","","","","","","","","","","","","","","","","","","","","","","","","","","",""
"","choice_confirmation","","html-keyboard-response","63","429413","0.0-57.0-2.0-0.0","0","0","AnZ4v","Scenes","","null","","","null","","","","1","125","118","","","","","","","","","","","","","","","","","","","","","","","","","","","","","","","","","","","","","",""
"","explain_trial","","survey-text","64","516817","0.0-57.0-5.0-0.0","0","0","AnZ4v","Scenes","","87402","{""Q0"":""It feels more unique. The colors are vibrant, and the reflection on the water makes the environment feel larger. You can get lost in the details, it feels so wide open with a lot to explore.""}","","","","","","1","125","118","","","","","","","","","","","{""Q0"":""It feels more unique. The colors are vibrant, and the reflection on the water makes the environment feel larger. You can get lost in the details, it feels so wide open with a lot to explore.""}","","","","","","","","","","","","","","","","","","","","","","","","","","",""
"","fixation","","html-keyboard-response","65","517823","0.0-58.0-0.0","0","0","AnZ4v","Scenes","","null","","","null","","","","","","","","","","","","","","","","","","","","","","","","","","","","","","","","","","","","","","","","","","","",""
"","deliberation","","html-keyboard-response","66","519500","0.0-58.0-1.0","0","0","AnZ4v","Scenes","","1676","","","68","","","","2","141","115","1","1","57","64","sebastian-unrau-v4e3JI7DDHI-unsplash.jpg","darrell-cassell-hoCXpPUMCoE-unsplash.jpg","1","1","141","115","","","","","","","","","","","","","","","","","","","","","","","","","","","",""
"","choice_confirmation","","html-keyboard-response","67","520006","0.0-58.0-2.0-0.0","0","0","AnZ4v","Scenes","","null","","","null","","","","2","141","115","","","","","","","","","","","","","","","","","","","","","","","","","","","","","","","","","","","","","",""
"","explain_trial","","survey-text","68","621842","0.0-58.0-5.0-0.0","0","0","AnZ4v","Scenes","","101835","{""Q0"":""This image feels like it's telling a story. The warm tones are comforting. I can almost smell the fall air, and hear the breeze rustling through the trees. Following a path to somewhere unknown, but completely content along the way.""}","","","","","","2","141","115","","","","","","","","","","","{""Q0"":""This image feels like it's telling a story. The warm tones are comforting. I can almost smell the fall air, and hear the breeze rustling through the trees. Following a path to somewhere unknown, but completely content along the way.""}","","","","","","","","","","","","","","","","","","","","","","","","","","",""
"","fixation","","html-keyboard-response","69","622850","0.0-59.0-0.0","0","0","AnZ4v","Scenes","","null","","","null","","","","","","","","","","","","","","","","","","","","","","","","","","","","","","","","","","","","","","","","","","","",""
"","deliberation","","html-keyboard-response","70","625230","0.0-59.0-1.0","0","0","AnZ4v","Scenes","","2379","","","75","","","","3","147","135","0","-1","61","70","tobias-keller-73F4pKoUkM0-unsplash.jpg","mohammad-alizade-4wzRuAb-KWs-unsplash.jpg","1","0","135","147","","","","","","","","","","","","","","","","","","","","","","","","","","","",""
"","choice_confirmation","","html-keyboard-response","71","625740","0.0-59.0-2.0-0.0","0","0","AnZ4v","Scenes","","null","","","null","","","","3","147","135","","","","","","","","","","","","","","","","","","","","","","","","","","","","","","","","","","","","","",""
"","fixation","","html-keyboard-response","72","626745","0.0-60.0-0.0","0","0","AnZ4v","Scenes","","null","","","null","","","","","","","","","","","","","","","","","","","","","","","","","","","","","","","","","","","","","","","","","","","",""
"","deliberation","","html-keyboard-response","73","628729","0.0-60.0-1.0","0","0","AnZ4v","Scenes","","1983","","","75","","","","4","134","114","0","1","61","57","milada-vigerova-pQMM63GE7fo-unsplash.jpg","daniel-sessler-z_9VmsxR8hs-unsplash.jpg","1","0","114","134","","","","","","","","","","","","","","","","","","","","","","","","","","","",""
"","choice_confirmation","","html-keyboard-response","74","629235","0.0-60.0-2.0-0.0","0","0","AnZ4v","Scenes","","null","","","null","","","","4","134","114","","","","","","","","","","","","","","","","","","","","","","","","","","","","","","","","","","","","","",""
"","fixation","","html-keyboard-response","75","630245","0.0-61.0-0.0","0","0","AnZ4v","Scenes","","null","","","null","","","","","","","","","","","","","","","","","","","","","","","","","","","","","","","","","","","","","","","","","","","",""
"","deliberation","","html-keyboard-response","76","632041","0.0-61.0-1.0","0","0","AnZ4v","Scenes","","1794","","","68","","","","5","111","136","0","-1","63","67","claudio-testa-U3F2o6vz3bs-unsplash.jpg","nicolas-jehly-LzVB84KkZOE-unsplash.jpg","1","1","111","136","","","","","","","","","","","","","","","","","","","","","","","","","","","",""
"","choice_confirmation","","html-keyboard-response","77","632546","0.0-61.0-2.0-0.0","0","0","AnZ4v","Scenes","","null","","","null","","","","5","111","136","","","","","","","","","","","","","","","","","","","","","","","","","","","","","","","","","","","","","",""
"","fixation","","html-keyboard-response","78","633554","0.0-62.0-0.0","0","0","AnZ4v","Scenes","","null","","","null","","","","","","","","","","","","","","","","","","","","","","","","","","","","","","","","","","","","","","","","","","","",""
"","deliberation","","html-keyboard-response","79","634775","0.0-62.0-1.0","0","0","AnZ4v","Scenes","","1219","","","75","","","","6","128","140","1","-1","55","59","karsten-wurth-jS0zC2PJ17A-unsplash.jpg","samuele-errico-piccarini-JEBqFu2AOOA-unsplash.jpg","1","0","140","128","","","","","","","","","","","","","","","","","","","","","","","","","","","",""
"","choice_confirmation","","html-keyboard-response","80","635284","0.0-62.0-2.0-0.0","0","0","AnZ4v","Scenes","","null","","","null","","","","6","128","140","","","","","","","","","","","","","","","","","","","","","","","","","","","","","","","","","","","","","",""
"","explain_trial","","survey-text","81","772200","0.0-62.0-5.0-0.0","0","0","AnZ4v","Scenes","","136914","{""Q0"":""The reflection on the water makes this image feel very vast and open. The stillness of the water makes it feel calm and content. However, it contrasts with the gritty, worn wood of the cabin. It feels like it has a story to tell.""}","","","","","","6","128","140","","","","","","","","","","","{""Q0"":""The reflection on the water makes this image feel very vast and open. The stillness of the water makes it feel calm and content. However, it contrasts with the gritty, worn wood of the cabin. It feels like it has a story to tell.""}","","","","","","","","","","","","","","","","","","","","","","","","","","",""
"","fixation","","html-keyboard-response","82","773208","0.0-63.0-0.0","0","0","AnZ4v","Scenes","","null","","","null","","","","","","","","","","","","","","","","","","","","","","","","","","","","","","","","","","","","","","","","","","","",""
"","deliberation","","html-keyboard-response","83","775309","0.0-63.0-1.0","0","0","AnZ4v","Scenes","","2100","","","75","","","","7","139","123","0","1","62","58","samsommer-vddccTqwal8-unsplash.jpg","joel-jasmin-forestbird-efuwb5eBDrI-unsplash.jpg","1","0","123","139","","","","","","","","","","","","","","","","","","","","","","","","","","","",""
"","choice_confirmation","","html-keyboard-response","84","775815","0.0-63.0-2.0-0.0","0","0","AnZ4v","Scenes","","null","","","null","","","","7","139","123","","","","","","","","","","","","","","","","","","","","","","","","","","","","","","","","","","","","","",""
"","fixation","","html-keyboard-response","85","776825","0.0-64.0-0.0","0","0","AnZ4v","Scenes","","null","","","null","","","","","","","","","","","","","","","","","","","","","","","","","","","","","","","","","","","","","","","","","","","",""
"","deliberation","","html-keyboard-response","86","778682","0.0-64.0-1.0","0","0","AnZ4v","Scenes","","1856","","","68","","","","8","143","101","1","-1","69","55","sigurdur-fjalar-jonsson-1KxBabIntpE-unsplash.jpg","aniket-deole-T-tOgjWZ0fQ-unsplash.jpg","1","1","143","101","","","","","","","","","","","","","","","","","","","","","","","","","","","",""
"","choice_confirmation","","html-keyboard-response","87","779193","0.0-64.0-2.0-0.0","0","0","AnZ4v","Scenes","","null","","","null","","","","8","143","101","","","","","","","","","","","","","","","","","","","","","","","","","","","","","","","","","","","","","",""
"","explain_trial","","survey-text","88","914485","0.0-64.0-5.0-0.0","0","0","AnZ4v","Scenes","","135290","{""Q0"":""This one was a difficult choice, both images share commonalities. However, I made my choice because this image is easier to see yourself in. The angle of the shot is very low to the ground compared to the second image, almost eye-level. I feel like that helps the viewer relate to the imagery more.""}","","","","","","8","143","101","","","","","","","","","","","{""Q0"":""This one was a difficult choice, both images share commonalities. However, I made my choice because this image is easier to see yourself in. The angle of the shot is very low to the ground compared to the second image, almost eye-level. I feel like that helps the viewer relate to the imagery more.""}","","","","","","","","","","","","","","","","","","","","","","","","","","",""
"","fixation","","html-keyboard-response","89","915492","0.0-65.0-0.0","0","0","AnZ4v","Scenes","","null","","","null","","","","","","","","","","","","","","","","","","","","","","","","","","","","","","","","","","","","","","","","","","","",""
"","deliberation","","html-keyboard-response","90","917695","0.0-65.0-1.0","0","0","AnZ4v","Scenes","","2201","","","75","","","","9","100","145","1","-1","59","66","aleksandra-boguslawska-MS7KD9Ti7FQ-unsplash.jpg","stephen-leonardi-gyIRjKPXupE-unsplash.jpg","1","0","145","100","","","","","","","","","","","","","","","","","","","","","","","","","","","",""
"","choice_confirmation","","html-keyboard-response","91","918203","0.0-65.0-2.0-0.0","0","0","AnZ4v","Scenes","","null","","","null","","","","9","100","145","","","","","","","","","","","","","","","","","","","","","","","","","","","","","","","","","","","","","",""
"","explain_trial","","survey-text","92","1106507","0.0-65.0-5.0-0.0","0","0","AnZ4v","Scenes","","188302","{""Q0"":""Again, another difficult decision since both images share the common theme of a path leading into the distance. I made my choice based mainly on color. The warm tones of this image, along with the volumetric haze of the sun peering through the trees makes it feel very comfortable. It feels very quiet compared to the other image, as such, looking at it is more pleasant and evokes more thought.""}","","","","","","9","100","145","","","","","","","","","","","{""Q0"":""Again, another difficult decision since both images share the common theme of a path leading into the distance. I made my choice based mainly on color. The warm tones of this image, along with the volumetric haze of the sun peering through the trees makes it feel very comfortable. It feels very quiet compared to the other image, as such, looking at it is more pleasant and evokes more thought.""}","","","","","","","","","","","","","","","","","","","","","","","","","","",""
"","fixation","","html-keyboard-response","93","1107509","0.0-66.0-0.0","0","0","AnZ4v","Scenes","","null","","","null","","","","","","","","","","","","","","","","","","","","","","","","","","","","","","","","","","","","","","","","","","","",""
"","deliberation","","html-keyboard-response","94","1109196","0.0-66.0-1.0","0","0","AnZ4v","Scenes","","1685","","","68","","","","10","144","113","0","1","71","57","solotravelgoals-7kLufxYoqWk-unsplash.jpg","damian-denis-D8R_txR_0PE-unsplash.jpg","1","1","144","113","","","","","","","","","","","","","","","","","","","","","","","","","","","",""
"","choice_confirmation","","html-keyboard-response","95","1109703","0.0-66.0-2.0-0.0","0","0","AnZ4v","Scenes","","null","","","null","","","","10","144","113","","","","","","","","","","","","","","","","","","","","","","","","","","","","","","","","","","","","","",""
"","fixation","","html-keyboard-response","96","1110713","0.0-67.0-0.0","0","0","AnZ4v","Scenes","","null","","","null","","","","","","","","","","","","","","","","","","","","","","","","","","","","","","","","","","","","","","","","","","","",""
"","deliberation","","html-keyboard-response","97","1113264","0.0-67.0-1.0","0","0","AnZ4v","Scenes","","2549","","","68","","","","11","130","126","1","-1","69","60","lina-loos-04-C1NZk1hE-unsplash.jpg","jordan-mcqueen-PJCZOWuOxbU-unsplash.jpg","1","1","130","126","","","","","","","","","","","","","","","","","","","","","","","","","","","",""
"","choice_confirmation","","html-keyboard-response","98","1113767","0.0-67.0-2.0-0.0","0","0","AnZ4v","Scenes","","null","","","null","","","","11","130","126","","","","","","","","","","","","","","","","","","","","","","","","","","","","","","","","","","","","","",""
"","explain_trial","","survey-text","99","1234036","0.0-67.0-5.0-0.0","0","0","AnZ4v","Scenes","","120267","{""Q0"":""This is just a cool image. There are so many aspects to hone in on. The mountains, trees, grassy hills, the stream, and even an ocean in the background. While I would typically gravitate toward the atmosphere of the other image, the one I chose just feels like it has so much more to give.""}","","","","","","11","130","126","","","","","","","","","","","{""Q0"":""This is just a cool image. There are so many aspects to hone in on. The mountains, trees, grassy hills, the stream, and even an ocean in the background. While I would typically gravitate toward the atmosphere of the other image, the one I chose just feels like it has so much more to give.""}","","","","","","","","","","","","","","","","","","","","","","","","","","",""
"","practice_deliberation_again","","html-keyboard-response","100","1241737","0.0-67.0-6.0-0.0","0","0","AnZ4v","Scenes","","7700","","","78","","","","","","","","","","","","","","","","","","","","","","","","","","","","","","","","","","","","","","","","","","","",""
"","fixation","","html-keyboard-response","101","1242744","0.0-68.0-0.0","0","0","AnZ4v","Scenes","","null","","","null","","","","","","","","","","","","","","","","","","","","","","","","","","","","","","","","","","","","","","","","","","","",""
"","deliberation","","html-keyboard-response","102","1244178","0.0-68.0-1.0","0","0","AnZ4v","Scenes","","1432","","","68","","","","12","143","101","0","-1","69","55","sigurdur-fjalar-jonsson-1KxBabIntpE-unsplash.jpg","aniket-deole-T-tOgjWZ0fQ-unsplash.jpg","2","1","143","101","","","","","","","","","","","","","","","","","","","","","","","","","","","",""
"","choice_confirmation","","html-keyboard-response","103","1244688","0.0-68.0-2.0-0.0","0","0","AnZ4v","Scenes","","null","","","null","","","","12","143","101","","","","","","","","","","","","","","","","","","","","","","","","","","","","","","","","","","","","","",""
"","fixation","","html-keyboard-response","104","1245693","0.0-69.0-0.0","0","0","AnZ4v","Scenes","","null","","","null","","","","","","","","","","","","","","","","","","","","","","","","","","","","","","","","","","","","","","","","","","","",""
"","deliberation","","html-keyboard-response","105","1246731","0.0-69.0-1.0","0","0","AnZ4v","Scenes","","1036","","","75","","","","13","100","145","0","-1","59","66","aleksandra-boguslawska-MS7KD9Ti7FQ-unsplash.jpg","stephen-leonardi-gyIRjKPXupE-unsplash.jpg","2","0","145","100","","","","","","","","","","","","","","","","","","","","","","","","","","","",""
"","choice_confirmation","","html-keyboard-response","106","1247237","0.0-69.0-2.0-0.0","0","0","AnZ4v","Scenes","","null","","","null","","","","13","100","145","","","","","","","","","","","","","","","","","","","","","","","","","","","","","","","","","","","","","",""
"","fixation","","html-keyboard-response","107","1248247","0.0-70.0-0.0","0","0","AnZ4v","Scenes","","null","","","null","","","","","","","","","","","","","","","","","","","","","","","","","","","","","","","","","","","","","","","","","","","",""
"","deliberation","","html-keyboard-response","108","1249278","0.0-70.0-1.0","0","0","AnZ4v","Scenes","","1029","","","68","","","","14","144","113","1","1","71","57","solotravelgoals-7kLufxYoqWk-unsplash.jpg","damian-denis-D8R_txR_0PE-unsplash.jpg","2","1","144","113","","","","","","","","","","","","","","","","","","","","","","","","","","","",""
"","choice_confirmation","","html-keyboard-response","109","1249786","0.0-70.0-2.0-0.0","0","0","AnZ4v","Scenes","","null","","","null","","","","14","144","113","","","","","","","","","","","","","","","","","","","","","","","","","","","","","","","","","","","","","",""
"","explain_trial","","survey-text","110","1407379","0.0-70.0-5.0-0.0","0","0","AnZ4v","Scenes","","157591","{""Q0"":""The scenery in this image is just stunning. The color is a little too saturated, especially compared to the alternate choice, but I think the uniqueness makes up for that weakness. On top of that, the other image feels very lonely, almost sad. Some people may prefer that, but generally I think the one I chose draws the viewer in more.""}","","","","","","14","144","113","","","","","","","","","","","{""Q0"":""The scenery in this image is just stunning. The color is a little too saturated, especially compared to the alternate choice, but I think the uniqueness makes up for that weakness. On top of that, the other image feels very lonely, almost sad. Some people may prefer that, but generally I think the one I chose draws the viewer in more.""}","","","","","","","","","","","","","","","","","","","","","","","","","","",""
"","fixation","","html-keyboard-response","111","1408388","0.0-71.0-0.0","0","0","AnZ4v","Scenes","","null","","","null","","","","","","","","","","","","","","","","","","","","","","","","","","","","","","","","","","","","","","","","","","","",""
"","deliberation","","html-keyboard-response","112","1409585","0.0-71.0-1.0","0","0","AnZ4v","Scenes","","1195","","","75","","","","15","128","140","0","-1","55","59","karsten-wurth-jS0zC2PJ17A-unsplash.jpg","samuele-errico-piccarini-JEBqFu2AOOA-unsplash.jpg","2","0","140","128","","","","","","","","","","","","","","","","","","","","","","","","","","","",""
"","choice_confirmation","","html-keyboard-response","113","1410094","0.0-71.0-2.0-0.0","0","0","AnZ4v","Scenes","","null","","","null","","","","15","128","140","","","","","","","","","","","","","","","","","","","","","","","","","","","","","","","","","","","","","",""
"","fixation","","html-keyboard-response","114","1411099","0.0-72.0-0.0","0","0","AnZ4v","Scenes","","null","","","null","","","","","","","","","","","","","","","","","","","","","","","","","","","","","","","","","","","","","","","","","","","",""
"","deliberation","","html-keyboard-response","115","1412180","0.0-72.0-1.0","0","0","AnZ4v","Scenes","","1079","","","68","","","","16","125","118","0","1","71","56","john-lee-oMneOBYhJxY-unsplash.jpg","henry-be-NLF6hTe4PAg-unsplash.jpg","2","1","125","118","","","","","","","","","","","","","","","","","","","","","","","","","","","",""
"","choice_confirmation","","html-keyboard-response","116","1412684","0.0-72.0-2.0-0.0","0","0","AnZ4v","Scenes","","null","","","null","","","","16","125","118","","","","","","","","","","","","","","","","","","","","","","","","","","","","","","","","","","","","","",""
"","fixation","","html-keyboard-response","117","1413694","0.0-73.0-0.0","0","0","AnZ4v","Scenes","","null","","","null","","","","","","","","","","","","","","","","","","","","","","","","","","","","","","","","","","","","","","","","","","","",""
"","deliberation","","html-keyboard-response","118","1414680","0.0-73.0-1.0","0","0","AnZ4v","Scenes","","984","","","75","","","","17","147","135","1","-1","61","70","tobias-keller-73F4pKoUkM0-unsplash.jpg","mohammad-alizade-4wzRuAb-KWs-unsplash.jpg","2","0","135","147","","","","","","","","","","","","","","","","","","","","","","","","","","","",""
"","choice_confirmation","","html-keyboard-response","119","1415186","0.0-73.0-2.0-0.0","0","0","AnZ4v","Scenes","","null","","","null","","","","17","147","135","","","","","","","","","","","","","","","","","","","","","","","","","","","","","","","","","","","","","",""
"","explain_trial","","survey-text","120","1540010","0.0-73.0-5.0-0.0","0","0","AnZ4v","Scenes","","124822","{""Q0"":""The mystery of this image is just stunning. There's not much else to say. Seeing the stars and the light of dawn/dusk peaking over the mountains makes the image feel so much larger than it is, it leaves so much to the imagination.""}","","","","","","17","147","135","","","","","","","","","","","{""Q0"":""The mystery of this image is just stunning. There's not much else to say. Seeing the stars and the light of dawn/dusk peaking over the mountains makes the image feel so much larger than it is, it leaves so much to the imagination.""}","","","","","","","","","","","","","","","","","","","","","","","","","","",""
"","fixation","","html-keyboard-response","121","1541014","0.0-74.0-0.0","0","0","AnZ4v","Scenes","","null","","","null","","","","","","","","","","","","","","","","","","","","","","","","","","","","","","","","","","","","","","","","","","","",""
"","deliberation","","html-keyboard-response","122","1542123","0.0-74.0-1.0","0","0","AnZ4v","Scenes","","1107","","","68","","","","18","141","115","0","1","57","64","sebastian-unrau-v4e3JI7DDHI-unsplash.jpg","darrell-cassell-hoCXpPUMCoE-unsplash.jpg","2","1","141","115","","","","","","","","","","","","","","","","","","","","","","","","","","","",""
"","choice_confirmation","","html-keyboard-response","123","1542633","0.0-74.0-2.0-0.0","0","0","AnZ4v","Scenes","","null","","","null","","","","18","141","115","","","","","","","","","","","","","","","","","","","","","","","","","","","","","","","","","","","","","",""
"","fixation","","html-keyboard-response","124","1543638","0.0-75.0-0.0","0","0","AnZ4v","Scenes","","null","","","null","","","","","","","","","","","","","","","","","","","","","","","","","","","","","","","","","","","","","","","","","","","",""
"","deliberation","","html-keyboard-response","125","1544835","0.0-75.0-1.0","0","0","AnZ4v","Scenes","","1196","","","68","","","","19","130","126","0","-1","69","60","lina-loos-04-C1NZk1hE-unsplash.jpg","jordan-mcqueen-PJCZOWuOxbU-unsplash.jpg","2","1","130","126","","","","","","","","","","","","","","","","","","","","","","","","","","","",""
"","choice_confirmation","","html-keyboard-response","126","1545344","0.0-75.0-2.0-0.0","0","0","AnZ4v","Scenes","","null","","","null","","","","19","130","126","","","","","","","","","","","","","","","","","","","","","","","","","","","","","","","","","","","","","",""
"","fixation","","html-keyboard-response","127","1546354","0.0-76.0-0.0","0","0","AnZ4v","Scenes","","null","","","null","","","","","","","","","","","","","","","","","","","","","","","","","","","","","","","","","","","","","","","","","","","",""
"","deliberation","","html-keyboard-response","128","1548658","0.0-76.0-1.0","0","0","AnZ4v","Scenes","","2303","","","75","","","","20","137","110","1","1","55","57","olga-stalska-QaWRyEdlffY-unsplash.jpg","bruno-van-der-kraan-qez8mNJ3ilU-unsplash.jpg","2","0","110","137","","","","","","","","","","","","","","","","","","","","","","","","","","","",""
"","choice_confirmation","","html-keyboard-response","129","1549169","0.0-76.0-2.0-0.0","0","0","AnZ4v","Scenes","","null","","","null","","","","20","137","110","","","","","","","","","","","","","","","","","","","","","","","","","","","","","","","","","","","","","",""
"","explain_trial","","survey-text","130","1673404","0.0-76.0-5.0-0.0","0","0","AnZ4v","Scenes","","124233","{""Q0"":""It feels like there's a story to tell in this image. A single cabin, some livestock, and rolling hills. It feels like a bit of history has been captured, even though it's a modern photo. It's definitely more of a thought-provoking conversation piece than the alternate photo.""}","","","","","","20","137","110","","","","","","","","","","","{""Q0"":""It feels like there's a story to tell in this image. A single cabin, some livestock, and rolling hills. It feels like a bit of history has been captured, even though it's a modern photo. It's definitely more of a thought-provoking conversation piece than the alternate photo.""}","","","","","","","","","","","","","","","","","","","","","","","","","","",""
"","fixation","","html-keyboard-response","131","1674410","0.0-77.0-0.0","0","0","AnZ4v","Scenes","","null","","","null","","","","","","","","","","","","","","","","","","","","","","","","","","","","","","","","","","","","","","","","","","","",""
"","deliberation","","html-keyboard-response","132","1675526","0.0-77.0-1.0","0","0","AnZ4v","Scenes","","1116","","","68","","","","21","111","136","1","-1","63","67","claudio-testa-U3F2o6vz3bs-unsplash.jpg","nicolas-jehly-LzVB84KkZOE-unsplash.jpg","2","1","111","136","","","","","","","","","","","","","","","","","","","","","","","","","","","",""
"","choice_confirmation","","html-keyboard-response","133","1676035","0.0-77.0-2.0-0.0","0","0","AnZ4v","Scenes","","null","","","null","","","","21","111","136","","","","","","","","","","","","","","","","","","","","","","","","","","","","","","","","","","","","","",""
"","explain_trial","","survey-text","134","1752862","0.0-77.0-5.0-0.0","0","0","AnZ4v","Scenes","","76825","{""Q0"":""This image just feels more interesting. Both feel very vast, but the one I chose has more to anchor upon. ""}","","","","","","21","111","136","","","","","","","","","","","{""Q0"":""This image just feels more interesting. Both feel very vast, but the one I chose has more to anchor upon. ""}","","","","","","","","","","","","","","","","","","","","","","","","","","",""
"","fixation","","html-keyboard-response","135","1753870","0.0-78.0-0.0","0","0","AnZ4v","Scenes","","null","","","null","","","","","","","","","","","","","","","","","","","","","","","","","","","","","","","","","","","","","","","","","","","",""
"","deliberation","","html-keyboard-response","136","1755352","0.0-78.0-1.0","0","0","AnZ4v","Scenes","","1481","","","75","","","","22","134","114","1","1","61","57","milada-vigerova-pQMM63GE7fo-unsplash.jpg","daniel-sessler-z_9VmsxR8hs-unsplash.jpg","2","0","114","134","","","","","","","","","","","","","","","","","","","","","","","","","","","",""
"","choice_confirmation","","html-keyboard-response","137","1755862","0.0-78.0-2.0-0.0","0","0","AnZ4v","Scenes","","null","","","null","","","","22","134","114","","","","","","","","","","","","","","","","","","","","","","","","","","","","","","","","","","","","","",""
"","explain_trial","","survey-text","138","1899233","0.0-78.0-5.0-0.0","0","0","AnZ4v","Scenes","","143369","{""Q0"":""Both images here have a lot in common. However, the one I chose just feels a little more interesting because of the color contrast. You really focus in on the island as soon as you see it. On top of that, the boats on the island make it feel more adventurous and relatable to someone who would enjoy this type of photo.""}","","","","","","22","134","114","","","","","","","","","","","{""Q0"":""Both images here have a lot in common. However, the one I chose just feels a little more interesting because of the color contrast. You really focus in on the island as soon as you see it. On top of that, the boats on the island make it feel more adventurous and relatable to someone who would enjoy this type of photo.""}","","","","","","","","","","","","","","","","","","","","","","","","","","",""
"","fixation","","html-keyboard-response","139","1900241","0.0-79.0-0.0","0","0","AnZ4v","Scenes","","null","","","null","","","","","","","","","","","","","","","","","","","","","","","","","","","","","","","","","","","","","","","","","","","",""
"","deliberation","","html-keyboard-response","140","1902082","0.0-79.0-1.0","0","0","AnZ4v","Scenes","","1840","","","75","","","","23","139","123","1","1","62","58","samsommer-vddccTqwal8-unsplash.jpg","joel-jasmin-forestbird-efuwb5eBDrI-unsplash.jpg","2","0","123","139","","","","","","","","","","","","","","","","","","","","","","","","","","","",""
"","choice_confirmation","","html-keyboard-response","141","1902586","0.0-79.0-2.0-0.0","0","0","AnZ4v","Scenes","","null","","","null","","","","23","139","123","","","","","","","","","","","","","","","","","","","","","","","","","","","","","","","","","","","","","",""
"","explain_trial","","survey-text","142","2053611","0.0-79.0-5.0-0.0","0","0","AnZ4v","Scenes","","151025","{""Q0"":""It's difficult to pick out why I preferred this photo over the other. In a way, I think it's because it feels quiet, yet more full than the alternate photo. The other image just feels empty, a little boring even.""}","","","","","","23","139","123","","","","","","","","","","","{""Q0"":""It's difficult to pick out why I preferred this photo over the other. In a way, I think it's because it feels quiet, yet more full than the alternate photo. The other image just feels empty, a little boring even.""}","","","","","","","","","","","","","","","","","","","","","","","","","","",""
"","start_critical_deliberation_block","","html-keyboard-response","143","2061050","0.0-79.0-7.0-0.0","0","0","AnZ4v","Scenes","","7437","","","78","","","","","","","","","","","","","","","","","","","","","","","","","","","","","","","","","","","","","","","","","","","",""
"","fixation","","html-keyboard-response","144","2062054","0.0-80.0-0.0","0","0","AnZ4v","Scenes","","null","","","null","","","","","","","","","","","","","","","","","","","","","","","","","","","","","","","","","","","","","","","","","","","",""
"","deliberation","","html-keyboard-response","145","2063177","0.0-80.0-1.0","0","0","AnZ4v","Scenes","","1121","","","68","","","","24","141","115","0","1","57","64","sebastian-unrau-v4e3JI7DDHI-unsplash.jpg","darrell-cassell-hoCXpPUMCoE-unsplash.jpg","3","1","141","115","","","","","","","","","","","","","","","","","","","","","","","","","","","",""
"","choice_confirmation","","html-keyboard-response","146","2063685","0.0-80.0-2.0-0.0","0","0","AnZ4v","Scenes","","null","","","null","","","","24","141","115","","","","","","","","","","","","","","","","","","","","","","","","","","","","","","","","","","","","","",""
"","fixation","","html-keyboard-response","147","2064695","0.0-81.0-0.0","0","0","AnZ4v","Scenes","","null","","","null","","","","","","","","","","","","","","","","","","","","","","","","","","","","","","","","","","","","","","","","","","","",""
"","deliberation","","html-keyboard-response","148","2065538","0.0-81.0-1.0","0","0","AnZ4v","Scenes","","841","","","75","","","","25","147","135","0","-1","61","70","tobias-keller-73F4pKoUkM0-unsplash.jpg","mohammad-alizade-4wzRuAb-KWs-unsplash.jpg","3","0","135","147","","","","","","","","","","","","","","","","","","","","","","","","","","","",""
"","choice_confirmation","","html-keyboard-response","149","2066048","0.0-81.0-2.0-0.0","0","0","AnZ4v","Scenes","","null","","","null","","","","25","147","135","","","","","","","","","","","","","","","","","","","","","","","","","","","","","","","","","","","","","",""
"","fixation","","html-keyboard-response","150","2067052","0.0-82.0-0.0","0","0","AnZ4v","Scenes","","null","","","null","","","","","","","","","","","","","","","","","","","","","","","","","","","","","","","","","","","","","","","","","","","",""
"","deliberation","","html-keyboard-response","151","2067926","0.0-82.0-1.0","0","0","AnZ4v","Scenes","","873","","","75","","","","26","134","114","0","1","61","57","milada-vigerova-pQMM63GE7fo-unsplash.jpg","daniel-sessler-z_9VmsxR8hs-unsplash.jpg","3","0","114","134","","","","","","","","","","","","","","","","","","","","","","","","","","","",""
"","choice_confirmation","","html-keyboard-response","152","2068428","0.0-82.0-2.0-0.0","0","0","AnZ4v","Scenes","","null","","","null","","","","26","134","114","","","","","","","","","","","","","","","","","","","","","","","","","","","","","","","","","","","","","",""
"","fixation","","html-keyboard-response","153","2069438","0.0-83.0-0.0","0","0","AnZ4v","Scenes","","null","","","null","","","","","","","","","","","","","","","","","","","","","","","","","","","","","","","","","","","","","","","","","","","",""
"","deliberation","","html-keyboard-response","154","2070382","0.0-83.0-1.0","0","0","AnZ4v","Scenes","","942","","","68","","","","27","144","113","0","1","71","57","solotravelgoals-7kLufxYoqWk-unsplash.jpg","damian-denis-D8R_txR_0PE-unsplash.jpg","3","1","144","113","","","","","","","","","","","","","","","","","","","","","","","","","","","",""
"","choice_confirmation","","html-keyboard-response","155","2070885","0.0-83.0-2.0-0.0","0","0","AnZ4v","Scenes","","null","","","null","","","","27","144","113","","","","","","","","","","","","","","","","","","","","","","","","","","","","","","","","","","","","","",""
"","fixation","","html-keyboard-response","156","2071894","0.0-84.0-0.0","0","0","AnZ4v","Scenes","","null","","","null","","","","","","","","","","","","","","","","","","","","","","","","","","","","","","","","","","","","","","","","","","","",""
"","deliberation","","html-keyboard-response","157","2072823","0.0-84.0-1.0","0","0","AnZ4v","Scenes","","929","","","75","","","","28","137","110","0","1","55","57","olga-stalska-QaWRyEdlffY-unsplash.jpg","bruno-van-der-kraan-qez8mNJ3ilU-unsplash.jpg","3","0","110","137","","","","","","","","","","","","","","","","","","","","","","","","","","","",""
"","choice_confirmation","","html-keyboard-response","158","2073328","0.0-84.0-2.0-0.0","0","0","AnZ4v","Scenes","","null","","","null","","","","28","137","110","","","","","","","","","","","","","","","","","","","","","","","","","","","","","","","","","","","","","",""
"","fixation","","html-keyboard-response","159","2074337","0.0-85.0-0.0","0","0","AnZ4v","Scenes","","null","","","null","","","","","","","","","","","","","","","","","","","","","","","","","","","","","","","","","","","","","","","","","","","",""
"","deliberation","","html-keyboard-response","160","2075397","0.0-85.0-1.0","0","0","AnZ4v","Scenes","","1060","","","68","","","","29","130","126","0","-1","69","60","lina-loos-04-C1NZk1hE-unsplash.jpg","jordan-mcqueen-PJCZOWuOxbU-unsplash.jpg","3","1","130","126","","","","","","","","","","","","","","","","","","","","","","","","","","","",""
"","choice_confirmation","","html-keyboard-response","161","2075901","0.0-85.0-2.0-0.0","0","0","AnZ4v","Scenes","","null","","","null","","","","29","130","126","","","","","","","","","","","","","","","","","","","","","","","","","","","","","","","","","","","","","",""
"","fixation","","html-keyboard-response","162","2076909","0.0-86.0-0.0","0","0","AnZ4v","Scenes","","null","","","null","","","","","","","","","","","","","","","","","","","","","","","","","","","","","","","","","","","","","","","","","","","",""
"","deliberation","","html-keyboard-response","163","2077939","0.0-86.0-1.0","0","0","AnZ4v","Scenes","","1029","","","68","","","","30","143","101","0","-1","69","55","sigurdur-fjalar-jonsson-1KxBabIntpE-unsplash.jpg","aniket-deole-T-tOgjWZ0fQ-unsplash.jpg","3","1","143","101","","","","","","","","","","","","","","","","","","","","","","","","","","","",""
"","choice_confirmation","","html-keyboard-response","164","2078448","0.0-86.0-2.0-0.0","0","0","AnZ4v","Scenes","","null","","","null","","","","30","143","101","","","","","","","","","","","","","","","","","","","","","","","","","","","","","","","","","","","","","",""
"","fixation","","html-keyboard-response","165","2079452","0.0-87.0-0.0","0","0","AnZ4v","Scenes","","null","","","null","","","","","","","","","","","","","","","","","","","","","","","","","","","","","","","","","","","","","","","","","","","",""
"","deliberation","","html-keyboard-response","166","2080619","0.0-87.0-1.0","0","0","AnZ4v","Scenes","","1167","","","68","","","","31","125","118","0","1","71","56","john-lee-oMneOBYhJxY-unsplash.jpg","henry-be-NLF6hTe4PAg-unsplash.jpg","3","1","125","118","","","","","","","","","","","","","","","","","","","","","","","","","","","",""
"","choice_confirmation","","html-keyboard-response","167","2081124","0.0-87.0-2.0-0.0","0","0","AnZ4v","Scenes","","null","","","null","","","","31","125","118","","","","","","","","","","","","","","","","","","","","","","","","","","","","","","","","","","","","","",""
"","fixation","","html-keyboard-response","168","2082134","0.0-88.0-0.0","0","0","AnZ4v","Scenes","","null","","","null","","","","","","","","","","","","","","","","","","","","","","","","","","","","","","","","","","","","","","","","","","","",""
"","deliberation","","html-keyboard-response","169","2083290","0.0-88.0-1.0","0","0","AnZ4v","Scenes","","1154","","","68","","","","32","111","136","0","-1","63","67","claudio-testa-U3F2o6vz3bs-unsplash.jpg","nicolas-jehly-LzVB84KkZOE-unsplash.jpg","3","1","111","136","","","","","","","","","","","","","","","","","","","","","","","","","","","",""
"","choice_confirmation","","html-keyboard-response","170","2083800","0.0-88.0-2.0-0.0","0","0","AnZ4v","Scenes","","null","","","null","","","","32","111","136","","","","","","","","","","","","","","","","","","","","","","","","","","","","","","","","","","","","","",""
"","fixation","","html-keyboard-response","171","2084804","0.0-89.0-0.0","0","0","AnZ4v","Scenes","","null","","","null","","","","","","","","","","","","","","","","","","","","","","","","","","","","","","","","","","","","","","","","","","","",""
"","deliberation","","html-keyboard-response","172","2085979","0.0-89.0-1.0","0","0","AnZ4v","Scenes","","1174","","","75","","","","33","128","140","0","-1","55","59","karsten-wurth-jS0zC2PJ17A-unsplash.jpg","samuele-errico-piccarini-JEBqFu2AOOA-unsplash.jpg","3","0","140","128","","","","","","","","","","","","","","","","","","","","","","","","","","","",""
"","choice_confirmation","","html-keyboard-response","173","2086487","0.0-89.0-2.0-0.0","0","0","AnZ4v","Scenes","","null","","","null","","","","33","128","140","","","","","","","","","","","","","","","","","","","","","","","","","","","","","","","","","","","","","",""
"","fixation","","html-keyboard-response","174","2087492","0.0-90.0-0.0","0","0","AnZ4v","Scenes","","null","","","null","","","","","","","","","","","","","","","","","","","","","","","","","","","","","","","","","","","","","","","","","","","",""
"","deliberation","","html-keyboard-response","175","2088395","0.0-90.0-1.0","0","0","AnZ4v","Scenes","","901","","","75","","","","34","100","145","0","-1","59","66","aleksandra-boguslawska-MS7KD9Ti7FQ-unsplash.jpg","stephen-leonardi-gyIRjKPXupE-unsplash.jpg","3","0","145","100","","","","","","","","","","","","","","","","","","","","","","","","","","","",""
"","choice_confirmation","","html-keyboard-response","176","2088903","0.0-90.0-2.0-0.0","0","0","AnZ4v","Scenes","","null","","","null","","","","34","100","145","","","","","","","","","","","","","","","","","","","","","","","","","","","","","","","","","","","","","",""
"","fixation","","html-keyboard-response","177","2089913","0.0-91.0-0.0","0","0","AnZ4v","Scenes","","null","","","null","","","","","","","","","","","","","","","","","","","","","","","","","","","","","","","","","","","","","","","","","","","",""
"","deliberation","","html-keyboard-response","178","2090793","0.0-91.0-1.0","0","0","AnZ4v","Scenes","","878","","","75","","","","35","139","123","0","1","62","58","samsommer-vddccTqwal8-unsplash.jpg","joel-jasmin-forestbird-efuwb5eBDrI-unsplash.jpg","3","0","123","139","","","","","","","","","","","","","","","","","","","","","","","","","","","",""
"","choice_confirmation","","html-keyboard-response","179","2091300","0.0-91.0-2.0-0.0","0","0","AnZ4v","Scenes","","null","","","null","","","","35","139","123","","","","","","","","","","","","","","","","","","","","","","","","","","","","","","","","","","","","","",""
"","reward_learning_instructions","","instructions","180","2200680","0.0-92.0-0.0","0","0","AnZ4v","Scenes","[{""page_index"":0,""viewing_time"":51684},{""page_index"":1,""viewing_time"":54758},{""page_index"":2,""viewing_time"":2936}]","109378","","","","","","","","","","","","","","","","","","","","","","","","","","","","","","","","","","","","","","","","","","","","","","",""
"","reward_comprehension_check","","survey-multi-choice","181","2220009","0.0-92.0-1.0","0","0","AnZ4v","Scenes","","19325","{""Q0"":""True"",""Q1"":""True"",""Q2"":""Press the space bar to see its outcome"",""Q3"":""Press the relevant key while the outcome is presented""}","0","","","","","","","","","","","","","","","","","","","","","","","","","","","","","","","","","","","","","","","","","","","","",""
"","start_phase","","html-keyboard-response","182","2223846","0.0-93.0","0","0","AnZ4v","Scenes","","3837","","","78","","","","","","","","","","","","","","","","","","","","","","","","","","","","","","","","","","","","","","","","","","","",""
"","fixation","","html-keyboard-response","183","2224852","0.0-94.0","0","0","AnZ4v","Scenes","","null","","","null","","","","","","","","","","","","","","","","","","","","","","","","","","","","","","","","","","","","","","","","","","","",""
"","see_reward","","html-keyboard-response","184","2226123","0.0-95.0","0","0","AnZ4v","Scenes","","1269","","","32","","125","","0","","","","1","","","","","1","","","","","157","1269","","","","","","","","","","","","","","","","","","","","","","","","",""
"","reward_outcome","","html-keyboard-response","185","2228132","0.0-96.0","0","0","AnZ4v","Scenes","","975","","","38","","125","","0","","","","","","","","","","","","","","","","1","975","","","","","","","","","","","","","","","","","","","","","","",""
"","fixation","","html-keyboard-response","186","2229142","0.0-99.0","0","0","AnZ4v","Scenes","","null","","","null","","","","","","","","","","","","","","","","","","","","","","","","","","","","","","","","","","","","","","","","","","","",""
"","see_reward","","html-keyboard-response","187","2229877","0.0-100.0","0","0","AnZ4v","Scenes","","733","","","32","","114","","1","","","","1","","","","","1","","","","","156","733","","","","","","","","","","","","","","","","","","","","","","","","",""
"","reward_outcome","","html-keyboard-response","188","2231888","0.0-101.0","0","0","AnZ4v","Scenes","","733","","","38","","114","","1","","","","","","","","","","","","","","","","1","733","","","","","","","","","","","","","","","","","","","","","","",""
"","fixation","","html-keyboard-response","189","2232892","0.0-104.0","0","0","AnZ4v","Scenes","","null","","","null","","","","","","","","","","","","","","","","","","","","","","","","","","","","","","","","","","","","","","","","","","","",""
"","see_reward","","html-keyboard-response","190","2233796","0.0-105.0","0","0","AnZ4v","Scenes","","903","","","32","","135","","2","","","","-1","","","","","1","","","","","0","903","","","","","","","","","","","","","","","","","","","","","","","","",""
"","reward_outcome","","html-keyboard-response","191","2235807","0.0-106.0","0","0","AnZ4v","Scenes","","600","","","40","","135","","2","","","","","","","","","","","","","","","","-1","600","","","","","","","","","","","","","","","","","","","","","","",""
"","fixation","","html-keyboard-response","192","2236817","0.0-109.0","0","0","AnZ4v","Scenes","","null","","","null","","","","","","","","","","","","","","","","","","","","","","","","","","","","","","","","","","","","","","","","","","","",""
"","see_reward","","html-keyboard-response","193","2237556","0.0-110.0","0","0","AnZ4v","Scenes","","739","","","32","","140","","3","","","","-1","","","","","1","","","","","0","739","","","","","","","","","","","","","","","","","","","","","","","","",""
"","reward_outcome","","html-keyboard-response","194","2239568","0.0-111.0","0","0","AnZ4v","Scenes","","647","","","40","","140","","3","","","","","","","","","","","","","","","","-1","647","","","","","","","","","","","","","","","","","","","","","","",""
"","fixation","","html-keyboard-response","195","2240573","0.0-114.0","0","0","AnZ4v","Scenes","","null","","","null","","","","","","","","","","","","","","","","","","","","","","","","","","","","","","","","","","","","","","","","","","","",""
"","see_reward","","html-keyboard-response","196","2241104","0.0-115.0","0","0","AnZ4v","Scenes","","530","","","32","","143","","4","","","","-1","","","","","1","","","","","0","530","","","","","","","","","","","","","","","","","","","","","","","","",""
"","reward_outcome","","html-keyboard-response","197","2243109","0.0-116.0","0","0","AnZ4v","Scenes","","642","","","40","","143","","4","","","","","","","","","","","","","","","","-1","642","","","","","","","","","","","","","","","","","","","","","","",""
"","fixation","","html-keyboard-response","198","2244120","0.0-119.0","0","0","AnZ4v","Scenes","","null","","","null","","","","","","","","","","","","","","","","","","","","","","","","","","","","","","","","","","","","","","","","","","","",""
"","see_reward","","html-keyboard-response","199","2244559","0.0-120.0","0","0","AnZ4v","Scenes","","438","","","32","","140","","5","","","","-1","","","","","1","","","","","0","438","","","","","","","","","","","","","","","","","","","","","","","","",""
"","reward_outcome","","html-keyboard-response","200","2246569","0.0-121.0","0","0","AnZ4v","Scenes","","818","","","40","","140","","5","","","","","","","","","","","","","","","","-1","818","","","","","","","","","","","","","","","","","","","","","","",""
"","fixation","","html-keyboard-response","201","2247574","0.0-124.0","0","0","AnZ4v","Scenes","","null","","","null","","","","","","","","","","","","","","","","","","","","","","","","","","","","","","","","","","","","","","","","","","","",""
"","see_reward","","html-keyboard-response","202","2248054","0.0-125.0","0","0","AnZ4v","Scenes","","479","","","32","","144","","6","","","","1","","","","","1","","","","","151","479","","","","","","","","","","","","","","","","","","","","","","","","",""
"","reward_outcome","","html-keyboard-response","203","2250064","0.0-126.0","0","0","AnZ4v","Scenes","","594","","","38","","144","","6","","","","","","","","","","","","","","","","1","594","","","","","","","","","","","","","","","","","","","","","","",""
"","fixation","","html-keyboard-response","204","2251069","0.0-129.0","0","0","AnZ4v","Scenes","","null","","","null","","","","","","","","","","","","","","","","","","","","","","","","","","","","","","","","","","","","","","","","","","","",""
"","see_reward","","html-keyboard-response","205","2251505","0.0-130.0","0","0","AnZ4v","Scenes","","435","","","32","","135","","7","","","","-1","","","","","1","","","","","0","435","","","","","","","","","","","","","","","","","","","","","","","","",""
"","reward_outcome","","html-keyboard-response","206","2253512","0.0-131.0","0","0","AnZ4v","Scenes","","616","","","40","","135","","7","","","","","","","","","","","","","","","","-1","616","","","","","","","","","","","","","","","","","","","","","","",""
"","fixation","","html-keyboard-response","207","2254518","0.0-134.0","0","0","AnZ4v","Scenes","","null","","","null","","","","","","","","","","","","","","","","","","","","","","","","","","","","","","","","","","","","","","","","","","","",""
"","see_reward","","html-keyboard-response","208","2255137","0.0-135.0","0","0","AnZ4v","Scenes","","617","","","32","","114","","8","","","","1","","","","","1","","","","","156","617","","","","","","","","","","","","","","","","","","","","","","","","",""
"","reward_outcome","","html-keyboard-response","209","2257145","0.0-136.0","0","0","AnZ4v","Scenes","","547","","","38","","114","","8","","","","","","","","","","","","","","","","1","547","","","","","","","","","","","","","","","","","","","","","","",""
"","fixation","","html-keyboard-response","210","2258151","0.0-139.0","0","0","AnZ4v","Scenes","","null","","","null","","","","","","","","","","","","","","","","","","","","","","","","","","","","","","","","","","","","","","","","","","","",""
"","see_reward","","html-keyboard-response","211","2258599","0.0-140.0","0","0","AnZ4v","Scenes","","447","","","32","","144","","9","","","","1","","","","","1","","","","","151","447","","","","","","","","","","","","","","","","","","","","","","","","",""
"","reward_outcome","","html-keyboard-response","212","2260606","0.0-141.0","0","0","AnZ4v","Scenes","","770","","","38","","144","","9","","","","","","","","","","","","","","","","1","770","","","","","","","","","","","","","","","","","","","","","","",""
"","fixation","","html-keyboard-response","213","2261616","0.0-144.0","0","0","AnZ4v","Scenes","","null","","","null","","","","","","","","","","","","","","","","","","","","","","","","","","","","","","","","","","","","","","","","","","","",""
"","see_reward","","html-keyboard-response","214","2262119","0.0-145.0","0","0","AnZ4v","Scenes","","502","","","32","","123","","10","","","","1","","","","","1","","","","","144","502","","","","","","","","","","","","","","","","","","","","","","","","",""
"","reward_outcome","","html-keyboard-response","215","2264130","0.0-146.0","0","0","AnZ4v","Scenes","","637","","","38","","123","","10","","","","","","","","","","","","","","","","1","637","","","","","","","","","","","","","","","","","","","","","","",""
"","fixation","","html-keyboard-response","216","2265134","0.0-149.0","0","0","AnZ4v","Scenes","","null","","","null","","","","","","","","","","","","","","","","","","","","","","","","","","","","","","","","","","","","","","","","","","","",""
"","see_reward","","html-keyboard-response","217","2265682","0.0-150.0","0","0","AnZ4v","Scenes","","546","","","32","","145","","11","","","","-1","","","","","1","","","","","0","546","","","","","","","","","","","","","","","","","","","","","","","","",""
"","reward_outcome","","html-keyboard-response","218","2267688","0.0-151.0","0","0","AnZ4v","Scenes","","728","","","40","","145","","11","","","","","","","","","","","","","","","","-1","728","","","","","","","","","","","","","","","","","","","","","","",""
"","fixation","","html-keyboard-response","219","2268693","0.0-154.0","0","0","AnZ4v","Scenes","","null","","","null","","","","","","","","","","","","","","","","","","","","","","","","","","","","","","","","","","","","","","","","","","","",""
"","see_reward","","html-keyboard-response","220","2269160","0.0-155.0","0","0","AnZ4v","Scenes","","466","","","32","","111","","12","","","","-1","","","","","1","","","","","0","466","","","","","","","","","","","","","","","","","","","","","","","","",""
"","reward_outcome","","html-keyboard-response","221","2271166","0.0-156.0","0","0","AnZ4v","Scenes","","754","","","40","","111","","12","","","","","","","","","","","","","","","","-1","754","","","","","","","","","","","","","","","","","","","","","","",""
"","fixation","","html-keyboard-response","222","2272176","0.0-159.0","0","0","AnZ4v","Scenes","","null","","","null","","","","","","","","","","","","","","","","","","","","","","","","","","","","","","","","","","","","","","","","","","","",""
"","see_reward","","html-keyboard-response","223","2272584","0.0-160.0","0","0","AnZ4v","Scenes","","407","","","32","","130","","13","","","","-1","","","","","1","","","","","0","407","","","","","","","","","","","","","","","","","","","","","","","","",""
"","reward_outcome","","html-keyboard-response","224","2274591","0.0-161.0","0","0","AnZ4v","Scenes","","903","","","40","","130","","13","","","","","","","","","","","","","","","","-1","903","","","","","","","","","","","","","","","","","","","","","","",""
"","fixation","","html-keyboard-response","225","2275600","0.0-164.0","0","0","AnZ4v","Scenes","","null","","","null","","","","","","","","","","","","","","","","","","","","","","","","","","","","","","","","","","","","","","","","","","","",""
"","see_reward","","html-keyboard-response","226","2276089","0.0-165.0","0","0","AnZ4v","Scenes","","488","","","32","","145","","14","","","","-1","","","","","1","","","","","0","488","","","","","","","","","","","","","","","","","","","","","","","","",""
"","reward_outcome","","html-keyboard-response","227","2278097","0.0-166.0","0","0","AnZ4v","Scenes","","701","","","40","","145","","14","","","","","","","","","","","","","","","","-1","701","","","","","","","","","","","","","","","","","","","","","","",""
"","fixation","","html-keyboard-response","228","2279101","0.0-169.0","0","0","AnZ4v","Scenes","","null","","","null","","","","","","","","","","","","","","","","","","","","","","","","","","","","","","","","","","","","","","","","","","","",""
"","see_reward","","html-keyboard-response","229","2279503","0.0-170.0","0","0","AnZ4v","Scenes","","400","","","32","","123","","15","","","","1","","","","","1","","","","","144","400","","","","","","","","","","","","","","","","","","","","","","","","",""
"","reward_outcome","","html-keyboard-response","230","2281510","0.0-171.0","0","0","AnZ4v","Scenes","","430","","","38","","123","","15","","","","","","","","","","","","","","","","1","430","","","","","","","","","","","","","","","","","","","","","","",""
"","fixation","","html-keyboard-response","231","2282521","0.0-174.0","0","0","AnZ4v","Scenes","","null","","","null","","","","","","","","","","","","","","","","","","","","","","","","","","","","","","","","","","","","","","","","","","","",""
"","see_reward","","html-keyboard-response","232","2282923","0.0-175.0","0","0","AnZ4v","Scenes","","401","","","32","","111","","16","","","","-1","","","","","1","","","","","0","401","","","","","","","","","","","","","","","","","","","","","","","","",""
"","reward_outcome","","html-keyboard-response","233","2284930","0.0-176.0","0","0","AnZ4v","Scenes","","414","","","40","","111","","16","","","","","","","","","","","","","","","","-1","414","","","","","","","","","","","","","","","","","","","","","","",""
"","fixation","","html-keyboard-response","234","2285934","0.0-179.0","0","0","AnZ4v","Scenes","","null","","","null","","","","","","","","","","","","","","","","","","","","","","","","","","","","","","","","","","","","","","","","","","","",""
"","see_reward","","html-keyboard-response","235","2286347","0.0-180.0","0","0","AnZ4v","Scenes","","412","","","32","","141","","17","","","","1","","","","","1","","","","","150","412","","","","","","","","","","","","","","","","","","","","","","","","",""
"","reward_outcome","","html-keyboard-response","236","2288351","0.0-181.0","0","0","AnZ4v","Scenes","","520","","","38","","141","","17","","","","","","","","","","","","","","","","1","520","","","","","","","","","","","","","","","","","","","","","","",""
"","fixation","","html-keyboard-response","237","2289359","0.0-184.0","0","0","AnZ4v","Scenes","","null","","","null","","","","","","","","","","","","","","","","","","","","","","","","","","","","","","","","","","","","","","","","","","","",""
"","see_reward","","html-keyboard-response","238","2289783","0.0-185.0","0","0","AnZ4v","Scenes","","422","","","32","","110","","18","","","","1","","","","","1","","","","","147","422","","","","","","","","","","","","","","","","","","","","","","","","",""
"","reward_outcome","","html-keyboard-response","239","2291792","0.0-186.0","0","0","AnZ4v","Scenes","","636","","","38","","110","","18","","","","","","","","","","","","","","","","1","636","","","","","","","","","","","","","","","","","","","","","","",""
"","fixation","","html-keyboard-response","240","2292802","0.0-189.0","0","0","AnZ4v","Scenes","","null","","","null","","","","","","","","","","","","","","","","","","","","","","","","","","","","","","","","","","","","","","","","","","","",""
"","see_reward","","html-keyboard-response","241","2293229","0.0-190.0","0","0","AnZ4v","Scenes","","427","","","32","","143","","19","","","","-1","","","","","1","","","","","0","427","","","","","","","","","","","","","","","","","","","","","","","","",""
"","reward_outcome","","html-keyboard-response","242","2295240","0.0-191.0","0","0","AnZ4v","Scenes","","552","","","40","","143","","19","","","","","","","","","","","","","","","","-1","552","","","","","","","","","","","","","","","","","","","","","","",""
"","fixation","","html-keyboard-response","243","2296250","0.0-194.0","0","0","AnZ4v","Scenes","","null","","","null","","","","","","","","","","","","","","","","","","","","","","","","","","","","","","","","","","","","","","","","","","","",""
"","see_reward","","html-keyboard-response","244","2296621","0.0-195.0","0","0","AnZ4v","Scenes","","369","","","32","","110","","20","","","","1","","","","","1","","","","","147","369","","","","","","","","","","","","","","","","","","","","","","","","",""
"","reward_outcome","","html-keyboard-response","245","2298630","0.0-196.0","0","0","AnZ4v","Scenes","","643","","","38","","110","","20","","","","","","","","","","","","","","","","1","643","","","","","","","","","","","","","","","","","","","","","","",""
"","fixation","","html-keyboard-response","246","2299640","0.0-199.0","0","0","AnZ4v","Scenes","","null","","","null","","","","","","","","","","","","","","","","","","","","","","","","","","","","","","","","","","","","","","","","","","","",""
"","see_reward","","html-keyboard-response","247","2300051","0.0-200.0","0","0","AnZ4v","Scenes","","410","","","32","","130","","21","","","","-1","","","","","1","","","","","0","410","","","","","","","","","","","","","","","","","","","","","","","","",""
"","reward_outcome","","html-keyboard-response","248","2302055","0.0-201.0","0","0","AnZ4v","Scenes","","425","","","40","","130","","21","","","","","","","","","","","","","","","","-1","425","","","","","","","","","","","","","","","","","","","","","","",""
"","fixation","","html-keyboard-response","249","2303065","0.0-204.0","0","0","AnZ4v","Scenes","","null","","","null","","","","","","","","","","","","","","","","","","","","","","","","","","","","","","","","","","","","","","","","","","","",""
"","see_reward","","html-keyboard-response","250","2303614","0.0-205.0","0","0","AnZ4v","Scenes","","548","","","32","","141","","22","","","","1","","","","","1","","","","","150","548","","","","","","","","","","","","","","","","","","","","","","","","",""
"","reward_outcome","","html-keyboard-response","251","2305625","0.0-206.0","0","0","AnZ4v","Scenes","","473","","","38","","141","","22","","","","","","","","","","","","","","","","1","473","","","","","","","","","","","","","","","","","","","","","","",""
"","fixation","","html-keyboard-response","252","2306633","0.0-209.0","0","0","AnZ4v","Scenes","","null","","","null","","","","","","","","","","","","","","","","","","","","","","","","","","","","","","","","","","","","","","","","","","","",""
"","see_reward","","html-keyboard-response","253","2307108","0.0-210.0","0","0","AnZ4v","Scenes","","474","","","32","","125","","23","","","","1","","","","","1","","","","","157","474","","","","","","","","","","","","","","","","","","","","","","","","",""
"","reward_outcome","","html-keyboard-response","254","2309114","0.0-211.0","0","0","AnZ4v","Scenes","","489","","","38","","125","","23","","","","","","","","","","","","","","","","1","489","","","","","","","","","","","","","","","","","","","","","","",""
"","block_over","","html-keyboard-response","255","2312686","0.0-213.0-0.0","0","0","AnZ4v","Scenes","","3571","","","78","","","","","","","","","","","","","","","","","","","","","","","","","","","","","","","","","","","","","","","","","","","",""
"","fixation","","html-keyboard-response","256","2313695","0.0-214.0","0","0","AnZ4v","Scenes","","null","","","null","","","","","","","","","","","","","","","","","","","","","","","","","","","","","","","","","","","","","","","","","","","",""
"","see_reward","","html-keyboard-response","257","2314293","0.0-215.0","0","0","AnZ4v","Scenes","","597","","","32","","110","","24","","","","1","","","","","2","","","","","147","597","","","","","","","","","","","","","","","","","","","","","","","","",""
"","reward_outcome","","html-keyboard-response","258","2316295","0.0-216.0","0","0","AnZ4v","Scenes","","457","","","38","","110","","24","","","","","","","","","","","","","","","","1","457","","","","","","","","","","","","","","","","","","","","","","",""
"","fixation","","html-keyboard-response","259","2317305","0.0-219.0","0","0","AnZ4v","Scenes","","null","","","null","","","","","","","","","","","","","","","","","","","","","","","","","","","","","","","","","","","","","","","","","","","",""
"","see_reward","","html-keyboard-response","260","2317766","0.0-220.0","0","0","AnZ4v","Scenes","","459","","","32","","143","","25","","","","-1","","","","","2","","","","","0","459","","","","","","","","","","","","","","","","","","","","","","","","",""
"","reward_outcome","","html-keyboard-response","261","2319778","0.0-221.0","0","0","AnZ4v","Scenes","","398","","","40","","143","","25","","","","","","","","","","","","","","","","-1","398","","","","","","","","","","","","","","","","","","","","","","",""
"","fixation","","html-keyboard-response","262","2320783","0.0-224.0","0","0","AnZ4v","Scenes","","null","","","null","","","","","","","","","","","","","","","","","","","","","","","","","","","","","","","","","","","","","","","","","","","",""
"","see_reward","","html-keyboard-response","263","2321290","0.0-225.0","0","0","AnZ4v","Scenes","","507","","","32","","144","","26","","","","1","","","","","2","","","","","151","507","","","","","","","","","","","","","","","","","","","","","","","","",""
"","reward_outcome","","html-keyboard-response","264","2323296","0.0-226.0","0","0","AnZ4v","Scenes","","403","","","38","","144","","26","","","","","","","","","","","","","","","","1","403","","","","","","","","","","","","","","","","","","","","","","",""
"","fixation","","html-keyboard-response","265","2324306","0.0-229.0","0","0","AnZ4v","Scenes","","null","","","null","","","","","","","","","","","","","","","","","","","","","","","","","","","","","","","","","","","","","","","","","","","",""
"","see_reward","","html-keyboard-response","266","2324865","0.0-230.0","0","0","AnZ4v","Scenes","","557","","","32","","114","","27","","","","1","","","","","2","","","","","156","557","","","","","","","","","","","","","","","","","","","","","","","","",""
"","reward_outcome","","html-keyboard-response","267","2326872","0.0-231.0","0","0","AnZ4v","Scenes","","397","","","38","","114","","27","","","","","","","","","","","","","","","","1","397","","","","","","","","","","","","","","","","","","","","","","",""
"","fixation","","html-keyboard-response","268","2327882","0.0-234.0","0","0","AnZ4v","Scenes","","null","","","null","","","","","","","","","","","","","","","","","","","","","","","","","","","","","","","","","","","","","","","","","","","",""
"","see_reward","","html-keyboard-response","269","2328279","0.0-235.0","0","0","AnZ4v","Scenes","","395","","","32","","141","","28","","","","1","","","","","2","","","","","150","395","","","","","","","","","","","","","","","","","","","","","","","","",""
"","reward_outcome","","html-keyboard-response","270","2330292","0.0-236.0","0","0","AnZ4v","Scenes","","392","","","38","","141","","28","","","","","","","","","","","","","","","","1","392","","","","","","","","","","","","","","","","","","","","","","",""
"","fixation","","html-keyboard-response","271","2331296","0.0-239.0","0","0","AnZ4v","Scenes","","null","","","null","","","","","","","","","","","","","","","","","","","","","","","","","","","","","","","","","","","","","","","","","","","",""
"","see_reward","","html-keyboard-response","272","2331661","0.0-240.0","0","0","AnZ4v","Scenes","","363","","","32","","140","","29","","","","-1","","","","","2","","","","","0","363","","","","","","","","","","","","","","","","","","","","","","","","",""
"","reward_outcome","","html-keyboard-response","273","2333668","0.0-241.0","0","0","AnZ4v","Scenes","","425","","","40","","140","","29","","","","","","","","","","","","","","","","-1","425","","","","","","","","","","","","","","","","","","","","","","",""
"","fixation","","html-keyboard-response","274","2334674","0.0-244.0","0","0","AnZ4v","Scenes","","null","","","null","","","","","","","","","","","","","","","","","","","","","","","","","","","","","","","","","","","","","","","","","","","",""
"","see_reward","","html-keyboard-response","275","2335117","0.0-245.0","0","0","AnZ4v","Scenes","","442","","","32","","143","","30","","","","-1","","","","","2","","","","","0","442","","","","","","","","","","","","","","","","","","","","","","","","",""
"","reward_outcome","","html-keyboard-response","276","2337124","0.0-246.0","0","0","AnZ4v","Scenes","","350","","","40","","143","","30","","","","","","","","","","","","","","","","-1","350","","","","","","","","","","","","","","","","","","","","","","",""
"","fixation","","html-keyboard-response","277","2338128","0.0-249.0","0","0","AnZ4v","Scenes","","null","","","null","","","","","","","","","","","","","","","","","","","","","","","","","","","","","","","","","","","","","","","","","","","",""
"","see_reward","","html-keyboard-response","278","2338622","0.0-250.0","0","0","AnZ4v","Scenes","","494","","","32","","135","","31","","","","-1","","","","","2","","","","","0","494","","","","","","","","","","","","","","","","","","","","","","","","",""
"","reward_outcome","","html-keyboard-response","279","2340636","0.0-251.0","0","0","AnZ4v","Scenes","","360","","","40","","135","","31","","","","","","","","","","","","","","","","-1","360","","","","","","","","","","","","","","","","","","","","","","",""
"","fixation","","html-keyboard-response","280","2341640","0.0-254.0","0","0","AnZ4v","Scenes","","null","","","null","","","","","","","","","","","","","","","","","","","","","","","","","","","","","","","","","","","","","","","","","","","",""
"","see_reward","","html-keyboard-response","281","2342131","0.0-255.0","0","0","AnZ4v","Scenes","","490","","","32","","123","","32","","","","1","","","","","2","","","","","144","490","","","","","","","","","","","","","","","","","","","","","","","","",""
"","reward_outcome","","html-keyboard-response","282","2344137","0.0-256.0","0","0","AnZ4v","Scenes","","397","","","38","","123","","32","","","","","","","","","","","","","","","","1","397","","","","","","","","","","","","","","","","","","","","","","",""
"","fixation","","html-keyboard-response","283","2345147","0.0-259.0","0","0","AnZ4v","Scenes","","null","","","null","","","","","","","","","","","","","","","","","","","","","","","","","","","","","","","","","","","","","","","","","","","",""
"","see_reward","","html-keyboard-response","284","2345616","0.0-260.0","0","0","AnZ4v","Scenes","","468","","","32","","110","","33","","","","1","","","","","2","","","","","147","468","","","","","","","","","","","","","","","","","","","","","","","","",""
"","reward_outcome","","html-keyboard-response","285","2347626","0.0-261.0","0","0","AnZ4v","Scenes","","386","","","38","","110","","33","","","","","","","","","","","","","","","","1","386","","","","","","","","","","","","","","","","","","","","","","",""
"","fixation","","html-keyboard-response","286","2348636","0.0-264.0","0","0","AnZ4v","Scenes","","null","","","null","","","","","","","","","","","","","","","","","","","","","","","","","","","","","","","","","","","","","","","","","","","",""
"","see_reward","","html-keyboard-response","287","2349157","0.0-265.0","0","0","AnZ4v","Scenes","","520","","","32","","111","","34","","","","-1","","","","","2","","","","","0","520","","","","","","","","","","","","","","","","","","","","","","","","",""
"","reward_outcome","","html-keyboard-response","288","2351161","0.0-266.0","0","0","AnZ4v","Scenes","","360","","","40","","111","","34","","","","","","","","","","","","","","","","-1","360","","","","","","","","","","","","","","","","","","","","","","",""
"","fixation","","html-keyboard-response","289","2352171","0.0-269.0","0","0","AnZ4v","Scenes","","null","","","null","","","","","","","","","","","","","","","","","","","","","","","","","","","","","","","","","","","","","","","","","","","",""
"","see_reward","","html-keyboard-response","290","2352640","0.0-270.0","0","0","AnZ4v","Scenes","","467","","","32","","144","","35","","","","1","","","","","2","","","","","151","467","","","","","","","","","","","","","","","","","","","","","","","","",""
"","reward_outcome","","html-keyboard-response","291","2354652","0.0-271.0","0","0","AnZ4v","Scenes","","387","","","38","","144","","35","","","","","","","","","","","","","","","","1","387","","","","","","","","","","","","","","","","","","","","","","",""
"","fixation","","html-keyboard-response","292","2355660","0.0-274.0","0","0","AnZ4v","Scenes","","null","","","null","","","","","","","","","","","","","","","","","","","","","","","","","","","","","","","","","","","","","","","","","","","",""
"","see_reward","","html-keyboard-response","293","2356081","0.0-275.0","0","0","AnZ4v","Scenes","","420","","","32","","140","","36","","","","-1","","","","","2","","","","","0","420","","","","","","","","","","","","","","","","","","","","","","","","",""
"","reward_outcome","","html-keyboard-response","294","2358092","0.0-276.0","0","0","AnZ4v","Scenes","","334","","","40","","140","","36","","","","","","","","","","","","","","","","-1","334","","","","","","","","","","","","","","","","","","","","","","",""
"","fixation","","html-keyboard-response","295","2359097","0.0-279.0","0","0","AnZ4v","Scenes","","null","","","null","","","","","","","","","","","","","","","","","","","","","","","","","","","","","","","","","","","","","","","","","","","",""
"","see_reward","","html-keyboard-response","296","2359527","0.0-280.0","0","0","AnZ4v","Scenes","","429","","","32","","111","","37","","","","-1","","","","","2","","","","","0","429","","","","","","","","","","","","","","","","","","","","","","","","",""
"","reward_outcome","","html-keyboard-response","297","2361541","0.0-281.0","0","0","AnZ4v","Scenes","","403","","","40","","111","","37","","","","","","","","","","","","","","","","-1","403","","","","","","","","","","","","","","","","","","","","","","",""
"","fixation","","html-keyboard-response","298","2362545","0.0-284.0","0","0","AnZ4v","Scenes","","null","","","null","","","","","","","","","","","","","","","","","","","","","","","","","","","","","","","","","","","","","","","","","","","",""
"","see_reward","","html-keyboard-response","299","2363116","0.0-285.0","0","0","AnZ4v","Scenes","","570","","","32","","130","","38","","","","-1","","","","","2","","","","","0","570","","","","","","","","","","","","","","","","","","","","","","","","",""
"","reward_outcome","","html-keyboard-response","300","2365122","0.0-286.0","0","0","AnZ4v","Scenes","","282","","","40","","130","","38","","","","","","","","","","","","","","","","-1","282","","","","","","","","","","","","","","","","","","","","","","",""
"","fixation","","html-keyboard-response","301","2366133","0.0-289.0","0","0","AnZ4v","Scenes","","null","","","null","","","","","","","","","","","","","","","","","","","","","","","","","","","","","","","","","","","","","","","","","","","",""
"","see_reward","","html-keyboard-response","302","2366642","0.0-290.0","0","0","AnZ4v","Scenes","","509","","","32","","141","","39","","","","1","","","","","2","","","","","150","509","","","","","","","","","","","","","","","","","","","","","","","","",""
"","reward_outcome","","html-keyboard-response","303","2368652","0.0-291.0","0","0","AnZ4v","Scenes","","317","","","38","","141","","39","","","","","","","","","","","","","","","","1","317","","","","","","","","","","","","","","","","","","","","","","",""
"","fixation","","html-keyboard-response","304","2369656","0.0-294.0","0","0","AnZ4v","Scenes","","null","","","null","","","","","","","","","","","","","","","","","","","","","","","","","","","","","","","","","","","","","","","","","","","",""
"","see_reward","","html-keyboard-response","305","2370152","0.0-295.0","0","0","AnZ4v","Scenes","","495","","","32","","130","","40","","","","-1","","","","","2","","","","","0","495","","","","","","","","","","","","","","","","","","","","","","","","",""
"","reward_outcome","","html-keyboard-response","306","2372164","0.0-296.0","0","0","AnZ4v","Scenes","","248","","","40","","130","","40","","","","","","","","","","","","","","","","-1","248","","","","","","","","","","","","","","","","","","","","","","",""
"","fixation","","html-keyboard-response","307","2373168","0.0-299.0","0","0","AnZ4v","Scenes","","null","","","null","","","","","","","","","","","","","","","","","","","","","","","","","","","","","","","","","","","","","","","","","","","",""
"","see_reward","","html-keyboard-response","308","2373581","0.0-300.0","0","0","AnZ4v","Scenes","","411","","","32","","145","","41","","","","-1","","","","","2","","","","","0","411","","","","","","","","","","","","","","","","","","","","","","","","",""
"","reward_outcome","","html-keyboard-response","309","2375589","0.0-301.0","0","0","AnZ4v","Scenes","","362","","","40","","145","","41","","","","","","","","","","","","","","","","-1","362","","","","","","","","","","","","","","","","","","","","","","",""
"","fixation","","html-keyboard-response","310","2376593","0.0-304.0","0","0","AnZ4v","Scenes","","null","","","null","","","","","","","","","","","","","","","","","","","","","","","","","","","","","","","","","","","","","","","","","","","",""
"","see_reward","","html-keyboard-response","311","2377087","0.0-305.0","0","0","AnZ4v","Scenes","","492","","","32","","114","","42","","","","1","","","","","2","","","","","156","492","","","","","","","","","","","","","","","","","","","","","","","","",""
"","reward_outcome","","html-keyboard-response","312","2379090","0.0-306.0","0","0","AnZ4v","Scenes","","339","","","38","","114","","42","","","","","","","","","","","","","","","","1","339","","","","","","","","","","","","","","","","","","","","","","",""
"","fixation","","html-keyboard-response","313","2380100","0.0-309.0","0","0","AnZ4v","Scenes","","null","","","null","","","","","","","","","","","","","","","","","","","","","","","","","","","","","","","","","","","","","","","","","","","",""
"","see_reward","","html-keyboard-response","314","2380448","0.0-310.0","0","0","AnZ4v","Scenes","","347","","","32","","135","","43","","","","-1","","","","","2","","","","","0","347","","","","","","","","","","","","","","","","","","","","","","","","",""
"","reward_outcome","","html-keyboard-response","315","2382449","0.0-311.0","0","0","AnZ4v","Scenes","","280","","","40","","135","","43","","","","","","","","","","","","","","","","-1","280","","","","","","","","","","","","","","","","","","","","","","",""
"","fixation","","html-keyboard-response","316","2383461","0.0-314.0","0","0","AnZ4v","Scenes","","null","","","null","","","","","","","","","","","","","","","","","","","","","","","","","","","","","","","","","","","","","","","","","","","",""
"","see_reward","","html-keyboard-response","317","2383931","0.0-315.0","0","0","AnZ4v","Scenes","","469","","","32","","125","","44","","","","1","","","","","2","","","","","157","469","","","","","","","","","","","","","","","","","","","","","","","","",""
"","reward_outcome","","html-keyboard-response","318","2385940","0.0-316.0","0","0","AnZ4v","Scenes","","419","","","38","","125","","44","","","","","","","","","","","","","","","","1","419","","","","","","","","","","","","","","","","","","","","","","",""
"","fixation","","html-keyboard-response","319","2386945","0.0-319.0","0","0","AnZ4v","Scenes","","null","","","null","","","","","","","","","","","","","","","","","","","","","","","","","","","","","","","","","","","","","","","","","","","",""
"","see_reward","","html-keyboard-response","320","2387413","0.0-320.0","0","0","AnZ4v","Scenes","","468","","","32","","123","","45","","","","1","","","","","2","","","","","144","468","","","","","","","","","","","","","","","","","","","","","","","","",""
"","reward_outcome","","html-keyboard-response","321","2389417","0.0-321.0","0","0","AnZ4v","Scenes","","387","","","38","","123","","45","","","","","","","","","","","","","","","","1","387","","","","","","","","","","","","","","","","","","","","","","",""
"","fixation","","html-keyboard-response","322","2390427","0.0-324.0","0","0","AnZ4v","Scenes","","null","","","null","","","","","","","","","","","","","","","","","","","","","","","","","","","","","","","","","","","","","","","","","","","",""
"","see_reward","","html-keyboard-response","323","2390881","0.0-325.0","0","0","AnZ4v","Scenes","","452","","","32","","125","","46","","","","1","","","","","2","","","","","157","452","","","","","","","","","","","","","","","","","","","","","","","","",""
"","reward_outcome","","html-keyboard-response","324","2392890","0.0-326.0","0","0","AnZ4v","Scenes","","424","","","38","","125","","46","","","","","","","","","","","","","","","","1","424","","","","","","","","","","","","","","","","","","","","","","",""
"","fixation","","html-keyboard-response","325","2393898","0.0-329.0","0","0","AnZ4v","Scenes","","null","","","null","","","","","","","","","","","","","","","","","","","","","","","","","","","","","","","","","","","","","","","","","","","",""
"","see_reward","","html-keyboard-response","326","2394412","0.0-330.0","0","0","AnZ4v","Scenes","","512","","","32","","145","","47","","","","-1","","","","","2","","","","","0","512","","","","","","","","","","","","","","","","","","","","","","","","",""
"","reward_outcome","","html-keyboard-response","327","2396418","0.0-331.0","0","0","AnZ4v","Scenes","","424","","","40","","145","","47","","","","","","","","","","","","","","","","-1","424","","","","","","","","","","","","","","","","","","","","","","",""
"","block_over","","html-keyboard-response","328","2399097","0.0-333.0-0.0","0","0","AnZ4v","Scenes","","2679","","","78","","","","","","","","","","","","","","","","","","","","","","","","","","","","","","","","","","","","","","","","","","","",""
"","fixation","","html-keyboard-response","329","2400108","0.0-334.0","0","0","AnZ4v","Scenes","","null","","","null","","","","","","","","","","","","","","","","","","","","","","","","","","","","","","","","","","","","","","","","","","","",""
"","see_reward","","html-keyboard-response","330","2400596","0.0-335.0","0","0","AnZ4v","Scenes","","486","","","32","","125","","48","","","","1","","","","","3","","","","","157","486","","","","","","","","","","","","","","","","","","","","","","","","",""
"","reward_outcome","","html-keyboard-response","331","2402603","0.0-336.0","0","0","AnZ4v","Scenes","","442","","","38","","125","","48","","","","","","","","","","","","","","","","1","442","","","","","","","","","","","","","","","","","","","","","","",""
"","fixation","","html-keyboard-response","332","2403611","0.0-339.0","0","0","AnZ4v","Scenes","","null","","","null","","","","","","","","","","","","","","","","","","","","","","","","","","","","","","","","","","","","","","","","","","","",""
"","see_reward","","html-keyboard-response","333","2404016","0.0-340.0","0","0","AnZ4v","Scenes","","404","","","32","","110","","49","","","","1","","","","","3","","","","","147","404","","","","","","","","","","","","","","","","","","","","","","","","",""
