"success","ttype","start_time","trial_type","trial_index","time_elapsed","internal_node_id","warning","missed_checkup","PID","stim_type","view_history","rt","responses","repeat_instructions","key_press","response","stimulus_id","painting","index","stimulus_left","stimulus_right","explain_trial","reward_type","rating_left","rating_right","painting_left","painting_right","block","left_chosen","chosen_obj","unchosen_obj","explain_response","reward_amount","see_reward_rt","register_reward_response","register_reward_rt","deliberation_reward_tally","stimulus_left_deliberation_ind","stimulus_right_deliberation_ind","chosen_trial","gain_left","higher_outcome_chosen","old_pair","chosen_object","rt_pairs","left_object_chosen","rt_object","old_response","new_rating","deliberated_stim","initial_rating","outcome_eval_rt","outcome_eval_response","outcome_eval_gain","outcome_eval_acc","preamble","outcome_eval_confidence","outcome_eval_confidence_rt","total_reward_tally"
"true","full_screen","d01202023hr0102","fullscreen","0","86631","0.0-0.0","0","0","ldc6S","Scenes","","","","","","","","","","","","","","","","","","","","","","","","","","","","","","","","","","","","","","","","","","","","","","","","",""
"","rating_instructions","","instructions","1","106455","0.0-1.0-0.0","0","0","ldc6S","Scenes","[{""page_index"":0,""viewing_time"":17342},{""page_index"":1,""viewing_time"":2480}]","19823","","","","","","","","","","","","","","","","","","","","","","","","","","","","","","","","","","","","","","","","","","","","","","",""
"","rating_comprehension_check","","survey-multi-choice","2","112349","0.0-1.0-1.0","0","0","ldc6S","Scenes","","5890","{""Q0"":""True"",""Q1"":""Mouse""}","0","","","","","","","","","","","","","","","","","","","","","","","","","","","","","","","","","","","","","","","","","","","","",""
"","start_phase","","html-keyboard-response","3","267169","0.0-2.0","0","0","ldc6S","Scenes","","154817","","","78","","","","","","","","","","","","","","","","","","","","","","","","","","","","","","","","","","","","","","","","","","","",""
"","rating","","html-slider-response","4","270598","0.0-3.0","0","0","ldc6S","Scenes","","3427","","","","70","120","jarrett-kow-1ZOyYPOBn7I-unsplash.jpg","0","","","","","","","","","","","","","","","","","","","","","","","","","","","","","","","","","","","","","","","",""
"","rating","","html-slider-response","5","275976","0.0-4.0","0","0","ldc6S","Scenes","","5376","","","","58","111","claudio-testa-U3F2o6vz3bs-unsplash.jpg","1","","","","","","","","","","","","","","","","","","","","","","","","","","","","","","","","","","","","","","","",""
"","rating","","html-slider-response","6","281570","0.0-5.0","0","0","ldc6S","Scenes","","5592","","","","69","143","sigurdur-fjalar-jonsson-1KxBabIntpE-unsplash.jpg","2","","","","","","","","","","","","","","","","","","","","","","","","","","","","","","","","","","","","","","","",""
"","rating","","html-slider-response","7","287332","0.0-6.0","0","0","ldc6S","Scenes","","5762","","","","67","138","petr-vysohlid-9fqwGqGLUxc-unsplash.jpg","3","","","","","","","","","","","","","","","","","","","","","","","","","","","","","","","","","","","","","","","",""
"","rating","","html-slider-response","8","289631","0.0-7.0","0","0","ldc6S","Scenes","","2298","","","","58","136","nicolas-jehly-LzVB84KkZOE-unsplash.jpg","4","","","","","","","","","","","","","","","","","","","","","","","","","","","","","","","","","","","","","","","",""
"","rating","","html-slider-response","9","292176","0.0-8.0","0","0","ldc6S","Scenes","","2544","","","","57","103","anton-darius-FBJugtbHsWU-unsplash.jpg","5","","","","","","","","","","","","","","","","","","","","","","","","","","","","","","","","","","","","","","","",""
"","rating","","html-slider-response","10","300796","0.0-9.0","0","0","ldc6S","Scenes","","8618","","","","75","145","stephen-leonardi-gyIRjKPXupE-unsplash.jpg","6","","","","","","","","","","","","","","","","","","","","","","","","","","","","","","","","","","","","","","","",""
"","rating","","html-slider-response","11","303270","0.0-10.0","0","0","ldc6S","Scenes","","2472","","","","55","108","benjamin-voros-phIFdC6lA4E-unsplash.jpg","7","","","","","","","","","","","","","","","","","","","","","","","","","","","","","","","","","","","","","","","",""
"","rating","","html-slider-response","12","308914","0.0-11.0","0","0","ldc6S","Scenes","","5644","","","","53","131","luca-bravo-hFzIoD0F_i8-unsplash.jpg","8","","","","","","","","","","","","","","","","","","","","","","","","","","","","","","","","","","","","","","","",""
"","rating","","html-slider-response","13","313942","0.0-12.0","0","0","ldc6S","Scenes","","5026","","","","54","107","benjamin-davies-Zm2n2O7Fph4-unsplash.jpg","9","","","","","","","","","","","","","","","","","","","","","","","","","","","","","","","","","","","","","","","",""
"","rating","","html-slider-response","14","316732","0.0-13.0","0","0","ldc6S","Scenes","","2787","","","","54","129","kurt-cotoaga-cqbLg3lZEpk-unsplash.jpg","10","","","","","","","","","","","","","","","","","","","","","","","","","","","","","","","","","","","","","","","",""
"","rating","","html-slider-response","15","319307","0.0-14.0","0","0","ldc6S","Scenes","","2573","","","","75","146","thomas-morse-cuKKa0vWZSY-unsplash.jpg","11","","","","","","","","","","","","","","","","","","","","","","","","","","","","","","","","","","","","","","","",""
"","rating","","html-slider-response","16","321781","0.0-15.0","0","0","ldc6S","Scenes","","2473","","","","75","125","john-lee-oMneOBYhJxY-unsplash.jpg","12","","","","","","","","","","","","","","","","","","","","","","","","","","","","","","","","","","","","","","","",""
"","rating","","html-slider-response","17","333199","0.0-16.0","0","0","ldc6S","Scenes","","11416","","","","61","132","meng-ji-8BH_M-53CyA-unsplash.jpg","13","","","","","","","","","","","","","","","","","","","","","","","","","","","","","","","","","","","","","","","",""
"","rating","","html-slider-response","18","337843","0.0-17.0","0","0","ldc6S","Scenes","","4642","","","","70","148","tom-gainor-ZqLeQDjY6fY-unsplash.jpg","14","","","","","","","","","","","","","","","","","","","","","","","","","","","","","","","","","","","","","","","",""
"","rating","","html-slider-response","19","340329","0.0-18.0","0","0","ldc6S","Scenes","","2484","","","","60","141","sebastian-unrau-v4e3JI7DDHI-unsplash.jpg","15","","","","","","","","","","","","","","","","","","","","","","","","","","","","","","","","","","","","","","","",""
"","rating","","html-slider-response","20","344331","0.0-19.0","0","0","ldc6S","Scenes","","4000","","","","60","110","bruno-van-der-kraan-qez8mNJ3ilU-unsplash.jpg","16","","","","","","","","","","","","","","","","","","","","","","","","","","","","","","","","","","","","","","","",""
"","rating","","html-slider-response","21","355499","0.0-20.0","0","0","ldc6S","Scenes","","11167","","","","67","109","brigitta-schneiter-hXXRLtTxXCU-unsplash.jpg","17","","","","","","","","","","","","","","","","","","","","","","","","","","","","","","","","","","","","","","","",""
"","rating","","html-slider-response","22","373223","0.0-21.0","0","0","ldc6S","Scenes","","17721","","","","75","142","sergey-pesterev-y-b_FOmJXdg-unsplash.jpg","18","","","","","","","","","","","","","","","","","","","","","","","","","","","","","","","","","","","","","","","",""
"","rating","","html-slider-response","23","375636","0.0-22.0","0","0","ldc6S","Scenes","","2411","","","","62","139","samsommer-vddccTqwal8-unsplash.jpg","19","","","","","","","","","","","","","","","","","","","","","","","","","","","","","","","","","","","","","","","",""
"","rating","","html-slider-response","24","379621","0.0-23.0","0","0","ldc6S","Scenes","","3983","","","","68","123","joel-jasmin-forestbird-efuwb5eBDrI-unsplash.jpg","20","","","","","","","","","","","","","","","","","","","","","","","","","","","","","","","","","","","","","","","",""
"","rating","","html-slider-response","25","386818","0.0-24.0","0","0","ldc6S","Scenes","","7196","","","","58","127","kace-rodriguez-p3OzJuT_Dks-unsplash.jpg","21","","","","","","","","","","","","","","","","","","","","","","","","","","","","","","","","","","","","","","","",""
"","rating","","html-slider-response","26","391759","0.0-25.0","0","0","ldc6S","Scenes","","4939","","","","53","106","ashim-d-silva-WeYamle9fDM-unsplash.jpg","22","","","","","","","","","","","","","","","","","","","","","","","","","","","","","","","","","","","","","","","",""
"","rating","","html-slider-response","27","394769","0.0-26.0","0","0","ldc6S","Scenes","","3009","","","","55","101","aniket-deole-T-tOgjWZ0fQ-unsplash.jpg","23","","","","","","","","","","","","","","","","","","","","","","","","","","","","","","","","","","","","","","","",""
"","rating","","html-slider-response","28","397674","0.0-27.0","0","0","ldc6S","Scenes","","2904","","","","59","147","tobias-keller-73F4pKoUkM0-unsplash.jpg","24","","","","","","","","","","","","","","","","","","","","","","","","","","","","","","","","","","","","","","","",""
"","rating","","html-slider-response","29","447579","0.0-28.0","0","0","ldc6S","Scenes","","49903","","","","58","140","samuele-errico-piccarini-JEBqFu2AOOA-unsplash.jpg","25","","","","","","","","","","","","","","","","","","","","","","","","","","","","","","","","","","","","","","","",""
"","rating","","html-slider-response","30","454305","0.0-29.0","0","0","ldc6S","Scenes","","6724","","","","56","144","solotravelgoals-7kLufxYoqWk-unsplash.jpg","26","","","","","","","","","","","","","","","","","","","","","","","","","","","","","","","","","","","","","","","",""
"","rating","","html-slider-response","31","458556","0.0-30.0","0","0","ldc6S","Scenes","","4250","","","","41","149","yuriy-bogdanov-W51VK3Obcj0-unsplash.jpg","27","","","","","","","","","","","","","","","","","","","","","","","","","","","","","","","","","","","","","","","",""
"","rating","","html-slider-response","32","461000","0.0-31.0","0","0","ldc6S","Scenes","","2442","","","","66","124","johannes-plenio-sPt5RIjKfpk-unsplash.jpg","28","","","","","","","","","","","","","","","","","","","","","","","","","","","","","","","","","","","","","","","",""
"","rating","","html-slider-response","33","464364","0.0-32.0","0","0","ldc6S","Scenes","","3362","","","","61","116","david-marcu-W5MhJ6cy1So-unsplash.jpg","29","","","","","","","","","","","","","","","","","","","","","","","","","","","","","","","","","","","","","","","",""
"","rating","","html-slider-response","34","467533","0.0-33.0","0","0","ldc6S","Scenes","","3168","","","","57","105","ashim-d-silva-S2Q5mdOrrVc-unsplash.jpg","30","","","","","","","","","","","","","","","","","","","","","","","","","","","","","","","","","","","","","","","",""
"","rating","","html-slider-response","35","469622","0.0-34.0","0","0","ldc6S","Scenes","","2087","","","","71","130","lina-loos-04-C1NZk1hE-unsplash.jpg","31","","","","","","","","","","","","","","","","","","","","","","","","","","","","","","","","","","","","","","","",""
"","rating","","html-slider-response","36","471598","0.0-35.0","0","0","ldc6S","Scenes","","1974","","","","62","133","mickey-o-neil-xL66l--msXU-unsplash.jpg","32","","","","","","","","","","","","","","","","","","","","","","","","","","","","","","","","","","","","","","","",""
"","rating","","html-slider-response","37","474143","0.0-36.0","0","0","ldc6S","Scenes","","2545","","","","39","118","henry-be-NLF6hTe4PAg-unsplash.jpg","33","","","","","","","","","","","","","","","","","","","","","","","","","","","","","","","","","","","","","","","",""
"","rating","","html-slider-response","38","476677","0.0-37.0","0","0","ldc6S","Scenes","","2532","","","","70","114","daniel-sessler-z_9VmsxR8hs-unsplash.jpg","34","","","","","","","","","","","","","","","","","","","","","","","","","","","","","","","","","","","","","","","",""
"","rating","","html-slider-response","39","481951","0.0-38.0","0","0","ldc6S","Scenes","","5273","","","","55","121","jean-pierre-brungs-qxCqkbF7tUc-unsplash.jpg","35","","","","","","","","","","","","","","","","","","","","","","","","","","","","","","","","","","","","","","","",""
"","rating","","html-slider-response","40","488788","0.0-39.0","0","0","ldc6S","Scenes","","6835","","","","56","128","karsten-wurth-jS0zC2PJ17A-unsplash.jpg","36","","","","","","","","","","","","","","","","","","","","","","","","","","","","","","","","","","","","","","","",""
"","rating","","html-slider-response","41","506434","0.0-40.0","0","0","ldc6S","Scenes","","17644","","","","43","122","jeff-king-bJHWJeiHfHc-unsplash.jpg","37","","","","","","","","","","","","","","","","","","","","","","","","","","","","","","","","","","","","","","","",""
"","rating","","html-slider-response","42","508577","0.0-41.0","0","0","ldc6S","Scenes","","2141","","","","55","126","jordan-mcqueen-PJCZOWuOxbU-unsplash.jpg","38","","","","","","","","","","","","","","","","","","","","","","","","","","","","","","","","","","","","","","","",""
"","rating","","html-slider-response","43","511673","0.0-42.0","0","0","ldc6S","Scenes","","3094","","","","48","115","darrell-cassell-hoCXpPUMCoE-unsplash.jpg","39","","","","","","","","","","","","","","","","","","","","","","","","","","","","","","","","","","","","","","","",""
"","rating","","html-slider-response","44","513674","0.0-43.0","0","0","ldc6S","Scenes","","1999","","","","56","134","milada-vigerova-pQMM63GE7fo-unsplash.jpg","40","","","","","","","","","","","","","","","","","","","","","","","","","","","","","","","","","","","","","","","",""
"","rating","","html-slider-response","45","515574","0.0-44.0","0","0","ldc6S","Scenes","","1898","","","","73","119","james-wheeler-AFC0XvICMgs-unsplash.jpg","41","","","","","","","","","","","","","","","","","","","","","","","","","","","","","","","","","","","","","","","",""
"","rating","","html-slider-response","46","518625","0.0-45.0","0","0","ldc6S","Scenes","","3050","","","","53","102","anisur-rahman-K2b7UDed6uQ-unsplash.jpg","42","","","","","","","","","","","","","","","","","","","","","","","","","","","","","","","","","","","","","","","",""
"","rating","","html-slider-response","47","521557","0.0-46.0","0","0","ldc6S","Scenes","","2931","","","","45","135","mohammad-alizade-4wzRuAb-KWs-unsplash.jpg","43","","","","","","","","","","","","","","","","","","","","","","","","","","","","","","","","","","","","","","","",""
"","rating","","html-slider-response","48","523335","0.0-47.0","0","0","ldc6S","Scenes","","1776","","","","65","137","olga-stalska-QaWRyEdlffY-unsplash.jpg","44","","","","","","","","","","","","","","","","","","","","","","","","","","","","","","","","","","","","","","","",""
"","rating","","html-slider-response","49","530757","0.0-48.0","0","0","ldc6S","Scenes","","7420","","","","36","113","damian-denis-D8R_txR_0PE-unsplash.jpg","45","","","","","","","","","","","","","","","","","","","","","","","","","","","","","","","","","","","","","","","",""
"","rating","","html-slider-response","50","533635","0.0-49.0","0","0","ldc6S","Scenes","","2876","","","","54","112","cosmic-timetraveler-pYyOZ8q7AII-unsplash.jpg","46","","","","","","","","","","","","","","","","","","","","","","","","","","","","","","","","","","","","","","","",""
"","rating","","html-slider-response","51","542240","0.0-50.0","0","0","ldc6S","Scenes","","8603","","","","43","117","frank-mckenna-OD9EOzfSOh0-unsplash.jpg","47","","","","","","","","","","","","","","","","","","","","","","","","","","","","","","","","","","","","","","","",""
"","rating","","html-slider-response","52","544985","0.0-51.0","0","0","ldc6S","Scenes","","2743","","","","71","104","artem-sapegin-XGDBdSQ70O0-unsplash.jpg","48","","","","","","","","","","","","","","","","","","","","","","","","","","","","","","","","","","","","","","","",""
"","rating","","html-slider-response","53","548009","0.0-52.0","0","0","ldc6S","Scenes","","3024","","","","54","100","aleksandra-boguslawska-MS7KD9Ti7FQ-unsplash.jpg","49","","","","","","","","","","","","","","","","","","","","","","","","","","","","","","","","","","","","","","","",""
"","deliberation_instructions","","instructions","54","631990","0.0-53.0-0.0","0","0","ldc6S","Scenes","[{""page_index"":0,""viewing_time"":11574},{""page_index"":1,""viewing_time"":10097},{""page_index"":2,""viewing_time"":13857},{""page_index"":3,""viewing_time"":46823},{""page_index"":4,""viewing_time"":1627}]","83979","","","","","","","","","","","","","","","","","","","","","","","","","","","","","","","","","","","","","","","","","","","","","","",""
"","deliberation_comprehension_check","","survey-multi-choice","55","650929","0.0-53.0-1.0","0","0","ldc6S","Scenes","","18933","{""Q0"":""True"",""Q1"":""True"",""Q2"":""Consider carefully and take your time (up to 10 seconds)"",""Q3"":""True"",""Q4"":""D""}","0","","","","","","","","","","","","","","","","","","","","","","","","","","","","","","","","","","","","","","","","","","","","",""
"","start_phase","","html-keyboard-response","56","654523","0.0-54.0","0","0","ldc6S","Scenes","","3592","","","78","","","","","","","","","","","","","","","","","","","","","","","","","","","","","","","","","","","","","","","","","","","",""
"","first_deliberation_block","","html-keyboard-response","57","656195","0.0-55.0","0","0","ldc6S","Scenes","","1671","","","78","","","","","","","","","","","","","","","","","","","","","","","","","","","","","","","","","","","","","","","","","","","",""
"","fixation","","html-keyboard-response","58","657199","0.0-56.0-0.0","0","0","ldc6S","Scenes","","null","","","null","","","","","","","","","","","","","","","","","","","","","","","","","","","","","","","","","","","","","","","","","","","",""
"","deliberation","","html-keyboard-response","59","657570","0.0-56.0-1.0","0","0","ldc6S","Scenes","","369","","","68","","","","0","141","110","1","1","60","60","sebastian-unrau-v4e3JI7DDHI-unsplash.jpg","bruno-van-der-kraan-qez8mNJ3ilU-unsplash.jpg","1","1","141","110","","","","","","","","","","","","","","","","","","","","","","","","","","","",""
"","choice_confirmation","","html-keyboard-response","60","658072","0.0-56.0-2.0-0.0","0","0","ldc6S","Scenes","","null","","","null","","","","0","141","110","","","","","","","","","","","","","","","","","","","","","","","","","","","","","","","","","","","","","",""
"","explain_trial","","survey-text","61","672724","0.0-56.0-5.0-0.0","0","0","ldc6S","Scenes","","14647","{""Q0"":""More color, more focus on the environment""}","","","","","","0","141","110","","","","","","","","","","","{""Q0"":""More color, more focus on the environment""}","","","","","","","","","","","","","","","","","","","","","","","","","","",""
"","fixation","","html-keyboard-response","62","673728","0.0-57.0-0.0","0","0","ldc6S","Scenes","","null","","","null","","","","","","","","","","","","","","","","","","","","","","","","","","","","","","","","","","","","","","","","","","","",""
"","deliberation","","html-keyboard-response","63","678837","0.0-57.0-1.0","0","0","ldc6S","Scenes","","5107","","","68","","","","1","139","103","1","-1","62","57","samsommer-vddccTqwal8-unsplash.jpg","anton-darius-FBJugtbHsWU-unsplash.jpg","1","1","139","103","","","","","","","","","","","","","","","","","","","","","","","","","","","",""
"","choice_confirmation","","html-keyboard-response","64","679339","0.0-57.0-2.0-0.0","0","0","ldc6S","Scenes","","null","","","null","","","","1","139","103","","","","","","","","","","","","","","","","","","","","","","","","","","","","","","","","","","","","","",""
"","explain_trial","","survey-text","65","689176","0.0-57.0-5.0-0.0","0","0","ldc6S","Scenes","","9836","{""Q0"":""has a mysterious appeal to it over the photo on the right""}","","","","","","1","139","103","","","","","","","","","","","{""Q0"":""has a mysterious appeal to it over the photo on the right""}","","","","","","","","","","","","","","","","","","","","","","","","","","",""
"","fixation","","html-keyboard-response","66","690179","0.0-58.0-0.0","0","0","ldc6S","Scenes","","null","","","null","","","","","","","","","","","","","","","","","","","","","","","","","","","","","","","","","","","","","","","","","","","",""
"","deliberation","","html-keyboard-response","67","696570","0.0-58.0-1.0","0","0","ldc6S","Scenes","","6388","","","75","","","","2","121","136","0","1","55","58","jean-pierre-brungs-qxCqkbF7tUc-unsplash.jpg","nicolas-jehly-LzVB84KkZOE-unsplash.jpg","1","0","136","121","","","","","","","","","","","","","","","","","","","","","","","","","","","",""
"","choice_confirmation","","html-keyboard-response","68","697072","0.0-58.0-2.0-0.0","0","0","ldc6S","Scenes","","null","","","null","","","","2","121","136","","","","","","","","","","","","","","","","","","","","","","","","","","","","","","","","","","","","","",""
"","fixation","","html-keyboard-response","69","698073","0.0-59.0-0.0","0","0","ldc6S","Scenes","","null","","","null","","","","","","","","","","","","","","","","","","","","","","","","","","","","","","","","","","","","","","","","","","","",""
"","deliberation","","html-keyboard-response","70","703322","0.0-59.0-1.0","0","0","ldc6S","Scenes","","5246","","","75","","","","3","132","127","1","1","61","58","meng-ji-8BH_M-53CyA-unsplash.jpg","kace-rodriguez-p3OzJuT_Dks-unsplash.jpg","1","0","127","132","","","","","","","","","","","","","","","","","","","","","","","","","","","",""
"","choice_confirmation","","html-keyboard-response","71","703824","0.0-59.0-2.0-0.0","0","0","ldc6S","Scenes","","null","","","null","","","","3","132","127","","","","","","","","","","","","","","","","","","","","","","","","","","","","","","","","","","","","","",""
"","explain_trial","","survey-text","72","730507","0.0-59.0-5.0-0.0","0","0","ldc6S","Scenes","","26682","{""Q0"":""more unique discernible features, reflection adds a very nice touch""}","","","","","","3","132","127","","","","","","","","","","","{""Q0"":""more unique discernible features, reflection adds a very nice touch""}","","","","","","","","","","","","","","","","","","","","","","","","","","",""
"","fixation","","html-keyboard-response","73","731509","0.0-60.0-0.0","0","0","ldc6S","Scenes","","null","","","null","","","","","","","","","","","","","","","","","","","","","","","","","","","","","","","","","","","","","","","","","","","",""
"","deliberation","","html-keyboard-response","74","734464","0.0-60.0-1.0","0","0","ldc6S","Scenes","","2953","","","75","","","","4","101","144","1","-1","55","56","aniket-deole-T-tOgjWZ0fQ-unsplash.jpg","solotravelgoals-7kLufxYoqWk-unsplash.jpg","1","0","144","101","","","","","","","","","","","","","","","","","","","","","","","","","","","",""
"","choice_confirmation","","html-keyboard-response","75","734965","0.0-60.0-2.0-0.0","0","0","ldc6S","Scenes","","null","","","null","","","","4","101","144","","","","","","","","","","","","","","","","","","","","","","","","","","","","","","","","","","","","","",""
"","explain_trial","","survey-text","76","756380","0.0-60.0-5.0-0.0","0","0","ldc6S","Scenes","","21413","{""Q0"":""contrast and focus is way better""}","","","","","","4","101","144","","","","","","","","","","","{""Q0"":""contrast and focus is way better""}","","","","","","","","","","","","","","","","","","","","","","","","","","",""
"","fixation","","html-keyboard-response","77","757382","0.0-61.0-0.0","0","0","ldc6S","Scenes","","null","","","null","","","","","","","","","","","","","","","","","","","","","","","","","","","","","","","","","","","","","","","","","","","",""
"","deliberation","","html-keyboard-response","78","759841","0.0-61.0-1.0","0","0","ldc6S","Scenes","","2458","","","75","","","","5","100","137","0","1","54","65","aleksandra-boguslawska-MS7KD9Ti7FQ-unsplash.jpg","olga-stalska-QaWRyEdlffY-unsplash.jpg","1","0","137","100","","","","","","","","","","","","","","","","","","","","","","","","","","","",""
"","choice_confirmation","","html-keyboard-response","79","760344","0.0-61.0-2.0-0.0","0","0","ldc6S","Scenes","","null","","","null","","","","5","100","137","","","","","","","","","","","","","","","","","","","","","","","","","","","","","","","","","","","","","",""
"","fixation","","html-keyboard-response","80","761346","0.0-62.0-0.0","0","0","ldc6S","Scenes","","null","","","null","","","","","","","","","","","","","","","","","","","","","","","","","","","","","","","","","","","","","","","","","","","",""
"","deliberation","","html-keyboard-response","81","768673","0.0-62.0-1.0","0","0","ldc6S","Scenes","","7326","","","68","","","","6","138","134","1","-1","67","56","petr-vysohlid-9fqwGqGLUxc-unsplash.jpg","milada-vigerova-pQMM63GE7fo-unsplash.jpg","1","1","138","134","","","","","","","","","","","","","","","","","","","","","","","","","","","",""
"","choice_confirmation","","html-keyboard-response","82","769174","0.0-62.0-2.0-0.0","0","0","ldc6S","Scenes","","null","","","null","","","","6","138","134","","","","","","","","","","","","","","","","","","","","","","","","","","","","","","","","","","","","","",""
"","explain_trial","","survey-text","83","791548","0.0-62.0-5.0-0.0","0","0","ldc6S","Scenes","","22372","{""Q0"":""the angle of the picture on the right isn't wide enough. The left picture also tells more of a story""}","","","","","","6","138","134","","","","","","","","","","","{""Q0"":""the angle of the picture on the right isn't wide enough. The left picture also tells more of a story""}","","","","","","","","","","","","","","","","","","","","","","","","","","",""
"","fixation","","html-keyboard-response","84","792550","0.0-63.0-0.0","0","0","ldc6S","Scenes","","null","","","null","","","","","","","","","","","","","","","","","","","","","","","","","","","","","","","","","","","","","","","","","","","",""
"","deliberation","","html-keyboard-response","85","796422","0.0-63.0-1.0","0","0","ldc6S","Scenes","","3870","","","68","","","","7","140","133","0","-1","58","62","samuele-errico-piccarini-JEBqFu2AOOA-unsplash.jpg","mickey-o-neil-xL66l--msXU-unsplash.jpg","1","1","140","133","","","","","","","","","","","","","","","","","","","","","","","","","","","",""
"","choice_confirmation","","html-keyboard-response","86","796924","0.0-63.0-2.0-0.0","0","0","ldc6S","Scenes","","null","","","null","","","","7","140","133","","","","","","","","","","","","","","","","","","","","","","","","","","","","","","","","","","","","","",""
"","fixation","","html-keyboard-response","87","797926","0.0-64.0-0.0","0","0","ldc6S","Scenes","","null","","","null","","","","","","","","","","","","","","","","","","","","","","","","","","","","","","","","","","","","","","","","","","","",""
"","deliberation","","html-keyboard-response","88","801391","0.0-64.0-1.0","0","0","ldc6S","Scenes","","3463","","","68","","","","8","105","126","0","1","57","55","ashim-d-silva-S2Q5mdOrrVc-unsplash.jpg","jordan-mcqueen-PJCZOWuOxbU-unsplash.jpg","1","1","105","126","","","","","","","","","","","","","","","","","","","","","","","","","","","",""
"","choice_confirmation","","html-keyboard-response","89","801893","0.0-64.0-2.0-0.0","0","0","ldc6S","Scenes","","null","","","null","","","","8","105","126","","","","","","","","","","","","","","","","","","","","","","","","","","","","","","","","","","","","","",""
"","fixation","","html-keyboard-response","90","802895","0.0-65.0-0.0","0","0","ldc6S","Scenes","","null","","","null","","","","","","","","","","","","","","","","","","","","","","","","","","","","","","","","","","","","","","","","","","","",""
"","deliberation","","html-keyboard-response","91","812898","0.0-65.0-1.0","0","0","ldc6S","Scenes","","null","","","null","","","","9","147","128","1","-1","59","56","tobias-keller-73F4pKoUkM0-unsplash.jpg","karsten-wurth-jS0zC2PJ17A-unsplash.jpg","1","","","","","","","","","","","","","","","","","","","","","","","","","","","","","","",""
"","deliberation_too_slow","","html-keyboard-response","92","814401","0.0-65.0-4.0-0.0","1","0","ldc6S","Scenes","","null","","","null","","","","9","","","","","","","","","","","","","","","","","","","","","","","","","","","","","","","","","","","","","","","",""
"","fixation","","html-keyboard-response","93","815406","0.0-65.1-0.1","0","0","ldc6S","Scenes","","null","","","null","","","","","","","","","","","","","","","","","","","","","","","","","","","","","","","","","","","","","","","","","","","",""
"","deliberation","","html-keyboard-response","94","817337","0.0-65.1-1.1","0","0","ldc6S","Scenes","","1929","","","75","","","","9","147","128","1","-1","59","56","tobias-keller-73F4pKoUkM0-unsplash.jpg","karsten-wurth-jS0zC2PJ17A-unsplash.jpg","1","0","128","147","","","","","","","","","","","","","","","","","","","","","","","","","","","",""
"","choice_confirmation","","html-keyboard-response","95","817839","0.0-65.1-2.1-0.1","0","0","ldc6S","Scenes","","null","","","null","","","","9","147","128","","","","","","","","","","","","","","","","","","","","","","","","","","","","","","","","","","","","","",""
"","explain_trial","","survey-text","96","854853","0.0-65.1-5.1-0.1","0","0","ldc6S","Scenes","","37013","{""Q0"":""sorry, didn't realize how fast 10 seconds went. \n\nThe right picture tells a story whereas the left picture is simply a scene. ""}","","","","","","9","147","128","","","","","","","","","","","{""Q0"":""sorry, didn't realize how fast 10 seconds went. \n\nThe right picture tells a story whereas the left picture is simply a scene. ""}","","","","","","","","","","","","","","","","","","","","","","","","","","",""
"","fixation","","html-keyboard-response","97","855856","0.0-66.0-0.0","0","0","ldc6S","Scenes","","null","","","null","","","","","","","","","","","","","","","","","","","","","","","","","","","","","","","","","","","","","","","","","","","",""
"","deliberation","","html-keyboard-response","98","858946","0.0-66.0-1.0","0","0","ldc6S","Scenes","","3088","","","75","","","","10","116","124","0","-1","61","66","david-marcu-W5MhJ6cy1So-unsplash.jpg","johannes-plenio-sPt5RIjKfpk-unsplash.jpg","1","0","124","116","","","","","","","","","","","","","","","","","","","","","","","","","","","",""
"","choice_confirmation","","html-keyboard-response","99","859448","0.0-66.0-2.0-0.0","0","0","ldc6S","Scenes","","null","","","null","","","","10","116","124","","","","","","","","","","","","","","","","","","","","","","","","","","","","","","","","","","","","","",""
"","fixation","","html-keyboard-response","100","860451","0.0-67.0-0.0","0","0","ldc6S","Scenes","","null","","","null","","","","","","","","","","","","","","","","","","","","","","","","","","","","","","","","","","","","","","","","","","","",""
"","deliberation","","html-keyboard-response","101","865289","0.0-67.0-1.0","0","0","ldc6S","Scenes","","4836","","","68","","","","11","111","108","0","1","58","55","claudio-testa-U3F2o6vz3bs-unsplash.jpg","benjamin-voros-phIFdC6lA4E-unsplash.jpg","1","1","111","108","","","","","","","","","","","","","","","","","","","","","","","","","","","",""
"","choice_confirmation","","html-keyboard-response","102","865791","0.0-67.0-2.0-0.0","0","0","ldc6S","Scenes","","null","","","null","","","","11","111","108","","","","","","","","","","","","","","","","","","","","","","","","","","","","","","","","","","","","","",""
"","practice_deliberation_again","","html-keyboard-response","103","869343","0.0-67.0-6.0-0.0","0","0","ldc6S","Scenes","","3551","","","78","","","","","","","","","","","","","","","","","","","","","","","","","","","","","","","","","","","","","","","","","","","",""
"","fixation","","html-keyboard-response","104","870346","0.0-68.0-0.0","0","0","ldc6S","Scenes","","null","","","null","","","","","","","","","","","","","","","","","","","","","","","","","","","","","","","","","","","","","","","","","","","",""
"","deliberation","","html-keyboard-response","105","874360","0.0-68.0-1.0","0","0","ldc6S","Scenes","","4013","","","75","","","","12","116","124","1","-1","61","66","david-marcu-W5MhJ6cy1So-unsplash.jpg","johannes-plenio-sPt5RIjKfpk-unsplash.jpg","2","0","124","116","","","","","","","","","","","","","","","","","","","","","","","","","","","",""
"","choice_confirmation","","html-keyboard-response","106","874862","0.0-68.0-2.0-0.0","0","0","ldc6S","Scenes","","null","","","null","","","","12","116","124","","","","","","","","","","","","","","","","","","","","","","","","","","","","","","","","","","","","","",""
"","explain_trial","","survey-text","107","897115","0.0-68.0-5.0-0.0","0","0","ldc6S","Scenes","","22251","{""Q0"":""i simply love photos of leaf covered paths through a row of trees in the fall""}","","","","","","12","116","124","","","","","","","","","","","{""Q0"":""i simply love photos of leaf covered paths through a row of trees in the fall""}","","","","","","","","","","","","","","","","","","","","","","","","","","",""
"","fixation","","html-keyboard-response","108","898117","0.0-69.0-0.0","0","0","ldc6S","Scenes","","null","","","null","","","","","","","","","","","","","","","","","","","","","","","","","","","","","","","","","","","","","","","","","","","",""
"","deliberation","","html-keyboard-response","109","900598","0.0-69.0-1.0","0","0","ldc6S","Scenes","","2481","","","68","","","","13","105","126","1","1","57","55","ashim-d-silva-S2Q5mdOrrVc-unsplash.jpg","jordan-mcqueen-PJCZOWuOxbU-unsplash.jpg","2","1","105","126","","","","","","","","","","","","","","","","","","","","","","","","","","","",""
"","choice_confirmation","","html-keyboard-response","110","901100","0.0-69.0-2.0-0.0","0","0","ldc6S","Scenes","","null","","","null","","","","13","105","126","","","","","","","","","","","","","","","","","","","","","","","","","","","","","","","","","","","","","",""
"","explain_trial","","survey-text","111","928910","0.0-69.0-5.0-0.0","0","0","ldc6S","Scenes","","27808","{""Q0"":""tells a story, much clearer focus than the photo on the right""}","","","","","","13","105","126","","","","","","","","","","","{""Q0"":""tells a story, much clearer focus than the photo on the right""}","","","","","","","","","","","","","","","","","","","","","","","","","","",""
"","fixation","","html-keyboard-response","112","929913","0.0-70.0-0.0","0","0","ldc6S","Scenes","","null","","","null","","","","","","","","","","","","","","","","","","","","","","","","","","","","","","","","","","","","","","","","","","","",""
"","deliberation","","html-keyboard-response","113","933268","0.0-70.0-1.0","0","0","ldc6S","Scenes","","3354","","","68","","","","14","140","133","1","-1","58","62","samuele-errico-piccarini-JEBqFu2AOOA-unsplash.jpg","mickey-o-neil-xL66l--msXU-unsplash.jpg","2","1","140","133","","","","","","","","","","","","","","","","","","","","","","","","","","","",""
"","choice_confirmation","","html-keyboard-response","114","933770","0.0-70.0-2.0-0.0","0","0","ldc6S","Scenes","","null","","","null","","","","14","140","133","","","","","","","","","","","","","","","","","","","","","","","","","","","","","","","","","","","","","",""
"","explain_trial","","survey-text","115","958906","0.0-70.0-5.0-0.0","0","0","ldc6S","Scenes","","25133","{""Q0"":""the reflectivity sells the photo over the one on the right. both have a decent point of focus, but overall the left picture is better""}","","","","","","14","140","133","","","","","","","","","","","{""Q0"":""the reflectivity sells the photo over the one on the right. both have a decent point of focus, but overall the left picture is better""}","","","","","","","","","","","","","","","","","","","","","","","","","","",""
"","fixation","","html-keyboard-response","116","959907","0.0-71.0-0.0","0","0","ldc6S","Scenes","","null","","","null","","","","","","","","","","","","","","","","","","","","","","","","","","","","","","","","","","","","","","","","","","","",""
"","deliberation","","html-keyboard-response","117","965339","0.0-71.0-1.0","0","0","ldc6S","Scenes","","5430","","","68","","","","15","141","110","0","1","60","60","sebastian-unrau-v4e3JI7DDHI-unsplash.jpg","bruno-van-der-kraan-qez8mNJ3ilU-unsplash.jpg","2","1","141","110","","","","","","","","","","","","","","","","","","","","","","","","","","","",""
"","choice_confirmation","","html-keyboard-response","118","965843","0.0-71.0-2.0-0.0","0","0","ldc6S","Scenes","","null","","","null","","","","15","141","110","","","","","","","","","","","","","","","","","","","","","","","","","","","","","","","","","","","","","",""
"","fixation","","html-keyboard-response","119","966856","0.0-72.0-0.0","0","0","ldc6S","Scenes","","null","","","null","","","","","","","","","","","","","","","","","","","","","","","","","","","","","","","","","","","","","","","","","","","",""
"","deliberation","","html-keyboard-response","120","967915","0.0-72.0-1.0","0","0","ldc6S","Scenes","","1058","","","75","","","","16","101","144","0","-1","55","56","aniket-deole-T-tOgjWZ0fQ-unsplash.jpg","solotravelgoals-7kLufxYoqWk-unsplash.jpg","2","0","144","101","","","","","","","","","","","","","","","","","","","","","","","","","","","",""
"","choice_confirmation","","html-keyboard-response","121","968417","0.0-72.0-2.0-0.0","0","0","ldc6S","Scenes","","null","","","null","","","","16","101","144","","","","","","","","","","","","","","","","","","","","","","","","","","","","","","","","","","","","","",""
"","fixation","","html-keyboard-response","122","969420","0.0-73.0-0.0","0","0","ldc6S","Scenes","","null","","","null","","","","","","","","","","","","","","","","","","","","","","","","","","","","","","","","","","","","","","","","","","","",""
"","deliberation","","html-keyboard-response","123","971184","0.0-73.0-1.0","0","0","ldc6S","Scenes","","1762","","","75","","","","17","147","128","0","-1","59","56","tobias-keller-73F4pKoUkM0-unsplash.jpg","karsten-wurth-jS0zC2PJ17A-unsplash.jpg","2","0","128","147","","","","","","","","","","","","","","","","","","","","","","","","","","","",""
"","choice_confirmation","","html-keyboard-response","124","971685","0.0-73.0-2.0-0.0","0","0","ldc6S","Scenes","","null","","","null","","","","17","147","128","","","","","","","","","","","","","","","","","","","","","","","","","","","","","","","","","","","","","",""
"","fixation","","html-keyboard-response","125","972689","0.0-74.0-0.0","0","0","ldc6S","Scenes","","null","","","null","","","","","","","","","","","","","","","","","","","","","","","","","","","","","","","","","","","","","","","","","","","",""
"","deliberation","","html-keyboard-response","126","974022","0.0-74.0-1.0","0","0","ldc6S","Scenes","","1331","","","68","","","","18","111","108","1","1","58","55","claudio-testa-U3F2o6vz3bs-unsplash.jpg","benjamin-voros-phIFdC6lA4E-unsplash.jpg","2","1","111","108","","","","","","","","","","","","","","","","","","","","","","","","","","","",""
"","choice_confirmation","","html-keyboard-response","127","974523","0.0-74.0-2.0-0.0","0","0","ldc6S","Scenes","","null","","","null","","","","18","111","108","","","","","","","","","","","","","","","","","","","","","","","","","","","","","","","","","","","","","",""
"","explain_trial","","survey-text","128","1012582","0.0-74.0-5.0-0.0","0","0","ldc6S","Scenes","","38058","{""Q0"":""its a layered image, the image on the right is a bit cliche in this day and age""}","","","","","","18","111","108","","","","","","","","","","","{""Q0"":""its a layered image, the image on the right is a bit cliche in this day and age""}","","","","","","","","","","","","","","","","","","","","","","","","","","",""
"","fixation","","html-keyboard-response","129","1013584","0.0-75.0-0.0","0","0","ldc6S","Scenes","","null","","","null","","","","","","","","","","","","","","","","","","","","","","","","","","","","","","","","","","","","","","","","","","","",""
"","deliberation","","html-keyboard-response","130","1016462","0.0-75.0-1.0","0","0","ldc6S","Scenes","","2876","","","68","","","","19","139","103","0","-1","62","57","samsommer-vddccTqwal8-unsplash.jpg","anton-darius-FBJugtbHsWU-unsplash.jpg","2","1","139","103","","","","","","","","","","","","","","","","","","","","","","","","","","","",""
"","choice_confirmation","","html-keyboard-response","131","1016964","0.0-75.0-2.0-0.0","0","0","ldc6S","Scenes","","null","","","null","","","","19","139","103","","","","","","","","","","","","","","","","","","","","","","","","","","","","","","","","","","","","","",""
"","fixation","","html-keyboard-response","132","1017976","0.0-76.0-0.0","0","0","ldc6S","Scenes","","null","","","null","","","","","","","","","","","","","","","","","","","","","","","","","","","","","","","","","","","","","","","","","","","",""
"","deliberation","","html-keyboard-response","133","1021028","0.0-76.0-1.0","0","0","ldc6S","Scenes","","3051","","","68","","","","20","138","134","0","-1","67","56","petr-vysohlid-9fqwGqGLUxc-unsplash.jpg","milada-vigerova-pQMM63GE7fo-unsplash.jpg","2","1","138","134","","","","","","","","","","","","","","","","","","","","","","","","","","","",""
"","choice_confirmation","","html-keyboard-response","134","1021531","0.0-76.0-2.0-0.0","0","0","ldc6S","Scenes","","null","","","null","","","","20","138","134","","","","","","","","","","","","","","","","","","","","","","","","","","","","","","","","","","","","","",""
"","fixation","","html-keyboard-response","135","1022533","0.0-77.0-0.0","0","0","ldc6S","Scenes","","null","","","null","","","","","","","","","","","","","","","","","","","","","","","","","","","","","","","","","","","","","","","","","","","",""
"","deliberation","","html-keyboard-response","136","1026916","0.0-77.0-1.0","0","0","ldc6S","Scenes","","4381","","","75","","","","21","100","137","1","1","54","65","aleksandra-boguslawska-MS7KD9Ti7FQ-unsplash.jpg","olga-stalska-QaWRyEdlffY-unsplash.jpg","2","0","137","100","","","","","","","","","","","","","","","","","","","","","","","","","","","",""
"","choice_confirmation","","html-keyboard-response","137","1027421","0.0-77.0-2.0-0.0","0","0","ldc6S","Scenes","","null","","","null","","","","21","100","137","","","","","","","","","","","","","","","","","","","","","","","","","","","","","","","","","","","","","",""
"","explain_trial","","survey-text","138","1062796","0.0-77.0-5.0-0.0","0","0","ldc6S","Scenes","","35372","{""Q0"":""photograph has a ton of features while also retaining simplicity and beauty. ""}","","","","","","21","100","137","","","","","","","","","","","{""Q0"":""photograph has a ton of features while also retaining simplicity and beauty. ""}","","","","","","","","","","","","","","","","","","","","","","","","","","",""
"","fixation","","html-keyboard-response","139","1063797","0.0-78.0-0.0","0","0","ldc6S","Scenes","","null","","","null","","","","","","","","","","","","","","","","","","","","","","","","","","","","","","","","","","","","","","","","","","","",""
"","deliberation","","html-keyboard-response","140","1071713","0.0-78.0-1.0","0","0","ldc6S","Scenes","","7914","","","75","","","","22","121","136","1","1","55","58","jean-pierre-brungs-qxCqkbF7tUc-unsplash.jpg","nicolas-jehly-LzVB84KkZOE-unsplash.jpg","2","0","136","121","","","","","","","","","","","","","","","","","","","","","","","","","","","",""
"","choice_confirmation","","html-keyboard-response","141","1072216","0.0-78.0-2.0-0.0","0","0","ldc6S","Scenes","","null","","","null","","","","22","121","136","","","","","","","","","","","","","","","","","","","","","","","","","","","","","","","","","","","","","",""
"","explain_trial","","survey-text","142","1109889","0.0-78.0-5.0-0.0","0","0","ldc6S","Scenes","","37670","{""Q0"":""solar halo over the desert, I like it over the field on a cloudy day. you don't see many images like the one on the right""}","","","","","","22","121","136","","","","","","","","","","","{""Q0"":""solar halo over the desert, I like it over the field on a cloudy day. you don't see many images like the one on the right""}","","","","","","","","","","","","","","","","","","","","","","","","","","",""
"","fixation","","html-keyboard-response","143","1110891","0.0-79.0-0.0","0","0","ldc6S","Scenes","","null","","","null","","","","","","","","","","","","","","","","","","","","","","","","","","","","","","","","","","","","","","","","","","","",""
"","deliberation","","html-keyboard-response","144","1112851","0.0-79.0-1.0","0","0","ldc6S","Scenes","","1960","","","75","","","","23","132","127","0","1","61","58","meng-ji-8BH_M-53CyA-unsplash.jpg","kace-rodriguez-p3OzJuT_Dks-unsplash.jpg","2","0","127","132","","","","","","","","","","","","","","","","","","","","","","","","","","","",""
"","choice_confirmation","","html-keyboard-response","145","1113353","0.0-79.0-2.0-0.0","0","0","ldc6S","Scenes","","null","","","null","","","","23","132","127","","","","","","","","","","","","","","","","","","","","","","","","","","","","","","","","","","","","","",""
"","start_critical_deliberation_block","","html-keyboard-response","146","1116695","0.0-79.0-7.0-0.0","0","0","ldc6S","Scenes","","3340","","","78","","","","","","","","","","","","","","","","","","","","","","","","","","","","","","","","","","","","","","","","","","","",""
"","fixation","","html-keyboard-response","147","1117705","0.0-80.0-0.0","0","0","ldc6S","Scenes","","null","","","null","","","","","","","","","","","","","","","","","","","","","","","","","","","","","","","","","","","","","","","","","","","",""
"","deliberation","","html-keyboard-response","148","1118978","0.0-80.0-1.0","0","0","ldc6S","Scenes","","1271","","","75","","","","24","147","128","0","-1","59","56","tobias-keller-73F4pKoUkM0-unsplash.jpg","karsten-wurth-jS0zC2PJ17A-unsplash.jpg","3","0","128","147","","","","","","","","","","","","","","","","","","","","","","","","","","","",""
"","choice_confirmation","","html-keyboard-response","149","1119480","0.0-80.0-2.0-0.0","0","0","ldc6S","Scenes","","null","","","null","","","","24","147","128","","","","","","","","","","","","","","","","","","","","","","","","","","","","","","","","","","","","","",""
"","fixation","","html-keyboard-response","150","1120484","0.0-81.0-0.0","0","0","ldc6S","Scenes","","null","","","null","","","","","","","","","","","","","","","","","","","","","","","","","","","","","","","","","","","","","","","","","","","",""
"","deliberation","","html-keyboard-response","151","1121673","0.0-81.0-1.0","0","0","ldc6S","Scenes","","1188","","","68","","","","25","138","134","0","-1","67","56","petr-vysohlid-9fqwGqGLUxc-unsplash.jpg","milada-vigerova-pQMM63GE7fo-unsplash.jpg","3","1","138","134","","","","","","","","","","","","","","","","","","","","","","","","","","","",""
"","choice_confirmation","","html-keyboard-response","152","1122174","0.0-81.0-2.0-0.0","0","0","ldc6S","Scenes","","null","","","null","","","","25","138","134","","","","","","","","","","","","","","","","","","","","","","","","","","","","","","","","","","","","","",""
"","fixation","","html-keyboard-response","153","1123176","0.0-82.0-0.0","0","0","ldc6S","Scenes","","null","","","null","","","","","","","","","","","","","","","","","","","","","","","","","","","","","","","","","","","","","","","","","","","",""
"","deliberation","","html-keyboard-response","154","1124678","0.0-82.0-1.0","0","0","ldc6S","Scenes","","1499","","","68","","","","26","141","110","0","1","60","60","sebastian-unrau-v4e3JI7DDHI-unsplash.jpg","bruno-van-der-kraan-qez8mNJ3ilU-unsplash.jpg","3","1","141","110","","","","","","","","","","","","","","","","","","","","","","","","","","","",""
"","choice_confirmation","","html-keyboard-response","155","1125181","0.0-82.0-2.0-0.0","0","0","ldc6S","Scenes","","null","","","null","","","","26","141","110","","","","","","","","","","","","","","","","","","","","","","","","","","","","","","","","","","","","","",""
"","fixation","","html-keyboard-response","156","1126183","0.0-83.0-0.0","0","0","ldc6S","Scenes","","null","","","null","","","","","","","","","","","","","","","","","","","","","","","","","","","","","","","","","","","","","","","","","","","",""
"","deliberation","","html-keyboard-response","157","1127282","0.0-83.0-1.0","0","0","ldc6S","Scenes","","1097","","","68","","","","27","140","133","0","-1","58","62","samuele-errico-piccarini-JEBqFu2AOOA-unsplash.jpg","mickey-o-neil-xL66l--msXU-unsplash.jpg","3","1","140","133","","","","","","","","","","","","","","","","","","","","","","","","","","","",""
"","choice_confirmation","","html-keyboard-response","158","1127784","0.0-83.0-2.0-0.0","0","0","ldc6S","Scenes","","null","","","null","","","","27","140","133","","","","","","","","","","","","","","","","","","","","","","","","","","","","","","","","","","","","","",""
"","fixation","","html-keyboard-response","159","1128786","0.0-84.0-0.0","0","0","ldc6S","Scenes","","null","","","null","","","","","","","","","","","","","","","","","","","","","","","","","","","","","","","","","","","","","","","","","","","",""
"","deliberation","","html-keyboard-response","160","1129834","0.0-84.0-1.0","0","0","ldc6S","Scenes","","1046","","","68","","","","28","105","126","0","1","57","55","ashim-d-silva-S2Q5mdOrrVc-unsplash.jpg","jordan-mcqueen-PJCZOWuOxbU-unsplash.jpg","3","1","105","126","","","","","","","","","","","","","","","","","","","","","","","","","","","",""
"","choice_confirmation","","html-keyboard-response","161","1130337","0.0-84.0-2.0-0.0","0","0","ldc6S","Scenes","","null","","","null","","","","28","105","126","","","","","","","","","","","","","","","","","","","","","","","","","","","","","","","","","","","","","",""
"","fixation","","html-keyboard-response","162","1131339","0.0-85.0-0.0","0","0","ldc6S","Scenes","","null","","","null","","","","","","","","","","","","","","","","","","","","","","","","","","","","","","","","","","","","","","","","","","","",""
"","deliberation","","html-keyboard-response","163","1132445","0.0-85.0-1.0","0","0","ldc6S","Scenes","","1105","","","75","","","","29","116","124","0","-1","61","66","david-marcu-W5MhJ6cy1So-unsplash.jpg","johannes-plenio-sPt5RIjKfpk-unsplash.jpg","3","0","124","116","","","","","","","","","","","","","","","","","","","","","","","","","","","",""
"","choice_confirmation","","html-keyboard-response","164","1132947","0.0-85.0-2.0-0.0","0","0","ldc6S","Scenes","","null","","","null","","","","29","116","124","","","","","","","","","","","","","","","","","","","","","","","","","","","","","","","","","","","","","",""
"","fixation","","html-keyboard-response","165","1133949","0.0-86.0-0.0","0","0","ldc6S","Scenes","","null","","","null","","","","","","","","","","","","","","","","","","","","","","","","","","","","","","","","","","","","","","","","","","","",""
"","deliberation","","html-keyboard-response","166","1136273","0.0-86.0-1.0","0","0","ldc6S","Scenes","","2322","","","75","","","","30","101","144","0","-1","55","56","aniket-deole-T-tOgjWZ0fQ-unsplash.jpg","solotravelgoals-7kLufxYoqWk-unsplash.jpg","3","0","144","101","","","","","","","","","","","","","","","","","","","","","","","","","","","",""
"","choice_confirmation","","html-keyboard-response","167","1136776","0.0-86.0-2.0-0.0","0","0","ldc6S","Scenes","","null","","","null","","","","30","101","144","","","","","","","","","","","","","","","","","","","","","","","","","","","","","","","","","","","","","",""
"","fixation","","html-keyboard-response","168","1137778","0.0-87.0-0.0","0","0","ldc6S","Scenes","","null","","","null","","","","","","","","","","","","","","","","","","","","","","","","","","","","","","","","","","","","","","","","","","","",""
"","deliberation","","html-keyboard-response","169","1139150","0.0-87.0-1.0","0","0","ldc6S","Scenes","","1371","","","75","","","","31","121","136","0","1","55","58","jean-pierre-brungs-qxCqkbF7tUc-unsplash.jpg","nicolas-jehly-LzVB84KkZOE-unsplash.jpg","3","0","136","121","","","","","","","","","","","","","","","","","","","","","","","","","","","",""
"","choice_confirmation","","html-keyboard-response","170","1139651","0.0-87.0-2.0-0.0","0","0","ldc6S","Scenes","","null","","","null","","","","31","121","136","","","","","","","","","","","","","","","","","","","","","","","","","","","","","","","","","","","","","",""
"","fixation","","html-keyboard-response","171","1140653","0.0-88.0-0.0","0","0","ldc6S","Scenes","","null","","","null","","","","","","","","","","","","","","","","","","","","","","","","","","","","","","","","","","","","","","","","","","","",""
"","deliberation","","html-keyboard-response","172","1142400","0.0-88.0-1.0","0","0","ldc6S","Scenes","","1745","","","75","","","","32","132","127","0","1","61","58","meng-ji-8BH_M-53CyA-unsplash.jpg","kace-rodriguez-p3OzJuT_Dks-unsplash.jpg","3","0","127","132","","","","","","","","","","","","","","","","","","","","","","","","","","","",""
"","choice_confirmation","","html-keyboard-response","173","1142903","0.0-88.0-2.0-0.0","0","0","ldc6S","Scenes","","null","","","null","","","","32","132","127","","","","","","","","","","","","","","","","","","","","","","","","","","","","","","","","","","","","","",""
"","fixation","","html-keyboard-response","174","1143906","0.0-89.0-0.0","0","0","ldc6S","Scenes","","null","","","null","","","","","","","","","","","","","","","","","","","","","","","","","","","","","","","","","","","","","","","","","","","",""
"","deliberation","","html-keyboard-response","175","1144749","0.0-89.0-1.0","0","0","ldc6S","Scenes","","842","","","68","","","","33","139","103","0","-1","62","57","samsommer-vddccTqwal8-unsplash.jpg","anton-darius-FBJugtbHsWU-unsplash.jpg","3","1","139","103","","","","","","","","","","","","","","","","","","","","","","","","","","","",""
"","choice_confirmation","","html-keyboard-response","176","1145250","0.0-89.0-2.0-0.0","0","0","ldc6S","Scenes","","null","","","null","","","","33","139","103","","","","","","","","","","","","","","","","","","","","","","","","","","","","","","","","","","","","","",""
"","fixation","","html-keyboard-response","177","1146252","0.0-90.0-0.0","0","0","ldc6S","Scenes","","null","","","null","","","","","","","","","","","","","","","","","","","","","","","","","","","","","","","","","","","","","","","","","","","",""
"","deliberation","","html-keyboard-response","178","1147293","0.0-90.0-1.0","0","0","ldc6S","Scenes","","1039","","","75","","","","34","100","137","0","1","54","65","aleksandra-boguslawska-MS7KD9Ti7FQ-unsplash.jpg","olga-stalska-QaWRyEdlffY-unsplash.jpg","3","0","137","100","","","","","","","","","","","","","","","","","","","","","","","","","","","",""
"","choice_confirmation","","html-keyboard-response","179","1147795","0.0-90.0-2.0-0.0","0","0","ldc6S","Scenes","","null","","","null","","","","34","100","137","","","","","","","","","","","","","","","","","","","","","","","","","","","","","","","","","","","","","",""
"","fixation","","html-keyboard-response","180","1148803","0.0-91.0-0.0","0","0","ldc6S","Scenes","","null","","","null","","","","","","","","","","","","","","","","","","","","","","","","","","","","","","","","","","","","","","","","","","","",""
"","deliberation","","html-keyboard-response","181","1149627","0.0-91.0-1.0","0","0","ldc6S","Scenes","","822","","","68","","","","35","111","108","0","1","58","55","claudio-testa-U3F2o6vz3bs-unsplash.jpg","benjamin-voros-phIFdC6lA4E-unsplash.jpg","3","1","111","108","","","","","","","","","","","","","","","","","","","","","","","","","","","",""
"","choice_confirmation","","html-keyboard-response","182","1150135","0.0-91.0-2.0-0.0","0","0","ldc6S","Scenes","","null","","","null","","","","35","111","108","","","","","","","","","","","","","","","","","","","","","","","","","","","","","","","","","","","","","",""
"","reward_learning_instructions","","instructions","183","1235237","0.0-92.0-0.0","0","0","ldc6S","Scenes","[{""page_index"":0,""viewing_time"":17761},{""page_index"":1,""viewing_time"":65863},{""page_index"":2,""viewing_time"":1476}]","85100","","","","","","","","","","","","","","","","","","","","","","","","","","","","","","","","","","","","","","","","","","","","","","",""
"","reward_comprehension_check","","survey-multi-choice","184","1248644","0.0-92.0-1.0","0","0","ldc6S","Scenes","","13402","{""Q0"":""True"",""Q1"":""True"",""Q2"":""Press the space bar to see its outcome"",""Q3"":""Press the relevant key while the outcome is presented""}","0","","","","","","","","","","","","","","","","","","","","","","","","","","","","","","","","","","","","","","","","","","","","",""
"","start_phase","","html-keyboard-response","185","1250939","0.0-93.0","0","0","ldc6S","Scenes","","2293","","","78","","","","","","","","","","","","","","","","","","","","","","","","","","","","","","","","","","","","","","","","","","","",""
"","fixation","","html-keyboard-response","186","1251941","0.0-94.0","0","0","ldc6S","Scenes","","null","","","null","","","","","","","","","","","","","","","","","","","","","","","","","","","","","","","","","","","","","","","","","","","",""
"","see_reward","","html-keyboard-response","187","1253227","0.0-95.0","0","0","ldc6S","Scenes","","1283","","","32","","144","","0","","","","-1","","","","","1","","","","","0","1283","","","","","","","","","","","","","","","","","","","","","","","","",""
"","reward_outcome","","html-keyboard-response","188","1255228","0.0-96.0","0","0","ldc6S","Scenes","","null","","","null","","144","","0","","","","","","","","","","","","","","","","NaN","null","","","","","","","","","","","","","","","","","","","","","","",""
"","respond_faster","","html-keyboard-response","189","1256732","0.0-97.0-0.0","1","0","ldc6S","Scenes","","null","","","null","","","","","","","","","","","","","","","","","","","","","","","","","","","","","","","","","","","","","","","","","","","",""
"","fixation","","html-keyboard-response","190","1257735","0.0-99.0","0","0","ldc6S","Scenes","","null","","","null","","","","","","","","","","","","","","","","","","","","","","","","","","","","","","","","","","","","","","","","","","","",""
"","see_reward","","html-keyboard-response","191","1258498","0.0-100.0","0","0","ldc6S","Scenes","","762","","","32","","140","","1","","","","-1","","","","","1","","","","","0","762","","","","","","","","","","","","","","","","","","","","","","","","",""
"","reward_outcome","","html-keyboard-response","192","1260502","0.0-101.0","0","0","ldc6S","Scenes","","736","","","40","","140","","1","","","","","","","","","","","","","","","","-1","736","","","","","","","","","","","","","","","","","","","","","","",""
"","fixation","","html-keyboard-response","193","1261503","0.0-104.0","0","0","ldc6S","Scenes","","null","","","null","","","","","","","","","","","","","","","","","","","","","","","","","","","","","","","","","","","","","","","","","","","",""
"","see_reward","","html-keyboard-response","194","1262380","0.0-105.0","0","0","ldc6S","Scenes","","875","","","32","","124","","2","","","","-1","","","","","1","","","","","0","875","","","","","","","","","","","","","","","","","","","","","","","","",""
"","reward_outcome","","html-keyboard-response","195","1264383","0.0-106.0","0","0","ldc6S","Scenes","","1690","","","40","","124","","2","","","","","","","","","","","","","","","","-1","1690","","","","","","","","","","","","","","","","","","","","","","",""
"","fixation","","html-keyboard-response","196","1265386","0.0-109.0","0","0","ldc6S","Scenes","","null","","","null","","","","","","","","","","","","","","","","","","","","","","","","","","","","","","","","","","","","","","","","","","","",""
"","see_reward","","html-keyboard-response","197","1265962","0.0-110.0","0","0","ldc6S","Scenes","","575","","","32","","140","","3","","","","-1","","","","","1","","","","","0","575","","","","","","","","","","","","","","","","","","","","","","","","",""
"","reward_outcome","","html-keyboard-response","198","1267965","0.0-111.0","0","0","ldc6S","Scenes","","733","","","40","","140","","3","","","","","","","","","","","","","","","","-1","733","","","","","","","","","","","","","","","","","","","","","","",""
"","fixation","","html-keyboard-response","199","1268966","0.0-114.0","0","0","ldc6S","Scenes","","null","","","null","","","","","","","","","","","","","","","","","","","","","","","","","","","","","","","","","","","","","","","","","","","",""
"","see_reward","","html-keyboard-response","200","1269330","0.0-115.0","0","0","ldc6S","Scenes","","362","","","32","","138","","4","","","","-1","","","","","1","","","","","0","362","","","","","","","","","","","","","","","","","","","","","","","","",""
"","reward_outcome","","html-keyboard-response","201","1271333","0.0-116.0","0","0","ldc6S","Scenes","","556","","","40","","138","","4","","","","","","","","","","","","","","","","-1","556","","","","","","","","","","","","","","","","","","","","","","",""
"","fixation","","html-keyboard-response","202","1272336","0.0-119.0","0","0","ldc6S","Scenes","","null","","","null","","","","","","","","","","","","","","","","","","","","","","","","","","","","","","","","","","","","","","","","","","","",""
"","see_reward","","html-keyboard-response","203","1272890","0.0-120.0","0","0","ldc6S","Scenes","","553","","","32","","139","","5","","","","-1","","","","","1","","","","","0","553","","","","","","","","","","","","","","","","","","","","","","","","",""
"","reward_outcome","","html-keyboard-response","204","1274892","0.0-121.0","0","0","ldc6S","Scenes","","384","","","40","","139","","5","","","","","","","","","","","","","","","","-1","384","","","","","","","","","","","","","","","","","","","","","","",""
"","fixation","","html-keyboard-response","205","1275895","0.0-124.0","0","0","ldc6S","Scenes","","null","","","null","","","","","","","","","","","","","","","","","","","","","","","","","","","","","","","","","","","","","","","","","","","",""
"","see_reward","","html-keyboard-response","206","1276126","0.0-125.0","0","0","ldc6S","Scenes","","230","","","32","","111","","6","","","","1","","","","","1","","","","","154","230","","","","","","","","","","","","","","","","","","","","","","","","",""
"","reward_outcome","","html-keyboard-response","207","1278129","0.0-126.0","0","0","ldc6S","Scenes","","828","","","38","","111","","6","","","","","","","","","","","","","","","","1","828","","","","","","","","","","","","","","","","","","","","","","",""
"","fixation","","html-keyboard-response","208","1279132","0.0-129.0","0","0","ldc6S","Scenes","","null","","","null","","","","","","","","","","","","","","","","","","","","","","","","","","","","","","","","","","","","","","","","","","","",""
"","see_reward","","html-keyboard-response","209","1279734","0.0-130.0","0","0","ldc6S","Scenes","","602","","","32","","141","","7","","","","1","","","","","1","","","","","150","602","","","","","","","","","","","","","","","","","","","","","","","","",""
"","reward_outcome","","html-keyboard-response","210","1281737","0.0-131.0","0","0","ldc6S","Scenes","","704","","","38","","141","","7","","","","","","","","","","","","","","","","1","704","","","","","","","","","","","","","","","","","","","","","","",""
"","fixation","","html-keyboard-response","211","1282740","0.0-134.0","0","0","ldc6S","Scenes","","null","","","null","","","","","","","","","","","","","","","","","","","","","","","","","","","","","","","","","","","","","","","","","","","",""
"","see_reward","","html-keyboard-response","212","1283207","0.0-135.0","0","0","ldc6S","Scenes","","467","","","32","","136","","8","","","","1","","","","","1","","","","","154","467","","","","","","","","","","","","","","","","","","","","","","","","",""
"","reward_outcome","","html-keyboard-response","213","1285209","0.0-136.0","0","0","ldc6S","Scenes","","861","","","38","","136","","8","","","","","","","","","","","","","","","","1","861","","","","","","","","","","","","","","","","","","","","","","",""
"","fixation","","html-keyboard-response","214","1286211","0.0-139.0","0","0","ldc6S","Scenes","","null","","","null","","","","","","","","","","","","","","","","","","","","","","","","","","","","","","","","","","","","","","","","","","","",""
"","see_reward","","html-keyboard-response","215","1287033","0.0-140.0","0","0","ldc6S","Scenes","","819","","","32","","111","","9","","","","1","","","","","1","","","","","154","819","","","","","","","","","","","","","","","","","","","","","","","","",""
"","reward_outcome","","html-keyboard-response","216","1289036","0.0-141.0","0","0","ldc6S","Scenes","","1149","","","38","","111","","9","","","","","","","","","","","","","","","","1","1149","","","","","","","","","","","","","","","","","","","","","","",""
"","fixation","","html-keyboard-response","217","1290037","0.0-144.0","0","0","ldc6S","Scenes","","null","","","null","","","","","","","","","","","","","","","","","","","","","","","","","","","","","","","","","","","","","","","","","","","",""
"","see_reward","","html-keyboard-response","218","1290993","0.0-145.0","0","0","ldc6S","Scenes","","953","","","32","","141","","10","","","","1","","","","","1","","","","","150","953","","","","","","","","","","","","","","","","","","","","","","","","",""
"","reward_outcome","","html-keyboard-response","219","1292994","0.0-146.0","0","0","ldc6S","Scenes","","1211","","","38","","141","","10","","","","","","","","","","","","","","","","1","1211","","","","","","","","","","","","","","","","","","","","","","",""
"","fixation","","html-keyboard-response","220","1293996","0.0-149.0","0","0","ldc6S","Scenes","","null","","","null","","","","","","","","","","","","","","","","","","","","","","","","","","","","","","","","","","","","","","","","","","","",""
"","see_reward","","html-keyboard-response","221","1294767","0.0-150.0","0","0","ldc6S","Scenes","","770","","","32","","137","","11","","","","1","","","","","1","","","","","143","770","","","","","","","","","","","","","","","","","","","","","","","","",""
"","reward_outcome","","html-keyboard-response","222","1296769","0.0-151.0","0","0","ldc6S","Scenes","","936","","","38","","137","","11","","","","","","","","","","","","","","","","1","936","","","","","","","","","","","","","","","","","","","","","","",""
"","fixation","","html-keyboard-response","223","1297772","0.0-154.0","0","0","ldc6S","Scenes","","null","","","null","","","","","","","","","","","","","","","","","","","","","","","","","","","","","","","","","","","","","","","","","","","",""
"","see_reward","","html-keyboard-response","224","1298271","0.0-155.0","0","0","ldc6S","Scenes","","497","","","32","","136","","12","","","","1","","","","","1","","","","","154","497","","","","","","","","","","","","","","","","","","","","","","","","",""
"","reward_outcome","","html-keyboard-response","225","1300273","0.0-156.0","0","0","ldc6S","Scenes","","1086","","","38","","136","","12","","","","","","","","","","","","","","","","1","1086","","","","","","","","","","","","","","","","","","","","","","",""
"","fixation","","html-keyboard-response","226","1301277","0.0-159.0","0","0","ldc6S","Scenes","","null","","","null","","","","","","","","","","","","","","","","","","","","","","","","","","","","","","","","","","","","","","","","","","","",""
"","see_reward","","html-keyboard-response","227","1301791","0.0-160.0","0","0","ldc6S","Scenes","","513","","","32","","105","","13","","","","1","","","","","1","","","","","156","513","","","","","","","","","","","","","","","","","","","","","","","","",""
"","reward_outcome","","html-keyboard-response","228","1303793","0.0-161.0","0","0","ldc6S","Scenes","","1326","","","38","","105","","13","","","","","","","","","","","","","","","","1","1326","","","","","","","","","","","","","","","","","","","","","","",""
"","fixation","","html-keyboard-response","229","1304795","0.0-164.0","0","0","ldc6S","Scenes","","null","","","null","","","","","","","","","","","","","","","","","","","","","","","","","","","","","","","","","","","","","","","","","","","",""
"","see_reward","","html-keyboard-response","230","1305749","0.0-165.0","0","0","ldc6S","Scenes","","951","","","32","","105","","14","","","","1","","","","","1","","","","","156","951","","","","","","","","","","","","","","","","","","","","","","","","",""
"","reward_outcome","","html-keyboard-response","231","1307753","0.0-166.0","0","0","ldc6S","Scenes","","1224","","","38","","105","","14","","","","","","","","","","","","","","","","1","1224","","","","","","","","","","","","","","","","","","","","","","",""
"","fixation","","html-keyboard-response","232","1308755","0.0-169.0","0","0","ldc6S","Scenes","","null","","","null","","","","","","","","","","","","","","","","","","","","","","","","","","","","","","","","","","","","","","","","","","","",""
"","see_reward","","html-keyboard-response","233","1309761","0.0-170.0","0","0","ldc6S","Scenes","","1005","","","32","","128","","15","","","","-1","","","","","1","","","","","0","1005","","","","","","","","","","","","","","","","","","","","","","","","",""
"","reward_outcome","","html-keyboard-response","234","1311763","0.0-171.0","0","0","ldc6S","Scenes","","919","","","40","","128","","15","","","","","","","","","","","","","","","","-1","919","","","","","","","","","","","","","","","","","","","","","","",""
"","fixation","","html-keyboard-response","235","1312766","0.0-174.0","0","0","ldc6S","Scenes","","null","","","null","","","","","","","","","","","","","","","","","","","","","","","","","","","","","","","","","","","","","","","","","","","",""
"","see_reward","","html-keyboard-response","236","1313114","0.0-175.0","0","0","ldc6S","Scenes","","345","","","32","","139","","16","","","","-1","","","","","1","","","","","0","345","","","","","","","","","","","","","","","","","","","","","","","","",""
"","reward_outcome","","html-keyboard-response","237","1315116","0.0-176.0","0","0","ldc6S","Scenes","","1510","","","40","","139","","16","","","","","","","","","","","","","","","","-1","1510","","","","","","","","","","","","","","","","","","","","","","",""
"","fixation","","html-keyboard-response","238","1316118","0.0-179.0","0","0","ldc6S","Scenes","","null","","","null","","","","","","","","","","","","","","","","","","","","","","","","","","","","","","","","","","","","","","","","","","","",""
"","see_reward","","html-keyboard-response","239","1316602","0.0-180.0","0","0","ldc6S","Scenes","","482","","","32","","128","","17","","","","-1","","","","","1","","","","","0","482","","","","","","","","","","","","","","","","","","","","","","","","",""
"","reward_outcome","","html-keyboard-response","240","1318604","0.0-181.0","0","0","ldc6S","Scenes","","942","","","40","","128","","17","","","","","","","","","","","","","","","","-1","942","","","","","","","","","","","","","","","","","","","","","","",""
"","fixation","","html-keyboard-response","241","1319606","0.0-184.0","0","0","ldc6S","Scenes","","null","","","null","","","","","","","","","","","","","","","","","","","","","","","","","","","","","","","","","","","","","","","","","","","",""
"","see_reward","","html-keyboard-response","242","1320290","0.0-185.0","0","0","ldc6S","Scenes","","683","","","32","","137","","18","","","","1","","","","","1","","","","","143","683","","","","","","","","","","","","","","","","","","","","","","","","",""
"","reward_outcome","","html-keyboard-response","243","1322292","0.0-186.0","0","0","ldc6S","Scenes","","764","","","38","","137","","18","","","","","","","","","","","","","","","","1","764","","","","","","","","","","","","","","","","","","","","","","",""
"","fixation","","html-keyboard-response","244","1323295","0.0-189.0","0","0","ldc6S","Scenes","","null","","","null","","","","","","","","","","","","","","","","","","","","","","","","","","","","","","","","","","","","","","","","","","","",""
"","see_reward","","html-keyboard-response","245","1323781","0.0-190.0","0","0","ldc6S","Scenes","","485","","","32","","127","","19","","","","1","","","","","1","","","","","144","485","","","","","","","","","","","","","","","","","","","","","","","","",""
"","reward_outcome","","html-keyboard-response","246","1325784","0.0-191.0","0","0","ldc6S","Scenes","","649","","","38","","127","","19","","","","","","","","","","","","","","","","1","649","","","","","","","","","","","","","","","","","","","","","","",""
"","fixation","","html-keyboard-response","247","1326799","0.0-194.0","0","0","ldc6S","Scenes","","null","","","null","","","","","","","","","","","","","","","","","","","","","","","","","","","","","","","","","","","","","","","","","","","",""
"","see_reward","","html-keyboard-response","248","1327122","0.0-195.0","0","0","ldc6S","Scenes","","321","","","32","","127","","20","","","","1","","","","","1","","","","","144","321","","","","","","","","","","","","","","","","","","","","","","","","",""
"","reward_outcome","","html-keyboard-response","249","1329125","0.0-196.0","0","0","ldc6S","Scenes","","584","","","38","","127","","20","","","","","","","","","","","","","","","","1","584","","","","","","","","","","","","","","","","","","","","","","",""
"","fixation","","html-keyboard-response","250","1330128","0.0-199.0","0","0","ldc6S","Scenes","","null","","","null","","","","","","","","","","","","","","","","","","","","","","","","","","","","","","","","","","","","","","","","","","","",""
"","see_reward","","html-keyboard-response","251","1330415","0.0-200.0","0","0","ldc6S","Scenes","","284","","","32","","124","","21","","","","-1","","","","","1","","","","","0","284","","","","","","","","","","","","","","","","","","","","","","","","",""
"","reward_outcome","","html-keyboard-response","252","1332418","0.0-201.0","0","0","ldc6S","Scenes","","636","","","40","","124","","21","","","","","","","","","","","","","","","","-1","636","","","","","","","","","","","","","","","","","","","","","","",""
"","fixation","","html-keyboard-response","253","1333420","0.0-204.0","0","0","ldc6S","Scenes","","null","","","null","","","","","","","","","","","","","","","","","","","","","","","","","","","","","","","","","","","","","","","","","","","",""
"","see_reward","","html-keyboard-response","254","1334233","0.0-205.0","0","0","ldc6S","Scenes","","811","","","32","","138","","22","","","","-1","","","","","1","","","","","0","811","","","","","","","","","","","","","","","","","","","","","","","","",""
"","reward_outcome","","html-keyboard-response","255","1336236","0.0-206.0","0","0","ldc6S","Scenes","","609","","","40","","138","","22","","","","","","","","","","","","","","","","-1","609","","","","","","","","","","","","","","","","","","","","","","",""
"","fixation","","html-keyboard-response","256","1337238","0.0-209.0","0","0","ldc6S","Scenes","","null","","","null","","","","","","","","","","","","","","","","","","","","","","","","","","","","","","","","","","","","","","","","","","","",""
"","see_reward","","html-keyboard-response","257","1338010","0.0-210.0","0","0","ldc6S","Scenes","","771","","","32","","144","","23","","","","-1","","","","","1","","","","","0","771","","","","","","","","","","","","","","","","","","","","","","","","",""
"","reward_outcome","","html-keyboard-response","258","1340014","0.0-211.0","0","0","ldc6S","Scenes","","711","","","40","","144","","23","","","","","","","","","","","","","","","","-1","711","","","","","","","","","","","","","","","","","","","","","","",""
"","block_over","","html-keyboard-response","259","1342373","0.0-213.0-0.0","0","0","ldc6S","Scenes","","2358","","","78","","","","","","","","","","","","","","","","","","","","","","","","","","","","","","","","","","","","","","","","","","","",""
"","fixation","","html-keyboard-response","260","1343375","0.0-214.0","0","0","ldc6S","Scenes","","null","","","null","","","","","","","","","","","","","","","","","","","","","","","","","","","","","","","","","","","","","","","","","","","",""
"","see_reward","","html-keyboard-response","261","1344772","0.0-215.0","0","0","ldc6S","Scenes","","1394","","","32","","111","","24","","","","1","","","","","2","","","","","154","1394","","","","","","","","","","","","","","","","","","","","","","","","",""
"","reward_outcome","","html-keyboard-response","262","1346775","0.0-216.0","0","0","ldc6S","Scenes","","675","","","38","","111","","24","","","","","","","","","","","","","","","","1","675","","","","","","","","","","","","","","","","","","","","","","",""
"","fixation","","html-keyboard-response","263","1347778","0.0-219.0","0","0","ldc6S","Scenes","","null","","","null","","","","","","","","","","","","","","","","","","","","","","","","","","","","","","","","","","","","","","","","","","","",""
"","see_reward","","html-keyboard-response","264","1348042","0.0-220.0","0","0","ldc6S","Scenes","","263","","","32","","139","","25","","","","-1","","","","","2","","","","","0","263","","","","","","","","","","","","","","","","","","","","","","","","",""
"","reward_outcome","","html-keyboard-response","265","1350044","0.0-221.0","0","0","ldc6S","Scenes","","786","","","40","","139","","25","","","","","","","","","","","","","","","","-1","786","","","","","","","","","","","","","","","","","","","","","","",""
"","fixation","","html-keyboard-response","266","1351045","0.0-224.0","0","0","ldc6S","Scenes","","null","","","null","","","","","","","","","","","","","","","","","","","","","","","","","","","","","","","","","","","","","","","","","","","",""
"","see_reward","","html-keyboard-response","267","1351697","0.0-225.0","0","0","ldc6S","Scenes","","652","","","32","","128","","26","","","","-1","","","","","2","","","","","0","652","","","","","","","","","","","","","","","","","","","","","","","","",""
"","reward_outcome","","html-keyboard-response","268","1353703","0.0-226.0","0","0","ldc6S","Scenes","","1026","","","40","","128","","26","","","","","","","","","","","","","","","","-1","1026","","","","","","","","","","","","","","","","","","","","","","",""
"","fixation","","html-keyboard-response","269","1354706","0.0-229.0","0","0","ldc6S","Scenes","","null","","","null","","","","","","","","","","","","","","","","","","","","","","","","","","","","","","","","","","","","","","","","","","","",""
"","see_reward","","html-keyboard-response","270","1355765","0.0-230.0","0","0","ldc6S","Scenes","","1058","","","32","","128","","27","","","","-1","","","","","2","","","","","0","1058","","","","","","","","","","","","","","","","","","","","","","","","",""
"","reward_outcome","","html-keyboard-response","271","1357768","0.0-231.0","0","0","ldc6S","Scenes","","1252","","","40","","128","","27","","","","","","","","","","","","","","","","-1","1252","","","","","","","","","","","","","","","","","","","","","","",""
"","fixation","","html-keyboard-response","272","1358771","0.0-234.0","0","0","ldc6S","Scenes","","null","","","null","","","","","","","","","","","","","","","","","","","","","","","","","","","","","","","","","","","","","","","","","","","",""
"","see_reward","","html-keyboard-response","273","1360147","0.0-235.0","0","0","ldc6S","Scenes","","1374","","","32","","137","","28","","","","1","","","","","2","","","","","143","1374","","","","","","","","","","","","","","","","","","","","","","","","",""
"","reward_outcome","","html-keyboard-response","274","1362149","0.0-236.0","0","0","ldc6S","Scenes","","1492","","","38","","137","","28","","","","","","","","","","","","","","","","1","1492","","","","","","","","","","","","","","","","","","","","","","",""
"","fixation","","html-keyboard-response","275","1363151","0.0-239.0","0","0","ldc6S","Scenes","","null","","","null","","","","","","","","","","","","","","","","","","","","","","","","","","","","","","","","","","","","","","","","","","","",""
"","see_reward","","html-keyboard-response","276","1363592","0.0-240.0","0","0","ldc6S","Scenes","","439","","","32","","124","","29","","","","-1","","","","","2","","","","","0","439","","","","","","","","","","","","","","","","","","","","","","","","",""
"","reward_outcome","","html-keyboard-response","277","1365595","0.0-241.0","0","0","ldc6S","Scenes","","837","","","40","","124","","29","","","","","","","","","","","","","","","","-1","837","","","","","","","","","","","","","","","","","","","","","","",""
"","fixation","","html-keyboard-response","278","1366597","0.0-244.0","0","0","ldc6S","Scenes","","null","","","null","","","","","","","","","","","","","","","","","","","","","","","","","","","","","","","","","","","","","","","","","","","",""
"","see_reward","","html-keyboard-response","279","1367282","0.0-245.0","0","0","ldc6S","Scenes","","683","","","32","","137","","30","","","","1","","","","","2","","","","","143","683","","","","","","","","","","","","","","","","","","","","","","","","",""
"","reward_outcome","","html-keyboard-response","280","1369283","0.0-246.0","0","0","ldc6S","Scenes","","1411","","","38","","137","","30","","","","","","","","","","","","","","","","1","1411","","","","","","","","","","","","","","","","","","","","","","",""
"","fixation","","html-keyboard-response","281","1370286","0.0-249.0","0","0","ldc6S","Scenes","","null","","","null","","","","","","","","","","","","","","","","","","","","","","","","","","","","","","","","","","","","","","","","","","","",""
"","see_reward","","html-keyboard-response","282","1371186","0.0-250.0","0","0","ldc6S","Scenes","","899","","","32","","127","","31","","","","1","","","","","2","","","","","144","899","","","","","","","","","","","","","","","","","","","","","","","","",""
"","reward_outcome","","html-keyboard-response","283","1373190","0.0-251.0","0","0","ldc6S","Scenes","","1312","","","38","","127","","31","","","","","","","","","","","","","","","","1","1312","","","","","","","","","","","","","","","","","","","","","","",""
"","fixation","","html-keyboard-response","284","1374192","0.0-254.0","0","0","ldc6S","Scenes","","null","","","null","","","","","","","","","","","","","","","","","","","","","","","","","","","","","","","","","","","","","","","","","","","",""
"","see_reward","","html-keyboard-response","285","1374857","0.0-255.0","0","0","ldc6S","Scenes","","663","","","32","","139","","32","","","","-1","","","","","2","","","","","0","663","","","","","","","","","","","","","","","","","","","","","","","","",""
"","reward_outcome","","html-keyboard-response","286","1376860","0.0-256.0","0","0","ldc6S","Scenes","","null","","","null","","139","","32","","","","","","","","","","","","","","","","NaN","null","","","","","","","","","","","","","","","","","","","","","","",""
"","respond_faster","","html-keyboard-response","287","1378362","0.0-257.0-0.0","1","0","ldc6S","Scenes","","null","","","null","","","","","","","","","","","","","","","","","","","","","","","","","","","","","","","","","","","","","","","","","","","",""
"","fixation","","html-keyboard-response","288","1379363","0.0-259.0","0","0","ldc6S","Scenes","","null","","","null","","","","","","","","","","","","","","","","","","","","","","","","","","","","","","","","","","","","","","","","","","","",""
"","see_reward","","html-keyboard-response","289","1379794","0.0-260.0","0","0","ldc6S","Scenes","","430","","","32","","138","","33","","","","-1","","","","","2","","","","","0","430","","","","","","","","","","","","","","","","","","","","","","","","",""
"","reward_outcome","","html-keyboard-response","290","1381797","0.0-261.0","0","0","ldc6S","Scenes","","507","","","40","","138","","33","","","","","","","","","","","","","","","","-1","507","","","","","","","","","","","","","","","","","","","","","","",""
"","fixation","","html-keyboard-response","291","1382800","0.0-264.0","0","0","ldc6S","Scenes","","null","","","null","","","","","","","","","","","","","","","","","","","","","","","","","","","","","","","","","","","","","","","","","","","",""
"","see_reward","","html-keyboard-response","292","1383434","0.0-265.0","0","0","ldc6S","Scenes","","632","","","32","","111","","34","","","","1","","","","","2","","","","","154","632","","","","","","","","","","","","","","","","","","","","","","","","",""
"","reward_outcome","","html-keyboard-response","293","1385436","0.0-266.0","0","0","ldc6S","Scenes","","482","","","38","","111","","34","","","","","","","","","","","","","","","","1","482","","","","","","","","","","","","","","","","","","","","","","",""
"","fixation","","html-keyboard-response","294","1386439","0.0-269.0","0","0","ldc6S","Scenes","","null","","","null","","","","","","","","","","","","","","","","","","","","","","","","","","","","","","","","","","","","","","","","","","","",""
"","see_reward","","html-keyboard-response","295","1387291","0.0-270.0","0","0","ldc6S","Scenes","","851","","","32","","141","","35","","","","1","","","","","2","","","","","150","851","","","","","","","","","","","","","","","","","","","","","","","","",""
"","reward_outcome","","html-keyboard-response","296","1389294","0.0-271.0","0","0","ldc6S","Scenes","","763","","","38","","141","","35","","","","","","","","","","","","","","","","1","763","","","","","","","","","","","","","","","","","","","","","","",""
"","fixation","","html-keyboard-response","297","1390297","0.0-274.0","0","0","ldc6S","Scenes","","null","","","null","","","","","","","","","","","","","","","","","","","","","","","","","","","","","","","","","","","","","","","","","","","",""
"","see_reward","","html-keyboard-response","298","1390684","0.0-275.0","0","0","ldc6S","Scenes","","385","","","32","","105","","36","","","","1","","","","","2","","","","","156","385","","","","","","","","","","","","","","","","","","","","","","","","",""
"","reward_outcome","","html-keyboard-response","299","1392686","0.0-276.0","0","0","ldc6S","Scenes","","706","","","38","","105","","36","","","","","","","","","","","","","","","","1","706","","","","","","","","","","","","","","","","","","","","","","",""
"","fixation","","html-keyboard-response","300","1393688","0.0-279.0","0","0","ldc6S","Scenes","","null","","","null","","","","","","","","","","","","","","","","","","","","","","","","","","","","","","","","","","","","","","","","","","","",""
"","see_reward","","html-keyboard-response","301","1393991","0.0-280.0","0","0","ldc6S","Scenes","","302","","","32","","140","","37","","","","-1","","","","","2","","","","","0","302","","","","","","","","","","","","","","","","","","","","","","","","",""
"","reward_outcome","","html-keyboard-response","302","1395994","0.0-281.0","0","0","ldc6S","Scenes","","589","","","40","","140","","37","","","","","","","","","","","","","","","","-1","589","","","","","","","","","","","","","","","","","","","","","","",""
"","fixation","","html-keyboard-response","303","1396997","0.0-284.0","0","0","ldc6S","Scenes","","null","","","null","","","","","","","","","","","","","","","","","","","","","","","","","","","","","","","","","","","","","","","","","","","",""
"","see_reward","","html-keyboard-response","304","1397275","0.0-285.0","0","0","ldc6S","Scenes","","275","","","32","","124","","38","","","","-1","","","","","2","","","","","0","275","","","","","","","","","","","","","","","","","","","","","","","","",""
"","reward_outcome","","html-keyboard-response","305","1399276","0.0-286.0","0","0","ldc6S","Scenes","","634","","","40","","124","","38","","","","","","","","","","","","","","","","-1","634","","","","","","","","","","","","","","","","","","","","","","",""
"","fixation","","html-keyboard-response","306","1400278","0.0-289.0","0","0","ldc6S","Scenes","","null","","","null","","","","","","","","","","","","","","","","","","","","","","","","","","","","","","","","","","","","","","","","","","","",""
"","see_reward","","html-keyboard-response","307","1400912","0.0-290.0","0","0","ldc6S","Scenes","","633","","","32","","144","","39","","","","-1","","","","","2","","","","","0","633","","","","","","","","","","","","","","","","","","","","","","","","",""
"","reward_outcome","","html-keyboard-response","308","1402914","0.0-291.0","0","0","ldc6S","Scenes","","597","","","40","","144","","39","","","","","","","","","","","","","","","","-1","597","","","","","","","","","","","","","","","","","","","","","","",""
"","fixation","","html-keyboard-response","309","1403916","0.0-294.0","0","0","ldc6S","Scenes","","null","","","null","","","","","","","","","","","","","","","","","","","","","","","","","","","","","","","","","","","","","","","","","","","",""
"","see_reward","","html-keyboard-response","310","1404612","0.0-295.0","0","0","ldc6S","Scenes","","696","","","32","","144","","40","","","","-1","","","","","2","","","","","0","696","","","","","","","","","","","","","","","","","","","","","","","","",""
"","reward_outcome","","html-keyboard-response","311","1406614","0.0-296.0","0","0","ldc6S","Scenes","","556","","","40","","144","","40","","","","","","","","","","","","","","","","-1","556","","","","","","","","","","","","","","","","","","","","","","",""
"","fixation","","html-keyboard-response","312","1407617","0.0-299.0","0","0","ldc6S","Scenes","","null","","","null","","","","","","","","","","","","","","","","","","","","","","","","","","","","","","","","","","","","","","","","","","","",""
"","see_reward","","html-keyboard-response","313","1408004","0.0-300.0","0","0","ldc6S","Scenes","","385","","","32","","136","","41","","","","1","","","","","2","","","","","154","385","","","","","","","","","","","","","","","","","","","","","","","","",""
"","reward_outcome","","html-keyboard-response","314","1410006","0.0-301.0","0","0","ldc6S","Scenes","","632","","","38","","136","","41","","","","","","","","","","","","","","","","1","632","","","","","","","","","","","","","","","","","","","","","","",""
"","fixation","","html-keyboard-response","315","1411008","0.0-304.0","0","0","ldc6S","Scenes","","null","","","null","","","","","","","","","","","","","","","","","","","","","","","","","","","","","","","","","","","","","","","","","","","",""
"","see_reward","","html-keyboard-response","316","1411300","0.0-305.0","0","0","ldc6S","Scenes","","289","","","32","","138","","42","","","","-1","","","","","2","","","","","0","289","","","","","","","","","","","","","","","","","","","","","","","","",""
"","reward_outcome","","html-keyboard-response","317","1413302","0.0-306.0","0","0","ldc6S","Scenes","","594","","","40","","138","","42","","","","","","","","","","","","","","","","-1","594","","","","","","","","","","","","","","","","","","","","","","",""
"","fixation","","html-keyboard-response","318","1414304","0.0-309.0","0","0","ldc6S","Scenes","","null","","","null","","","","","","","","","","","","","","","","","","","","","","","","","","","","","","","","","","","","","","","","","","","",""
"","see_reward","","html-keyboard-response","319","1414674","0.0-310.0","0","0","ldc6S","Scenes","","367","","","32","","136","","43","","","","1","","","","","2","","","","","154","367","","","","","","","","","","","","","","","","","","","","","","","","",""
"","reward_outcome","","html-keyboard-response","320","1416678","0.0-311.0","0","0","ldc6S","Scenes","","1524","","","38","","136","","43","","","","","","","","","","","","","","","","1","1524","","","","","","","","","","","","","","","","","","","","","","",""
"","fixation","","html-keyboard-response","321","1417681","0.0-314.0","0","0","ldc6S","Scenes","","null","","","null","","","","","","","","","","","","","","","","","","","","","","","","","","","","","","","","","","","","","","","","","","","",""
"","see_reward","","html-keyboard-response","322","1418291","0.0-315.0","0","0","ldc6S","Scenes","","609","","","32","","140","","44","","","","-1","","","","","2","","","","","0","609","","","","","","","","","","","","","","","","","","","","","","","","",""
"","reward_outcome","","html-keyboard-response","323","1420294","0.0-316.0","0","0","ldc6S","Scenes","","837","","","40","","140","","44","","","","","","","","","","","","","","","","-1","837","","","","","","","","","","","","","","","","","","","","","","",""
"","fixation","","html-keyboard-response","324","1421296","0.0-319.0","0","0","ldc6S","Scenes","","null","","","null","","","","","","","","","","","","","","","","","","","","","","","","","","","","","","","","","","","","","","","","","","","",""
"","see_reward","","html-keyboard-response","325","1421758","0.0-320.0","0","0","ldc6S","Scenes","","460","","","32","","105","","45","","","","1","","","","","2","","","","","156","460","","","","","","","","","","","","","","","","","","","","","","","","",""
"","reward_outcome","","html-keyboard-response","326","1423761","0.0-321.0","0","0","ldc6S","Scenes","","1214","","","38","","105","","45","","","","","","","","","","","","","","","","1","1214","","","","","","","","","","","","","","","","","","","","","","",""
"","fixation","","html-keyboard-response","327","1424763","0.0-324.0","0","0","ldc6S","Scenes","","null","","","null","","","","","","","","","","","","","","","","","","","","","","","","","","","","","","","","","","","","","","","","","","","",""
"","see_reward","","html-keyboard-response","328","1425100","0.0-325.0","0","0","ldc6S","Scenes","","337","","","32","","127","","46","","","","1","","","","","2","","","","","144","337","","","","","","","","","","","","","","","","","","","","","","","","",""
"","reward_outcome","","html-keyboard-response","329","1427103","0.0-326.0","0","0","ldc6S","Scenes","","1591","","","38","","127","","46","","","","","","","","","","","","","","","","1","1591","","","","","","","","","","","","","","","","","","","","","","",""
"","fixation","","html-keyboard-response","330","1428105","0.0-329.0","0","0","ldc6S","Scenes","","null","","","null","","","","","","","","","","","","","","","","","","","","","","","","","","","","","","","","","","","","","","","","","","","",""
"","see_reward","","html-keyboard-response","331","1428784","0.0-330.0","0","0","ldc6S","Scenes","","676","","","32","","141","","47","","","","1","","","","","2","","","","","150","676","","","","","","","","","","","","","","","","","","","","","","","","",""
"","reward_outcome","","html-keyboard-response","332","1430786","0.0-331.0","0","0","ldc6S","Scenes","","1958","","","38","","141","","47","","","","","","","","","","","","","","","","1","1958","","","","","","","","","","","","","","","","","","","","","","",""
"","block_over","","html-keyboard-response","333","1433241","0.0-333.0-0.0","0","0","ldc6S","Scenes","","2454","","","78","","","","","","","","","","","","","","","","","","","","","","","","","","","","","","","","","","","","","","","","","","","",""
"","fixation","","html-keyboard-response","334","1434244","0.0-334.0","0","0","ldc6S","Scenes","","null","","","null","","","","","","","","","","","","","","","","","","","","","","","","","","","","","","","","","","","","","","","","","","","",""
"","see_reward","","html-keyboard-response","335","1434951","0.0-335.0","0","0","ldc6S","Scenes","","704","","","32","","105","","48","","","","1","","","","","3","","","","","156","704","","","","","","","","","","","","","","","","","","","","","","","","",""
"","reward_outcome","","html-keyboard-response","336","1436954","0.0-336.0","0","0","ldc6S","Scenes","","683","","","38","","105","","48","","","","","","","","","","","","","","","","1","683","","","","","","","","","","","","","","","","","","","","","","",""
"","fixation","","html-keyboard-response","337","1437957","0.0-339.0","0","0","ldc6S","Scenes","","null","","","null","","","","","","","","","","","","","","","","","","","","","","","","","","","","","","","","","","","","","","","","","","","",""
"","see_reward","","html-keyboard-response","338","1438211","0.0-340.0","0","0","ldc6S","Scenes","","253","","","32","","127","","49","","","","1","","","","","3","","","","","144","253","","","","","","","","","","","","","","","","","","","","","","","","",""
"","reward_outcome","","html-keyboard-response","339","1440213","0.0-341.0","0","0","ldc6S","Scenes","","1210","","","38","","127","","49","","","","","","","","","","","","","","","","1","1210","","","","","","","","","","","","","","","","","","","","","","",""
"","fixation","","html-keyboard-response","340","1441214","0.0-344.0","0","0","ldc6S","Scenes","","null","","","null","","","","","","","","","","","","","","","","","","","","","","","","","","","","","","","","","","","","","","","","","","","",""
"","see_reward","","html-keyboard-response","341","1441527","0.0-345.0","0","0","ldc6S","Scenes","","311","","","32","","139","","50","","","","-1","","","","","3","","","","","0","311","","","","","","","","","","","","","","","","","","","","","","","","",""
"","reward_outcome","","html-keyboard-response","342","1443529","0.0-346.0","0","0","ldc6S","Scenes","","749","","","40","","139","","50","","","","","","","","","","","","","","","","-1","749","","","","","","","","","","","","","","","","","","","","","","",""
"","fixation","","html-keyboard-response","343","1444531","0.0-349.0","0","0","ldc6S","Scenes","","null","","","null","","","","","","","","","","","","","","","","","","","","","","","","","","","","","","","","","","","","","","","","","","","",""
"","see_reward","","html-keyboard-response","344","1444795","0.0-350.0","0","0","ldc6S","Scenes","","262","","","32","","137","","51","","","","1","","","","","3","","","","","143","262","","","","","","","","","","","","","","","","","","","","","","","","",""
"","reward_outcome","","html-keyboard-response","345","1446798","0.0-351.0","0","0","ldc6S","Scenes","","752","","","38","","137","","51","","","","","","","","","","","","","","","","1","752","","","","","","","","","","","","","","","","","","","","","","",""
"","fixation","","html-keyboard-response","346","1447801","0.0-354.0","0","0","ldc6S","Scenes","","null","","","null","","","","","","","","","","","","","","","","","","","","","","","","","","","","","","","","","","","","","","","","","","","",""
"","see_reward","","html-keyboard-response","347","1448041","0.0-355.0","0","0","ldc6S","Scenes","","238","","","32","","138","","52","","","","-1","","","","","3","","","","","0","238","","","","","","","","","","","","","","","","","","","","","","","","",""
"","reward_outcome","","html-keyboard-response","348","1450043","0.0-356.0","0","0","ldc6S","Scenes","","577","","","40","","138","","52","","","","","","","","","","","","","","","","-1","577","","","","","","","","","","","","","","","","","","","","","","",""
"","fixation","","html-keyboard-response","349","1451045","0.0-359.0","0","0","ldc6S","Scenes","","null","","","null","","","","","","","","","","","","","","","","","","","","","","","","","","","","","","","","","","","","","","","","","","","",""
