"success","ttype","start_time","trial_type","trial_index","time_elapsed","internal_node_id","warning","missed_checkup","PID","stim_type","view_history","rt","responses","category","repeat_instructions","key_press","response","stimulus_id","painting","index","stimulus_left","stimulus_right","explain_trial","reward_type","rating_left","rating_right","painting_left","painting_right","block","left_chosen","chosen_obj","unchosen_obj","explain_response","reward_amount","see_reward_rt","register_reward_response","register_reward_rt","deliberation_reward_tally","stimulus_left_deliberation_ind","stimulus_right_deliberation_ind","chosen_trial","gain_left","higher_outcome_chosen","old_pair","chosen_object","rt_pairs","left_object_chosen","rt_object","old_response","new_rating","deliberated_stim","initial_rating","outcome_eval_rt","outcome_eval_response","outcome_eval_gain","outcome_eval_acc","preamble","outcome_eval_confidence","outcome_eval_confidence_rt","total_reward_tally"
"true","full_screen","d01182023hr1932","fullscreen","0","12732","0.0-0.0","0","0","AxP3Q","People","","","","","","","","","","","","","","","","","","","","","","","","","","","","","","","","","","","","","","","","","","","","","","","","","",""
"","rating_instructions","","instructions","1","43332","0.0-1.0-0.0","0","0","AxP3Q","People","[{""page_index"":0,""viewing_time"":27895},{""page_index"":1,""viewing_time"":2690}]","30588","","","","","","","","","","","","","","","","","","","","","","","","","","","","","","","","","","","","","","","","","","","","","","","",""
"","","","survey-multi-choice","2","48648","0.0-1.0-1.0","0","0","AxP3Q","People","","5303","{""Q0"":""True"",""Q1"":""Mouse""}","rating_comprehension_check","0","","","","","","","","","","","","","","","","","","","","","","","","","","","","","","","","","","","","","","","","","","","","",""
"","start_phase","","html-keyboard-response","3","50674","0.0-2.0","0","0","AxP3Q","People","","2016","","","","78","","","","","","","","","","","","","","","","","","","","","","","","","","","","","","","","","","","","","","","","","","","",""
"","rating","","html-slider-response","4","56029","0.0-3.0","0","0","AxP3Q","People","","5334","","","","","78","24","joel-mott-LaK153ghdig-unsplash.jpg","0","","","","","","","","","","","","","","","","","","","","","","","","","","","","","","","","","","","","","","","",""
"","rating","","html-slider-response","5","60070","0.0-4.0","0","0","AxP3Q","People","","4030","","","","","63","8","bruce-dixon-3M9WJQVHzog-unsplash.jpg","1","","","","","","","","","","","","","","","","","","","","","","","","","","","","","","","","","","","","","","","",""
"","rating","","html-slider-response","6","72626","0.0-5.0","0","0","AxP3Q","People","","12544","","","","","64","37","pavel-anoshin-d0peGya6R5Y-unsplash.jpg","2","","","","","","","","","","","","","","","","","","","","","","","","","","","","","","","","","","","","","","","",""
"","rating","","html-slider-response","7","80923","0.0-6.0","0","0","AxP3Q","People","","8273","","","","","67","9","carlos-andres-gomez-vJuk8Y86mRw-unsplash.jpg","3","","","","","","","","","","","","","","","","","","","","","","","","","","","","","","","","","","","","","","","",""
"","rating","","html-slider-response","8","97795","0.0-7.0","0","0","AxP3Q","People","","16859","","","","","68","12","daniel-rigdon-dXmXKPP2L4E-unsplash.jpg","4","","","","","","","","","","","","","","","","","","","","","","","","","","","","","","","","","","","","","","","",""
"","rating","","html-slider-response","9","125229","0.0-8.0","0","0","AxP3Q","People","","27425","","","","","70","44","rikonavt-HQjfrvdTfak-unsplash.jpg","5","","","","","","","","","","","","","","","","","","","","","","","","","","","","","","","","","","","","","","","",""
"","rating","","html-slider-response","10","139090","0.0-9.0","0","0","AxP3Q","People","","13845","","","","","68","19","ha-nguy-n-OFSQ6bHjFjs-unsplash.jpg","6","","","","","","","","","","","","","","","","","","","","","","","","","","","","","","","","","","","","","","","",""
"","rating","","html-slider-response","11","143748","0.0-10.0","0","0","AxP3Q","People","","4651","","","","","36","11","christian-ferrer-8vT-DgHZDG4-unsplash.jpg","7","","","","","","","","","","","","","","","","","","","","","","","","","","","","","","","","","","","","","","","",""
"","rating","","html-slider-response","12","161419","0.0-11.0","0","0","AxP3Q","People","","17662","","","","","18","15","gabriel-silverio-u3WmDyKGsrY-unsplash.jpg","8","","","","","","","","","","","","","","","","","","","","","","","","","","","","","","","","","","","","","","","",""
"","rating","","html-slider-response","13","166699","0.0-12.0","0","0","AxP3Q","People","","5269","","","","","31","32","nathan-dumlao-ger61_TX6oI-unsplash.jpg","9","","","","","","","","","","","","","","","","","","","","","","","","","","","","","","","","","","","","","","","",""
"","rating","","html-slider-response","14","170246","0.0-13.0","0","0","AxP3Q","People","","3539","","","","","67","35","oliver-ragfelt-khV4fTy6-D8-unsplash.jpg","10","","","","","","","","","","","","","","","","","","","","","","","","","","","","","","","","","","","","","","","",""
"","rating","","html-slider-response","15","175917","0.0-14.0","0","0","AxP3Q","People","","5664","","","","","59","39","philip-martin-5aGUyCW_PJw-unsplash.jpg","11","","","","","","","","","","","","","","","","","","","","","","","","","","","","","","","","","","","","","","","",""
"","rating","","html-slider-response","16","180530","0.0-15.0","0","0","AxP3Q","People","","4605","","","","","88","17","gleb-lukomets-paBzWCPN23k-unsplash.jpg","12","","","","","","","","","","","","","","","","","","","","","","","","","","","","","","","","","","","","","","","",""
"","rating","","html-slider-response","17","185016","0.0-16.0","0","0","AxP3Q","People","","4478","","","","","63","45","sarah-noltner-pL5ZzPp1zqg-unsplash.jpg","13","","","","","","","","","","","","","","","","","","","","","","","","","","","","","","","","","","","","","","","",""
"","rating","","html-slider-response","18","189668","0.0-17.0","0","0","AxP3Q","People","","4646","","","","","65","21","jessica-felicio-_cvwXhGqG-o-unsplash.jpg","14","","","","","","","","","","","","","","","","","","","","","","","","","","","","","","","","","","","","","","","",""
"","rating","","html-slider-response","19","194526","0.0-18.0","0","0","AxP3Q","People","","4853","","","","","99","43","raamin-ka-0qJBEzudn5E-unsplash.jpg","15","","","","","","","","","","","","","","","","","","","","","","","","","","","","","","","","","","","","","","","",""
"","rating","","html-slider-response","20","200560","0.0-19.0","0","0","AxP3Q","People","","6024","","","","","63","10","charles-etoroma-95UF6LXe-Lo-unsplash.jpg","16","","","","","","","","","","","","","","","","","","","","","","","","","","","","","","","","","","","","","","","",""
"","rating","","html-slider-response","21","206760","0.0-20.0","0","0","AxP3Q","People","","6192","","","","","30","13","erik-lucatero-d2MSDujJl2g-unsplash.jpg","17","","","","","","","","","","","","","","","","","","","","","","","","","","","","","","","","","","","","","","","",""
"","rating","","html-slider-response","22","212147","0.0-21.0","0","0","AxP3Q","People","","5379","","","","","72","31","mathilda-khoo-vLR0YP_otCo-unsplash.jpg","18","","","","","","","","","","","","","","","","","","","","","","","","","","","","","","","","","","","","","","","",""
"","rating","","html-slider-response","23","216968","0.0-22.0","0","0","AxP3Q","People","","4814","","","","","35","16","giano-currie-5-9YOsmf8IQ-unsplash.jpg","19","","","","","","","","","","","","","","","","","","","","","","","","","","","","","","","","","","","","","","","",""
"","rating","","html-slider-response","24","224317","0.0-23.0","0","0","AxP3Q","People","","7342","","","","","65","47","tyler-nix-ZGa9d1a_4tA-unsplash.jpg","20","","","","","","","","","","","","","","","","","","","","","","","","","","","","","","","","","","","","","","","",""
"","rating","","html-slider-response","25","230952","0.0-24.0","0","0","AxP3Q","People","","6632","","","","","57","0","abstral-official-cyOKLSgkgCE-unsplash.jpg","21","","","","","","","","","","","","","","","","","","","","","","","","","","","","","","","","","","","","","","","",""
"","rating","","html-slider-response","26","253274","0.0-25.0","0","0","AxP3Q","People","","22292","","","","","97","3","art-hauntington-jzY0KRJopEI-unsplash.jpg","22","","","","","","","","","","","","","","","","","","","","","","","","","","","","","","","","","","","","","","","",""
"","rating","","html-slider-response","27","268985","0.0-26.0","0","0","AxP3Q","People","","15699","","","","","36","18","good-faces-xmSWVeGEnJw-unsplash.jpg","23","","","","","","","","","","","","","","","","","","","","","","","","","","","","","","","","","","","","","","","",""
"","rating","","html-slider-response","28","288731","0.0-27.0","0","0","AxP3Q","People","","19711","","","","","61","7","brooke-cagle-HRZUzoX1e6w-unsplash.jpg","24","","","","","","","","","","","","","","","","","","","","","","","","","","","","","","","","","","","","","","","",""
"","rating","","html-slider-response","29","310832","0.0-28.0","0","0","AxP3Q","People","","22092","","","","","77","6","ben-o-bro-C5XyLljkMrY-unsplash.jpg","25","","","","","","","","","","","","","","","","","","","","","","","","","","","","","","","","","","","","","","","",""
"","rating","","html-slider-response","30","315670","0.0-29.0","0","0","AxP3Q","People","","4828","","","","","32","2","arjunsyah-TBUA5KHJn6k-unsplash.jpg","26","","","","","","","","","","","","","","","","","","","","","","","","","","","","","","","","","","","","","","","",""
"","rating","","html-slider-response","31","320239","0.0-30.0","0","0","AxP3Q","People","","4562","","","","","78","30","matheus-ferrero-pg_WCHWSdT8-unsplash.jpg","27","","","","","","","","","","","","","","","","","","","","","","","","","","","","","","","","","","","","","","","",""
"","rating","","html-slider-response","32","328689","0.0-31.0","0","0","AxP3Q","People","","8441","","","","","30","41","prince-akachi-i2hoD-C2RUA-unsplash.jpg","28","","","","","","","","","","","","","","","","","","","","","","","","","","","","","","","","","","","","","","","",""
"","rating","","html-slider-response","33","332596","0.0-32.0","0","0","AxP3Q","People","","3900","","","","","32","20","houcine-ncib-B4TjXnI0Y2c-unsplash.jpg","29","","","","","","","","","","","","","","","","","","","","","","","","","","","","","","","","","","","","","","","",""
"","rating","","html-slider-response","34","337133","0.0-33.0","0","0","AxP3Q","People","","4526","","","","","91","46","stefan-stefancik-QXevDflbl8A-unsplash.jpg","30","","","","","","","","","","","","","","","","","","","","","","","","","","","","","","","","","","","","","","","",""
"","rating","","html-slider-response","35","343030","0.0-34.0","0","0","AxP3Q","People","","5886","","","","","39","42","prince-akachi-l3IHXOdMyHQ-unsplash.jpg","31","","","","","","","","","","","","","","","","","","","","","","","","","","","","","","","","","","","","","","","",""
"","rating","","html-slider-response","36","347868","0.0-35.0","0","0","AxP3Q","People","","4831","","","","","41","23","joanna-nix-walkup-H4fEMshfwTE-unsplash.jpg","32","","","","","","","","","","","","","","","","","","","","","","","","","","","","","","","","","","","","","","","",""
"","rating","","html-slider-response","37","353418","0.0-36.0","0","0","AxP3Q","People","","5543","","","","","69","28","justin-chen-J7Cf1Gch49E-unsplash.jpg","33","","","","","","","","","","","","","","","","","","","","","","","","","","","","","","","","","","","","","","","",""
"","rating","","html-slider-response","38","358198","0.0-37.0","0","0","AxP3Q","People","","4764","","","","","90","33","olena-sergienko-0TSd6uCKTKc-unsplash.jpg","34","","","","","","","","","","","","","","","","","","","","","","","","","","","","","","","","","","","","","","","",""
"","rating","","html-slider-response","39","363558","0.0-38.0","0","0","AxP3Q","People","","5350","","","","","35","14","freddy-kearney-o-ioeoATbIM-unsplash.jpg","35","","","","","","","","","","","","","","","","","","","","","","","","","","","","","","","","","","","","","","","",""
"","rating","","html-slider-response","40","367879","0.0-39.0","0","0","AxP3Q","People","","4313","","","","","66","48","velizar-ivanov-7ktP9yZA1g4-unsplash.jpg","36","","","","","","","","","","","","","","","","","","","","","","","","","","","","","","","","","","","","","","","",""
"","rating","","html-slider-response","41","373037","0.0-40.0","0","0","AxP3Q","People","","5149","","","","","91","40","prince-akachi-4Yv84VgQkRM-unsplash.jpg","37","","","","","","","","","","","","","","","","","","","","","","","","","","","","","","","","","","","","","","","",""
"","rating","","html-slider-response","42","377787","0.0-41.0","0","0","AxP3Q","People","","4741","","","","","97","49","vicky-hladynets-_gDoyVv5F4c-unsplash.jpg","38","","","","","","","","","","","","","","","","","","","","","","","","","","","","","","","","","","","","","","","",""
"","rating","","html-slider-response","43","382322","0.0-42.0","0","0","AxP3Q","People","","4523","","","","","37","26","juri-gianfrancesco-9EZadYaMzk4-unsplash.jpg","39","","","","","","","","","","","","","","","","","","","","","","","","","","","","","","","","","","","","","","","",""
"","rating","","html-slider-response","44","387077","0.0-43.0","0","0","AxP3Q","People","","4748","","","","","80","38","petr-sevcovic-HzDF-rxlSeM-unsplash.jpg","40","","","","","","","","","","","","","","","","","","","","","","","","","","","","","","","","","","","","","","","",""
"","rating","","html-slider-response","45","391228","0.0-44.0","0","0","AxP3Q","People","","4142","","","","","20","29","leilani-angel-K84vnnzxmTQ-unsplash.jpg","41","","","","","","","","","","","","","","","","","","","","","","","","","","","","","","","","","","","","","","","",""
"","rating","","html-slider-response","46","396911","0.0-45.0","0","0","AxP3Q","People","","5673","","","","","72","34","oliver-johnson-1TUIcKob7Zs-unsplash.jpg","42","","","","","","","","","","","","","","","","","","","","","","","","","","","","","","","","","","","","","","","",""
"","rating","","html-slider-response","47","402031","0.0-46.0","0","0","AxP3Q","People","","5109","","","","","31","22","jessica-radanavong-mrYkTuAesKE-unsplash.jpg","43","","","","","","","","","","","","","","","","","","","","","","","","","","","","","","","","","","","","","","","",""
"","rating","","html-slider-response","48","407628","0.0-47.0","0","0","AxP3Q","People","","5580","","","","","35","36","ospan-ali-mGdA2fzjWLo-unsplash.jpg","44","","","","","","","","","","","","","","","","","","","","","","","","","","","","","","","","","","","","","","","",""
"","rating","","html-slider-response","49","412586","0.0-48.0","0","0","AxP3Q","People","","4944","","","","","67","1","aiony-haust-jmATI5Q_YgY-unsplash.jpg","45","","","","","","","","","","","","","","","","","","","","","","","","","","","","","","","","","","","","","","","",""
"","rating","","html-slider-response","50","416758","0.0-49.0","0","0","AxP3Q","People","","4160","","","","","28","4","barna-bartis-2x3vfVxwR7o-unsplash.jpg","46","","","","","","","","","","","","","","","","","","","","","","","","","","","","","","","","","","","","","","","",""
"","rating","","html-slider-response","51","419798","0.0-50.0","0","0","AxP3Q","People","","3028","","","","","65","25","joseph-gonzalez-iFgRcqHznqg-unsplash.jpg","47","","","","","","","","","","","","","","","","","","","","","","","","","","","","","","","","","","","","","","","",""
"","rating","","html-slider-response","52","423355","0.0-51.0","0","0","AxP3Q","People","","3546","","","","","79","27","jurica-koletic-7YVZYZeITc8-unsplash.jpg","48","","","","","","","","","","","","","","","","","","","","","","","","","","","","","","","","","","","","","","","",""
"","rating","","html-slider-response","53","427051","0.0-52.0","0","0","AxP3Q","People","","3688","","","","","76","5","batel-studio-ttSRjiYG_WM-unsplash.jpg","49","","","","","","","","","","","","","","","","","","","","","","","","","","","","","","","","","","","","","","","",""
"","deliberation_instructions","","instructions","54","464933","0.0-53.0-0.0","0","0","AxP3Q","People","[{""page_index"":0,""viewing_time"":8002},{""page_index"":1,""viewing_time"":17554},{""page_index"":2,""viewing_time"":2321},{""page_index"":3,""viewing_time"":8150},{""page_index"":4,""viewing_time"":1839}]","37867","","","","","","","","","","","","","","","","","","","","","","","","","","","","","","","","","","","","","","","","","","","","","","","",""
"","","","survey-multi-choice","55","484662","0.0-53.0-1.0","0","0","AxP3Q","People","","19712","{""Q0"":""True"",""Q1"":""True"",""Q2"":""Consider carefully and take your time (up to 10 seconds)"",""Q3"":""True"",""Q4"":""D""}","deliberation_comprehension_check","0","","","","","","","","","","","","","","","","","","","","","","","","","","","","","","","","","","","","","","","","","","","","",""
"","start_phase","","html-keyboard-response","56","487617","0.0-54.0","0","0","AxP3Q","People","","2949","","","","78","","","","","","","","","","","","","","","","","","","","","","","","","","","","","","","","","","","","","","","","","","","",""
"","first_deliberation_block","","html-keyboard-response","57","490852","0.0-55.0","0","0","AxP3Q","People","","3218","","","","78","","","","","","","","","","","","","","","","","","","","","","","","","","","","","","","","","","","","","","","","","","","",""
"","fixation","","html-keyboard-response","58","491863","0.0-56.0-0.0","0","0","AxP3Q","People","","null","","","","null","","","","","","","","","","","","","","","","","","","","","","","","","","","","","","","","","","","","","","","","","","","",""
"","deliberation","","html-keyboard-response","59","494619","0.0-56.0-1.0","0","0","AxP3Q","People","","2749","","","","68","","","","0","9","0","1","1","67","57","carlos-andres-gomez-vJuk8Y86mRw-unsplash.jpg","abstral-official-cyOKLSgkgCE-unsplash.jpg","1","1","9","0","","","","","","","","","","","","","","","","","","","","","","","","","","","",""
"","choice_confirmation","","html-keyboard-response","60","495126","0.0-56.0-2.0-0.0","0","0","AxP3Q","People","","null","","","","null","","","","0","9","0","","","","","","","","","","","","","","","","","","","","","","","","","","","","","","","","","","","","","",""
"","explain_trial","","survey-text","61","522348","0.0-56.0-5.0-0.0","0","0","AxP3Q","People","","27198","{""Q0"":""Happy""}","","","","","","","0","9","0","","","","","","","","","","","{""Q0"":""Happy""}","","","","","","","","","","","","","","","","","","","","","","","","","","",""
"","fixation","","html-keyboard-response","62","523392","0.0-57.0-0.0","0","0","AxP3Q","People","","null","","","","null","","","","","","","","","","","","","","","","","","","","","","","","","","","","","","","","","","","","","","","","","","","",""
"","deliberation","","html-keyboard-response","63","525724","0.0-57.0-1.0","0","0","AxP3Q","People","","2318","","","","75","","","","1","47","25","0","1","65","65","tyler-nix-ZGa9d1a_4tA-unsplash.jpg","joseph-gonzalez-iFgRcqHznqg-unsplash.jpg","1","0","25","47","","","","","","","","","","","","","","","","","","","","","","","","","","","",""
"","choice_confirmation","","html-keyboard-response","64","526230","0.0-57.0-2.0-0.0","0","0","AxP3Q","People","","null","","","","null","","","","1","47","25","","","","","","","","","","","","","","","","","","","","","","","","","","","","","","","","","","","","","",""
"","fixation","","html-keyboard-response","65","527243","0.0-58.0-0.0","0","0","AxP3Q","People","","null","","","","null","","","","","","","","","","","","","","","","","","","","","","","","","","","","","","","","","","","","","","","","","","","",""
"","deliberation","","html-keyboard-response","66","530454","0.0-58.0-1.0","0","0","AxP3Q","People","","3203","","","","75","","","","2","8","34","1","1","63","72","bruce-dixon-3M9WJQVHzog-unsplash.jpg","oliver-johnson-1TUIcKob7Zs-unsplash.jpg","1","0","34","8","","","","","","","","","","","","","","","","","","","","","","","","","","","",""
"","choice_confirmation","","html-keyboard-response","67","531050","0.0-58.0-2.0-0.0","0","0","AxP3Q","People","","null","","","","null","","","","2","8","34","","","","","","","","","","","","","","","","","","","","","","","","","","","","","","","","","","","","","",""
"","explain_trial","","survey-text","68","540237","0.0-58.0-5.0-0.0","0","0","AxP3Q","People","","9161","{""Q0"":""Angry""}","","","","","","","2","8","34","","","","","","","","","","","{""Q0"":""Angry""}","","","","","","","","","","","","","","","","","","","","","","","","","","",""
"","fixation","","html-keyboard-response","69","541245","0.0-59.0-0.0","0","0","AxP3Q","People","","null","","","","null","","","","","","","","","","","","","","","","","","","","","","","","","","","","","","","","","","","","","","","","","","","",""
"","deliberation","","html-keyboard-response","70","543810","0.0-59.0-1.0","0","0","AxP3Q","People","","2557","","","","75","","","","3","48","7","0","-1","66","61","velizar-ivanov-7ktP9yZA1g4-unsplash.jpg","brooke-cagle-HRZUzoX1e6w-unsplash.jpg","1","0","7","48","","","","","","","","","","","","","","","","","","","","","","","","","","","",""
"","choice_confirmation","","html-keyboard-response","71","544326","0.0-59.0-2.0-0.0","0","0","AxP3Q","People","","null","","","","null","","","","3","48","7","","","","","","","","","","","","","","","","","","","","","","","","","","","","","","","","","","","","","",""
"","fixation","","html-keyboard-response","72","545340","0.0-60.0-0.0","0","0","AxP3Q","People","","null","","","","null","","","","","","","","","","","","","","","","","","","","","","","","","","","","","","","","","","","","","","","","","","","",""
"","deliberation","","html-keyboard-response","73","552440","0.0-60.0-1.0","0","0","AxP3Q","People","","7082","","","","75","","","","4","21","28","1","-1","65","69","jessica-felicio-_cvwXhGqG-o-unsplash.jpg","justin-chen-J7Cf1Gch49E-unsplash.jpg","1","0","28","21","","","","","","","","","","","","","","","","","","","","","","","","","","","",""
"","choice_confirmation","","html-keyboard-response","74","552963","0.0-60.0-2.0-0.0","0","0","AxP3Q","People","","null","","","","null","","","","4","21","28","","","","","","","","","","","","","","","","","","","","","","","","","","","","","","","","","","","","","",""
"","explain_trial","","survey-text","75","558001","0.0-60.0-5.0-0.0","0","0","AxP3Q","People","","5024","{""Q0"":""smile""}","","","","","","","4","21","28","","","","","","","","","","","{""Q0"":""smile""}","","","","","","","","","","","","","","","","","","","","","","","","","","",""
"","fixation","","html-keyboard-response","76","559023","0.0-61.0-0.0","0","0","AxP3Q","People","","null","","","","null","","","","","","","","","","","","","","","","","","","","","","","","","","","","","","","","","","","","","","","","","","","",""
"","deliberation","","html-keyboard-response","77","560737","0.0-61.0-1.0","0","0","AxP3Q","People","","1702","","","","68","","","","5","10","39","1","-1","63","59","charles-etoroma-95UF6LXe-Lo-unsplash.jpg","philip-martin-5aGUyCW_PJw-unsplash.jpg","1","1","10","39","","","","","","","","","","","","","","","","","","","","","","","","","","","",""
"","choice_confirmation","","html-keyboard-response","78","561256","0.0-61.0-2.0-0.0","0","0","AxP3Q","People","","null","","","","null","","","","5","10","39","","","","","","","","","","","","","","","","","","","","","","","","","","","","","","","","","","","","","",""
"","explain_trial","","survey-text","79","564639","0.0-61.0-5.0-0.0","0","0","AxP3Q","People","","3368","{""Q0"":""smile""}","","","","","","","5","10","39","","","","","","","","","","","{""Q0"":""smile""}","","","","","","","","","","","","","","","","","","","","","","","","","","",""
"","fixation","","html-keyboard-response","80","565653","0.0-62.0-0.0","0","0","AxP3Q","People","","null","","","","null","","","","","","","","","","","","","","","","","","","","","","","","","","","","","","","","","","","","","","","","","","","",""
"","deliberation","","html-keyboard-response","81","567319","0.0-62.0-1.0","0","0","AxP3Q","People","","1651","","","","75","","","","6","18","1","0","1","36","67","good-faces-xmSWVeGEnJw-unsplash.jpg","aiony-haust-jmATI5Q_YgY-unsplash.jpg","1","0","1","18","","","","","","","","","","","","","","","","","","","","","","","","","","","",""
"","choice_confirmation","","html-keyboard-response","82","567839","0.0-62.0-2.0-0.0","0","0","AxP3Q","People","","null","","","","null","","","","6","18","1","","","","","","","","","","","","","","","","","","","","","","","","","","","","","","","","","","","","","",""
"","fixation","","html-keyboard-response","83","568866","0.0-63.0-0.0","0","0","AxP3Q","People","","null","","","","null","","","","","","","","","","","","","","","","","","","","","","","","","","","","","","","","","","","","","","","","","","","",""
"","deliberation","","html-keyboard-response","84","570187","0.0-63.0-1.0","0","0","AxP3Q","People","","1310","","","","68","","","","7","26","44","0","-1","37","70","juri-gianfrancesco-9EZadYaMzk4-unsplash.jpg","rikonavt-HQjfrvdTfak-unsplash.jpg","1","1","26","44","","","","","","","","","","","","","","","","","","","","","","","","","","","",""
"","choice_confirmation","","html-keyboard-response","85","570710","0.0-63.0-2.0-0.0","0","0","AxP3Q","People","","null","","","","null","","","","7","26","44","","","","","","","","","","","","","","","","","","","","","","","","","","","","","","","","","","","","","",""
"","fixation","","html-keyboard-response","86","571732","0.0-64.0-0.0","0","0","AxP3Q","People","","null","","","","null","","","","","","","","","","","","","","","","","","","","","","","","","","","","","","","","","","","","","","","","","","","",""
"","deliberation","","html-keyboard-response","87","574086","0.0-64.0-1.0","0","0","AxP3Q","People","","2353","","","","68","","","","8","23","31","1","1","41","72","joanna-nix-walkup-H4fEMshfwTE-unsplash.jpg","mathilda-khoo-vLR0YP_otCo-unsplash.jpg","1","1","23","31","","","","","","","","","","","","","","","","","","","","","","","","","","","",""
"","choice_confirmation","","html-keyboard-response","88","574619","0.0-64.0-2.0-0.0","0","0","AxP3Q","People","","null","","","","null","","","","8","23","31","","","","","","","","","","","","","","","","","","","","","","","","","","","","","","","","","","","","","",""
"","explain_trial","","survey-text","89","581179","0.0-64.0-5.0-0.0","0","0","AxP3Q","People","","6541","{""Q0"":""style""}","","","","","","","8","23","31","","","","","","","","","","","{""Q0"":""style""}","","","","","","","","","","","","","","","","","","","","","","","","","","",""
"","fixation","","html-keyboard-response","90","582196","0.0-65.0-0.0","0","0","AxP3Q","People","","null","","","","null","","","","","","","","","","","","","","","","","","","","","","","","","","","","","","","","","","","","","","","","","","","",""
"","deliberation","","html-keyboard-response","91","584076","0.0-65.0-1.0","0","0","AxP3Q","People","","1873","","","","68","","","","9","19","35","0","1","68","67","ha-nguy-n-OFSQ6bHjFjs-unsplash.jpg","oliver-ragfelt-khV4fTy6-D8-unsplash.jpg","1","1","19","35","","","","","","","","","","","","","","","","","","","","","","","","","","","",""
"","choice_confirmation","","html-keyboard-response","92","584590","0.0-65.0-2.0-0.0","0","0","AxP3Q","People","","null","","","","null","","","","9","19","35","","","","","","","","","","","","","","","","","","","","","","","","","","","","","","","","","","","","","",""
"","fixation","","html-keyboard-response","93","585616","0.0-66.0-0.0","0","0","AxP3Q","People","","null","","","","null","","","","","","","","","","","","","","","","","","","","","","","","","","","","","","","","","","","","","","","","","","","",""
"","deliberation","","html-keyboard-response","94","587617","0.0-66.0-1.0","0","0","AxP3Q","People","","1996","","","","75","","","","10","45","12","0","-1","63","68","sarah-noltner-pL5ZzPp1zqg-unsplash.jpg","daniel-rigdon-dXmXKPP2L4E-unsplash.jpg","1","0","12","45","","","","","","","","","","","","","","","","","","","","","","","","","","","",""
"","choice_confirmation","","html-keyboard-response","95","588126","0.0-66.0-2.0-0.0","0","0","AxP3Q","People","","null","","","","null","","","","10","45","12","","","","","","","","","","","","","","","","","","","","","","","","","","","","","","","","","","","","","",""
"","fixation","","html-keyboard-response","96","589142","0.0-67.0-0.0","0","0","AxP3Q","People","","null","","","","null","","","","","","","","","","","","","","","","","","","","","","","","","","","","","","","","","","","","","","","","","","","",""
"","deliberation","","html-keyboard-response","97","591508","0.0-67.0-1.0","0","0","AxP3Q","People","","2362","","","","75","","","","11","37","42","1","-1","64","39","pavel-anoshin-d0peGya6R5Y-unsplash.jpg","prince-akachi-l3IHXOdMyHQ-unsplash.jpg","1","0","42","37","","","","","","","","","","","","","","","","","","","","","","","","","","","",""
"","choice_confirmation","","html-keyboard-response","98","592045","0.0-67.0-2.0-0.0","0","0","AxP3Q","People","","null","","","","null","","","","11","37","42","","","","","","","","","","","","","","","","","","","","","","","","","","","","","","","","","","","","","",""
"","explain_trial","","survey-text","99","599973","0.0-67.0-5.0-0.0","0","0","AxP3Q","People","","7905","{""Q0"":""sad""}","","","","","","","11","37","42","","","","","","","","","","","{""Q0"":""sad""}","","","","","","","","","","","","","","","","","","","","","","","","","","",""
"","practice_deliberation_again","","html-keyboard-response","100","601598","0.0-67.0-6.0-0.0","0","0","AxP3Q","People","","1605","","","","78","","","","","","","","","","","","","","","","","","","","","","","","","","","","","","","","","","","","","","","","","","","",""
"","fixation","","html-keyboard-response","101","602613","0.0-68.0-0.0","0","0","AxP3Q","People","","null","","","","null","","","","","","","","","","","","","","","","","","","","","","","","","","","","","","","","","","","","","","","","","","","",""
"","deliberation","","html-keyboard-response","102","603824","0.0-68.0-1.0","0","0","AxP3Q","People","","1198","","","","68","","","","12","10","39","0","-1","63","59","charles-etoroma-95UF6LXe-Lo-unsplash.jpg","philip-martin-5aGUyCW_PJw-unsplash.jpg","2","1","10","39","","","","","","","","","","","","","","","","","","","","","","","","","","","",""
"","choice_confirmation","","html-keyboard-response","103","604344","0.0-68.0-2.0-0.0","0","0","AxP3Q","People","","null","","","","null","","","","12","10","39","","","","","","","","","","","","","","","","","","","","","","","","","","","","","","","","","","","","","",""
"","fixation","","html-keyboard-response","104","605355","0.0-69.0-0.0","0","0","AxP3Q","People","","null","","","","null","","","","","","","","","","","","","","","","","","","","","","","","","","","","","","","","","","","","","","","","","","","",""
"","deliberation","","html-keyboard-response","105","606741","0.0-69.0-1.0","0","0","AxP3Q","People","","1367","","","","75","","","","13","8","34","0","1","63","72","bruce-dixon-3M9WJQVHzog-unsplash.jpg","oliver-johnson-1TUIcKob7Zs-unsplash.jpg","2","0","34","8","","","","","","","","","","","","","","","","","","","","","","","","","","","",""
"","choice_confirmation","","html-keyboard-response","106","607258","0.0-69.0-2.0-0.0","0","0","AxP3Q","People","","null","","","","null","","","","13","8","34","","","","","","","","","","","","","","","","","","","","","","","","","","","","","","","","","","","","","",""
"","fixation","","html-keyboard-response","107","608277","0.0-70.0-0.0","0","0","AxP3Q","People","","null","","","","null","","","","","","","","","","","","","","","","","","","","","","","","","","","","","","","","","","","","","","","","","","","",""
"","deliberation","","html-keyboard-response","108","611107","0.0-70.0-1.0","0","0","AxP3Q","People","","2820","","","","75","","","","14","21","28","0","-1","65","69","jessica-felicio-_cvwXhGqG-o-unsplash.jpg","justin-chen-J7Cf1Gch49E-unsplash.jpg","2","0","28","21","","","","","","","","","","","","","","","","","","","","","","","","","","","",""
"","choice_confirmation","","html-keyboard-response","109","611615","0.0-70.0-2.0-0.0","0","0","AxP3Q","People","","null","","","","null","","","","14","21","28","","","","","","","","","","","","","","","","","","","","","","","","","","","","","","","","","","","","","",""
"","fixation","","html-keyboard-response","110","612640","0.0-71.0-0.0","0","0","AxP3Q","People","","null","","","","null","","","","","","","","","","","","","","","","","","","","","","","","","","","","","","","","","","","","","","","","","","","",""
"","deliberation","","html-keyboard-response","111","614120","0.0-71.0-1.0","0","0","AxP3Q","People","","1474","","","","68","","","","15","48","7","1","-1","66","61","velizar-ivanov-7ktP9yZA1g4-unsplash.jpg","brooke-cagle-HRZUzoX1e6w-unsplash.jpg","2","1","48","7","","","","","","","","","","","","","","","","","","","","","","","","","","","",""
"","choice_confirmation","","html-keyboard-response","112","614643","0.0-71.0-2.0-0.0","0","0","AxP3Q","People","","null","","","","null","","","","15","48","7","","","","","","","","","","","","","","","","","","","","","","","","","","","","","","","","","","","","","",""
"","explain_trial","","survey-text","113","618198","0.0-71.0-5.0-0.0","0","0","AxP3Q","People","","3545","{""Q0"":""sad""}","","","","","","","15","48","7","","","","","","","","","","","{""Q0"":""sad""}","","","","","","","","","","","","","","","","","","","","","","","","","","",""
"","fixation","","html-keyboard-response","114","619213","0.0-72.0-0.0","0","0","AxP3Q","People","","null","","","","null","","","","","","","","","","","","","","","","","","","","","","","","","","","","","","","","","","","","","","","","","","","",""
"","deliberation","","html-keyboard-response","115","620754","0.0-72.0-1.0","0","0","AxP3Q","People","","1522","","","","68","","","","16","9","0","0","1","67","57","carlos-andres-gomez-vJuk8Y86mRw-unsplash.jpg","abstral-official-cyOKLSgkgCE-unsplash.jpg","2","1","9","0","","","","","","","","","","","","","","","","","","","","","","","","","","","",""
"","choice_confirmation","","html-keyboard-response","116","621270","0.0-72.0-2.0-0.0","0","0","AxP3Q","People","","null","","","","null","","","","16","9","0","","","","","","","","","","","","","","","","","","","","","","","","","","","","","","","","","","","","","",""
"","fixation","","html-keyboard-response","117","622288","0.0-73.0-0.0","0","0","AxP3Q","People","","null","","","","null","","","","","","","","","","","","","","","","","","","","","","","","","","","","","","","","","","","","","","","","","","","",""
"","deliberation","","html-keyboard-response","118","623697","0.0-73.0-1.0","0","0","AxP3Q","People","","1400","","","","75","","","","17","37","42","0","-1","64","39","pavel-anoshin-d0peGya6R5Y-unsplash.jpg","prince-akachi-l3IHXOdMyHQ-unsplash.jpg","2","0","42","37","","","","","","","","","","","","","","","","","","","","","","","","","","","",""
"","choice_confirmation","","html-keyboard-response","119","624207","0.0-73.0-2.0-0.0","0","0","AxP3Q","People","","null","","","","null","","","","17","37","42","","","","","","","","","","","","","","","","","","","","","","","","","","","","","","","","","","","","","",""
"","fixation","","html-keyboard-response","120","625220","0.0-74.0-0.0","0","0","AxP3Q","People","","null","","","","null","","","","","","","","","","","","","","","","","","","","","","","","","","","","","","","","","","","","","","","","","","","",""
"","deliberation","","html-keyboard-response","121","626904","0.0-74.0-1.0","0","0","AxP3Q","People","","1676","","","","75","","","","18","45","12","1","-1","63","68","sarah-noltner-pL5ZzPp1zqg-unsplash.jpg","daniel-rigdon-dXmXKPP2L4E-unsplash.jpg","2","0","12","45","","","","","","","","","","","","","","","","","","","","","","","","","","","",""
"","choice_confirmation","","html-keyboard-response","122","627422","0.0-74.0-2.0-0.0","0","0","AxP3Q","People","","null","","","","null","","","","18","45","12","","","","","","","","","","","","","","","","","","","","","","","","","","","","","","","","","","","","","",""
"","explain_trial","","survey-text","123","632013","0.0-74.0-5.0-0.0","0","0","AxP3Q","People","","4568","{""Q0"":""smile""}","","","","","","","18","45","12","","","","","","","","","","","{""Q0"":""smile""}","","","","","","","","","","","","","","","","","","","","","","","","","","",""
"","fixation","","html-keyboard-response","124","633038","0.0-75.0-0.0","0","0","AxP3Q","People","","null","","","","null","","","","","","","","","","","","","","","","","","","","","","","","","","","","","","","","","","","","","","","","","","","",""
"","deliberation","","html-keyboard-response","125","634565","0.0-75.0-1.0","0","0","AxP3Q","People","","1508","","","","75","","","","19","47","25","1","1","65","65","tyler-nix-ZGa9d1a_4tA-unsplash.jpg","joseph-gonzalez-iFgRcqHznqg-unsplash.jpg","2","0","25","47","","","","","","","","","","","","","","","","","","","","","","","","","","","",""
"","choice_confirmation","","html-keyboard-response","126","635078","0.0-75.0-2.0-0.0","0","0","AxP3Q","People","","null","","","","null","","","","19","47","25","","","","","","","","","","","","","","","","","","","","","","","","","","","","","","","","","","","","","",""
"","explain_trial","","survey-text","127","637923","0.0-75.0-5.0-0.0","0","0","AxP3Q","People","","2812","{""Q0"":""smile""}","","","","","","","19","47","25","","","","","","","","","","","{""Q0"":""smile""}","","","","","","","","","","","","","","","","","","","","","","","","","","",""
"","fixation","","html-keyboard-response","128","638939","0.0-76.0-0.0","0","0","AxP3Q","People","","null","","","","null","","","","","","","","","","","","","","","","","","","","","","","","","","","","","","","","","","","","","","","","","","","",""
"","deliberation","","html-keyboard-response","129","640299","0.0-76.0-1.0","0","0","AxP3Q","People","","1344","","","","68","","","","20","23","31","0","1","41","72","joanna-nix-walkup-H4fEMshfwTE-unsplash.jpg","mathilda-khoo-vLR0YP_otCo-unsplash.jpg","2","1","23","31","","","","","","","","","","","","","","","","","","","","","","","","","","","",""
"","choice_confirmation","","html-keyboard-response","130","640822","0.0-76.0-2.0-0.0","0","0","AxP3Q","People","","null","","","","null","","","","20","23","31","","","","","","","","","","","","","","","","","","","","","","","","","","","","","","","","","","","","","",""
"","fixation","","html-keyboard-response","131","641837","0.0-77.0-0.0","0","0","AxP3Q","People","","null","","","","null","","","","","","","","","","","","","","","","","","","","","","","","","","","","","","","","","","","","","","","","","","","",""
"","deliberation","","html-keyboard-response","132","643731","0.0-77.0-1.0","0","0","AxP3Q","People","","1869","","","","75","","","","21","18","1","1","1","36","67","good-faces-xmSWVeGEnJw-unsplash.jpg","aiony-haust-jmATI5Q_YgY-unsplash.jpg","2","0","1","18","","","","","","","","","","","","","","","","","","","","","","","","","","","",""
"","choice_confirmation","","html-keyboard-response","133","644284","0.0-77.0-2.0-0.0","0","0","AxP3Q","People","","null","","","","null","","","","21","18","1","","","","","","","","","","","","","","","","","","","","","","","","","","","","","","","","","","","","","",""
"","explain_trial","","survey-text","134","647428","0.0-77.0-5.0-0.0","0","0","AxP3Q","People","","3125","{""Q0"":""sad""}","","","","","","","21","18","1","","","","","","","","","","","{""Q0"":""sad""}","","","","","","","","","","","","","","","","","","","","","","","","","","",""
"","fixation","","html-keyboard-response","135","648469","0.0-78.0-0.0","0","0","AxP3Q","People","","null","","","","null","","","","","","","","","","","","","","","","","","","","","","","","","","","","","","","","","","","","","","","","","","","",""
"","deliberation","","html-keyboard-response","136","649995","0.0-78.0-1.0","0","0","AxP3Q","People","","1513","","","","68","","","","22","26","44","1","-1","37","70","juri-gianfrancesco-9EZadYaMzk4-unsplash.jpg","rikonavt-HQjfrvdTfak-unsplash.jpg","2","1","26","44","","","","","","","","","","","","","","","","","","","","","","","","","","","",""
"","choice_confirmation","","html-keyboard-response","137","650504","0.0-78.0-2.0-0.0","0","0","AxP3Q","People","","null","","","","null","","","","22","26","44","","","","","","","","","","","","","","","","","","","","","","","","","","","","","","","","","","","","","",""
"","explain_trial","","survey-text","138","658739","0.0-78.0-5.0-0.0","0","0","AxP3Q","People","","8221","{""Q0"":""happy""}","","","","","","","22","26","44","","","","","","","","","","","{""Q0"":""happy""}","","","","","","","","","","","","","","","","","","","","","","","","","","",""
"","fixation","","html-keyboard-response","139","659759","0.0-79.0-0.0","0","0","AxP3Q","People","","null","","","","null","","","","","","","","","","","","","","","","","","","","","","","","","","","","","","","","","","","","","","","","","","","",""
"","deliberation","","html-keyboard-response","140","660926","0.0-79.0-1.0","0","0","AxP3Q","People","","1154","","","","75","","","","23","19","35","1","1","68","67","ha-nguy-n-OFSQ6bHjFjs-unsplash.jpg","oliver-ragfelt-khV4fTy6-D8-unsplash.jpg","2","0","35","19","","","","","","","","","","","","","","","","","","","","","","","","","","","",""
"","choice_confirmation","","html-keyboard-response","141","661439","0.0-79.0-2.0-0.0","0","0","AxP3Q","People","","null","","","","null","","","","23","19","35","","","","","","","","","","","","","","","","","","","","","","","","","","","","","","","","","","","","","",""
"","explain_trial","","survey-text","142","680802","0.0-79.0-5.0-0.0","0","0","AxP3Q","People","","19347","{""Q0"":""sad""}","","","","","","","23","19","35","","","","","","","","","","","{""Q0"":""sad""}","","","","","","","","","","","","","","","","","","","","","","","","","","",""
"","start_critical_deliberation_block","","html-keyboard-response","143","682375","0.0-79.0-7.0-0.0","0","0","AxP3Q","People","","1558","","","","78","","","","","","","","","","","","","","","","","","","","","","","","","","","","","","","","","","","","","","","","","","","",""
"","fixation","","html-keyboard-response","144","683412","0.0-80.0-0.0","0","0","AxP3Q","People","","null","","","","null","","","","","","","","","","","","","","","","","","","","","","","","","","","","","","","","","","","","","","","","","","","",""
"","deliberation","","html-keyboard-response","145","688972","0.0-80.0-1.0","0","0","AxP3Q","People","","5501","","","","75","","","","24","18","1","0","1","36","67","good-faces-xmSWVeGEnJw-unsplash.jpg","aiony-haust-jmATI5Q_YgY-unsplash.jpg","3","0","1","18","","","","","","","","","","","","","","","","","","","","","","","","","","","",""
"","choice_confirmation","","html-keyboard-response","146","689476","0.0-80.0-2.0-0.0","0","0","AxP3Q","People","","null","","","","null","","","","24","18","1","","","","","","","","","","","","","","","","","","","","","","","","","","","","","","","","","","","","","",""
"","fixation","","html-keyboard-response","147","690488","0.0-81.0-0.0","0","0","AxP3Q","People","","null","","","","null","","","","","","","","","","","","","","","","","","","","","","","","","","","","","","","","","","","","","","","","","","","",""
"","deliberation","","html-keyboard-response","148","691306","0.0-81.0-1.0","0","0","AxP3Q","People","","808","","","","75","","","","25","19","35","0","1","68","67","ha-nguy-n-OFSQ6bHjFjs-unsplash.jpg","oliver-ragfelt-khV4fTy6-D8-unsplash.jpg","3","0","35","19","","","","","","","","","","","","","","","","","","","","","","","","","","","",""
"","choice_confirmation","","html-keyboard-response","149","691820","0.0-81.0-2.0-0.0","0","0","AxP3Q","People","","null","","","","null","","","","25","19","35","","","","","","","","","","","","","","","","","","","","","","","","","","","","","","","","","","","","","",""
"","fixation","","html-keyboard-response","150","692836","0.0-82.0-0.0","0","0","AxP3Q","People","","null","","","","null","","","","","","","","","","","","","","","","","","","","","","","","","","","","","","","","","","","","","","","","","","","",""
"","deliberation","","html-keyboard-response","151","693437","0.0-82.0-1.0","0","0","AxP3Q","People","","591","","","","75","","","","26","48","7","0","-1","66","61","velizar-ivanov-7ktP9yZA1g4-unsplash.jpg","brooke-cagle-HRZUzoX1e6w-unsplash.jpg","3","0","7","48","","","","","","","","","","","","","","","","","","","","","","","","","","","",""
"","choice_confirmation","","html-keyboard-response","152","694001","0.0-82.0-2.0-0.0","0","0","AxP3Q","People","","null","","","","null","","","","26","48","7","","","","","","","","","","","","","","","","","","","","","","","","","","","","","","","","","","","","","",""
"","fixation","","html-keyboard-response","153","695021","0.0-83.0-0.0","0","0","AxP3Q","People","","null","","","","null","","","","","","","","","","","","","","","","","","","","","","","","","","","","","","","","","","","","","","","","","","","",""
"","deliberation","","html-keyboard-response","154","695555","0.0-83.0-1.0","0","0","AxP3Q","People","","511","","","","68","","","","27","8","34","0","1","63","72","bruce-dixon-3M9WJQVHzog-unsplash.jpg","oliver-johnson-1TUIcKob7Zs-unsplash.jpg","3","1","8","34","","","","","","","","","","","","","","","","","","","","","","","","","","","",""
"","choice_confirmation","","html-keyboard-response","155","696070","0.0-83.0-2.0-0.0","0","0","AxP3Q","People","","null","","","","null","","","","27","8","34","","","","","","","","","","","","","","","","","","","","","","","","","","","","","","","","","","","","","",""
"","fixation","","html-keyboard-response","156","697101","0.0-84.0-0.0","0","0","AxP3Q","People","","null","","","","null","","","","","","","","","","","","","","","","","","","","","","","","","","","","","","","","","","","","","","","","","","","",""
"","deliberation","","html-keyboard-response","157","697640","0.0-84.0-1.0","0","0","AxP3Q","People","","527","","","","75","","","","28","47","25","0","1","65","65","tyler-nix-ZGa9d1a_4tA-unsplash.jpg","joseph-gonzalez-iFgRcqHznqg-unsplash.jpg","3","0","25","47","","","","","","","","","","","","","","","","","","","","","","","","","","","",""
"","choice_confirmation","","html-keyboard-response","158","698152","0.0-84.0-2.0-0.0","0","0","AxP3Q","People","","null","","","","null","","","","28","47","25","","","","","","","","","","","","","","","","","","","","","","","","","","","","","","","","","","","","","",""
"","fixation","","html-keyboard-response","159","699176","0.0-85.0-0.0","0","0","AxP3Q","People","","null","","","","null","","","","","","","","","","","","","","","","","","","","","","","","","","","","","","","","","","","","","","","","","","","",""
"","deliberation","","html-keyboard-response","160","699706","0.0-85.0-1.0","0","0","AxP3Q","People","","521","","","","68","","","","29","9","0","0","1","67","57","carlos-andres-gomez-vJuk8Y86mRw-unsplash.jpg","abstral-official-cyOKLSgkgCE-unsplash.jpg","3","1","9","0","","","","","","","","","","","","","","","","","","","","","","","","","","","",""
"","choice_confirmation","","html-keyboard-response","161","700219","0.0-85.0-2.0-0.0","0","0","AxP3Q","People","","null","","","","null","","","","29","9","0","","","","","","","","","","","","","","","","","","","","","","","","","","","","","","","","","","","","","",""
"","fixation","","html-keyboard-response","162","701242","0.0-86.0-0.0","0","0","AxP3Q","People","","null","","","","null","","","","","","","","","","","","","","","","","","","","","","","","","","","","","","","","","","","","","","","","","","","",""
"","deliberation","","html-keyboard-response","163","701700","0.0-86.0-1.0","0","0","AxP3Q","People","","442","","","","68","","","","30","23","31","0","1","41","72","joanna-nix-walkup-H4fEMshfwTE-unsplash.jpg","mathilda-khoo-vLR0YP_otCo-unsplash.jpg","3","1","23","31","","","","","","","","","","","","","","","","","","","","","","","","","","","",""
"","choice_confirmation","","html-keyboard-response","164","702222","0.0-86.0-2.0-0.0","0","0","AxP3Q","People","","null","","","","null","","","","30","23","31","","","","","","","","","","","","","","","","","","","","","","","","","","","","","","","","","","","","","",""
"","fixation","","html-keyboard-response","165","703252","0.0-87.0-0.0","0","0","AxP3Q","People","","null","","","","null","","","","","","","","","","","","","","","","","","","","","","","","","","","","","","","","","","","","","","","","","","","",""
"","deliberation","","html-keyboard-response","166","703662","0.0-87.0-1.0","0","0","AxP3Q","People","","404","","","","75","","","","31","26","44","0","-1","37","70","juri-gianfrancesco-9EZadYaMzk4-unsplash.jpg","rikonavt-HQjfrvdTfak-unsplash.jpg","3","0","44","26","","","","","","","","","","","","","","","","","","","","","","","","","","","",""
"","choice_confirmation","","html-keyboard-response","167","704170","0.0-87.0-2.0-0.0","0","0","AxP3Q","People","","null","","","","null","","","","31","26","44","","","","","","","","","","","","","","","","","","","","","","","","","","","","","","","","","","","","","",""
"","fixation","","html-keyboard-response","168","705207","0.0-88.0-0.0","0","0","AxP3Q","People","","null","","","","null","","","","","","","","","","","","","","","","","","","","","","","","","","","","","","","","","","","","","","","","","","","",""
"","deliberation","","html-keyboard-response","169","705671","0.0-88.0-1.0","0","0","AxP3Q","People","","459","","","","75","","","","32","45","12","0","-1","63","68","sarah-noltner-pL5ZzPp1zqg-unsplash.jpg","daniel-rigdon-dXmXKPP2L4E-unsplash.jpg","3","0","12","45","","","","","","","","","","","","","","","","","","","","","","","","","","","",""
"","choice_confirmation","","html-keyboard-response","170","706185","0.0-88.0-2.0-0.0","0","0","AxP3Q","People","","null","","","","null","","","","32","45","12","","","","","","","","","","","","","","","","","","","","","","","","","","","","","","","","","","","","","",""
"","fixation","","html-keyboard-response","171","707209","0.0-89.0-0.0","0","0","AxP3Q","People","","null","","","","null","","","","","","","","","","","","","","","","","","","","","","","","","","","","","","","","","","","","","","","","","","","",""
"","deliberation","","html-keyboard-response","172","707711","0.0-89.0-1.0","0","0","AxP3Q","People","","490","","","","75","","","","33","10","39","0","-1","63","59","charles-etoroma-95UF6LXe-Lo-unsplash.jpg","philip-martin-5aGUyCW_PJw-unsplash.jpg","3","0","39","10","","","","","","","","","","","","","","","","","","","","","","","","","","","",""
"","choice_confirmation","","html-keyboard-response","173","708219","0.0-89.0-2.0-0.0","0","0","AxP3Q","People","","null","","","","null","","","","33","10","39","","","","","","","","","","","","","","","","","","","","","","","","","","","","","","","","","","","","","",""
"","fixation","","html-keyboard-response","174","709235","0.0-90.0-0.0","0","0","AxP3Q","People","","null","","","","null","","","","","","","","","","","","","","","","","","","","","","","","","","","","","","","","","","","","","","","","","","","",""
"","deliberation","","html-keyboard-response","175","709994","0.0-90.0-1.0","0","0","AxP3Q","People","","746","","","","75","","","","34","21","28","0","-1","65","69","jessica-felicio-_cvwXhGqG-o-unsplash.jpg","justin-chen-J7Cf1Gch49E-unsplash.jpg","3","0","28","21","","","","","","","","","","","","","","","","","","","","","","","","","","","",""
"","choice_confirmation","","html-keyboard-response","176","710502","0.0-90.0-2.0-0.0","0","0","AxP3Q","People","","null","","","","null","","","","34","21","28","","","","","","","","","","","","","","","","","","","","","","","","","","","","","","","","","","","","","",""
"","fixation","","html-keyboard-response","177","711511","0.0-91.0-0.0","0","0","AxP3Q","People","","null","","","","null","","","","","","","","","","","","","","","","","","","","","","","","","","","","","","","","","","","","","","","","","","","",""
"","deliberation","","html-keyboard-response","178","712066","0.0-91.0-1.0","0","0","AxP3Q","People","","524","","","","75","","","","35","37","42","0","-1","64","39","pavel-anoshin-d0peGya6R5Y-unsplash.jpg","prince-akachi-l3IHXOdMyHQ-unsplash.jpg","3","0","42","37","","","","","","","","","","","","","","","","","","","","","","","","","","","",""
"","choice_confirmation","","html-keyboard-response","179","712617","0.0-91.0-2.0-0.0","0","0","AxP3Q","People","","null","","","","null","","","","35","37","42","","","","","","","","","","","","","","","","","","","","","","","","","","","","","","","","","","","","","",""
"","reward_learning_instructions","","instructions","180","737050","0.0-92.0-0.0","0","0","AxP3Q","People","[{""page_index"":0,""viewing_time"":15807},{""page_index"":1,""viewing_time"":5406},{""page_index"":2,""viewing_time"":3201}]","24416","","","","","","","","","","","","","","","","","","","","","","","","","","","","","","","","","","","","","","","","","","","","","","","",""
"","","","survey-multi-choice","181","756828","0.0-92.0-1.0","0","0","AxP3Q","People","","19757","{""Q0"":""True"",""Q1"":""True"",""Q2"":""Press the space bar to see its outcome"",""Q3"":""Press the relevant key while the outcome is presented""}","reward_comprehension_check","0","","","","","","","","","","","","","","","","","","","","","","","","","","","","","","","","","","","","","","","","","","","","",""
"","start_phase","","html-keyboard-response","182","759686","0.0-93.0","0","0","AxP3Q","People","","2854","","","","78","","","","","","","","","","","","","","","","","","","","","","","","","","","","","","","","","","","","","","","","","","","",""
"","fixation","","html-keyboard-response","183","760692","0.0-94.0","0","0","AxP3Q","People","","null","","","","null","","","","","","","","","","","","","","","","","","","","","","","","","","","","","","","","","","","","","","","","","","","",""
"","see_reward","","html-keyboard-response","184","761759","0.0-95.0","0","0","AxP3Q","People","","1055","","","","32","","9","","0","","","","1","","","","","1","","","","","151","1055","","","","","","","","","","","","","","","","","","","","","","","","",""
"","reward_outcome","","html-keyboard-response","185","763768","0.0-96.0","0","0","AxP3Q","People","","969","","","","40","","9","","0","","","","","","","","","","","","","","","","-1","969","","","","","","","","","","","","","","","","","","","","","","",""
"","fixation","","html-keyboard-response","186","764783","0.0-99.0","0","0","AxP3Q","People","","null","","","","null","","","","","","","","","","","","","","","","","","","","","","","","","","","","","","","","","","","","","","","","","","","",""
"","see_reward","","html-keyboard-response","187","765524","0.0-100.0","0","0","AxP3Q","People","","735","","","","32","","39","","1","","","","-1","","","","","1","","","","","0","735","","","","","","","","","","","","","","","","","","","","","","","","",""
"","reward_outcome","","html-keyboard-response","188","767529","0.0-101.0","0","0","AxP3Q","People","","1456","","","","38","","39","","1","","","","","","","","","","","","","","","","1","1456","","","","","","","","","","","","","","","","","","","","","","",""
"","fixation","","html-keyboard-response","189","768548","0.0-104.0","0","0","AxP3Q","People","","null","","","","null","","","","","","","","","","","","","","","","","","","","","","","","","","","","","","","","","","","","","","","","","","","",""
"","see_reward","","html-keyboard-response","190","770980","0.0-105.0","0","0","AxP3Q","People","","2418","","","","32","","8","","2","","","","1","","","","","1","","","","","146","2418","","","","","","","","","","","","","","","","","","","","","","","","",""
"","reward_outcome","","html-keyboard-response","191","772997","0.0-106.0","0","0","AxP3Q","People","","null","","","","null","","8","","2","","","","","","","","","","","","","","","","NaN","null","","","","","","","","","","","","","","","","","","","","","","",""
"","respond_faster","","html-keyboard-response","192","774516","0.0-107.0-0.0","1","0","AxP3Q","People","","null","","","","null","","","","","","","","","","","","","","","","","","","","","","","","","","","","","","","","","","","","","","","","","","","",""
"","fixation","","html-keyboard-response","193","775532","0.0-109.0","0","0","AxP3Q","People","","null","","","","null","","","","","","","","","","","","","","","","","","","","","","","","","","","","","","","","","","","","","","","","","","","",""
"","see_reward","","html-keyboard-response","194","775661","0.0-110.0","0","0","AxP3Q","People","","122","","","","32","","8","","3","","","","1","","","","","1","","","","","146","122","","","","","","","","","","","","","","","","","","","","","","","","",""
"","reward_outcome","","html-keyboard-response","195","777688","0.0-111.0","0","0","AxP3Q","People","","25","","","","40","","8","","3","","","","","","","","","","","","","","","","-1","25","","","","","","","","","","","","","","","","","","","","","","",""
"","fixation","","html-keyboard-response","196","778707","0.0-114.0","0","0","AxP3Q","People","","null","","","","null","","","","","","","","","","","","","","","","","","","","","","","","","","","","","","","","","","","","","","","","","","","",""
"","see_reward","","html-keyboard-response","197","778829","0.0-115.0","0","0","AxP3Q","People","","118","","","","32","","42","","4","","","","-1","","","","","1","","","","","0","118","","","","","","","","","","","","","","","","","","","","","","","","",""
"","reward_outcome","","html-keyboard-response","198","780841","0.0-116.0","0","0","AxP3Q","People","","155","","","","40","","42","","4","","","","","","","","","","","","","","","","-1","155","","","","","","","","","","","","","","","","","","","","","","",""
"","fixation","","html-keyboard-response","199","781861","0.0-119.0","0","0","AxP3Q","People","","null","","","","null","","","","","","","","","","","","","","","","","","","","","","","","","","","","","","","","","","","","","","","","","","","",""
"","see_reward","","html-keyboard-response","200","782788","0.0-120.0","0","0","AxP3Q","People","","900","","","","32","","35","","5","","","","1","","","","","1","","","","","157","900","","","","","","","","","","","","","","","","","","","","","","","","",""
"","reward_outcome","","html-keyboard-response","201","784798","0.0-121.0","0","0","AxP3Q","People","","null","","","","null","","35","","5","","","","","","","","","","","","","","","","NaN","null","","","","","","","","","","","","","","","","","","","","","","",""
"","respond_faster","","html-keyboard-response","202","786316","0.0-122.0-0.0","1","0","AxP3Q","People","","null","","","","null","","","","","","","","","","","","","","","","","","","","","","","","","","","","","","","","","","","","","","","","","","","",""
"","fixation","","html-keyboard-response","203","787328","0.0-124.0","0","0","AxP3Q","People","","null","","","","null","","","","","","","","","","","","","","","","","","","","","","","","","","","","","","","","","","","","","","","","","","","",""
"","see_reward","","html-keyboard-response","204","787891","0.0-125.0","0","0","AxP3Q","People","","554","","","","32","","1","","6","","","","1","","","","","1","","","","","150","554","","","","","","","","","","","","","","","","","","","","","","","","",""
"","reward_outcome","","html-keyboard-response","205","789926","0.0-126.0","0","0","AxP3Q","People","","null","","","","null","","1","","6","","","","","","","","","","","","","","","","NaN","null","","","","","","","","","","","","","","","","","","","","","","",""
"","respond_faster","","html-keyboard-response","206","791473","0.0-127.0-0.0","1","0","AxP3Q","People","","null","","","","null","","","","","","","","","","","","","","","","","","","","","","","","","","","","","","","","","","","","","","","","","","","",""
"","fixation","","html-keyboard-response","207","792488","0.0-129.0","0","0","AxP3Q","People","","null","","","","null","","","","","","","","","","","","","","","","","","","","","","","","","","","","","","","","","","","","","","","","","","","",""
"","see_reward","","html-keyboard-response","208","793064","0.0-130.0","0","0","AxP3Q","People","","561","","","","32","","44","","7","","","","-1","","","","","1","","","","","0","561","","","","","","","","","","","","","","","","","","","","","","","","",""
"","reward_outcome","","html-keyboard-response","209","795078","0.0-131.0","0","0","AxP3Q","People","","null","","","","null","","44","","7","","","","","","","","","","","","","","","","NaN","null","","","","","","","","","","","","","","","","","","","","","","",""
"","respond_faster","","html-keyboard-response","210","796600","0.0-132.0-0.0","1","0","AxP3Q","People","","null","","","","null","","","","","","","","","","","","","","","","","","","","","","","","","","","","","","","","","","","","","","","","","","","",""
"","fixation","","html-keyboard-response","211","797610","0.0-134.0","0","0","AxP3Q","People","","null","","","","null","","","","","","","","","","","","","","","","","","","","","","","","","","","","","","","","","","","","","","","","","","","",""
"","see_reward","","html-keyboard-response","212","798574","0.0-135.0","0","0","AxP3Q","People","","961","","","","32","","23","","8","","","","1","","","","","1","","","","","147","961","","","","","","","","","","","","","","","","","","","","","","","","",""
"","reward_outcome","","html-keyboard-response","213","800581","0.0-136.0","0","0","AxP3Q","People","","29","","","","40","","23","","8","","","","","","","","","","","","","","","","-1","29","","","","","","","","","","","","","","","","","","","","","","",""
"","fixation","","html-keyboard-response","214","801598","0.0-139.0","0","0","AxP3Q","People","","null","","","","null","","","","","","","","","","","","","","","","","","","","","","","","","","","","","","","","","","","","","","","","","","","",""
"","see_reward","","html-keyboard-response","215","803008","0.0-140.0","0","0","AxP3Q","People","","1405","","","","32","","42","","9","","","","-1","","","","","1","","","","","0","1405","","","","","","","","","","","","","","","","","","","","","","","","",""
"","reward_outcome","","html-keyboard-response","216","805023","0.0-141.0","0","0","AxP3Q","People","","41","","","","38","","42","","9","","","","","","","","","","","","","","","","1","41","","","","","","","","","","","","","","","","","","","","","","",""
"","fixation","","html-keyboard-response","217","806047","0.0-144.0","0","0","AxP3Q","People","","null","","","","null","","","","","","","","","","","","","","","","","","","","","","","","","","","","","","","","","","","","","","","","","","","",""
"","see_reward","","html-keyboard-response","218","807353","0.0-145.0","0","0","AxP3Q","People","","1298","","","","32","","7","","10","","","","-1","","","","","1","","","","","0","1298","","","","","","","","","","","","","","","","","","","","","","","","",""
"","reward_outcome","","html-keyboard-response","219","809371","0.0-146.0","0","0","AxP3Q","People","","15","","","","40","","7","","10","","","","","","","","","","","","","","","","-1","15","","","","","","","","","","","","","","","","","","","","","","",""
"","fixation","","html-keyboard-response","220","810391","0.0-149.0","0","0","AxP3Q","People","","null","","","","null","","","","","","","","","","","","","","","","","","","","","","","","","","","","","","","","","","","","","","","","","","","",""
"","see_reward","","html-keyboard-response","221","811191","0.0-150.0","0","0","AxP3Q","People","","787","","","","32","","1","","11","","","","1","","","","","1","","","","","150","787","","","","","","","","","","","","","","","","","","","","","","","","",""
"","reward_outcome","","html-keyboard-response","222","813205","0.0-151.0","0","0","AxP3Q","People","","null","","","","null","","1","","11","","","","","","","","","","","","","","","","NaN","null","","","","","","","","","","","","","","","","","","","","","","",""
"","respond_faster","","html-keyboard-response","223","814719","0.0-152.0-0.0","1","0","AxP3Q","People","","null","","","","null","","","","","","","","","","","","","","","","","","","","","","","","","","","","","","","","","","","","","","","","","","","",""
"","fixation","","html-keyboard-response","224","815734","0.0-154.0","0","0","AxP3Q","People","","null","","","","null","","","","","","","","","","","","","","","","","","","","","","","","","","","","","","","","","","","","","","","","","","","",""
"","see_reward","","html-keyboard-response","225","818993","0.0-155.0","0","0","AxP3Q","People","","3246","","","","32","","35","","12","","","","1","","","","","1","","","","","157","3246","","","","","","","","","","","","","","","","","","","","","","","","",""
"","reward_outcome","","html-keyboard-response","226","821014","0.0-156.0","0","0","AxP3Q","People","","null","","","","null","","35","","12","","","","","","","","","","","","","","","","NaN","null","","","","","","","","","","","","","","","","","","","","","","",""
"","respond_faster","","html-keyboard-response","227","822530","0.0-157.0-0.0","1","0","AxP3Q","People","","null","","","","null","","","","","","","","","","","","","","","","","","","","","","","","","","","","","","","","","","","","","","","","","","","",""
"","fixation","","html-keyboard-response","228","823537","0.0-159.0","0","0","AxP3Q","People","","null","","","","null","","","","","","","","","","","","","","","","","","","","","","","","","","","","","","","","","","","","","","","","","","","",""
"","see_reward","","html-keyboard-response","229","824177","0.0-160.0","0","0","AxP3Q","People","","632","","","","32","","25","","13","","","","1","","","","","1","","","","","146","632","","","","","","","","","","","","","","","","","","","","","","","","",""
"","reward_outcome","","html-keyboard-response","230","826200","0.0-161.0","0","0","AxP3Q","People","","null","","","","null","","25","","13","","","","","","","","","","","","","","","","NaN","null","","","","","","","","","","","","","","","","","","","","","","",""
"","respond_faster","","html-keyboard-response","231","827706","0.0-162.0-0.0","1","0","AxP3Q","People","","null","","","","null","","","","","","","","","","","","","","","","","","","","","","","","","","","","","","","","","","","","","","","","","","","",""
"","fixation","","html-keyboard-response","232","828714","0.0-164.0","0","0","AxP3Q","People","","null","","","","null","","","","","","","","","","","","","","","","","","","","","","","","","","","","","","","","","","","","","","","","","","","",""
"","see_reward","","html-keyboard-response","233","831680","0.0-165.0","0","0","AxP3Q","People","","2956","","","","32","","39","","14","","","","-1","","","","","1","","","","","0","2956","","","","","","","","","","","","","","","","","","","","","","","","",""
"","reward_outcome","","html-keyboard-response","234","833691","0.0-166.0","0","0","AxP3Q","People","","204","","","","40","","39","","14","","","","","","","","","","","","","","","","-1","204","","","","","","","","","","","","","","","","","","","","","","",""
"","fixation","","html-keyboard-response","235","834699","0.0-169.0","0","0","AxP3Q","People","","null","","","","null","","","","","","","","","","","","","","","","","","","","","","","","","","","","","","","","","","","","","","","","","","","",""
"","see_reward","","html-keyboard-response","236","835870","0.0-170.0","0","0","AxP3Q","People","","1168","","","","32","","9","","15","","","","1","","","","","1","","","","","151","1168","","","","","","","","","","","","","","","","","","","","","","","","",""
"","reward_outcome","","html-keyboard-response","237","837874","0.0-171.0","0","0","AxP3Q","People","","null","","","","null","","9","","15","","","","","","","","","","","","","","","","NaN","null","","","","","","","","","","","","","","","","","","","","","","",""
"","respond_faster","","html-keyboard-response","238","839510","0.0-172.0-0.0","1","0","AxP3Q","People","","null","","","","null","","","","","","","","","","","","","","","","","","","","","","","","","","","","","","","","","","","","","","","","","","","",""
"","fixation","","html-keyboard-response","239","840514","0.0-174.0","0","0","AxP3Q","People","","null","","","","null","","","","","","","","","","","","","","","","","","","","","","","","","","","","","","","","","","","","","","","","","","","",""
"","see_reward","","html-keyboard-response","240","841284","0.0-175.0","0","0","AxP3Q","People","","755","","","","32","","23","","16","","","","1","","","","","1","","","","","147","755","","","","","","","","","","","","","","","","","","","","","","","","",""
"","reward_outcome","","html-keyboard-response","241","843295","0.0-176.0","0","0","AxP3Q","People","","24","","","","38","","23","","16","","","","","","","","","","","","","","","","1","24","","","","","","","","","","","","","","","","","","","","","","",""
"","fixation","","html-keyboard-response","242","844324","0.0-179.0","0","0","AxP3Q","People","","null","","","","null","","","","","","","","","","","","","","","","","","","","","","","","","","","","","","","","","","","","","","","","","","","",""
"","see_reward","","html-keyboard-response","243","845967","0.0-180.0","0","0","AxP3Q","People","","1630","","","","32","","28","","17","","","","-1","","","","","1","","","","","0","1630","","","","","","","","","","","","","","","","","","","","","","","","",""
"","reward_outcome","","html-keyboard-response","244","847982","0.0-181.0","0","0","AxP3Q","People","","null","","","","null","","28","","17","","","","","","","","","","","","","","","","NaN","null","","","","","","","","","","","","","","","","","","","","","","",""
"","respond_faster","","html-keyboard-response","245","849498","0.0-182.0-0.0","1","0","AxP3Q","People","","null","","","","null","","","","","","","","","","","","","","","","","","","","","","","","","","","","","","","","","","","","","","","","","","","",""
"","fixation","","html-keyboard-response","246","850515","0.0-184.0","0","0","AxP3Q","People","","null","","","","null","","","","","","","","","","","","","","","","","","","","","","","","","","","","","","","","","","","","","","","","","","","",""
"","see_reward","","html-keyboard-response","247","851589","0.0-185.0","0","0","AxP3Q","People","","1057","","","","32","","28","","18","","","","-1","","","","","1","","","","","0","1057","","","","","","","","","","","","","","","","","","","","","","","","",""
"","reward_outcome","","html-keyboard-response","248","853609","0.0-186.0","0","0","AxP3Q","People","","null","","","","null","","28","","18","","","","","","","","","","","","","","","","NaN","null","","","","","","","","","","","","","","","","","","","","","","",""
"","respond_faster","","html-keyboard-response","249","855127","0.0-187.0-0.0","1","0","AxP3Q","People","","null","","","","null","","","","","","","","","","","","","","","","","","","","","","","","","","","","","","","","","","","","","","","","","","","",""
"","fixation","","html-keyboard-response","250","856139","0.0-189.0","0","0","AxP3Q","People","","null","","","","null","","","","","","","","","","","","","","","","","","","","","","","","","","","","","","","","","","","","","","","","","","","",""
"","see_reward","","html-keyboard-response","251","856181","0.0-190.0","0","0","AxP3Q","People","","39","","","","32","","7","","19","","","","-1","","","","","1","","","","","0","39","","","","","","","","","","","","","","","","","","","","","","","","",""
"","reward_outcome","","html-keyboard-response","252","858186","0.0-191.0","0","0","AxP3Q","People","","21","","","","40","","7","","19","","","","","","","","","","","","","","","","-1","21","","","","","","","","","","","","","","","","","","","","","","",""
"","fixation","","html-keyboard-response","253","859195","0.0-194.0","0","0","AxP3Q","People","","null","","","","null","","","","","","","","","","","","","","","","","","","","","","","","","","","","","","","","","","","","","","","","","","","",""
"","see_reward","","html-keyboard-response","254","860313","0.0-195.0","0","0","AxP3Q","People","","1097","","","","32","","12","","20","","","","-1","","","","","1","","","","","0","1097","","","","","","","","","","","","","","","","","","","","","","","","",""
"","reward_outcome","","html-keyboard-response","255","862328","0.0-196.0","0","0","AxP3Q","People","","34","","","","38","","12","","20","","","","","","","","","","","","","","","","1","34","","","","","","","","","","","","","","","","","","","","","","",""
"","fixation","","html-keyboard-response","256","863353","0.0-199.0","0","0","AxP3Q","People","","null","","","","null","","","","","","","","","","","","","","","","","","","","","","","","","","","","","","","","","","","","","","","","","","","",""
"","see_reward","","html-keyboard-response","257","864405","0.0-200.0","0","0","AxP3Q","People","","1046","","","","32","","25","","21","","","","1","","","","","1","","","","","146","1046","","","","","","","","","","","","","","","","","","","","","","","","",""
"","reward_outcome","","html-keyboard-response","258","866420","0.0-201.0","0","0","AxP3Q","People","","1","","","","40","","25","","21","","","","","","","","","","","","","","","","-1","1","","","","","","","","","","","","","","","","","","","","","","",""
"","fixation","","html-keyboard-response","259","867429","0.0-204.0","0","0","AxP3Q","People","","null","","","","null","","","","","","","","","","","","","","","","","","","","","","","","","","","","","","","","","","","","","","","","","","","",""
"","see_reward","","html-keyboard-response","260","868681","0.0-205.0","0","0","AxP3Q","People","","1235","","","","32","","12","","22","","","","-1","","","","","1","","","","","0","1235","","","","","","","","","","","","","","","","","","","","","","","","",""
"","reward_outcome","","html-keyboard-response","261","870703","0.0-206.0","0","0","AxP3Q","People","","56","","","","38","","12","","22","","","","","","","","","","","","","","","","1","56","","","","","","","","","","","","","","","","","","","","","","",""
"","fixation","","html-keyboard-response","262","871718","0.0-209.0","0","0","AxP3Q","People","","null","","","","null","","","","","","","","","","","","","","","","","","","","","","","","","","","","","","","","","","","","","","","","","","","",""
"","see_reward","","html-keyboard-response","263","872686","0.0-210.0","0","0","AxP3Q","People","","952","","","","32","","44","","23","","","","-1","","","","","1","","","","","0","952","","","","","","","","","","","","","","","","","","","","","","","","",""
"","reward_outcome","","html-keyboard-response","264","874701","0.0-211.0","0","0","AxP3Q","People","","52","","","","40","","44","","23","","","","","","","","","","","","","","","","-1","52","","","","","","","","","","","","","","","","","","","","","","",""
"","block_over","","html-keyboard-response","265","876803","0.0-213.0-0.0","0","0","AxP3Q","People","","2082","","","","78","","","","","","","","","","","","","","","","","","","","","","","","","","","","","","","","","","","","","","","","","","","",""
"","fixation","","html-keyboard-response","266","877810","0.0-214.0","0","0","AxP3Q","People","","null","","","","null","","","","","","","","","","","","","","","","","","","","","","","","","","","","","","","","","","","","","","","","","","","",""
"","see_reward","","html-keyboard-response","267","878811","0.0-215.0","0","0","AxP3Q","People","","984","","","","32","","28","","24","","","","-1","","","","","2","","","","","0","984","","","","","","","","","","","","","","","","","","","","","","","","",""
"","reward_outcome","","html-keyboard-response","268","880827","0.0-216.0","0","0","AxP3Q","People","","null","","","","null","","28","","24","","","","","","","","","","","","","","","","NaN","null","","","","","","","","","","","","","","","","","","","","","","",""
"","respond_faster","","html-keyboard-response","269","882340","0.0-217.0-0.0","1","0","AxP3Q","People","","null","","","","null","","","","","","","","","","","","","","","","","","","","","","","","","","","","","","","","","","","","","","","","","","","",""
"","fixation","","html-keyboard-response","270","883355","0.0-219.0","0","0","AxP3Q","People","","null","","","","null","","","","","","","","","","","","","","","","","","","","","","","","","","","","","","","","","","","","","","","","","","","",""
"","see_reward","","html-keyboard-response","271","883471","0.0-220.0","0","0","AxP3Q","People","","96","","","","32","","25","","25","","","","1","","","","","2","","","","","146","96","","","","","","","","","","","","","","","","","","","","","","","","",""
"","reward_outcome","","html-keyboard-response","272","885499","0.0-221.0","0","0","AxP3Q","People","","36","","","","38","","25","","25","","","","","","","","","","","","","","","","1","36","","","","","","","","","","","","","","","","","","","","","","",""
"","fixation","","html-keyboard-response","273","886513","0.0-224.0","0","0","AxP3Q","People","","null","","","","null","","","","","","","","","","","","","","","","","","","","","","","","","","","","","","","","","","","","","","","","","","","",""
"","see_reward","","html-keyboard-response","274","886633","0.0-225.0","0","0","AxP3Q","People","","104","","","","32","","28","","26","","","","-1","","","","","2","","","","","0","104","","","","","","","","","","","","","","","","","","","","","","","","",""
"","reward_outcome","","html-keyboard-response","275","888653","0.0-226.0","0","0","AxP3Q","People","","36","","","","38","","28","","26","","","","","","","","","","","","","","","","1","36","","","","","","","","","","","","","","","","","","","","","","",""
"","fixation","","html-keyboard-response","276","889669","0.0-229.0","0","0","AxP3Q","People","","null","","","","null","","","","","","","","","","","","","","","","","","","","","","","","","","","","","","","","","","","","","","","","","","","",""
"","see_reward","","html-keyboard-response","277","889825","0.0-230.0","0","0","AxP3Q","People","","145","","","","32","","25","","27","","","","1","","","","","2","","","","","146","145","","","","","","","","","","","","","","","","","","","","","","","","",""
"","reward_outcome","","html-keyboard-response","278","891854","0.0-231.0","0","0","AxP3Q","People","","54","","","","40","","25","","27","","","","","","","","","","","","","","","","-1","54","","","","","","","","","","","","","","","","","","","","","","",""
"","fixation","","html-keyboard-response","279","892862","0.0-234.0","0","0","AxP3Q","People","","null","","","","null","","","","","","","","","","","","","","","","","","","","","","","","","","","","","","","","","","","","","","","","","","","",""
"","see_reward","","html-keyboard-response","280","895523","0.0-235.0","0","0","AxP3Q","People","","2647","","","","32","","42","","28","","","","-1","","","","","2","","","","","0","2647","","","","","","","","","","","","","","","","","","","","","","","","",""
"","reward_outcome","","html-keyboard-response","281","897531","0.0-236.0","0","0","AxP3Q","People","","314","","","","38","","42","","28","","","","","","","","","","","","","","","","1","314","","","","","","","","","","","","","","","","","","","","","","",""
"","fixation","","html-keyboard-response","282","898545","0.0-239.0","0","0","AxP3Q","People","","null","","","","null","","","","","","","","","","","","","","","","","","","","","","","","","","","","","","","","","","","","","","","","","","","",""
"","see_reward","","html-keyboard-response","283","898683","0.0-240.0","0","0","AxP3Q","People","","129","","","","32","","44","","29","","","","-1","","","","","2","","","","","0","129","","","","","","","","","","","","","","","","","","","","","","","","",""
"","reward_outcome","","html-keyboard-response","284","900701","0.0-241.0","0","0","AxP3Q","People","","103","","","","40","","44","","29","","","","","","","","","","","","","","","","-1","103","","","","","","","","","","","","","","","","","","","","","","",""
"","fixation","","html-keyboard-response","285","901715","0.0-244.0","0","0","AxP3Q","People","","null","","","","null","","","","","","","","","","","","","","","","","","","","","","","","","","","","","","","","","","","","","","","","","","","",""
"","see_reward","","html-keyboard-response","286","901908","0.0-245.0","0","0","AxP3Q","People","","181","","","","32","","8","","30","","","","1","","","","","2","","","","","146","181","","","","","","","","","","","","","","","","","","","","","","","","",""
"","reward_outcome","","html-keyboard-response","287","903919","0.0-246.0","0","0","AxP3Q","People","","219","","","","38","","8","","30","","","","","","","","","","","","","","","","1","219","","","","","","","","","","","","","","","","","","","","","","",""
"","fixation","","html-keyboard-response","288","904945","0.0-249.0","0","0","AxP3Q","People","","null","","","","null","","","","","","","","","","","","","","","","","","","","","","","","","","","","","","","","","","","","","","","","","","","",""
"","see_reward","","html-keyboard-response","289","905080","0.0-250.0","0","0","AxP3Q","People","","120","","","","32","","9","","31","","","","1","","","","","2","","","","","151","120","","","","","","","","","","","","","","","","","","","","","","","","",""
"","reward_outcome","","html-keyboard-response","290","907093","0.0-251.0","0","0","AxP3Q","People","","150","","","","38","","9","","31","","","","","","","","","","","","","","","","1","150","","","","","","","","","","","","","","","","","","","","","","",""
"","fixation","","html-keyboard-response","291","908109","0.0-254.0","0","0","AxP3Q","People","","null","","","","null","","","","","","","","","","","","","","","","","","","","","","","","","","","","","","","","","","","","","","","","","","","",""
"","see_reward","","html-keyboard-response","292","909950","0.0-255.0","0","0","AxP3Q","People","","1821","","","","32","","12","","32","","","","-1","","","","","2","","","","","0","1821","","","","","","","","","","","","","","","","","","","","","","","","",""
"","reward_outcome","","html-keyboard-response","293","911965","0.0-256.0","0","0","AxP3Q","People","","53","","","","38","","12","","32","","","","","","","","","","","","","","","","1","53","","","","","","","","","","","","","","","","","","","","","","",""
"","fixation","","html-keyboard-response","294","913036","0.0-259.0","0","0","AxP3Q","People","","null","","","","null","","","","","","","","","","","","","","","","","","","","","","","","","","","","","","","","","","","","","","","","","","","",""
"","see_reward","","html-keyboard-response","295","913201","0.0-260.0","0","0","AxP3Q","People","","144","","","","32","","39","","33","","","","-1","","","","","2","","","","","0","144","","","","","","","","","","","","","","","","","","","","","","","","",""
"","reward_outcome","","html-keyboard-response","296","915225","0.0-261.0","0","0","AxP3Q","People","","146","","","","38","","39","","33","","","","","","","","","","","","","","","","1","146","","","","","","","","","","","","","","","","","","","","","","",""
"","fixation","","html-keyboard-response","297","916241","0.0-264.0","0","0","AxP3Q","People","","null","","","","null","","","","","","","","","","","","","","","","","","","","","","","","","","","","","","","","","","","","","","","","","","","",""
"","see_reward","","html-keyboard-response","298","916442","0.0-265.0","0","0","AxP3Q","People","","187","","","","32","","42","","34","","","","-1","","","","","2","","","","","0","187","","","","","","","","","","","","","","","","","","","","","","","","",""
"","reward_outcome","","html-keyboard-response","299","918455","0.0-266.0","0","0","AxP3Q","People","","25","","","","40","","42","","34","","","","","","","","","","","","","","","","-1","25","","","","","","","","","","","","","","","","","","","","","","",""
"","fixation","","html-keyboard-response","300","919468","0.0-269.0","0","0","AxP3Q","People","","null","","","","null","","","","","","","","","","","","","","","","","","","","","","","","","","","","","","","","","","","","","","","","","","","",""
"","see_reward","","html-keyboard-response","301","919721","0.0-270.0","0","0","AxP3Q","People","","246","","","","32","","23","","35","","","","1","","","","","2","","","","","147","246","","","","","","","","","","","","","","","","","","","","","","","","",""
"","reward_outcome","","html-keyboard-response","302","921732","0.0-271.0","0","0","AxP3Q","People","","205","","","","38","","23","","35","","","","","","","","","","","","","","","","1","205","","","","","","","","","","","","","","","","","","","","","","",""
"","fixation","","html-keyboard-response","303","922750","0.0-274.0","0","0","AxP3Q","People","","null","","","","null","","","","","","","","","","","","","","","","","","","","","","","","","","","","","","","","","","","","","","","","","","","",""
"","see_reward","","html-keyboard-response","304","923297","0.0-275.0","0","0","AxP3Q","People","","538","","","","32","","12","","36","","","","-1","","","","","2","","","","","0","538","","","","","","","","","","","","","","","","","","","","","","","","",""
"","reward_outcome","","html-keyboard-response","305","925379","0.0-276.0","0","0","AxP3Q","People","","227","","","","40","","12","","36","","","","","","","","","","","","","","","","-1","227","","","","","","","","","","","","","","","","","","","","","","",""
"","fixation","","html-keyboard-response","306","926435","0.0-279.0","0","0","AxP3Q","People","","null","","","","null","","","","","","","","","","","","","","","","","","","","","","","","","","","","","","","","","","","","","","","","","","","",""
"","see_reward","","html-keyboard-response","307","926484","0.0-280.0","0","0","AxP3Q","People","","44","","","","32","","9","","37","","","","1","","","","","2","","","","","151","44","","","","","","","","","","","","","","","","","","","","","","","","",""
"","reward_outcome","","html-keyboard-response","308","928495","0.0-281.0","0","0","AxP3Q","People","","194","","","","40","","9","","37","","","","","","","","","","","","","","","","-1","194","","","","","","","","","","","","","","","","","","","","","","",""
"","fixation","","html-keyboard-response","309","929662","0.0-284.0","0","0","AxP3Q","People","","null","","","","null","","","","","","","","","","","","","","","","","","","","","","","","","","","","","","","","","","","","","","","","","","","",""
"","see_reward","","html-keyboard-response","310","929679","0.0-285.0","0","0","AxP3Q","People","","14","","","","32","","8","","38","","","","1","","","","","2","","","","","146","14","","","","","","","","","","","","","","","","","","","","","","","","",""
"","reward_outcome","","html-keyboard-response","311","931686","0.0-286.0","0","0","AxP3Q","People","","72","","","","38","","8","","38","","","","","","","","","","","","","","","","1","72","","","","","","","","","","","","","","","","","","","","","","",""
"","fixation","","html-keyboard-response","312","932692","0.0-289.0","0","0","AxP3Q","People","","null","","","","null","","","","","","","","","","","","","","","","","","","","","","","","","","","","","","","","","","","","","","","","","","","",""
"","see_reward","","html-keyboard-response","313","932830","0.0-290.0","0","0","AxP3Q","People","","123","","","","32","","39","","39","","","","-1","","","","","2","","","","","0","123","","","","","","","","","","","","","","","","","","","","","","","","",""
"","reward_outcome","","html-keyboard-response","314","934839","0.0-291.0","0","0","AxP3Q","People","","244","","","","40","","39","","39","","","","","","","","","","","","","","","","-1","244","","","","","","","","","","","","","","","","","","","","","","",""
"","fixation","","html-keyboard-response","315","935880","0.0-294.0","0","0","AxP3Q","People","","null","","","","null","","","","","","","","","","","","","","","","","","","","","","","","","","","","","","","","","","","","","","","","","","","",""
"","see_reward","","html-keyboard-response","316","936645","0.0-295.0","0","0","AxP3Q","People","","757","","","","32","","7","","40","","","","-1","","","","","2","","","","","0","757","","","","","","","","","","","","","","","","","","","","","","","","",""
"","reward_outcome","","html-keyboard-response","317","938650","0.0-296.0","0","0","AxP3Q","People","","261","","","","38","","7","","40","","","","","","","","","","","","","","","","1","261","","","","","","","","","","","","","","","","","","","","","","",""
"","fixation","","html-keyboard-response","318","939668","0.0-299.0","0","0","AxP3Q","People","","null","","","","null","","","","","","","","","","","","","","","","","","","","","","","","","","","","","","","","","","","","","","","","","","","",""
"","see_reward","","html-keyboard-response","319","940880","0.0-300.0","0","0","AxP3Q","People","","1194","","","","32","","7","","41","","","","-1","","","","","2","","","","","0","1194","","","","","","","","","","","","","","","","","","","","","","","","",""
"","reward_outcome","","html-keyboard-response","320","942891","0.0-301.0","0","0","AxP3Q","People","","462","","","","38","","7","","41","","","","","","","","","","","","","","","","1","462","","","","","","","","","","","","","","","","","","","","","","",""
"","fixation","","html-keyboard-response","321","943902","0.0-304.0","0","0","AxP3Q","People","","null","","","","null","","","","","","","","","","","","","","","","","","","","","","","","","","","","","","","","","","","","","","","","","","","",""
"","see_reward","","html-keyboard-response","322","946253","0.0-305.0","0","0","AxP3Q","People","","2338","","","","32","","1","","42","","","","1","","","","","2","","","","","150","2338","","","","","","","","","","","","","","","","","","","","","","","","",""
"","reward_outcome","","html-keyboard-response","323","948295","0.0-306.0","0","0","AxP3Q","People","","110","","","","40","","1","","42","","","","","","","","","","","","","","","","-1","110","","","","","","","","","","","","","","","","","","","","","","",""
"","fixation","","html-keyboard-response","324","949308","0.0-309.0","0","0","AxP3Q","People","","null","","","","null","","","","","","","","","","","","","","","","","","","","","","","","","","","","","","","","","","","","","","","","","","","",""
"","see_reward","","html-keyboard-response","325","950236","0.0-310.0","0","0","AxP3Q","People","","918","","","","32","","35","","43","","","","1","","","","","2","","","","","157","918","","","","","","","","","","","","","","","","","","","","","","","","",""
"","reward_outcome","","html-keyboard-response","326","952246","0.0-311.0","0","0","AxP3Q","People","","null","","","","null","","35","","43","","","","","","","","","","","","","","","","NaN","null","","","","","","","","","","","","","","","","","","","","","","",""
"","respond_faster","","html-keyboard-response","327","953762","0.0-312.0-0.0","1","0","AxP3Q","People","","null","","","","null","","","","","","","","","","","","","","","","","","","","","","","","","","","","","","","","","","","","","","","","","","","",""
"","fixation","","html-keyboard-response","328","954774","0.0-314.0","0","0","AxP3Q","People","","null","","","","null","","","","","","","","","","","","","","","","","","","","","","","","","","","","","","","","","","","","","","","","","","","",""
"","see_reward","","html-keyboard-response","329","955699","0.0-315.0","0","0","AxP3Q","People","","904","","","","32","","35","","44","","","","1","","","","","2","","","","","157","904","","","","","","","","","","","","","","","","","","","","","","","","",""
"","reward_outcome","","html-keyboard-response","330","957715","0.0-316.0","0","0","AxP3Q","People","","null","","","","null","","35","","44","","","","","","","","","","","","","","","","NaN","null","","","","","","","","","","","","","","","","","","","","","","",""
"","respond_faster","","html-keyboard-response","331","959248","0.0-317.0-0.0","1","0","AxP3Q","People","","null","","","","null","","","","","","","","","","","","","","","","","","","","","","","","","","","","","","","","","","","","","","","","","","","",""
"","fixation","","html-keyboard-response","332","960271","0.0-319.0","0","0","AxP3Q","People","","null","","","","null","","","","","","","","","","","","","","","","","","","","","","","","","","","","","","","","","","","","","","","","","","","",""
"","see_reward","","html-keyboard-response","333","960771","0.0-320.0","0","0","AxP3Q","People","","488","","","","32","","23","","45","","","","1","","","","","2","","","","","147","488","","","","","","","","","","","","","","","","","","","","","","","","",""
"","reward_outcome","","html-keyboard-response","334","962792","0.0-321.0","0","0","AxP3Q","People","","null","","","","null","","23","","45","","","","","","","","","","","","","","","","NaN","null","","","","","","","","","","","","","","","","","","","","","","",""
"","respond_faster","","html-keyboard-response","335","964307","0.0-322.0-0.0","1","0","AxP3Q","People","","null","","","","null","","","","","","","","","","","","","","","","","","","","","","","","","","","","","","","","","","","","","","","","","","","",""
"","fixation","","html-keyboard-response","336","965322","0.0-324.0","0","0","AxP3Q","People","","null","","","","null","","","","","","","","","","","","","","","","","","","","","","","","","","","","","","","","","","","","","","","","","","","",""
"","see_reward","","html-keyboard-response","337","965527","0.0-325.0","0","0","AxP3Q","People","","190","","","","32","","1","","46","","","","1","","","","","2","","","","","150","190","","","","","","","","","","","","","","","","","","","","","","","","",""
"","reward_outcome","","html-keyboard-response","338","967543","0.0-326.0","0","0","AxP3Q","People","","null","","","","null","","1","","46","","","","","","","","","","","","","","","","NaN","null","","","","","","","","","","","","","","","","","","","","","","",""
"","respond_faster","","html-keyboard-response","339","969056","0.0-327.0-0.0","1","0","AxP3Q","People","","null","","","","null","","","","","","","","","","","","","","","","","","","","","","","","","","","","","","","","","","","","","","","","","","","",""
"","fixation","","html-keyboard-response","340","970076","0.0-329.0","0","0","AxP3Q","People","","null","","","","null","","","","","","","","","","","","","","","","","","","","","","","","","","","","","","","","","","","","","","","","","","","",""
"","see_reward","","html-keyboard-response","341","970621","0.0-330.0","0","0","AxP3Q","People","","538","","","","32","","44","","47","","","","-1","","","","","2","","","","","0","538","","","","","","","","","","","","","","","","","","","","","","","","",""
"","reward_outcome","","html-keyboard-response","342","972640","0.0-331.0","0","0","AxP3Q","People","","null","","","","null","","44","","47","","","","","","","","","","","","","","","","NaN","null","","","","","","","","","","","","","","","","","","","","","","",""
"","respond_faster","","html-keyboard-response","343","974157","0.0-332.0-0.0","1","0","AxP3Q","People","","null","","","","null","","","","","","","","","","","","","","","","","","","","","","","","","","","","","","","","","","","","","","","","","","","",""
"","block_over","","html-keyboard-response","344","976673","0.0-333.0-0.0","0","0","AxP3Q","People","","2507","","","","78","","","","","","","","","","","","","","","","","","","","","","","","","","","","","","","","","","","","","","","","","","","",""
"","fixation","","html-keyboard-response","345","977688","0.0-334.0","0","0","AxP3Q","People","","null","","","","null","","","","","","","","","","","","","","","","","","","","","","","","","","","","","","","","","","","","","","","","","","","",""
"","see_reward","","html-keyboard-response","346","978383","0.0-335.0","0","0","AxP3Q","People","","686","","","","32","","44","","48","","","","-1","","","","","3","","","","","0","686","","","","","","","","","","","","","","","","","","","","","","","","",""
"","reward_outcome","","html-keyboard-response","347","980403","0.0-336.0","0","0","AxP3Q","People","","null","","","","null","","44","","48","","","","","","","","","","","","","","","","NaN","null","","","","","","","","","","","","","","","","","","","","","","",""
"","respond_faster","","html-keyboard-response","348","981916","0.0-337.0-0.0","1","0","AxP3Q","People","","null","","","","null","","","","","","","","","","","","","","","","","","","","","","","","","","","","","","","","","","","","","","","","","","","",""
"","fixation","","html-keyboard-response","349","982930","0.0-339.0","0","0","AxP3Q","People","","null","","","","null","","","","","","","","","","","","","","","","","","","","","","","","","","","","","","","","","","","","","","","","","","","",""
"","see_reward","","html-keyboard-response","350","983841","0.0-340.0","0","0","AxP3Q","People","","897","","","","32","","1","","49","","","","1","","","","","3","","","","","150","897","","","","","","","","","","","","","","","","","","","","","","","","",""
"","reward_outcome","","html-keyboard-response","351","985873","0.0-341.0","0","0","AxP3Q","People","","null","","","","null","","1","","49","","","","","","","","","","","","","","","","NaN","null","","","","","","","","","","","","","","","","","","","","","","",""
"","respond_faster","","html-keyboard-response","352","987391","0.0-342.0-0.0","1","0","AxP3Q","People","","null","","","","null","","","","","","","","","","","","","","","","","","","","","","","","","","","","","","","","","","","","","","","","","","","",""
"","fixation","","html-keyboard-response","353","988539","0.0-344.0","0","0","AxP3Q","People","","null","","","","null","","","","","","","","","","","","","","","","","","","","","","","","","","","","","","","","","","","","","","","","","","","",""
"","see_reward","","html-keyboard-response","354","989273","0.0-345.0","0","0","AxP3Q","People","","717","","","","32","","23","","50","","","","1","","","","","3","","","","","147","717","","","","","","","","","","","","","","","","","","","","","","","","",""
"","reward_outcome","","html-keyboard-response","355","991310","0.0-346.0","0","0","AxP3Q","People","","null","","","","null","","23","","50","","","","","","","","","","","","","","","","NaN","null","","","","","","","","","","","","","","","","","","","","","","",""
