"success","ttype","start_time","trial_type","trial_index","time_elapsed","internal_node_id","warning","missed_checkup","PID","stim_type","view_history","rt","responses","category","repeat_instructions","key_press","response","stimulus_id","painting","index","stimulus_left","stimulus_right","explain_trial","reward_type","rating_left","rating_right","painting_left","painting_right","block","left_chosen","chosen_obj","unchosen_obj","explain_response","reward_amount","see_reward_rt","register_reward_response","register_reward_rt","deliberation_reward_tally","stimulus_left_deliberation_ind","stimulus_right_deliberation_ind","chosen_trial","gain_left","higher_outcome_chosen","old_pair","chosen_object","rt_pairs","left_object_chosen","rt_object","old_response","new_rating","deliberated_stim","initial_rating","outcome_eval_rt","outcome_eval_response","outcome_eval_gain","outcome_eval_acc","preamble","outcome_eval_confidence","outcome_eval_confidence_rt","total_reward_tally"
"true","full_screen","d01182023hr1357","fullscreen","0","32508","0.0-0.0","0","0","c2yi6","People","","","","","","","","","","","","","","","","","","","","","","","","","","","","","","","","","","","","","","","","","","","","","","","","","",""
"","rating_instructions","","instructions","1","44296","0.0-1.0-0.0","0","0","c2yi6","People","[{""page_index"":0,""viewing_time"":8388},{""page_index"":1,""viewing_time"":3393}]","11783","","","","","","","","","","","","","","","","","","","","","","","","","","","","","","","","","","","","","","","","","","","","","","","",""
"","","","survey-multi-choice","2","52255","0.0-1.0-1.0","0","0","c2yi6","People","","7948","{""Q0"":""True"",""Q1"":""Mouse""}","rating_comprehension_check","0","","","","","","","","","","","","","","","","","","","","","","","","","","","","","","","","","","","","","","","","","","","","",""
"","start_phase","","html-keyboard-response","3","56720","0.0-2.0","0","0","c2yi6","People","","4452","","","","78","","","","","","","","","","","","","","","","","","","","","","","","","","","","","","","","","","","","","","","","","","","",""
"","rating","","html-slider-response","4","64665","0.0-3.0","0","0","c2yi6","People","","7940","","","","","30","49","vicky-hladynets-_gDoyVv5F4c-unsplash.jpg","0","","","","","","","","","","","","","","","","","","","","","","","","","","","","","","","","","","","","","","","",""
"","rating","","html-slider-response","5","70972","0.0-4.0","0","0","c2yi6","People","","6302","","","","","77","48","velizar-ivanov-7ktP9yZA1g4-unsplash.jpg","1","","","","","","","","","","","","","","","","","","","","","","","","","","","","","","","","","","","","","","","",""
"","rating","","html-slider-response","6","76572","0.0-5.0","0","0","c2yi6","People","","5595","","","","","19","32","nathan-dumlao-ger61_TX6oI-unsplash.jpg","2","","","","","","","","","","","","","","","","","","","","","","","","","","","","","","","","","","","","","","","",""
"","rating","","html-slider-response","7","80027","0.0-6.0","0","0","c2yi6","People","","3449","","","","","65","4","barna-bartis-2x3vfVxwR7o-unsplash.jpg","3","","","","","","","","","","","","","","","","","","","","","","","","","","","","","","","","","","","","","","","",""
"","rating","","html-slider-response","8","83733","0.0-7.0","0","0","c2yi6","People","","3701","","","","","85","5","batel-studio-ttSRjiYG_WM-unsplash.jpg","4","","","","","","","","","","","","","","","","","","","","","","","","","","","","","","","","","","","","","","","",""
"","rating","","html-slider-response","9","90405","0.0-8.0","0","0","c2yi6","People","","6667","","","","","82","31","mathilda-khoo-vLR0YP_otCo-unsplash.jpg","5","","","","","","","","","","","","","","","","","","","","","","","","","","","","","","","","","","","","","","","",""
"","rating","","html-slider-response","10","96198","0.0-9.0","0","0","c2yi6","People","","5788","","","","","93","43","raamin-ka-0qJBEzudn5E-unsplash.jpg","6","","","","","","","","","","","","","","","","","","","","","","","","","","","","","","","","","","","","","","","",""
"","rating","","html-slider-response","11","100192","0.0-10.0","0","0","c2yi6","People","","3990","","","","","100","20","houcine-ncib-B4TjXnI0Y2c-unsplash.jpg","7","","","","","","","","","","","","","","","","","","","","","","","","","","","","","","","","","","","","","","","",""
"","rating","","html-slider-response","12","103185","0.0-11.0","0","0","c2yi6","People","","2987","","","","","57","9","carlos-andres-gomez-vJuk8Y86mRw-unsplash.jpg","8","","","","","","","","","","","","","","","","","","","","","","","","","","","","","","","","","","","","","","","",""
"","rating","","html-slider-response","13","105804","0.0-12.0","0","0","c2yi6","People","","2616","","","","","62","33","olena-sergienko-0TSd6uCKTKc-unsplash.jpg","9","","","","","","","","","","","","","","","","","","","","","","","","","","","","","","","","","","","","","","","",""
"","rating","","html-slider-response","14","108419","0.0-13.0","0","0","c2yi6","People","","2611","","","","","83","25","joseph-gonzalez-iFgRcqHznqg-unsplash.jpg","10","","","","","","","","","","","","","","","","","","","","","","","","","","","","","","","","","","","","","","","",""
"","rating","","html-slider-response","15","111350","0.0-14.0","0","0","c2yi6","People","","2926","","","","","64","38","petr-sevcovic-HzDF-rxlSeM-unsplash.jpg","11","","","","","","","","","","","","","","","","","","","","","","","","","","","","","","","","","","","","","","","",""
"","rating","","html-slider-response","16","118764","0.0-15.0","0","0","c2yi6","People","","7409","","","","","39","27","jurica-koletic-7YVZYZeITc8-unsplash.jpg","12","","","","","","","","","","","","","","","","","","","","","","","","","","","","","","","","","","","","","","","",""
"","rating","","html-slider-response","17","121843","0.0-16.0","0","0","c2yi6","People","","3074","","","","","59","22","jessica-radanavong-mrYkTuAesKE-unsplash.jpg","13","","","","","","","","","","","","","","","","","","","","","","","","","","","","","","","","","","","","","","","",""
"","rating","","html-slider-response","18","124531","0.0-17.0","0","0","c2yi6","People","","2683","","","","","62","12","daniel-rigdon-dXmXKPP2L4E-unsplash.jpg","14","","","","","","","","","","","","","","","","","","","","","","","","","","","","","","","","","","","","","","","",""
"","rating","","html-slider-response","19","127116","0.0-18.0","0","0","c2yi6","People","","2581","","","","","62","37","pavel-anoshin-d0peGya6R5Y-unsplash.jpg","15","","","","","","","","","","","","","","","","","","","","","","","","","","","","","","","","","","","","","","","",""
"","rating","","html-slider-response","20","130167","0.0-19.0","0","0","c2yi6","People","","3045","","","","","77","47","tyler-nix-ZGa9d1a_4tA-unsplash.jpg","16","","","","","","","","","","","","","","","","","","","","","","","","","","","","","","","","","","","","","","","",""
"","rating","","html-slider-response","21","133764","0.0-20.0","0","0","c2yi6","People","","3592","","","","","56","28","justin-chen-J7Cf1Gch49E-unsplash.jpg","17","","","","","","","","","","","","","","","","","","","","","","","","","","","","","","","","","","","","","","","",""
"","rating","","html-slider-response","22","137241","0.0-21.0","0","0","c2yi6","People","","3473","","","","","37","35","oliver-ragfelt-khV4fTy6-D8-unsplash.jpg","18","","","","","","","","","","","","","","","","","","","","","","","","","","","","","","","","","","","","","","","",""
"","rating","","html-slider-response","23","141378","0.0-22.0","0","0","c2yi6","People","","4132","","","","","72","13","erik-lucatero-d2MSDujJl2g-unsplash.jpg","19","","","","","","","","","","","","","","","","","","","","","","","","","","","","","","","","","","","","","","","",""
"","rating","","html-slider-response","24","146592","0.0-23.0","0","0","c2yi6","People","","5211","","","","","69","40","prince-akachi-4Yv84VgQkRM-unsplash.jpg","20","","","","","","","","","","","","","","","","","","","","","","","","","","","","","","","","","","","","","","","",""
"","rating","","html-slider-response","25","149886","0.0-24.0","0","0","c2yi6","People","","3289","","","","","92","44","rikonavt-HQjfrvdTfak-unsplash.jpg","21","","","","","","","","","","","","","","","","","","","","","","","","","","","","","","","","","","","","","","","",""
"","rating","","html-slider-response","26","153032","0.0-25.0","0","0","c2yi6","People","","3141","","","","","76","36","ospan-ali-mGdA2fzjWLo-unsplash.jpg","22","","","","","","","","","","","","","","","","","","","","","","","","","","","","","","","","","","","","","","","",""
"","rating","","html-slider-response","27","157070","0.0-26.0","0","0","c2yi6","People","","4032","","","","","63","34","oliver-johnson-1TUIcKob7Zs-unsplash.jpg","23","","","","","","","","","","","","","","","","","","","","","","","","","","","","","","","","","","","","","","","",""
"","rating","","html-slider-response","28","162899","0.0-27.0","0","0","c2yi6","People","","5824","","","","","73","45","sarah-noltner-pL5ZzPp1zqg-unsplash.jpg","24","","","","","","","","","","","","","","","","","","","","","","","","","","","","","","","","","","","","","","","",""
"","rating","","html-slider-response","29","165750","0.0-28.0","0","0","c2yi6","People","","2846","","","","","90","11","christian-ferrer-8vT-DgHZDG4-unsplash.jpg","25","","","","","","","","","","","","","","","","","","","","","","","","","","","","","","","","","","","","","","","",""
"","rating","","html-slider-response","30","169299","0.0-29.0","0","0","c2yi6","People","","3544","","","","","60","1","aiony-haust-jmATI5Q_YgY-unsplash.jpg","26","","","","","","","","","","","","","","","","","","","","","","","","","","","","","","","","","","","","","","","",""
"","rating","","html-slider-response","31","173117","0.0-30.0","0","0","c2yi6","People","","3814","","","","","83","26","juri-gianfrancesco-9EZadYaMzk4-unsplash.jpg","27","","","","","","","","","","","","","","","","","","","","","","","","","","","","","","","","","","","","","","","",""
"","rating","","html-slider-response","32","176245","0.0-31.0","0","0","c2yi6","People","","3122","","","","","63","39","philip-martin-5aGUyCW_PJw-unsplash.jpg","28","","","","","","","","","","","","","","","","","","","","","","","","","","","","","","","","","","","","","","","",""
"","rating","","html-slider-response","33","178801","0.0-32.0","0","0","c2yi6","People","","2551","","","","","62","6","ben-o-bro-C5XyLljkMrY-unsplash.jpg","29","","","","","","","","","","","","","","","","","","","","","","","","","","","","","","","","","","","","","","","",""
"","rating","","html-slider-response","34","181152","0.0-33.0","0","0","c2yi6","People","","2346","","","","","73","0","abstral-official-cyOKLSgkgCE-unsplash.jpg","30","","","","","","","","","","","","","","","","","","","","","","","","","","","","","","","","","","","","","","","",""
"","rating","","html-slider-response","35","184063","0.0-34.0","0","0","c2yi6","People","","2907","","","","","65","18","good-faces-xmSWVeGEnJw-unsplash.jpg","31","","","","","","","","","","","","","","","","","","","","","","","","","","","","","","","","","","","","","","","",""
"","rating","","html-slider-response","36","187129","0.0-35.0","0","0","c2yi6","People","","3063","","","","","69","10","charles-etoroma-95UF6LXe-Lo-unsplash.jpg","32","","","","","","","","","","","","","","","","","","","","","","","","","","","","","","","","","","","","","","","",""
"","rating","","html-slider-response","37","193036","0.0-36.0","0","0","c2yi6","People","","5903","","","","","36","7","brooke-cagle-HRZUzoX1e6w-unsplash.jpg","33","","","","","","","","","","","","","","","","","","","","","","","","","","","","","","","","","","","","","","","",""
"","rating","","html-slider-response","38","196068","0.0-37.0","0","0","c2yi6","People","","3028","","","","","61","30","matheus-ferrero-pg_WCHWSdT8-unsplash.jpg","34","","","","","","","","","","","","","","","","","","","","","","","","","","","","","","","","","","","","","","","",""
"","rating","","html-slider-response","39","199133","0.0-38.0","0","0","c2yi6","People","","3061","","","","","58","19","ha-nguy-n-OFSQ6bHjFjs-unsplash.jpg","35","","","","","","","","","","","","","","","","","","","","","","","","","","","","","","","","","","","","","","","",""
"","rating","","html-slider-response","40","202599","0.0-39.0","0","0","c2yi6","People","","3461","","","","","62","3","art-hauntington-jzY0KRJopEI-unsplash.jpg","36","","","","","","","","","","","","","","","","","","","","","","","","","","","","","","","","","","","","","","","",""
"","rating","","html-slider-response","41","205620","0.0-40.0","0","0","c2yi6","People","","3018","","","","","74","42","prince-akachi-l3IHXOdMyHQ-unsplash.jpg","37","","","","","","","","","","","","","","","","","","","","","","","","","","","","","","","","","","","","","","","",""
"","rating","","html-slider-response","42","208048","0.0-41.0","0","0","c2yi6","People","","2423","","","","","74","29","leilani-angel-K84vnnzxmTQ-unsplash.jpg","38","","","","","","","","","","","","","","","","","","","","","","","","","","","","","","","","","","","","","","","",""
"","rating","","html-slider-response","43","212159","0.0-42.0","0","0","c2yi6","People","","4106","","","","","35","2","arjunsyah-TBUA5KHJn6k-unsplash.jpg","39","","","","","","","","","","","","","","","","","","","","","","","","","","","","","","","","","","","","","","","",""
"","rating","","html-slider-response","44","214666","0.0-43.0","0","0","c2yi6","People","","2503","","","","","65","16","giano-currie-5-9YOsmf8IQ-unsplash.jpg","40","","","","","","","","","","","","","","","","","","","","","","","","","","","","","","","","","","","","","","","",""
"","rating","","html-slider-response","45","217454","0.0-44.0","0","0","c2yi6","People","","2784","","","","","71","23","joanna-nix-walkup-H4fEMshfwTE-unsplash.jpg","41","","","","","","","","","","","","","","","","","","","","","","","","","","","","","","","","","","","","","","","",""
"","rating","","html-slider-response","46","221652","0.0-45.0","0","0","c2yi6","People","","4194","","","","","38","15","gabriel-silverio-u3WmDyKGsrY-unsplash.jpg","42","","","","","","","","","","","","","","","","","","","","","","","","","","","","","","","","","","","","","","","",""
"","rating","","html-slider-response","47","224175","0.0-46.0","0","0","c2yi6","People","","2517","","","","","63","41","prince-akachi-i2hoD-C2RUA-unsplash.jpg","43","","","","","","","","","","","","","","","","","","","","","","","","","","","","","","","","","","","","","","","",""
"","rating","","html-slider-response","48","226351","0.0-47.0","0","0","c2yi6","People","","2172","","","","","74","46","stefan-stefancik-QXevDflbl8A-unsplash.jpg","44","","","","","","","","","","","","","","","","","","","","","","","","","","","","","","","","","","","","","","","",""
"","rating","","html-slider-response","49","231992","0.0-48.0","0","0","c2yi6","People","","5637","","","","","66","14","freddy-kearney-o-ioeoATbIM-unsplash.jpg","45","","","","","","","","","","","","","","","","","","","","","","","","","","","","","","","","","","","","","","","",""
"","rating","","html-slider-response","50","235726","0.0-49.0","0","0","c2yi6","People","","3729","","","","","92","17","gleb-lukomets-paBzWCPN23k-unsplash.jpg","46","","","","","","","","","","","","","","","","","","","","","","","","","","","","","","","","","","","","","","","",""
"","rating","","html-slider-response","51","240705","0.0-50.0","0","0","c2yi6","People","","4973","","","","","59","8","bruce-dixon-3M9WJQVHzog-unsplash.jpg","47","","","","","","","","","","","","","","","","","","","","","","","","","","","","","","","","","","","","","","","",""
"","rating","","html-slider-response","52","243397","0.0-51.0","0","0","c2yi6","People","","2687","","","","","58","24","joel-mott-LaK153ghdig-unsplash.jpg","48","","","","","","","","","","","","","","","","","","","","","","","","","","","","","","","","","","","","","","","",""
"","rating","","html-slider-response","53","246465","0.0-52.0","0","0","c2yi6","People","","3063","","","","","73","21","jessica-felicio-_cvwXhGqG-o-unsplash.jpg","49","","","","","","","","","","","","","","","","","","","","","","","","","","","","","","","","","","","","","","","",""
"","deliberation_instructions","","instructions","54","338159","0.0-53.0-0.0","0","0","c2yi6","People","[{""page_index"":0,""viewing_time"":12843},{""page_index"":1,""viewing_time"":9177},{""page_index"":2,""viewing_time"":33753},{""page_index"":3,""viewing_time"":33505},{""page_index"":4,""viewing_time"":2408}]","91687","","","","","","","","","","","","","","","","","","","","","","","","","","","","","","","","","","","","","","","","","","","","","","","",""
"","","","survey-multi-choice","55","365307","0.0-53.0-1.0","0","0","c2yi6","People","","27127","{""Q0"":""True"",""Q1"":""True"",""Q2"":""Consider carefully and take your time (up to 10 seconds)"",""Q3"":""True"",""Q4"":""D""}","deliberation_comprehension_check","0","","","","","","","","","","","","","","","","","","","","","","","","","","","","","","","","","","","","","","","","","","","","",""
"","start_phase","","html-keyboard-response","56","370120","0.0-54.0","0","0","c2yi6","People","","4803","","","","78","","","","","","","","","","","","","","","","","","","","","","","","","","","","","","","","","","","","","","","","","","","",""
"","first_deliberation_block","","html-keyboard-response","57","371958","0.0-55.0","0","0","c2yi6","People","","1835","","","","78","","","","","","","","","","","","","","","","","","","","","","","","","","","","","","","","","","","","","","","","","","","",""
"","fixation","","html-keyboard-response","58","372965","0.0-56.0-0.0","0","0","c2yi6","People","","null","","","","null","","","","","","","","","","","","","","","","","","","","","","","","","","","","","","","","","","","","","","","","","","","",""
"","deliberation","","html-keyboard-response","59","376797","0.0-56.0-1.0","0","0","c2yi6","People","","3828","","","","68","","","","0","0","12","0","-1","73","62","abstral-official-cyOKLSgkgCE-unsplash.jpg","daniel-rigdon-dXmXKPP2L4E-unsplash.jpg","1","1","0","12","","","","","","","","","","","","","","","","","","","","","","","","","","","",""
"","choice_confirmation","","html-keyboard-response","60","377304","0.0-56.0-2.0-0.0","0","0","c2yi6","People","","null","","","","null","","","","0","0","12","","","","","","","","","","","","","","","","","","","","","","","","","","","","","","","","","","","","","",""
"","fixation","","html-keyboard-response","61","378321","0.0-57.0-0.0","0","0","c2yi6","People","","null","","","","null","","","","","","","","","","","","","","","","","","","","","","","","","","","","","","","","","","","","","","","","","","","",""
"","deliberation","","html-keyboard-response","62","381206","0.0-57.0-1.0","0","0","c2yi6","People","","2882","","","","75","","","","1","29","39","1","1","74","63","leilani-angel-K84vnnzxmTQ-unsplash.jpg","philip-martin-5aGUyCW_PJw-unsplash.jpg","1","0","39","29","","","","","","","","","","","","","","","","","","","","","","","","","","","",""
"","choice_confirmation","","html-keyboard-response","63","381714","0.0-57.0-2.0-0.0","0","0","c2yi6","People","","null","","","","null","","","","1","29","39","","","","","","","","","","","","","","","","","","","","","","","","","","","","","","","","","","","","","",""
"","explain_trial","","survey-text","64","439153","0.0-57.0-5.0-0.0","0","0","c2yi6","People","","57433","{""Q0"":""Because I felt the photograph spoke more to more based on the background and the way the subject is posing. He seems confident and assured with himself.""}","","","","","","","1","29","39","","","","","","","","","","","{""Q0"":""Because I felt the photograph spoke more to more based on the background and the way the subject is posing. He seems confident and assured with himself.""}","","","","","","","","","","","","","","","","","","","","","","","","","","",""
"","fixation","","html-keyboard-response","65","440169","0.0-58.0-0.0","0","0","c2yi6","People","","null","","","","null","","","","","","","","","","","","","","","","","","","","","","","","","","","","","","","","","","","","","","","","","","","",""
"","deliberation","","html-keyboard-response","66","443442","0.0-58.0-1.0","0","0","c2yi6","People","","3268","","","","75","","","","2","16","14","1","-1","65","66","giano-currie-5-9YOsmf8IQ-unsplash.jpg","freddy-kearney-o-ioeoATbIM-unsplash.jpg","1","0","14","16","","","","","","","","","","","","","","","","","","","","","","","","","","","",""
"","choice_confirmation","","html-keyboard-response","67","443951","0.0-58.0-2.0-0.0","0","0","c2yi6","People","","null","","","","null","","","","2","16","14","","","","","","","","","","","","","","","","","","","","","","","","","","","","","","","","","","","","","",""
"","explain_trial","","survey-text","68","528979","0.0-58.0-5.0-0.0","0","0","c2yi6","People","","85022","{""Q0"":""It seems the subject of the photo wears his soul outwardly. Looking at the picture it makes you feel like you know him. It connects with you on an intimate level.""}","","","","","","","2","16","14","","","","","","","","","","","{""Q0"":""It seems the subject of the photo wears his soul outwardly. Looking at the picture it makes you feel like you know him. It connects with you on an intimate level.""}","","","","","","","","","","","","","","","","","","","","","","","","","","",""
"","fixation","","html-keyboard-response","69","529988","0.0-59.0-0.0","0","0","c2yi6","People","","null","","","","null","","","","","","","","","","","","","","","","","","","","","","","","","","","","","","","","","","","","","","","","","","","",""
"","deliberation","","html-keyboard-response","70","533119","0.0-59.0-1.0","0","0","c2yi6","People","","3128","","","","68","","","","3","37","3","0","1","62","62","pavel-anoshin-d0peGya6R5Y-unsplash.jpg","art-hauntington-jzY0KRJopEI-unsplash.jpg","1","1","37","3","","","","","","","","","","","","","","","","","","","","","","","","","","","",""
"","choice_confirmation","","html-keyboard-response","71","533627","0.0-59.0-2.0-0.0","0","0","c2yi6","People","","null","","","","null","","","","3","37","3","","","","","","","","","","","","","","","","","","","","","","","","","","","","","","","","","","","","","",""
"","fixation","","html-keyboard-response","72","534639","0.0-60.0-0.0","0","0","c2yi6","People","","null","","","","null","","","","","","","","","","","","","","","","","","","","","","","","","","","","","","","","","","","","","","","","","","","",""
"","deliberation","","html-keyboard-response","73","539865","0.0-60.0-1.0","0","0","c2yi6","People","","5222","","","","75","","","","4","6","34","1","1","62","63","ben-o-bro-C5XyLljkMrY-unsplash.jpg","oliver-johnson-1TUIcKob7Zs-unsplash.jpg","1","0","34","6","","","","","","","","","","","","","","","","","","","","","","","","","","","",""
"","choice_confirmation","","html-keyboard-response","74","540380","0.0-60.0-2.0-0.0","0","0","c2yi6","People","","null","","","","null","","","","4","6","34","","","","","","","","","","","","","","","","","","","","","","","","","","","","","","","","","","","","","",""
"","explain_trial","","survey-text","75","593940","0.0-60.0-5.0-0.0","0","0","c2yi6","People","","53553","{""Q0"":""The subject has a mysterious air about them. It's almost as if she's thinking about something very deep and troubling, and that stirred my imagination. ""}","","","","","","","4","6","34","","","","","","","","","","","{""Q0"":""The subject has a mysterious air about them. It's almost as if she's thinking about something very deep and troubling, and that stirred my imagination. ""}","","","","","","","","","","","","","","","","","","","","","","","","","","",""
"","fixation","","html-keyboard-response","76","594949","0.0-61.0-0.0","0","0","c2yi6","People","","null","","","","null","","","","","","","","","","","","","","","","","","","","","","","","","","","","","","","","","","","","","","","","","","","",""
"","deliberation","","html-keyboard-response","77","597110","0.0-61.0-1.0","0","0","c2yi6","People","","2156","","","","75","","","","5","30","40","1","1","61","69","matheus-ferrero-pg_WCHWSdT8-unsplash.jpg","prince-akachi-4Yv84VgQkRM-unsplash.jpg","1","0","40","30","","","","","","","","","","","","","","","","","","","","","","","","","","","",""
"","choice_confirmation","","html-keyboard-response","78","597615","0.0-61.0-2.0-0.0","0","0","c2yi6","People","","null","","","","null","","","","5","30","40","","","","","","","","","","","","","","","","","","","","","","","","","","","","","","","","","","","","","",""
"","explain_trial","","survey-text","79","644707","0.0-61.0-5.0-0.0","0","0","c2yi6","People","","47088","{""Q0"":""The subject seems warm and inviting. I like the idea of capturing a photographer holding his camera, it just seems so natural.""}","","","","","","","5","30","40","","","","","","","","","","","{""Q0"":""The subject seems warm and inviting. I like the idea of capturing a photographer holding his camera, it just seems so natural.""}","","","","","","","","","","","","","","","","","","","","","","","","","","",""
"","fixation","","html-keyboard-response","80","645721","0.0-62.0-0.0","0","0","c2yi6","People","","null","","","","null","","","","","","","","","","","","","","","","","","","","","","","","","","","","","","","","","","","","","","","","","","","",""
"","deliberation","","html-keyboard-response","81","648325","0.0-62.0-1.0","0","0","c2yi6","People","","2600","","","","75","","","","6","13","42","1","-1","72","74","erik-lucatero-d2MSDujJl2g-unsplash.jpg","prince-akachi-l3IHXOdMyHQ-unsplash.jpg","1","0","42","13","","","","","","","","","","","","","","","","","","","","","","","","","","","",""
"","choice_confirmation","","html-keyboard-response","82","648845","0.0-62.0-2.0-0.0","0","0","c2yi6","People","","null","","","","null","","","","6","13","42","","","","","","","","","","","","","","","","","","","","","","","","","","","","","","","","","","","","","",""
"","explain_trial","","survey-text","83","749401","0.0-62.0-5.0-0.0","0","0","c2yi6","People","","100553","{""Q0"":""The filter on the photo makes it appear vintage, which makes me nastaligic. The colors in the photo are easy on the eyes but enough to draw your attention to them. I like the expression on the subject's face. ""}","","","","","","","6","13","42","","","","","","","","","","","{""Q0"":""The filter on the photo makes it appear vintage, which makes me nastaligic. The colors in the photo are easy on the eyes but enough to draw your attention to them. I like the expression on the subject's face. ""}","","","","","","","","","","","","","","","","","","","","","","","","","","",""
"","fixation","","html-keyboard-response","84","750412","0.0-63.0-0.0","0","0","c2yi6","People","","null","","","","null","","","","","","","","","","","","","","","","","","","","","","","","","","","","","","","","","","","","","","","","","","","",""
"","deliberation","","html-keyboard-response","85","753511","0.0-63.0-1.0","0","0","c2yi6","People","","3094","","","","68","","","","7","10","23","0","1","69","71","charles-etoroma-95UF6LXe-Lo-unsplash.jpg","joanna-nix-walkup-H4fEMshfwTE-unsplash.jpg","1","1","10","23","","","","","","","","","","","","","","","","","","","","","","","","","","","",""
"","choice_confirmation","","html-keyboard-response","86","754023","0.0-63.0-2.0-0.0","0","0","c2yi6","People","","null","","","","null","","","","7","10","23","","","","","","","","","","","","","","","","","","","","","","","","","","","","","","","","","","","","","",""
"","fixation","","html-keyboard-response","87","755036","0.0-64.0-0.0","0","0","c2yi6","People","","null","","","","null","","","","","","","","","","","","","","","","","","","","","","","","","","","","","","","","","","","","","","","","","","","",""
"","deliberation","","html-keyboard-response","88","758309","0.0-64.0-1.0","0","0","c2yi6","People","","3269","","","","68","","","","8","21","4","1","-1","73","65","jessica-felicio-_cvwXhGqG-o-unsplash.jpg","barna-bartis-2x3vfVxwR7o-unsplash.jpg","1","1","21","4","","","","","","","","","","","","","","","","","","","","","","","","","","","",""
"","choice_confirmation","","html-keyboard-response","89","758824","0.0-64.0-2.0-0.0","0","0","c2yi6","People","","null","","","","null","","","","8","21","4","","","","","","","","","","","","","","","","","","","","","","","","","","","","","","","","","","","","","",""
"","explain_trial","","survey-text","90","814403","0.0-64.0-5.0-0.0","0","0","c2yi6","People","","55573","{""Q0"":""I like the cloudy editing they did to the picture, it makes it seem mystical and the subject is telling a story with her expression and it is intriguing. ""}","","","","","","","8","21","4","","","","","","","","","","","{""Q0"":""I like the cloudy editing they did to the picture, it makes it seem mystical and the subject is telling a story with her expression and it is intriguing. ""}","","","","","","","","","","","","","","","","","","","","","","","","","","",""
"","fixation","","html-keyboard-response","91","815427","0.0-65.0-0.0","0","0","c2yi6","People","","null","","","","null","","","","","","","","","","","","","","","","","","","","","","","","","","","","","","","","","","","","","","","","","","","",""
"","deliberation","","html-keyboard-response","92","820597","0.0-65.0-1.0","0","0","c2yi6","People","","5166","","","","68","","","","9","41","18","0","-1","63","65","prince-akachi-i2hoD-C2RUA-unsplash.jpg","good-faces-xmSWVeGEnJw-unsplash.jpg","1","1","41","18","","","","","","","","","","","","","","","","","","","","","","","","","","","",""
"","choice_confirmation","","html-keyboard-response","93","821107","0.0-65.0-2.0-0.0","0","0","c2yi6","People","","null","","","","null","","","","9","41","18","","","","","","","","","","","","","","","","","","","","","","","","","","","","","","","","","","","","","",""
"","fixation","","html-keyboard-response","94","822124","0.0-66.0-0.0","0","0","c2yi6","People","","null","","","","null","","","","","","","","","","","","","","","","","","","","","","","","","","","","","","","","","","","","","","","","","","","",""
"","deliberation","","html-keyboard-response","95","824343","0.0-66.0-1.0","0","0","c2yi6","People","","2216","","","","75","","","","10","33","1","0","1","62","60","olena-sergienko-0TSd6uCKTKc-unsplash.jpg","aiony-haust-jmATI5Q_YgY-unsplash.jpg","1","0","1","33","","","","","","","","","","","","","","","","","","","","","","","","","","","",""
"","choice_confirmation","","html-keyboard-response","96","824849","0.0-66.0-2.0-0.0","0","0","c2yi6","People","","null","","","","null","","","","10","33","1","","","","","","","","","","","","","","","","","","","","","","","","","","","","","","","","","","","","","",""
"","fixation","","html-keyboard-response","97","825864","0.0-67.0-0.0","0","0","c2yi6","People","","null","","","","null","","","","","","","","","","","","","","","","","","","","","","","","","","","","","","","","","","","","","","","","","","","",""
"","deliberation","","html-keyboard-response","98","828059","0.0-67.0-1.0","0","0","c2yi6","People","","2192","","","","68","","","","11","45","38","0","-1","73","64","sarah-noltner-pL5ZzPp1zqg-unsplash.jpg","petr-sevcovic-HzDF-rxlSeM-unsplash.jpg","1","1","45","38","","","","","","","","","","","","","","","","","","","","","","","","","","","",""
"","choice_confirmation","","html-keyboard-response","99","828579","0.0-67.0-2.0-0.0","0","0","c2yi6","People","","null","","","","null","","","","11","45","38","","","","","","","","","","","","","","","","","","","","","","","","","","","","","","","","","","","","","",""
"","practice_deliberation_again","","html-keyboard-response","100","834563","0.0-67.0-6.0-0.0","0","0","c2yi6","People","","5980","","","","78","","","","","","","","","","","","","","","","","","","","","","","","","","","","","","","","","","","","","","","","","","","",""
"","fixation","","html-keyboard-response","101","835573","0.0-68.0-0.0","0","0","c2yi6","People","","null","","","","null","","","","","","","","","","","","","","","","","","","","","","","","","","","","","","","","","","","","","","","","","","","",""
"","deliberation","","html-keyboard-response","102","838475","0.0-68.0-1.0","0","0","c2yi6","People","","2897","","","","68","","","","12","10","23","1","1","69","71","charles-etoroma-95UF6LXe-Lo-unsplash.jpg","joanna-nix-walkup-H4fEMshfwTE-unsplash.jpg","2","1","10","23","","","","","","","","","","","","","","","","","","","","","","","","","","","",""
"","choice_confirmation","","html-keyboard-response","103","838988","0.0-68.0-2.0-0.0","0","0","c2yi6","People","","null","","","","null","","","","12","10","23","","","","","","","","","","","","","","","","","","","","","","","","","","","","","","","","","","","","","",""
"","explain_trial","","survey-text","104","886014","0.0-68.0-5.0-0.0","0","0","c2yi6","People","","47021","{""Q0"":""The subject's happiness is infectious. It lifts your spirits.""}","","","","","","","12","10","23","","","","","","","","","","","{""Q0"":""The subject's happiness is infectious. It lifts your spirits.""}","","","","","","","","","","","","","","","","","","","","","","","","","","",""
"","fixation","","html-keyboard-response","105","887021","0.0-69.0-0.0","0","0","c2yi6","People","","null","","","","null","","","","","","","","","","","","","","","","","","","","","","","","","","","","","","","","","","","","","","","","","","","",""
"","deliberation","","html-keyboard-response","106","889162","0.0-69.0-1.0","0","0","c2yi6","People","","2137","","","","75","","","","13","30","40","0","1","61","69","matheus-ferrero-pg_WCHWSdT8-unsplash.jpg","prince-akachi-4Yv84VgQkRM-unsplash.jpg","2","0","40","30","","","","","","","","","","","","","","","","","","","","","","","","","","","",""
"","choice_confirmation","","html-keyboard-response","107","889682","0.0-69.0-2.0-0.0","0","0","c2yi6","People","","null","","","","null","","","","13","30","40","","","","","","","","","","","","","","","","","","","","","","","","","","","","","","","","","","","","","",""
"","fixation","","html-keyboard-response","108","890696","0.0-70.0-0.0","0","0","c2yi6","People","","null","","","","null","","","","","","","","","","","","","","","","","","","","","","","","","","","","","","","","","","","","","","","","","","","",""
"","deliberation","","html-keyboard-response","109","894082","0.0-70.0-1.0","0","0","c2yi6","People","","3383","","","","75","","","","14","6","34","0","1","62","63","ben-o-bro-C5XyLljkMrY-unsplash.jpg","oliver-johnson-1TUIcKob7Zs-unsplash.jpg","2","0","34","6","","","","","","","","","","","","","","","","","","","","","","","","","","","",""
"","choice_confirmation","","html-keyboard-response","110","894593","0.0-70.0-2.0-0.0","0","0","c2yi6","People","","null","","","","null","","","","14","6","34","","","","","","","","","","","","","","","","","","","","","","","","","","","","","","","","","","","","","",""
"","fixation","","html-keyboard-response","111","895613","0.0-71.0-0.0","0","0","c2yi6","People","","null","","","","null","","","","","","","","","","","","","","","","","","","","","","","","","","","","","","","","","","","","","","","","","","","",""
"","deliberation","","html-keyboard-response","112","896683","0.0-71.0-1.0","0","0","c2yi6","People","","1066","","","","75","","","","15","16","14","0","-1","65","66","giano-currie-5-9YOsmf8IQ-unsplash.jpg","freddy-kearney-o-ioeoATbIM-unsplash.jpg","2","0","14","16","","","","","","","","","","","","","","","","","","","","","","","","","","","",""
"","choice_confirmation","","html-keyboard-response","113","897190","0.0-71.0-2.0-0.0","0","0","c2yi6","People","","null","","","","null","","","","15","16","14","","","","","","","","","","","","","","","","","","","","","","","","","","","","","","","","","","","","","",""
"","fixation","","html-keyboard-response","114","898209","0.0-72.0-0.0","0","0","c2yi6","People","","null","","","","null","","","","","","","","","","","","","","","","","","","","","","","","","","","","","","","","","","","","","","","","","","","",""
"","deliberation","","html-keyboard-response","115","900248","0.0-72.0-1.0","0","0","c2yi6","People","","2036","","","","68","","","","16","41","18","1","-1","63","65","prince-akachi-i2hoD-C2RUA-unsplash.jpg","good-faces-xmSWVeGEnJw-unsplash.jpg","2","1","41","18","","","","","","","","","","","","","","","","","","","","","","","","","","","",""
"","choice_confirmation","","html-keyboard-response","116","900765","0.0-72.0-2.0-0.0","0","0","c2yi6","People","","null","","","","null","","","","16","41","18","","","","","","","","","","","","","","","","","","","","","","","","","","","","","","","","","","","","","",""
"","explain_trial","","survey-text","117","1017428","0.0-72.0-5.0-0.0","0","0","c2yi6","People","","116660","{""Q0"":""The pose of the subject draws your eyes to the picture. The colors on her headband are nice to look at.""}","","","","","","","16","41","18","","","","","","","","","","","{""Q0"":""The pose of the subject draws your eyes to the picture. The colors on her headband are nice to look at.""}","","","","","","","","","","","","","","","","","","","","","","","","","","",""
"","fixation","","html-keyboard-response","118","1018443","0.0-73.0-0.0","0","0","c2yi6","People","","null","","","","null","","","","","","","","","","","","","","","","","","","","","","","","","","","","","","","","","","","","","","","","","","","",""
"","deliberation","","html-keyboard-response","119","1023465","0.0-73.0-1.0","0","0","c2yi6","People","","5018","","","","75","","","","17","29","39","0","1","74","63","leilani-angel-K84vnnzxmTQ-unsplash.jpg","philip-martin-5aGUyCW_PJw-unsplash.jpg","2","0","39","29","","","","","","","","","","","","","","","","","","","","","","","","","","","",""
"","choice_confirmation","","html-keyboard-response","120","1023984","0.0-73.0-2.0-0.0","0","0","c2yi6","People","","null","","","","null","","","","17","29","39","","","","","","","","","","","","","","","","","","","","","","","","","","","","","","","","","","","","","",""
"","fixation","","html-keyboard-response","121","1024996","0.0-74.0-0.0","0","0","c2yi6","People","","null","","","","null","","","","","","","","","","","","","","","","","","","","","","","","","","","","","","","","","","","","","","","","","","","",""
"","deliberation","","html-keyboard-response","122","1026895","0.0-74.0-1.0","0","0","c2yi6","People","","1896","","","","75","","","","18","13","42","0","-1","72","74","erik-lucatero-d2MSDujJl2g-unsplash.jpg","prince-akachi-l3IHXOdMyHQ-unsplash.jpg","2","0","42","13","","","","","","","","","","","","","","","","","","","","","","","","","","","",""
"","choice_confirmation","","html-keyboard-response","123","1027419","0.0-74.0-2.0-0.0","0","0","c2yi6","People","","null","","","","null","","","","18","13","42","","","","","","","","","","","","","","","","","","","","","","","","","","","","","","","","","","","","","",""
"","fixation","","html-keyboard-response","124","1028434","0.0-75.0-0.0","0","0","c2yi6","People","","null","","","","null","","","","","","","","","","","","","","","","","","","","","","","","","","","","","","","","","","","","","","","","","","","",""
"","deliberation","","html-keyboard-response","125","1035158","0.0-75.0-1.0","0","0","c2yi6","People","","6720","","","","68","","","","19","37","3","1","1","62","62","pavel-anoshin-d0peGya6R5Y-unsplash.jpg","art-hauntington-jzY0KRJopEI-unsplash.jpg","2","1","37","3","","","","","","","","","","","","","","","","","","","","","","","","","","","",""
"","choice_confirmation","","html-keyboard-response","126","1035665","0.0-75.0-2.0-0.0","0","0","c2yi6","People","","null","","","","null","","","","19","37","3","","","","","","","","","","","","","","","","","","","","","","","","","","","","","","","","","","","","","",""
"","explain_trial","","survey-text","127","1068769","0.0-75.0-5.0-0.0","0","0","c2yi6","People","","33101","{""Q0"":""I like the intensity the man is giving off. It makes me pause and wonder what it is that he is thinking about.""}","","","","","","","19","37","3","","","","","","","","","","","{""Q0"":""I like the intensity the man is giving off. It makes me pause and wonder what it is that he is thinking about.""}","","","","","","","","","","","","","","","","","","","","","","","","","","",""
"","fixation","","html-keyboard-response","128","1069781","0.0-76.0-0.0","0","0","c2yi6","People","","null","","","","null","","","","","","","","","","","","","","","","","","","","","","","","","","","","","","","","","","","","","","","","","","","",""
"","deliberation","","html-keyboard-response","129","1071084","0.0-76.0-1.0","0","0","c2yi6","People","","1298","","","","75","","","","20","33","1","1","1","62","60","olena-sergienko-0TSd6uCKTKc-unsplash.jpg","aiony-haust-jmATI5Q_YgY-unsplash.jpg","2","0","1","33","","","","","","","","","","","","","","","","","","","","","","","","","","","",""
"","choice_confirmation","","html-keyboard-response","130","1071595","0.0-76.0-2.0-0.0","0","0","c2yi6","People","","null","","","","null","","","","20","33","1","","","","","","","","","","","","","","","","","","","","","","","","","","","","","","","","","","","","","",""
"","explain_trial","","survey-text","131","1113301","0.0-76.0-5.0-0.0","0","0","c2yi6","People","","41701","{""Q0"":""The subject has a unique beauty that makes me think of long ago royality. ""}","","","","","","","20","33","1","","","","","","","","","","","{""Q0"":""The subject has a unique beauty that makes me think of long ago royality. ""}","","","","","","","","","","","","","","","","","","","","","","","","","","",""
"","fixation","","html-keyboard-response","132","1114309","0.0-77.0-0.0","0","0","c2yi6","People","","null","","","","null","","","","","","","","","","","","","","","","","","","","","","","","","","","","","","","","","","","","","","","","","","","",""
"","deliberation","","html-keyboard-response","133","1115508","0.0-77.0-1.0","0","0","c2yi6","People","","1195","","","","68","","","","21","45","38","1","-1","73","64","sarah-noltner-pL5ZzPp1zqg-unsplash.jpg","petr-sevcovic-HzDF-rxlSeM-unsplash.jpg","2","1","45","38","","","","","","","","","","","","","","","","","","","","","","","","","","","",""
"","choice_confirmation","","html-keyboard-response","134","1116025","0.0-77.0-2.0-0.0","0","0","c2yi6","People","","null","","","","null","","","","21","45","38","","","","","","","","","","","","","","","","","","","","","","","","","","","","","","","","","","","","","",""
"","explain_trial","","survey-text","135","1157196","0.0-77.0-5.0-0.0","0","0","c2yi6","People","","41166","{""Q0"":""The colors in the photo are really nice and the pose of the subject goes well with the background.""}","","","","","","","21","45","38","","","","","","","","","","","{""Q0"":""The colors in the photo are really nice and the pose of the subject goes well with the background.""}","","","","","","","","","","","","","","","","","","","","","","","","","","",""
"","fixation","","html-keyboard-response","136","1158220","0.0-78.0-0.0","0","0","c2yi6","People","","null","","","","null","","","","","","","","","","","","","","","","","","","","","","","","","","","","","","","","","","","","","","","","","","","",""
"","deliberation","","html-keyboard-response","137","1159914","0.0-78.0-1.0","0","0","c2yi6","People","","1690","","","","68","","","","22","21","4","0","-1","73","65","jessica-felicio-_cvwXhGqG-o-unsplash.jpg","barna-bartis-2x3vfVxwR7o-unsplash.jpg","2","1","21","4","","","","","","","","","","","","","","","","","","","","","","","","","","","",""
"","choice_confirmation","","html-keyboard-response","138","1160425","0.0-78.0-2.0-0.0","0","0","c2yi6","People","","null","","","","null","","","","22","21","4","","","","","","","","","","","","","","","","","","","","","","","","","","","","","","","","","","","","","",""
"","fixation","","html-keyboard-response","139","1161445","0.0-79.0-0.0","0","0","c2yi6","People","","null","","","","null","","","","","","","","","","","","","","","","","","","","","","","","","","","","","","","","","","","","","","","","","","","",""
"","deliberation","","html-keyboard-response","140","1164339","0.0-79.0-1.0","0","0","c2yi6","People","","2890","","","","68","","","","23","0","12","1","-1","73","62","abstral-official-cyOKLSgkgCE-unsplash.jpg","daniel-rigdon-dXmXKPP2L4E-unsplash.jpg","2","1","0","12","","","","","","","","","","","","","","","","","","","","","","","","","","","",""
"","choice_confirmation","","html-keyboard-response","141","1164846","0.0-79.0-2.0-0.0","0","0","c2yi6","People","","null","","","","null","","","","23","0","12","","","","","","","","","","","","","","","","","","","","","","","","","","","","","","","","","","","","","",""
"","explain_trial","","survey-text","142","1211095","0.0-79.0-5.0-0.0","0","0","c2yi6","People","","46243","{""Q0"":""It seems like the subject has a story to tell and it is engaging to imagine what he may have to say. ""}","","","","","","","23","0","12","","","","","","","","","","","{""Q0"":""It seems like the subject has a story to tell and it is engaging to imagine what he may have to say. ""}","","","","","","","","","","","","","","","","","","","","","","","","","","",""
"","start_critical_deliberation_block","","html-keyboard-response","143","1214981","0.0-79.0-7.0-0.0","0","0","c2yi6","People","","3883","","","","78","","","","","","","","","","","","","","","","","","","","","","","","","","","","","","","","","","","","","","","","","","","",""
"","fixation","","html-keyboard-response","144","1215997","0.0-80.0-0.0","0","0","c2yi6","People","","null","","","","null","","","","","","","","","","","","","","","","","","","","","","","","","","","","","","","","","","","","","","","","","","","",""
"","deliberation","","html-keyboard-response","145","1219847","0.0-80.0-1.0","0","0","c2yi6","People","","3846","","","","68","","","","24","21","4","0","-1","73","65","jessica-felicio-_cvwXhGqG-o-unsplash.jpg","barna-bartis-2x3vfVxwR7o-unsplash.jpg","3","1","21","4","","","","","","","","","","","","","","","","","","","","","","","","","","","",""
"","choice_confirmation","","html-keyboard-response","146","1220357","0.0-80.0-2.0-0.0","0","0","c2yi6","People","","null","","","","null","","","","24","21","4","","","","","","","","","","","","","","","","","","","","","","","","","","","","","","","","","","","","","",""
"","fixation","","html-keyboard-response","147","1221373","0.0-81.0-0.0","0","0","c2yi6","People","","null","","","","null","","","","","","","","","","","","","","","","","","","","","","","","","","","","","","","","","","","","","","","","","","","",""
"","deliberation","","html-keyboard-response","148","1222783","0.0-81.0-1.0","0","0","c2yi6","People","","1405","","","","75","","","","25","13","42","0","-1","72","74","erik-lucatero-d2MSDujJl2g-unsplash.jpg","prince-akachi-l3IHXOdMyHQ-unsplash.jpg","3","0","42","13","","","","","","","","","","","","","","","","","","","","","","","","","","","",""
"","choice_confirmation","","html-keyboard-response","149","1223294","0.0-81.0-2.0-0.0","0","0","c2yi6","People","","null","","","","null","","","","25","13","42","","","","","","","","","","","","","","","","","","","","","","","","","","","","","","","","","","","","","",""
"","fixation","","html-keyboard-response","150","1224309","0.0-82.0-0.0","0","0","c2yi6","People","","null","","","","null","","","","","","","","","","","","","","","","","","","","","","","","","","","","","","","","","","","","","","","","","","","",""
"","deliberation","","html-keyboard-response","151","1225655","0.0-82.0-1.0","0","0","c2yi6","People","","1343","","","","75","","","","26","6","34","0","1","62","63","ben-o-bro-C5XyLljkMrY-unsplash.jpg","oliver-johnson-1TUIcKob7Zs-unsplash.jpg","3","0","34","6","","","","","","","","","","","","","","","","","","","","","","","","","","","",""
"","choice_confirmation","","html-keyboard-response","152","1226161","0.0-82.0-2.0-0.0","0","0","c2yi6","People","","null","","","","null","","","","26","6","34","","","","","","","","","","","","","","","","","","","","","","","","","","","","","","","","","","","","","",""
"","fixation","","html-keyboard-response","153","1227177","0.0-83.0-0.0","0","0","c2yi6","People","","null","","","","null","","","","","","","","","","","","","","","","","","","","","","","","","","","","","","","","","","","","","","","","","","","",""
"","deliberation","","html-keyboard-response","154","1227969","0.0-83.0-1.0","0","0","c2yi6","People","","788","","","","68","","","","27","45","38","0","-1","73","64","sarah-noltner-pL5ZzPp1zqg-unsplash.jpg","petr-sevcovic-HzDF-rxlSeM-unsplash.jpg","3","1","45","38","","","","","","","","","","","","","","","","","","","","","","","","","","","",""
"","choice_confirmation","","html-keyboard-response","155","1228485","0.0-83.0-2.0-0.0","0","0","c2yi6","People","","null","","","","null","","","","27","45","38","","","","","","","","","","","","","","","","","","","","","","","","","","","","","","","","","","","","","",""
"","fixation","","html-keyboard-response","156","1229497","0.0-84.0-0.0","0","0","c2yi6","People","","null","","","","null","","","","","","","","","","","","","","","","","","","","","","","","","","","","","","","","","","","","","","","","","","","",""
"","deliberation","","html-keyboard-response","157","1230585","0.0-84.0-1.0","0","0","c2yi6","People","","1086","","","","75","","","","28","33","1","0","1","62","60","olena-sergienko-0TSd6uCKTKc-unsplash.jpg","aiony-haust-jmATI5Q_YgY-unsplash.jpg","3","0","1","33","","","","","","","","","","","","","","","","","","","","","","","","","","","",""
"","choice_confirmation","","html-keyboard-response","158","1231106","0.0-84.0-2.0-0.0","0","0","c2yi6","People","","null","","","","null","","","","28","33","1","","","","","","","","","","","","","","","","","","","","","","","","","","","","","","","","","","","","","",""
"","fixation","","html-keyboard-response","159","1232125","0.0-85.0-0.0","0","0","c2yi6","People","","null","","","","null","","","","","","","","","","","","","","","","","","","","","","","","","","","","","","","","","","","","","","","","","","","",""
"","deliberation","","html-keyboard-response","160","1232942","0.0-85.0-1.0","0","0","c2yi6","People","","812","","","","68","","","","29","41","18","0","-1","63","65","prince-akachi-i2hoD-C2RUA-unsplash.jpg","good-faces-xmSWVeGEnJw-unsplash.jpg","3","1","41","18","","","","","","","","","","","","","","","","","","","","","","","","","","","",""
"","choice_confirmation","","html-keyboard-response","161","1233456","0.0-85.0-2.0-0.0","0","0","c2yi6","People","","null","","","","null","","","","29","41","18","","","","","","","","","","","","","","","","","","","","","","","","","","","","","","","","","","","","","",""
"","fixation","","html-keyboard-response","162","1234474","0.0-86.0-0.0","0","0","c2yi6","People","","null","","","","null","","","","","","","","","","","","","","","","","","","","","","","","","","","","","","","","","","","","","","","","","","","",""
"","deliberation","","html-keyboard-response","163","1235377","0.0-86.0-1.0","0","0","c2yi6","People","","899","","","","75","","","","30","16","14","0","-1","65","66","giano-currie-5-9YOsmf8IQ-unsplash.jpg","freddy-kearney-o-ioeoATbIM-unsplash.jpg","3","0","14","16","","","","","","","","","","","","","","","","","","","","","","","","","","","",""
"","choice_confirmation","","html-keyboard-response","164","1235896","0.0-86.0-2.0-0.0","0","0","c2yi6","People","","null","","","","null","","","","30","16","14","","","","","","","","","","","","","","","","","","","","","","","","","","","","","","","","","","","","","",""
"","fixation","","html-keyboard-response","165","1236922","0.0-87.0-0.0","0","0","c2yi6","People","","null","","","","null","","","","","","","","","","","","","","","","","","","","","","","","","","","","","","","","","","","","","","","","","","","",""
"","deliberation","","html-keyboard-response","166","1237844","0.0-87.0-1.0","0","0","c2yi6","People","","917","","","","68","","","","31","37","3","0","1","62","62","pavel-anoshin-d0peGya6R5Y-unsplash.jpg","art-hauntington-jzY0KRJopEI-unsplash.jpg","3","1","37","3","","","","","","","","","","","","","","","","","","","","","","","","","","","",""
"","choice_confirmation","","html-keyboard-response","167","1238362","0.0-87.0-2.0-0.0","0","0","c2yi6","People","","null","","","","null","","","","31","37","3","","","","","","","","","","","","","","","","","","","","","","","","","","","","","","","","","","","","","",""
"","fixation","","html-keyboard-response","168","1239375","0.0-88.0-0.0","0","0","c2yi6","People","","null","","","","null","","","","","","","","","","","","","","","","","","","","","","","","","","","","","","","","","","","","","","","","","","","",""
"","deliberation","","html-keyboard-response","169","1240421","0.0-88.0-1.0","0","0","c2yi6","People","","1041","","","","75","","","","32","29","39","0","1","74","63","leilani-angel-K84vnnzxmTQ-unsplash.jpg","philip-martin-5aGUyCW_PJw-unsplash.jpg","3","0","39","29","","","","","","","","","","","","","","","","","","","","","","","","","","","",""
"","choice_confirmation","","html-keyboard-response","170","1240937","0.0-88.0-2.0-0.0","0","0","c2yi6","People","","null","","","","null","","","","32","29","39","","","","","","","","","","","","","","","","","","","","","","","","","","","","","","","","","","","","","",""
"","fixation","","html-keyboard-response","171","1241952","0.0-89.0-0.0","0","0","c2yi6","People","","null","","","","null","","","","","","","","","","","","","","","","","","","","","","","","","","","","","","","","","","","","","","","","","","","",""
"","deliberation","","html-keyboard-response","172","1243106","0.0-89.0-1.0","0","0","c2yi6","People","","1150","","","","68","","","","33","10","23","0","1","69","71","charles-etoroma-95UF6LXe-Lo-unsplash.jpg","joanna-nix-walkup-H4fEMshfwTE-unsplash.jpg","3","1","10","23","","","","","","","","","","","","","","","","","","","","","","","","","","","",""
"","choice_confirmation","","html-keyboard-response","173","1243619","0.0-89.0-2.0-0.0","0","0","c2yi6","People","","null","","","","null","","","","33","10","23","","","","","","","","","","","","","","","","","","","","","","","","","","","","","","","","","","","","","",""
"","fixation","","html-keyboard-response","174","1244637","0.0-90.0-0.0","0","0","c2yi6","People","","null","","","","null","","","","","","","","","","","","","","","","","","","","","","","","","","","","","","","","","","","","","","","","","","","",""
"","deliberation","","html-keyboard-response","175","1245872","0.0-90.0-1.0","0","0","c2yi6","People","","1232","","","","75","","","","34","30","40","0","1","61","69","matheus-ferrero-pg_WCHWSdT8-unsplash.jpg","prince-akachi-4Yv84VgQkRM-unsplash.jpg","3","0","40","30","","","","","","","","","","","","","","","","","","","","","","","","","","","",""
"","choice_confirmation","","html-keyboard-response","176","1246382","0.0-90.0-2.0-0.0","0","0","c2yi6","People","","null","","","","null","","","","34","30","40","","","","","","","","","","","","","","","","","","","","","","","","","","","","","","","","","","","","","",""
"","fixation","","html-keyboard-response","177","1247400","0.0-91.0-0.0","0","0","c2yi6","People","","null","","","","null","","","","","","","","","","","","","","","","","","","","","","","","","","","","","","","","","","","","","","","","","","","",""
"","deliberation","","html-keyboard-response","178","1248277","0.0-91.0-1.0","0","0","c2yi6","People","","873","","","","68","","","","35","0","12","0","-1","73","62","abstral-official-cyOKLSgkgCE-unsplash.jpg","daniel-rigdon-dXmXKPP2L4E-unsplash.jpg","3","1","0","12","","","","","","","","","","","","","","","","","","","","","","","","","","","",""
"","choice_confirmation","","html-keyboard-response","179","1248788","0.0-91.0-2.0-0.0","0","0","c2yi6","People","","null","","","","null","","","","35","0","12","","","","","","","","","","","","","","","","","","","","","","","","","","","","","","","","","","","","","",""
"","reward_learning_instructions","","instructions","180","1312564","0.0-92.0-0.0","0","0","c2yi6","People","[{""page_index"":0,""viewing_time"":16746},{""page_index"":1,""viewing_time"":45052},{""page_index"":2,""viewing_time"":1974}]","63773","","","","","","","","","","","","","","","","","","","","","","","","","","","","","","","","","","","","","","","","","","","","","","","",""
"","","","survey-multi-choice","181","1324658","0.0-92.0-1.0","0","0","c2yi6","People","","12083","{""Q0"":""True"",""Q1"":""True"",""Q2"":""Press the space bar to see its outcome"",""Q3"":""Press the relevant key while the outcome is presented""}","reward_comprehension_check","0","","","","","","","","","","","","","","","","","","","","","","","","","","","","","","","","","","","","","","","","","","","","",""
"","start_phase","","html-keyboard-response","182","1328100","0.0-93.0","0","0","c2yi6","People","","3435","","","","78","","","","","","","","","","","","","","","","","","","","","","","","","","","","","","","","","","","","","","","","","","","",""
"","fixation","","html-keyboard-response","183","1329117","0.0-94.0","0","0","c2yi6","People","","null","","","","null","","","","","","","","","","","","","","","","","","","","","","","","","","","","","","","","","","","","","","","","","","","",""
"","see_reward","","html-keyboard-response","184","1331305","0.0-95.0","0","0","c2yi6","People","","2183","","","","32","","10","","0","","","","1","","","","","1","","","","","160","2183","","","","","","","","","","","","","","","","","","","","","","","","",""
"","reward_outcome","","html-keyboard-response","185","1333330","0.0-96.0","0","0","c2yi6","People","","1368","","","","38","","10","","0","","","","","","","","","","","","","","","","1","1368","","","","","","","","","","","","","","","","","","","","","","",""
"","fixation","","html-keyboard-response","186","1334344","0.0-99.0","0","0","c2yi6","People","","null","","","","null","","","","","","","","","","","","","","","","","","","","","","","","","","","","","","","","","","","","","","","","","","","",""
"","see_reward","","html-keyboard-response","187","1335462","0.0-100.0","0","0","c2yi6","People","","1114","","","","32","","0","","1","","","","-1","","","","","1","","","","","0","1114","","","","","","","","","","","","","","","","","","","","","","","","",""
"","reward_outcome","","html-keyboard-response","188","1337478","0.0-101.0","0","0","c2yi6","People","","1573","","","","40","","0","","1","","","","","","","","","","","","","","","","-1","1573","","","","","","","","","","","","","","","","","","","","","","",""
"","fixation","","html-keyboard-response","189","1338491","0.0-104.0","0","0","c2yi6","People","","null","","","","null","","","","","","","","","","","","","","","","","","","","","","","","","","","","","","","","","","","","","","","","","","","",""
"","see_reward","","html-keyboard-response","190","1339488","0.0-105.0","0","0","c2yi6","People","","993","","","","32","","45","","2","","","","-1","","","","","1","","","","","0","993","","","","","","","","","","","","","","","","","","","","","","","","",""
"","reward_outcome","","html-keyboard-response","191","1341506","0.0-106.0","0","0","c2yi6","People","","840","","","","40","","45","","2","","","","","","","","","","","","","","","","-1","840","","","","","","","","","","","","","","","","","","","","","","",""
"","fixation","","html-keyboard-response","192","1342517","0.0-109.0","0","0","c2yi6","People","","null","","","","null","","","","","","","","","","","","","","","","","","","","","","","","","","","","","","","","","","","","","","","","","","","",""
"","see_reward","","html-keyboard-response","193","1343535","0.0-110.0","0","0","c2yi6","People","","1013","","","","32","","41","","3","","","","-1","","","","","1","","","","","0","1013","","","","","","","","","","","","","","","","","","","","","","","","",""
"","reward_outcome","","html-keyboard-response","194","1345543","0.0-111.0","0","0","c2yi6","People","","764","","","","40","","41","","3","","","","","","","","","","","","","","","","-1","764","","","","","","","","","","","","","","","","","","","","","","",""
"","fixation","","html-keyboard-response","195","1346560","0.0-114.0","0","0","c2yi6","People","","null","","","","null","","","","","","","","","","","","","","","","","","","","","","","","","","","","","","","","","","","","","","","","","","","",""
"","see_reward","","html-keyboard-response","196","1347132","0.0-115.0","0","0","c2yi6","People","","569","","","","32","","39","","4","","","","1","","","","","1","","","","","142","569","","","","","","","","","","","","","","","","","","","","","","","","",""
"","reward_outcome","","html-keyboard-response","197","1349149","0.0-116.0","0","0","c2yi6","People","","null","","","","null","","39","","4","","","","","","","","","","","","","","","","NaN","null","","","","","","","","","","","","","","","","","","","","","","",""
"","respond_faster","","html-keyboard-response","198","1350661","0.0-117.0-0.0","1","0","c2yi6","People","","null","","","","null","","","","","","","","","","","","","","","","","","","","","","","","","","","","","","","","","","","","","","","","","","","",""
"","fixation","","html-keyboard-response","199","1351679","0.0-119.0","0","0","c2yi6","People","","null","","","","null","","","","","","","","","","","","","","","","","","","","","","","","","","","","","","","","","","","","","","","","","","","",""
"","see_reward","","html-keyboard-response","200","1352546","0.0-120.0","0","0","c2yi6","People","","864","","","","32","","21","","5","","","","-1","","","","","1","","","","","0","864","","","","","","","","","","","","","","","","","","","","","","","","",""
"","reward_outcome","","html-keyboard-response","201","1354569","0.0-121.0","0","0","c2yi6","People","","617","","","","40","","21","","5","","","","","","","","","","","","","","","","-1","617","","","","","","","","","","","","","","","","","","","","","","",""
"","fixation","","html-keyboard-response","202","1355583","0.0-124.0","0","0","c2yi6","People","","null","","","","null","","","","","","","","","","","","","","","","","","","","","","","","","","","","","","","","","","","","","","","","","","","",""
"","see_reward","","html-keyboard-response","203","1356196","0.0-125.0","0","0","c2yi6","People","","609","","","","32","","42","","6","","","","-1","","","","","1","","","","","0","609","","","","","","","","","","","","","","","","","","","","","","","","",""
"","reward_outcome","","html-keyboard-response","204","1358204","0.0-126.0","0","0","c2yi6","People","","598","","","","40","","42","","6","","","","","","","","","","","","","","","","-1","598","","","","","","","","","","","","","","","","","","","","","","",""
"","fixation","","html-keyboard-response","205","1359216","0.0-129.0","0","0","c2yi6","People","","null","","","","null","","","","","","","","","","","","","","","","","","","","","","","","","","","","","","","","","","","","","","","","","","","",""
"","see_reward","","html-keyboard-response","206","1359515","0.0-130.0","0","0","c2yi6","People","","294","","","","32","","14","","7","","","","-1","","","","","1","","","","","0","294","","","","","","","","","","","","","","","","","","","","","","","","",""
"","reward_outcome","","html-keyboard-response","207","1361527","0.0-131.0","0","0","c2yi6","People","","782","","","","40","","14","","7","","","","","","","","","","","","","","","","-1","782","","","","","","","","","","","","","","","","","","","","","","",""
"","fixation","","html-keyboard-response","208","1362541","0.0-134.0","0","0","c2yi6","People","","null","","","","null","","","","","","","","","","","","","","","","","","","","","","","","","","","","","","","","","","","","","","","","","","","",""
"","see_reward","","html-keyboard-response","209","1363174","0.0-135.0","0","0","c2yi6","People","","629","","","","32","","1","","8","","","","1","","","","","1","","","","","153","629","","","","","","","","","","","","","","","","","","","","","","","","",""
"","reward_outcome","","html-keyboard-response","210","1365186","0.0-136.0","0","0","c2yi6","People","","736","","","","38","","1","","8","","","","","","","","","","","","","","","","1","736","","","","","","","","","","","","","","","","","","","","","","",""
"","fixation","","html-keyboard-response","211","1366202","0.0-139.0","0","0","c2yi6","People","","null","","","","null","","","","","","","","","","","","","","","","","","","","","","","","","","","","","","","","","","","","","","","","","","","",""
"","see_reward","","html-keyboard-response","212","1366749","0.0-140.0","0","0","c2yi6","People","","544","","","","32","","37","","9","","","","1","","","","","1","","","","","148","544","","","","","","","","","","","","","","","","","","","","","","","","",""
"","reward_outcome","","html-keyboard-response","213","1368764","0.0-141.0","0","0","c2yi6","People","","558","","","","38","","37","","9","","","","","","","","","","","","","","","","1","558","","","","","","","","","","","","","","","","","","","","","","",""
"","fixation","","html-keyboard-response","214","1369777","0.0-144.0","0","0","c2yi6","People","","null","","","","null","","","","","","","","","","","","","","","","","","","","","","","","","","","","","","","","","","","","","","","","","","","",""
"","see_reward","","html-keyboard-response","215","1370614","0.0-145.0","0","0","c2yi6","People","","834","","","","32","","41","","10","","","","-1","","","","","1","","","","","0","834","","","","","","","","","","","","","","","","","","","","","","","","",""
"","reward_outcome","","html-keyboard-response","216","1372631","0.0-146.0","0","0","c2yi6","People","","517","","","","40","","41","","10","","","","","","","","","","","","","","","","-1","517","","","","","","","","","","","","","","","","","","","","","","",""
"","fixation","","html-keyboard-response","217","1373644","0.0-149.0","0","0","c2yi6","People","","null","","","","null","","","","","","","","","","","","","","","","","","","","","","","","","","","","","","","","","","","","","","","","","","","",""
"","see_reward","","html-keyboard-response","218","1374140","0.0-150.0","0","0","c2yi6","People","","492","","","","32","","45","","11","","","","-1","","","","","1","","","","","0","492","","","","","","","","","","","","","","","","","","","","","","","","",""
"","reward_outcome","","html-keyboard-response","219","1376150","0.0-151.0","0","0","c2yi6","People","","579","","","","40","","45","","11","","","","","","","","","","","","","","","","-1","579","","","","","","","","","","","","","","","","","","","","","","",""
"","fixation","","html-keyboard-response","220","1377163","0.0-154.0","0","0","c2yi6","People","","null","","","","null","","","","","","","","","","","","","","","","","","","","","","","","","","","","","","","","","","","","","","","","","","","",""
"","see_reward","","html-keyboard-response","221","1377453","0.0-155.0","0","0","c2yi6","People","","286","","","","32","","39","","12","","","","1","","","","","1","","","","","142","286","","","","","","","","","","","","","","","","","","","","","","","","",""
"","reward_outcome","","html-keyboard-response","222","1379461","0.0-156.0","0","0","c2yi6","People","","659","","","","38","","39","","12","","","","","","","","","","","","","","","","1","659","","","","","","","","","","","","","","","","","","","","","","",""
"","fixation","","html-keyboard-response","223","1380480","0.0-159.0","0","0","c2yi6","People","","null","","","","null","","","","","","","","","","","","","","","","","","","","","","","","","","","","","","","","","","","","","","","","","","","",""
"","see_reward","","html-keyboard-response","224","1380736","0.0-160.0","0","0","c2yi6","People","","253","","","","32","","10","","13","","","","1","","","","","1","","","","","160","253","","","","","","","","","","","","","","","","","","","","","","","","",""
"","reward_outcome","","html-keyboard-response","225","1382757","0.0-161.0","0","0","c2yi6","People","","704","","","","38","","10","","13","","","","","","","","","","","","","","","","1","704","","","","","","","","","","","","","","","","","","","","","","",""
"","fixation","","html-keyboard-response","226","1383774","0.0-164.0","0","0","c2yi6","People","","null","","","","null","","","","","","","","","","","","","","","","","","","","","","","","","","","","","","","","","","","","","","","","","","","",""
"","see_reward","","html-keyboard-response","227","1384222","0.0-165.0","0","0","c2yi6","People","","445","","","","32","","40","","14","","","","1","","","","","1","","","","","142","445","","","","","","","","","","","","","","","","","","","","","","","","",""
"","reward_outcome","","html-keyboard-response","228","1386239","0.0-166.0","0","0","c2yi6","People","","527","","","","38","","40","","14","","","","","","","","","","","","","","","","1","527","","","","","","","","","","","","","","","","","","","","","","",""
"","fixation","","html-keyboard-response","229","1387244","0.0-169.0","0","0","c2yi6","People","","null","","","","null","","","","","","","","","","","","","","","","","","","","","","","","","","","","","","","","","","","","","","","","","","","",""
"","see_reward","","html-keyboard-response","230","1387512","0.0-170.0","0","0","c2yi6","People","","264","","","","32","","0","","15","","","","-1","","","","","1","","","","","0","264","","","","","","","","","","","","","","","","","","","","","","","","",""
"","reward_outcome","","html-keyboard-response","231","1389534","0.0-171.0","0","0","c2yi6","People","","624","","","","40","","0","","15","","","","","","","","","","","","","","","","-1","624","","","","","","","","","","","","","","","","","","","","","","",""
"","fixation","","html-keyboard-response","232","1390549","0.0-174.0","0","0","c2yi6","People","","null","","","","null","","","","","","","","","","","","","","","","","","","","","","","","","","","","","","","","","","","","","","","","","","","",""
"","see_reward","","html-keyboard-response","233","1390860","0.0-175.0","0","0","c2yi6","People","","308","","","","32","","37","","16","","","","1","","","","","1","","","","","148","308","","","","","","","","","","","","","","","","","","","","","","","","",""
"","reward_outcome","","html-keyboard-response","234","1392872","0.0-176.0","0","0","c2yi6","People","","623","","","","38","","37","","16","","","","","","","","","","","","","","","","1","623","","","","","","","","","","","","","","","","","","","","","","",""
"","fixation","","html-keyboard-response","235","1393886","0.0-179.0","0","0","c2yi6","People","","null","","","","null","","","","","","","","","","","","","","","","","","","","","","","","","","","","","","","","","","","","","","","","","","","",""
"","see_reward","","html-keyboard-response","236","1394226","0.0-180.0","0","0","c2yi6","People","","336","","","","32","","21","","17","","","","-1","","","","","1","","","","","0","336","","","","","","","","","","","","","","","","","","","","","","","","",""
"","reward_outcome","","html-keyboard-response","237","1396240","0.0-181.0","0","0","c2yi6","People","","547","","","","40","","21","","17","","","","","","","","","","","","","","","","-1","547","","","","","","","","","","","","","","","","","","","","","","",""
"","fixation","","html-keyboard-response","238","1397257","0.0-184.0","0","0","c2yi6","People","","null","","","","null","","","","","","","","","","","","","","","","","","","","","","","","","","","","","","","","","","","","","","","","","","","",""
"","see_reward","","html-keyboard-response","239","1397618","0.0-185.0","0","0","c2yi6","People","","358","","","","32","","14","","18","","","","-1","","","","","1","","","","","0","358","","","","","","","","","","","","","","","","","","","","","","","","",""
"","reward_outcome","","html-keyboard-response","240","1399635","0.0-186.0","0","0","c2yi6","People","","555","","","","40","","14","","18","","","","","","","","","","","","","","","","-1","555","","","","","","","","","","","","","","","","","","","","","","",""
"","fixation","","html-keyboard-response","241","1400648","0.0-189.0","0","0","c2yi6","People","","null","","","","null","","","","","","","","","","","","","","","","","","","","","","","","","","","","","","","","","","","","","","","","","","","",""
"","see_reward","","html-keyboard-response","242","1401034","0.0-190.0","0","0","c2yi6","People","","381","","","","32","","40","","19","","","","1","","","","","1","","","","","142","381","","","","","","","","","","","","","","","","","","","","","","","","",""
"","reward_outcome","","html-keyboard-response","243","1403050","0.0-191.0","0","0","c2yi6","People","","573","","","","38","","40","","19","","","","","","","","","","","","","","","","1","573","","","","","","","","","","","","","","","","","","","","","","",""
"","fixation","","html-keyboard-response","244","1404065","0.0-194.0","0","0","c2yi6","People","","null","","","","null","","","","","","","","","","","","","","","","","","","","","","","","","","","","","","","","","","","","","","","","","","","",""
"","see_reward","","html-keyboard-response","245","1404573","0.0-195.0","0","0","c2yi6","People","","503","","","","32","","42","","20","","","","-1","","","","","1","","","","","0","503","","","","","","","","","","","","","","","","","","","","","","","","",""
"","reward_outcome","","html-keyboard-response","246","1406592","0.0-196.0","0","0","c2yi6","People","","472","","","","40","","42","","20","","","","","","","","","","","","","","","","-1","472","","","","","","","","","","","","","","","","","","","","","","",""
"","fixation","","html-keyboard-response","247","1407612","0.0-199.0","0","0","c2yi6","People","","null","","","","null","","","","","","","","","","","","","","","","","","","","","","","","","","","","","","","","","","","","","","","","","","","",""
"","see_reward","","html-keyboard-response","248","1408002","0.0-200.0","0","0","c2yi6","People","","385","","","","32","","34","","21","","","","1","","","","","1","","","","","150","385","","","","","","","","","","","","","","","","","","","","","","","","",""
"","reward_outcome","","html-keyboard-response","249","1410028","0.0-201.0","0","0","c2yi6","People","","511","","","","38","","34","","21","","","","","","","","","","","","","","","","1","511","","","","","","","","","","","","","","","","","","","","","","",""
"","fixation","","html-keyboard-response","250","1411043","0.0-204.0","0","0","c2yi6","People","","null","","","","null","","","","","","","","","","","","","","","","","","","","","","","","","","","","","","","","","","","","","","","","","","","",""
"","see_reward","","html-keyboard-response","251","1411661","0.0-205.0","0","0","c2yi6","People","","613","","","","32","","1","","22","","","","1","","","","","1","","","","","153","613","","","","","","","","","","","","","","","","","","","","","","","","",""
"","reward_outcome","","html-keyboard-response","252","1413676","0.0-206.0","0","0","c2yi6","People","","560","","","","38","","1","","22","","","","","","","","","","","","","","","","1","560","","","","","","","","","","","","","","","","","","","","","","",""
"","fixation","","html-keyboard-response","253","1414689","0.0-209.0","0","0","c2yi6","People","","null","","","","null","","","","","","","","","","","","","","","","","","","","","","","","","","","","","","","","","","","","","","","","","","","",""
"","see_reward","","html-keyboard-response","254","1415123","0.0-210.0","0","0","c2yi6","People","","429","","","","32","","34","","23","","","","1","","","","","1","","","","","150","429","","","","","","","","","","","","","","","","","","","","","","","","",""
"","reward_outcome","","html-keyboard-response","255","1417135","0.0-211.0","0","0","c2yi6","People","","574","","","","38","","34","","23","","","","","","","","","","","","","","","","1","574","","","","","","","","","","","","","","","","","","","","","","",""
"","block_over","","html-keyboard-response","256","1419974","0.0-213.0-0.0","0","0","c2yi6","People","","2834","","","","78","","","","","","","","","","","","","","","","","","","","","","","","","","","","","","","","","","","","","","","","","","","",""
"","fixation","","html-keyboard-response","257","1420985","0.0-214.0","0","0","c2yi6","People","","null","","","","null","","","","","","","","","","","","","","","","","","","","","","","","","","","","","","","","","","","","","","","","","","","",""
"","see_reward","","html-keyboard-response","258","1421799","0.0-215.0","0","0","c2yi6","People","","811","","","","32","","34","","24","","","","1","","","","","2","","","","","150","811","","","","","","","","","","","","","","","","","","","","","","","","",""
"","reward_outcome","","html-keyboard-response","259","1423812","0.0-216.0","0","0","c2yi6","People","","481","","","","38","","34","","24","","","","","","","","","","","","","","","","1","481","","","","","","","","","","","","","","","","","","","","","","",""
"","fixation","","html-keyboard-response","260","1424827","0.0-219.0","0","0","c2yi6","People","","null","","","","null","","","","","","","","","","","","","","","","","","","","","","","","","","","","","","","","","","","","","","","","","","","",""
"","see_reward","","html-keyboard-response","261","1425257","0.0-220.0","0","0","c2yi6","People","","427","","","","32","","41","","25","","","","-1","","","","","2","","","","","0","427","","","","","","","","","","","","","","","","","","","","","","","","",""
"","reward_outcome","","html-keyboard-response","262","1427274","0.0-221.0","0","0","c2yi6","People","","439","","","","40","","41","","25","","","","","","","","","","","","","","","","-1","439","","","","","","","","","","","","","","","","","","","","","","",""
"","fixation","","html-keyboard-response","263","1428297","0.0-224.0","0","0","c2yi6","People","","null","","","","null","","","","","","","","","","","","","","","","","","","","","","","","","","","","","","","","","","","","","","","","","","","",""
"","see_reward","","html-keyboard-response","264","1428665","0.0-225.0","0","0","c2yi6","People","","364","","","","32","","42","","26","","","","-1","","","","","2","","","","","0","364","","","","","","","","","","","","","","","","","","","","","","","","",""
"","reward_outcome","","html-keyboard-response","265","1430688","0.0-226.0","0","0","c2yi6","People","","466","","","","40","","42","","26","","","","","","","","","","","","","","","","-1","466","","","","","","","","","","","","","","","","","","","","","","",""
"","fixation","","html-keyboard-response","266","1431706","0.0-229.0","0","0","c2yi6","People","","null","","","","null","","","","","","","","","","","","","","","","","","","","","","","","","","","","","","","","","","","","","","","","","","","",""
"","see_reward","","html-keyboard-response","267","1432087","0.0-230.0","0","0","c2yi6","People","","378","","","","32","","21","","27","","","","-1","","","","","2","","","","","0","378","","","","","","","","","","","","","","","","","","","","","","","","",""
"","reward_outcome","","html-keyboard-response","268","1434092","0.0-231.0","0","0","c2yi6","People","","447","","","","40","","21","","27","","","","","","","","","","","","","","","","-1","447","","","","","","","","","","","","","","","","","","","","","","",""
"","fixation","","html-keyboard-response","269","1435108","0.0-234.0","0","0","c2yi6","People","","null","","","","null","","","","","","","","","","","","","","","","","","","","","","","","","","","","","","","","","","","","","","","","","","","",""
"","see_reward","","html-keyboard-response","270","1435476","0.0-235.0","0","0","c2yi6","People","","364","","","","32","","0","","28","","","","-1","","","","","2","","","","","0","364","","","","","","","","","","","","","","","","","","","","","","","","",""
"","reward_outcome","","html-keyboard-response","271","1437497","0.0-236.0","0","0","c2yi6","People","","549","","","","40","","0","","28","","","","","","","","","","","","","","","","-1","549","","","","","","","","","","","","","","","","","","","","","","",""
"","fixation","","html-keyboard-response","272","1438521","0.0-239.0","0","0","c2yi6","People","","null","","","","null","","","","","","","","","","","","","","","","","","","","","","","","","","","","","","","","","","","","","","","","","","","",""
"","see_reward","","html-keyboard-response","273","1438947","0.0-240.0","0","0","c2yi6","People","","422","","","","32","","45","","29","","","","-1","","","","","2","","","","","0","422","","","","","","","","","","","","","","","","","","","","","","","","",""
"","reward_outcome","","html-keyboard-response","274","1440966","0.0-241.0","0","0","c2yi6","People","","506","","","","40","","45","","29","","","","","","","","","","","","","","","","-1","506","","","","","","","","","","","","","","","","","","","","","","",""
"","fixation","","html-keyboard-response","275","1441986","0.0-244.0","0","0","c2yi6","People","","null","","","","null","","","","","","","","","","","","","","","","","","","","","","","","","","","","","","","","","","","","","","","","","","","",""
"","see_reward","","html-keyboard-response","276","1442288","0.0-245.0","0","0","c2yi6","People","","298","","","","32","","21","","30","","","","-1","","","","","2","","","","","0","298","","","","","","","","","","","","","","","","","","","","","","","","",""
"","reward_outcome","","html-keyboard-response","277","1444316","0.0-246.0","0","0","c2yi6","People","","469","","","","40","","21","","30","","","","","","","","","","","","","","","","-1","469","","","","","","","","","","","","","","","","","","","","","","",""
"","fixation","","html-keyboard-response","278","1445340","0.0-249.0","0","0","c2yi6","People","","null","","","","null","","","","","","","","","","","","","","","","","","","","","","","","","","","","","","","","","","","","","","","","","","","",""
"","see_reward","","html-keyboard-response","279","1445918","0.0-250.0","0","0","c2yi6","People","","575","","","","32","","0","","31","","","","-1","","","","","2","","","","","0","575","","","","","","","","","","","","","","","","","","","","","","","","",""
"","reward_outcome","","html-keyboard-response","280","1447927","0.0-251.0","0","0","c2yi6","People","","496","","","","40","","0","","31","","","","","","","","","","","","","","","","-1","496","","","","","","","","","","","","","","","","","","","","","","",""
"","fixation","","html-keyboard-response","281","1448942","0.0-254.0","0","0","c2yi6","People","","null","","","","null","","","","","","","","","","","","","","","","","","","","","","","","","","","","","","","","","","","","","","","","","","","",""
"","see_reward","","html-keyboard-response","282","1449257","0.0-255.0","0","0","c2yi6","People","","310","","","","32","","40","","32","","","","1","","","","","2","","","","","142","310","","","","","","","","","","","","","","","","","","","","","","","","",""
"","reward_outcome","","html-keyboard-response","283","1451275","0.0-256.0","0","0","c2yi6","People","","663","","","","38","","40","","32","","","","","","","","","","","","","","","","1","663","","","","","","","","","","","","","","","","","","","","","","",""
"","fixation","","html-keyboard-response","284","1452290","0.0-259.0","0","0","c2yi6","People","","null","","","","null","","","","","","","","","","","","","","","","","","","","","","","","","","","","","","","","","","","","","","","","","","","",""
"","see_reward","","html-keyboard-response","285","1452856","0.0-260.0","0","0","c2yi6","People","","561","","","","32","","10","","33","","","","1","","","","","2","","","","","160","561","","","","","","","","","","","","","","","","","","","","","","","","",""
"","reward_outcome","","html-keyboard-response","286","1454865","0.0-261.0","0","0","c2yi6","People","","516","","","","38","","10","","33","","","","","","","","","","","","","","","","1","516","","","","","","","","","","","","","","","","","","","","","","",""
"","fixation","","html-keyboard-response","287","1455880","0.0-264.0","0","0","c2yi6","People","","null","","","","null","","","","","","","","","","","","","","","","","","","","","","","","","","","","","","","","","","","","","","","","","","","",""
"","see_reward","","html-keyboard-response","288","1456304","0.0-265.0","0","0","c2yi6","People","","421","","","","32","","14","","34","","","","-1","","","","","2","","","","","0","421","","","","","","","","","","","","","","","","","","","","","","","","",""
"","reward_outcome","","html-keyboard-response","289","1458322","0.0-266.0","0","0","c2yi6","People","","439","","","","40","","14","","34","","","","","","","","","","","","","","","","-1","439","","","","","","","","","","","","","","","","","","","","","","",""
"","fixation","","html-keyboard-response","290","1459338","0.0-269.0","0","0","c2yi6","People","","null","","","","null","","","","","","","","","","","","","","","","","","","","","","","","","","","","","","","","","","","","","","","","","","","",""
"","see_reward","","html-keyboard-response","291","1460068","0.0-270.0","0","0","c2yi6","People","","727","","","","32","","39","","35","","","","1","","","","","2","","","","","142","727","","","","","","","","","","","","","","","","","","","","","","","","",""
"","reward_outcome","","html-keyboard-response","292","1462077","0.0-271.0","0","0","c2yi6","People","","403","","","","38","","39","","35","","","","","","","","","","","","","","","","1","403","","","","","","","","","","","","","","","","","","","","","","",""
"","fixation","","html-keyboard-response","293","1463093","0.0-274.0","0","0","c2yi6","People","","null","","","","null","","","","","","","","","","","","","","","","","","","","","","","","","","","","","","","","","","","","","","","","","","","",""
"","see_reward","","html-keyboard-response","294","1463548","0.0-275.0","0","0","c2yi6","People","","450","","","","32","","40","","36","","","","1","","","","","2","","","","","142","450","","","","","","","","","","","","","","","","","","","","","","","","",""
"","reward_outcome","","html-keyboard-response","295","1465561","0.0-276.0","0","0","c2yi6","People","","435","","","","38","","40","","36","","","","","","","","","","","","","","","","1","435","","","","","","","","","","","","","","","","","","","","","","",""
"","fixation","","html-keyboard-response","296","1466575","0.0-279.0","0","0","c2yi6","People","","null","","","","null","","","","","","","","","","","","","","","","","","","","","","","","","","","","","","","","","","","","","","","","","","","",""
"","see_reward","","html-keyboard-response","297","1467031","0.0-280.0","0","0","c2yi6","People","","452","","","","32","","14","","37","","","","-1","","","","","2","","","","","0","452","","","","","","","","","","","","","","","","","","","","","","","","",""
"","reward_outcome","","html-keyboard-response","298","1469043","0.0-281.0","0","0","c2yi6","People","","476","","","","40","","14","","37","","","","","","","","","","","","","","","","-1","476","","","","","","","","","","","","","","","","","","","","","","",""
"","fixation","","html-keyboard-response","299","1470060","0.0-284.0","0","0","c2yi6","People","","null","","","","null","","","","","","","","","","","","","","","","","","","","","","","","","","","","","","","","","","","","","","","","","","","",""
"","see_reward","","html-keyboard-response","300","1470573","0.0-285.0","0","0","c2yi6","People","","509","","","","32","","42","","38","","","","-1","","","","","2","","","","","0","509","","","","","","","","","","","","","","","","","","","","","","","","",""
"","reward_outcome","","html-keyboard-response","301","1472594","0.0-286.0","0","0","c2yi6","People","","447","","","","40","","42","","38","","","","","","","","","","","","","","","","-1","447","","","","","","","","","","","","","","","","","","","","","","",""
"","fixation","","html-keyboard-response","302","1473611","0.0-289.0","0","0","c2yi6","People","","null","","","","null","","","","","","","","","","","","","","","","","","","","","","","","","","","","","","","","","","","","","","","","","","","",""
"","see_reward","","html-keyboard-response","303","1474091","0.0-290.0","0","0","c2yi6","People","","476","","","","32","","45","","39","","","","-1","","","","","2","","","","","0","476","","","","","","","","","","","","","","","","","","","","","","","","",""
"","reward_outcome","","html-keyboard-response","304","1476115","0.0-291.0","0","0","c2yi6","People","","513","","","","40","","45","","39","","","","","","","","","","","","","","","","-1","513","","","","","","","","","","","","","","","","","","","","","","",""
"","fixation","","html-keyboard-response","305","1477131","0.0-294.0","0","0","c2yi6","People","","null","","","","null","","","","","","","","","","","","","","","","","","","","","","","","","","","","","","","","","","","","","","","","","","","",""
"","see_reward","","html-keyboard-response","306","1477439","0.0-295.0","0","0","c2yi6","People","","305","","","","32","","10","","40","","","","1","","","","","2","","","","","160","305","","","","","","","","","","","","","","","","","","","","","","","","",""
"","reward_outcome","","html-keyboard-response","307","1479455","0.0-296.0","0","0","c2yi6","People","","460","","","","40","","10","","40","","","","","","","","","","","","","","","","-1","460","","","","","","","","","","","","","","","","","","","","","","",""
"","fixation","","html-keyboard-response","308","1480473","0.0-299.0","0","0","c2yi6","People","","null","","","","null","","","","","","","","","","","","","","","","","","","","","","","","","","","","","","","","","","","","","","","","","","","",""
"","see_reward","","html-keyboard-response","309","1481024","0.0-300.0","0","0","c2yi6","People","","548","","","","32","","34","","41","","","","1","","","","","2","","","","","150","548","","","","","","","","","","","","","","","","","","","","","","","","",""
"","reward_outcome","","html-keyboard-response","310","1483042","0.0-301.0","0","0","c2yi6","People","","558","","","","38","","34","","41","","","","","","","","","","","","","","","","1","558","","","","","","","","","","","","","","","","","","","","","","",""
"","fixation","","html-keyboard-response","311","1484061","0.0-304.0","0","0","c2yi6","People","","null","","","","null","","","","","","","","","","","","","","","","","","","","","","","","","","","","","","","","","","","","","","","","","","","",""
"","see_reward","","html-keyboard-response","312","1484624","0.0-305.0","0","0","c2yi6","People","","559","","","","32","","37","","42","","","","1","","","","","2","","","","","148","559","","","","","","","","","","","","","","","","","","","","","","","","",""
"","reward_outcome","","html-keyboard-response","313","1486637","0.0-306.0","0","0","c2yi6","People","","541","","","","38","","37","","42","","","","","","","","","","","","","","","","1","541","","","","","","","","","","","","","","","","","","","","","","",""
"","fixation","","html-keyboard-response","314","1487650","0.0-309.0","0","0","c2yi6","People","","null","","","","null","","","","","","","","","","","","","","","","","","","","","","","","","","","","","","","","","","","","","","","","","","","",""
"","see_reward","","html-keyboard-response","315","1488065","0.0-310.0","0","0","c2yi6","People","","411","","","","32","","1","","43","","","","1","","","","","2","","","","","153","411","","","","","","","","","","","","","","","","","","","","","","","","",""
"","reward_outcome","","html-keyboard-response","316","1490091","0.0-311.0","0","0","c2yi6","People","","553","","","","38","","1","","43","","","","","","","","","","","","","","","","1","553","","","","","","","","","","","","","","","","","","","","","","",""
"","fixation","","html-keyboard-response","317","1491107","0.0-314.0","0","0","c2yi6","People","","null","","","","null","","","","","","","","","","","","","","","","","","","","","","","","","","","","","","","","","","","","","","","","","","","",""
"","see_reward","","html-keyboard-response","318","1491602","0.0-315.0","0","0","c2yi6","People","","492","","","","32","","39","","44","","","","1","","","","","2","","","","","142","492","","","","","","","","","","","","","","","","","","","","","","","","",""
"","reward_outcome","","html-keyboard-response","319","1493620","0.0-316.0","0","0","c2yi6","People","","560","","","","38","","39","","44","","","","","","","","","","","","","","","","1","560","","","","","","","","","","","","","","","","","","","","","","",""
"","fixation","","html-keyboard-response","320","1494635","0.0-319.0","0","0","c2yi6","People","","null","","","","null","","","","","","","","","","","","","","","","","","","","","","","","","","","","","","","","","","","","","","","","","","","",""
"","see_reward","","html-keyboard-response","321","1494951","0.0-320.0","0","0","c2yi6","People","","312","","","","32","","37","","45","","","","1","","","","","2","","","","","148","312","","","","","","","","","","","","","","","","","","","","","","","","",""
"","reward_outcome","","html-keyboard-response","322","1496957","0.0-321.0","0","0","c2yi6","People","","523","","","","38","","37","","45","","","","","","","","","","","","","","","","1","523","","","","","","","","","","","","","","","","","","","","","","",""
"","fixation","","html-keyboard-response","323","1497974","0.0-324.0","0","0","c2yi6","People","","null","","","","null","","","","","","","","","","","","","","","","","","","","","","","","","","","","","","","","","","","","","","","","","","","",""
"","see_reward","","html-keyboard-response","324","1498422","0.0-325.0","0","0","c2yi6","People","","444","","","","32","","1","","46","","","","1","","","","","2","","","","","153","444","","","","","","","","","","","","","","","","","","","","","","","","",""
"","reward_outcome","","html-keyboard-response","325","1500434","0.0-326.0","0","0","c2yi6","People","","590","","","","38","","1","","46","","","","","","","","","","","","","","","","1","590","","","","","","","","","","","","","","","","","","","","","","",""
"","fixation","","html-keyboard-response","326","1501448","0.0-329.0","0","0","c2yi6","People","","null","","","","null","","","","","","","","","","","","","","","","","","","","","","","","","","","","","","","","","","","","","","","","","","","",""
"","see_reward","","html-keyboard-response","327","1501844","0.0-330.0","0","0","c2yi6","People","","395","","","","32","","41","","47","","","","-1","","","","","2","","","","","0","395","","","","","","","","","","","","","","","","","","","","","","","","",""
"","reward_outcome","","html-keyboard-response","328","1503857","0.0-331.0","0","0","c2yi6","People","","576","","","","40","","41","","47","","","","","","","","","","","","","","","","-1","576","","","","","","","","","","","","","","","","","","","","","","",""
"","block_over","","html-keyboard-response","329","1505439","0.0-333.0-0.0","0","0","c2yi6","People","","1580","","","","78","","","","","","","","","","","","","","","","","","","","","","","","","","","","","","","","","","","","","","","","","","","",""
"","fixation","","html-keyboard-response","330","1506456","0.0-334.0","0","0","c2yi6","People","","null","","","","null","","","","","","","","","","","","","","","","","","","","","","","","","","","","","","","","","","","","","","","","","","","",""
"","see_reward","","html-keyboard-response","331","1507095","0.0-335.0","0","0","c2yi6","People","","636","","","","32","","37","","48","","","","1","","","","","3","","","","","148","636","","","","","","","","","","","","","","","","","","","","","","","","",""
"","reward_outcome","","html-keyboard-response","332","1509107","0.0-336.0","0","0","c2yi6","People","","623","","","","38","","37","","48","","","","","","","","","","","","","","","","1","623","","","","","","","","","","","","","","","","","","","","","","",""
"","fixation","","html-keyboard-response","333","1510125","0.0-339.0","0","0","c2yi6","People","","null","","","","null","","","","","","","","","","","","","","","","","","","","","","","","","","","","","","","","","","","","","","","","","","","",""
"","see_reward","","html-keyboard-response","334","1510589","0.0-340.0","0","0","c2yi6","People","","462","","","","32","","1","","49","","","","1","","","","","3","","","","","153","462","","","","","","","","","","","","","","","","","","","","","","","","",""
"","reward_outcome","","html-keyboard-response","335","1512604","0.0-341.0","0","0","c2yi6","People","","545","","","","38","","1","","49","","","","","","","","","","","","","","","","1","545","","","","","","","","","","","","","","","","","","","","","","",""
"","fixation","","html-keyboard-response","336","1513624","0.0-344.0","0","0","c2yi6","People","","null","","","","null","","","","","","","","","","","","","","","","","","","","","","","","","","","","","","","","","","","","","","","","","","","",""
"","see_reward","","html-keyboard-response","337","1514052","0.0-345.0","0","0","c2yi6","People","","424","","","","32","","41","","50","","","","-1","","","","","3","","","","","0","424","","","","","","","","","","","","","","","","","","","","","","","","",""
"","reward_outcome","","html-keyboard-response","338","1516064","0.0-346.0","0","0","c2yi6","People","","500","","","","40","","41","","50","","","","","","","","","","","","","","","","-1","500","","","","","","","","","","","","","","","","","","","","","","",""
"","fixation","","html-keyboard-response","339","1517074","0.0-349.0","0","0","c2yi6","People","","null","","","","null","","","","","","","","","","","","","","","","","","","","","","","","","","","","","","","","","","","","","","","","","","","",""
"","see_reward","","html-keyboard-response","340","1517515","0.0-350.0","0","0","c2yi6","People","","437","","","","32","","42","","51","","","","-1","","","","","3","","","","","0","437","","","","","","","","","","","","","","","","","","","","","","","","",""
"","reward_outcome","","html-keyboard-response","341","1519527","0.0-351.0","0","0","c2yi6","People","","672","","","","40","","42","","51","","","","","","","","","","","","","","","","-1","672","","","","","","","","","","","","","","","","","","","","","","",""
"","fixation","","html-keyboard-response","342","1520544","0.0-354.0","0","0","c2yi6","People","","null","","","","null","","","","","","","","","","","","","","","","","","","","","","","","","","","","","","","","","","","","","","","","","","","",""
"","see_reward","","html-keyboard-response","343","1521137","0.0-355.0","0","0","c2yi6","People","","589","","","","32","","42","","52","","","","-1","","","","","3","","","","","0","589","","","","","","","","","","","","","","","","","","","","","","","","",""
"","reward_outcome","","html-keyboard-response","344","1523163","0.0-356.0","0","0","c2yi6","People","","544","","","","40","","42","","52","","","","","","","","","","","","","","","","-1","544","","","","","","","","","","","","","","","","","","","","","","",""
