"success","ttype","start_time","trial_type","trial_index","time_elapsed","internal_node_id","warning","missed_checkup","PID","stim_type","view_history","rt","responses","category","repeat_instructions","key_press","response","stimulus_id","painting","index","stimulus_left","stimulus_right","explain_trial","reward_type","rating_left","rating_right","painting_left","painting_right","block","left_chosen","chosen_obj","unchosen_obj","explain_response","reward_amount","see_reward_rt","register_reward_response","register_reward_rt","deliberation_reward_tally","stimulus_left_deliberation_ind","stimulus_right_deliberation_ind","chosen_trial","gain_left","higher_outcome_chosen","old_pair","chosen_object","rt_pairs","left_object_chosen","rt_object","old_response","new_rating","deliberated_stim","initial_rating","outcome_eval_rt","outcome_eval_response","outcome_eval_gain","outcome_eval_acc","preamble","outcome_eval_confidence","outcome_eval_confidence_rt","total_reward_tally"
"true","full_screen","d01182023hr1505","fullscreen","0","15116","0.0-0.0","0","0","wP5Q8","People","","","","","","","","","","","","","","","","","","","","","","","","","","","","","","","","","","","","","","","","","","","","","","","","","",""
"","rating_instructions","","instructions","1","38685","0.0-1.0-0.0","0","0","wP5Q8","People","[{""page_index"":0,""viewing_time"":21398},{""page_index"":1,""viewing_time"":2168}]","23567","","","","","","","","","","","","","","","","","","","","","","","","","","","","","","","","","","","","","","","","","","","","","","","",""
"","","","survey-multi-choice","2","46911","0.0-1.0-1.0","0","0","wP5Q8","People","","8221","{""Q0"":""True"",""Q1"":""Mouse""}","rating_comprehension_check","0","","","","","","","","","","","","","","","","","","","","","","","","","","","","","","","","","","","","","","","","","","","","",""
"","start_phase","","html-keyboard-response","3","49704","0.0-2.0","0","0","wP5Q8","People","","2790","","","","78","","","","","","","","","","","","","","","","","","","","","","","","","","","","","","","","","","","","","","","","","","","",""
"","rating","","html-slider-response","4","55501","0.0-3.0","0","0","wP5Q8","People","","5794","","","","","79","48","velizar-ivanov-7ktP9yZA1g4-unsplash.jpg","0","","","","","","","","","","","","","","","","","","","","","","","","","","","","","","","","","","","","","","","",""
"","rating","","html-slider-response","5","60973","0.0-4.0","0","0","wP5Q8","People","","5469","","","","","53","28","justin-chen-J7Cf1Gch49E-unsplash.jpg","1","","","","","","","","","","","","","","","","","","","","","","","","","","","","","","","","","","","","","","","",""
"","rating","","html-slider-response","6","65633","0.0-5.0","0","0","wP5Q8","People","","4657","","","","","57","37","pavel-anoshin-d0peGya6R5Y-unsplash.jpg","2","","","","","","","","","","","","","","","","","","","","","","","","","","","","","","","","","","","","","","","",""
"","rating","","html-slider-response","7","71759","0.0-6.0","0","0","wP5Q8","People","","6124","","","","","93","35","oliver-ragfelt-khV4fTy6-D8-unsplash.jpg","3","","","","","","","","","","","","","","","","","","","","","","","","","","","","","","","","","","","","","","","",""
"","rating","","html-slider-response","8","76183","0.0-7.0","0","0","wP5Q8","People","","4422","","","","","37","2","arjunsyah-TBUA5KHJn6k-unsplash.jpg","4","","","","","","","","","","","","","","","","","","","","","","","","","","","","","","","","","","","","","","","",""
"","rating","","html-slider-response","9","80853","0.0-8.0","0","0","wP5Q8","People","","4668","","","","","63","26","juri-gianfrancesco-9EZadYaMzk4-unsplash.jpg","5","","","","","","","","","","","","","","","","","","","","","","","","","","","","","","","","","","","","","","","",""
"","rating","","html-slider-response","10","85397","0.0-9.0","0","0","wP5Q8","People","","4541","","","","","71","15","gabriel-silverio-u3WmDyKGsrY-unsplash.jpg","6","","","","","","","","","","","","","","","","","","","","","","","","","","","","","","","","","","","","","","","",""
"","rating","","html-slider-response","11","89010","0.0-10.0","0","0","wP5Q8","People","","3610","","","","","90","34","oliver-johnson-1TUIcKob7Zs-unsplash.jpg","7","","","","","","","","","","","","","","","","","","","","","","","","","","","","","","","","","","","","","","","",""
"","rating","","html-slider-response","12","93596","0.0-11.0","0","0","wP5Q8","People","","4584","","","","","100","11","christian-ferrer-8vT-DgHZDG4-unsplash.jpg","8","","","","","","","","","","","","","","","","","","","","","","","","","","","","","","","","","","","","","","","",""
"","rating","","html-slider-response","13","97388","0.0-12.0","0","0","wP5Q8","People","","3790","","","","","73","36","ospan-ali-mGdA2fzjWLo-unsplash.jpg","9","","","","","","","","","","","","","","","","","","","","","","","","","","","","","","","","","","","","","","","",""
"","rating","","html-slider-response","14","101078","0.0-13.0","0","0","wP5Q8","People","","3688","","","","","60","5","batel-studio-ttSRjiYG_WM-unsplash.jpg","10","","","","","","","","","","","","","","","","","","","","","","","","","","","","","","","","","","","","","","","",""
"","rating","","html-slider-response","15","105856","0.0-14.0","0","0","wP5Q8","People","","4776","","","","","55","19","ha-nguy-n-OFSQ6bHjFjs-unsplash.jpg","11","","","","","","","","","","","","","","","","","","","","","","","","","","","","","","","","","","","","","","","",""
"","rating","","html-slider-response","16","111016","0.0-15.0","0","0","wP5Q8","People","","5158","","","","","100","12","daniel-rigdon-dXmXKPP2L4E-unsplash.jpg","12","","","","","","","","","","","","","","","","","","","","","","","","","","","","","","","","","","","","","","","",""
"","rating","","html-slider-response","17","114370","0.0-16.0","0","0","wP5Q8","People","","3352","","","","","100","1","aiony-haust-jmATI5Q_YgY-unsplash.jpg","13","","","","","","","","","","","","","","","","","","","","","","","","","","","","","","","","","","","","","","","",""
"","rating","","html-slider-response","18","117798","0.0-17.0","0","0","wP5Q8","People","","3426","","","","","21","0","abstral-official-cyOKLSgkgCE-unsplash.jpg","14","","","","","","","","","","","","","","","","","","","","","","","","","","","","","","","","","","","","","","","",""
"","rating","","html-slider-response","19","121616","0.0-18.0","0","0","wP5Q8","People","","3817","","","","","79","44","rikonavt-HQjfrvdTfak-unsplash.jpg","15","","","","","","","","","","","","","","","","","","","","","","","","","","","","","","","","","","","","","","","",""
"","rating","","html-slider-response","20","124817","0.0-19.0","0","0","wP5Q8","People","","3199","","","","","66","9","carlos-andres-gomez-vJuk8Y86mRw-unsplash.jpg","16","","","","","","","","","","","","","","","","","","","","","","","","","","","","","","","","","","","","","","","",""
"","rating","","html-slider-response","21","128113","0.0-20.0","0","0","wP5Q8","People","","3294","","","","","100","24","joel-mott-LaK153ghdig-unsplash.jpg","17","","","","","","","","","","","","","","","","","","","","","","","","","","","","","","","","","","","","","","","",""
"","rating","","html-slider-response","22","134575","0.0-21.0","0","0","wP5Q8","People","","6460","","","","","74","3","art-hauntington-jzY0KRJopEI-unsplash.jpg","18","","","","","","","","","","","","","","","","","","","","","","","","","","","","","","","","","","","","","","","",""
"","rating","","html-slider-response","23","139855","0.0-22.0","0","0","wP5Q8","People","","5278","","","","","39","39","philip-martin-5aGUyCW_PJw-unsplash.jpg","19","","","","","","","","","","","","","","","","","","","","","","","","","","","","","","","","","","","","","","","",""
"","rating","","html-slider-response","24","144047","0.0-23.0","0","0","wP5Q8","People","","4190","","","","","59","30","matheus-ferrero-pg_WCHWSdT8-unsplash.jpg","20","","","","","","","","","","","","","","","","","","","","","","","","","","","","","","","","","","","","","","","",""
"","rating","","html-slider-response","25","152959","0.0-24.0","0","0","wP5Q8","People","","8910","","","","","100","20","houcine-ncib-B4TjXnI0Y2c-unsplash.jpg","21","","","","","","","","","","","","","","","","","","","","","","","","","","","","","","","","","","","","","","","",""
"","rating","","html-slider-response","26","159724","0.0-25.0","0","0","wP5Q8","People","","6762","","","","","29","29","leilani-angel-K84vnnzxmTQ-unsplash.jpg","22","","","","","","","","","","","","","","","","","","","","","","","","","","","","","","","","","","","","","","","",""
"","rating","","html-slider-response","27","169024","0.0-26.0","0","0","wP5Q8","People","","9298","","","","","70","33","olena-sergienko-0TSd6uCKTKc-unsplash.jpg","23","","","","","","","","","","","","","","","","","","","","","","","","","","","","","","","","","","","","","","","",""
"","rating","","html-slider-response","28","174162","0.0-27.0","0","0","wP5Q8","People","","5136","","","","","52","27","jurica-koletic-7YVZYZeITc8-unsplash.jpg","24","","","","","","","","","","","","","","","","","","","","","","","","","","","","","","","","","","","","","","","",""
"","rating","","html-slider-response","29","181858","0.0-28.0","0","0","wP5Q8","People","","7694","","","","","46","40","prince-akachi-4Yv84VgQkRM-unsplash.jpg","25","","","","","","","","","","","","","","","","","","","","","","","","","","","","","","","","","","","","","","","",""
"","rating","","html-slider-response","30","189782","0.0-29.0","0","0","wP5Q8","People","","7921","","","","","70","43","raamin-ka-0qJBEzudn5E-unsplash.jpg","26","","","","","","","","","","","","","","","","","","","","","","","","","","","","","","","","","","","","","","","",""
"","rating","","html-slider-response","31","195215","0.0-30.0","0","0","wP5Q8","People","","5431","","","","","24","32","nathan-dumlao-ger61_TX6oI-unsplash.jpg","27","","","","","","","","","","","","","","","","","","","","","","","","","","","","","","","","","","","","","","","",""
"","rating","","html-slider-response","32","211081","0.0-31.0","0","0","wP5Q8","People","","15865","","","","","43","10","charles-etoroma-95UF6LXe-Lo-unsplash.jpg","28","","","","","","","","","","","","","","","","","","","","","","","","","","","","","","","","","","","","","","","",""
"","rating","","html-slider-response","33","220065","0.0-32.0","0","0","wP5Q8","People","","8982","","","","","42","4","barna-bartis-2x3vfVxwR7o-unsplash.jpg","29","","","","","","","","","","","","","","","","","","","","","","","","","","","","","","","","","","","","","","","",""
"","rating","","html-slider-response","34","227076","0.0-33.0","0","0","wP5Q8","People","","7008","","","","","72","23","joanna-nix-walkup-H4fEMshfwTE-unsplash.jpg","30","","","","","","","","","","","","","","","","","","","","","","","","","","","","","","","","","","","","","","","",""
"","rating","","html-slider-response","35","232816","0.0-34.0","0","0","wP5Q8","People","","5738","","","","","75","21","jessica-felicio-_cvwXhGqG-o-unsplash.jpg","31","","","","","","","","","","","","","","","","","","","","","","","","","","","","","","","","","","","","","","","",""
"","rating","","html-slider-response","36","237098","0.0-35.0","0","0","wP5Q8","People","","4280","","","","","43","25","joseph-gonzalez-iFgRcqHznqg-unsplash.jpg","32","","","","","","","","","","","","","","","","","","","","","","","","","","","","","","","","","","","","","","","",""
"","rating","","html-slider-response","37","242814","0.0-36.0","0","0","wP5Q8","People","","5714","","","","","21","14","freddy-kearney-o-ioeoATbIM-unsplash.jpg","33","","","","","","","","","","","","","","","","","","","","","","","","","","","","","","","","","","","","","","","",""
"","rating","","html-slider-response","38","247372","0.0-37.0","0","0","wP5Q8","People","","4556","","","","","47","45","sarah-noltner-pL5ZzPp1zqg-unsplash.jpg","34","","","","","","","","","","","","","","","","","","","","","","","","","","","","","","","","","","","","","","","",""
"","rating","","html-slider-response","39","253036","0.0-38.0","0","0","wP5Q8","People","","5663","","","","","42","47","tyler-nix-ZGa9d1a_4tA-unsplash.jpg","35","","","","","","","","","","","","","","","","","","","","","","","","","","","","","","","","","","","","","","","",""
"","rating","","html-slider-response","40","258602","0.0-39.0","0","0","wP5Q8","People","","5563","","","","","43","8","bruce-dixon-3M9WJQVHzog-unsplash.jpg","36","","","","","","","","","","","","","","","","","","","","","","","","","","","","","","","","","","","","","","","",""
"","rating","","html-slider-response","41","272587","0.0-40.0","0","0","wP5Q8","People","","13983","","","","","60","49","vicky-hladynets-_gDoyVv5F4c-unsplash.jpg","37","","","","","","","","","","","","","","","","","","","","","","","","","","","","","","","","","","","","","","","",""
"","rating","","html-slider-response","42","279737","0.0-41.0","0","0","wP5Q8","People","","7148","","","","","65","42","prince-akachi-l3IHXOdMyHQ-unsplash.jpg","38","","","","","","","","","","","","","","","","","","","","","","","","","","","","","","","","","","","","","","","",""
"","rating","","html-slider-response","43","287600","0.0-42.0","0","0","wP5Q8","People","","7859","","","","","56","13","erik-lucatero-d2MSDujJl2g-unsplash.jpg","39","","","","","","","","","","","","","","","","","","","","","","","","","","","","","","","","","","","","","","","",""
"","rating","","html-slider-response","44","300976","0.0-43.0","0","0","wP5Q8","People","","13374","","","","","36","38","petr-sevcovic-HzDF-rxlSeM-unsplash.jpg","40","","","","","","","","","","","","","","","","","","","","","","","","","","","","","","","","","","","","","","","",""
"","rating","","html-slider-response","45","314248","0.0-44.0","0","0","wP5Q8","People","","13270","","","","","73","17","gleb-lukomets-paBzWCPN23k-unsplash.jpg","41","","","","","","","","","","","","","","","","","","","","","","","","","","","","","","","","","","","","","","","",""
"","rating","","html-slider-response","46","325509","0.0-45.0","0","0","wP5Q8","People","","11258","","","","","31","16","giano-currie-5-9YOsmf8IQ-unsplash.jpg","42","","","","","","","","","","","","","","","","","","","","","","","","","","","","","","","","","","","","","","","",""
"","rating","","html-slider-response","47","345015","0.0-46.0","0","0","wP5Q8","People","","19504","","","","","50","6","ben-o-bro-C5XyLljkMrY-unsplash.jpg","43","","","","","","","","","","","","","","","","","","","","","","","","","","","","","","","","","","","","","","","",""
"","rating","","html-slider-response","48","351434","0.0-47.0","0","0","wP5Q8","People","","6415","","","","","50","18","good-faces-xmSWVeGEnJw-unsplash.jpg","44","","","","","","","","","","","","","","","","","","","","","","","","","","","","","","","","","","","","","","","",""
"","rating","","html-slider-response","49","357234","0.0-48.0","0","0","wP5Q8","People","","5798","","","","","67","41","prince-akachi-i2hoD-C2RUA-unsplash.jpg","45","","","","","","","","","","","","","","","","","","","","","","","","","","","","","","","","","","","","","","","",""
"","rating","","html-slider-response","50","366650","0.0-49.0","0","0","wP5Q8","People","","9414","","","","","73","46","stefan-stefancik-QXevDflbl8A-unsplash.jpg","46","","","","","","","","","","","","","","","","","","","","","","","","","","","","","","","","","","","","","","","",""
"","rating","","html-slider-response","51","374604","0.0-50.0","0","0","wP5Q8","People","","7952","","","","","53","31","mathilda-khoo-vLR0YP_otCo-unsplash.jpg","47","","","","","","","","","","","","","","","","","","","","","","","","","","","","","","","","","","","","","","","",""
"","rating","","html-slider-response","52","381990","0.0-51.0","0","0","wP5Q8","People","","7384","","","","","23","22","jessica-radanavong-mrYkTuAesKE-unsplash.jpg","48","","","","","","","","","","","","","","","","","","","","","","","","","","","","","","","","","","","","","","","",""
"","rating","","html-slider-response","53","389429","0.0-52.0","0","0","wP5Q8","People","","7437","","","","","100","7","brooke-cagle-HRZUzoX1e6w-unsplash.jpg","49","","","","","","","","","","","","","","","","","","","","","","","","","","","","","","","","","","","","","","","",""
"","deliberation_instructions","","instructions","54","471824","0.0-53.0-0.0","0","0","wP5Q8","People","[{""page_index"":0,""viewing_time"":17114},{""page_index"":1,""viewing_time"":21299},{""page_index"":2,""viewing_time"":22384},{""page_index"":3,""viewing_time"":19233},{""page_index"":4,""viewing_time"":2360}]","82391","","","","","","","","","","","","","","","","","","","","","","","","","","","","","","","","","","","","","","","","","","","","","","","",""
"","","","survey-multi-choice","55","492416","0.0-53.0-1.0","0","0","wP5Q8","People","","20582","{""Q0"":""True"",""Q1"":""True"",""Q2"":""Consider carefully and take your time (up to 10 seconds)"",""Q3"":""True"",""Q4"":""D""}","deliberation_comprehension_check","0","","","","","","","","","","","","","","","","","","","","","","","","","","","","","","","","","","","","","","","","","","","","",""
"","start_phase","","html-keyboard-response","56","501393","0.0-54.0","0","0","wP5Q8","People","","8974","","","","78","","","","","","","","","","","","","","","","","","","","","","","","","","","","","","","","","","","","","","","","","","","",""
"","first_deliberation_block","","html-keyboard-response","57","504153","0.0-55.0","0","0","wP5Q8","People","","2759","","","","78","","","","","","","","","","","","","","","","","","","","","","","","","","","","","","","","","","","","","","","","","","","",""
"","fixation","","html-keyboard-response","58","505160","0.0-56.0-0.0","0","0","wP5Q8","People","","null","","","","null","","","","","","","","","","","","","","","","","","","","","","","","","","","","","","","","","","","","","","","","","","","",""
"","deliberation","","html-keyboard-response","59","506315","0.0-56.0-1.0","0","0","wP5Q8","People","","1154","","","","75","","","","0","18","30","1","-1","50","59","good-faces-xmSWVeGEnJw-unsplash.jpg","matheus-ferrero-pg_WCHWSdT8-unsplash.jpg","1","0","30","18","","","","","","","","","","","","","","","","","","","","","","","","","","","",""
"","choice_confirmation","","html-keyboard-response","60","506819","0.0-56.0-2.0-0.0","0","0","wP5Q8","People","","null","","","","null","","","","0","18","30","","","","","","","","","","","","","","","","","","","","","","","","","","","","","","","","","","","","","",""
"","explain_trial","","survey-text","61","566588","0.0-56.0-5.0-0.0","0","0","wP5Q8","People","","59767","{""Q0"":""The leaves in the background makes the image seem more lively than a plain background.""}","","","","","","","0","18","30","","","","","","","","","","","{""Q0"":""The leaves in the background makes the image seem more lively than a plain background.""}","","","","","","","","","","","","","","","","","","","","","","","","","","",""
"","fixation","","html-keyboard-response","62","567591","0.0-57.0-0.0","0","0","wP5Q8","People","","null","","","","null","","","","","","","","","","","","","","","","","","","","","","","","","","","","","","","","","","","","","","","","","","","",""
"","deliberation","","html-keyboard-response","63","571184","0.0-57.0-1.0","0","0","wP5Q8","People","","3591","","","","75","","","","1","9","33","0","1","66","70","carlos-andres-gomez-vJuk8Y86mRw-unsplash.jpg","olena-sergienko-0TSd6uCKTKc-unsplash.jpg","1","0","33","9","","","","","","","","","","","","","","","","","","","","","","","","","","","",""
"","choice_confirmation","","html-keyboard-response","64","571689","0.0-57.0-2.0-0.0","0","0","wP5Q8","People","","null","","","","null","","","","1","9","33","","","","","","","","","","","","","","","","","","","","","","","","","","","","","","","","","","","","","",""
"","fixation","","html-keyboard-response","65","572695","0.0-58.0-0.0","0","0","wP5Q8","People","","null","","","","null","","","","","","","","","","","","","","","","","","","","","","","","","","","","","","","","","","","","","","","","","","","",""
"","deliberation","","html-keyboard-response","66","575587","0.0-58.0-1.0","0","0","wP5Q8","People","","2890","","","","68","","","","2","17","6","0","1","73","50","gleb-lukomets-paBzWCPN23k-unsplash.jpg","ben-o-bro-C5XyLljkMrY-unsplash.jpg","1","1","17","6","","","","","","","","","","","","","","","","","","","","","","","","","","","",""
"","choice_confirmation","","html-keyboard-response","67","576092","0.0-58.0-2.0-0.0","0","0","wP5Q8","People","","null","","","","null","","","","2","17","6","","","","","","","","","","","","","","","","","","","","","","","","","","","","","","","","","","","","","",""
"","fixation","","html-keyboard-response","68","577097","0.0-59.0-0.0","0","0","wP5Q8","People","","null","","","","null","","","","","","","","","","","","","","","","","","","","","","","","","","","","","","","","","","","","","","","","","","","",""
"","deliberation","","html-keyboard-response","69","579609","0.0-59.0-1.0","0","0","wP5Q8","People","","2510","","","","68","","","","3","42","15","0","-1","65","71","prince-akachi-l3IHXOdMyHQ-unsplash.jpg","gabriel-silverio-u3WmDyKGsrY-unsplash.jpg","1","1","42","15","","","","","","","","","","","","","","","","","","","","","","","","","","","",""
"","choice_confirmation","","html-keyboard-response","70","580112","0.0-59.0-2.0-0.0","0","0","wP5Q8","People","","null","","","","null","","","","3","42","15","","","","","","","","","","","","","","","","","","","","","","","","","","","","","","","","","","","","","",""
"","fixation","","html-keyboard-response","71","581118","0.0-60.0-0.0","0","0","wP5Q8","People","","null","","","","null","","","","","","","","","","","","","","","","","","","","","","","","","","","","","","","","","","","","","","","","","","","",""
"","deliberation","","html-keyboard-response","72","584342","0.0-60.0-1.0","0","0","wP5Q8","People","","3222","","","","75","","","","4","28","41","0","1","53","67","justin-chen-J7Cf1Gch49E-unsplash.jpg","prince-akachi-i2hoD-C2RUA-unsplash.jpg","1","0","41","28","","","","","","","","","","","","","","","","","","","","","","","","","","","",""
"","choice_confirmation","","html-keyboard-response","73","584845","0.0-60.0-2.0-0.0","0","0","wP5Q8","People","","null","","","","null","","","","4","28","41","","","","","","","","","","","","","","","","","","","","","","","","","","","","","","","","","","","","","",""
"","fixation","","html-keyboard-response","74","585848","0.0-61.0-0.0","0","0","wP5Q8","People","","null","","","","null","","","","","","","","","","","","","","","","","","","","","","","","","","","","","","","","","","","","","","","","","","","",""
"","deliberation","","html-keyboard-response","75","589009","0.0-61.0-1.0","0","0","wP5Q8","People","","3159","","","","68","","","","5","31","23","1","1","53","72","mathilda-khoo-vLR0YP_otCo-unsplash.jpg","joanna-nix-walkup-H4fEMshfwTE-unsplash.jpg","1","1","31","23","","","","","","","","","","","","","","","","","","","","","","","","","","","",""
"","choice_confirmation","","html-keyboard-response","76","589514","0.0-61.0-2.0-0.0","0","0","wP5Q8","People","","null","","","","null","","","","5","31","23","","","","","","","","","","","","","","","","","","","","","","","","","","","","","","","","","","","","","",""
"","explain_trial","","survey-text","77","645872","0.0-61.0-5.0-0.0","0","0","wP5Q8","People","","56356","{""Q0"":""This picture evokes a stronger emotion when you look in the subject's eyes.""}","","","","","","","5","31","23","","","","","","","","","","","{""Q0"":""This picture evokes a stronger emotion when you look in the subject's eyes.""}","","","","","","","","","","","","","","","","","","","","","","","","","","",""
"","fixation","","html-keyboard-response","78","646877","0.0-62.0-0.0","0","0","wP5Q8","People","","null","","","","null","","","","","","","","","","","","","","","","","","","","","","","","","","","","","","","","","","","","","","","","","","","",""
"","deliberation","","html-keyboard-response","79","649661","0.0-62.0-1.0","0","0","wP5Q8","People","","2782","","","","68","","","","6","40","5","1","1","46","60","prince-akachi-4Yv84VgQkRM-unsplash.jpg","batel-studio-ttSRjiYG_WM-unsplash.jpg","1","1","40","5","","","","","","","","","","","","","","","","","","","","","","","","","","","",""
"","choice_confirmation","","html-keyboard-response","80","650166","0.0-62.0-2.0-0.0","0","0","wP5Q8","People","","null","","","","null","","","","6","40","5","","","","","","","","","","","","","","","","","","","","","","","","","","","","","","","","","","","","","",""
"","explain_trial","","survey-text","81","677735","0.0-62.0-5.0-0.0","0","0","wP5Q8","People","","27567","{""Q0"":""The other image looks generic.""}","","","","","","","6","40","5","","","","","","","","","","","{""Q0"":""The other image looks generic.""}","","","","","","","","","","","","","","","","","","","","","","","","","","",""
"","fixation","","html-keyboard-response","82","678742","0.0-63.0-0.0","0","0","wP5Q8","People","","null","","","","null","","","","","","","","","","","","","","","","","","","","","","","","","","","","","","","","","","","","","","","","","","","",""
"","deliberation","","html-keyboard-response","83","680643","0.0-63.0-1.0","0","0","wP5Q8","People","","1899","","","","68","","","","7","37","45","1","-1","57","47","pavel-anoshin-d0peGya6R5Y-unsplash.jpg","sarah-noltner-pL5ZzPp1zqg-unsplash.jpg","1","1","37","45","","","","","","","","","","","","","","","","","","","","","","","","","","","",""
"","choice_confirmation","","html-keyboard-response","84","681148","0.0-63.0-2.0-0.0","0","0","wP5Q8","People","","null","","","","null","","","","7","37","45","","","","","","","","","","","","","","","","","","","","","","","","","","","","","","","","","","","","","",""
"","explain_trial","","survey-text","85","772376","0.0-63.0-5.0-0.0","0","0","wP5Q8","People","","91226","{""Q0"":""The aesthetic of the image gives it a vintage look.""}","","","","","","","7","37","45","","","","","","","","","","","{""Q0"":""The aesthetic of the image gives it a vintage look.""}","","","","","","","","","","","","","","","","","","","","","","","","","","",""
"","fixation","","html-keyboard-response","86","773383","0.0-64.0-0.0","0","0","wP5Q8","People","","null","","","","null","","","","","","","","","","","","","","","","","","","","","","","","","","","","","","","","","","","","","","","","","","","",""
"","deliberation","","html-keyboard-response","87","776070","0.0-64.0-1.0","0","0","wP5Q8","People","","2685","","","","68","","","","8","36","19","0","-1","73","55","ospan-ali-mGdA2fzjWLo-unsplash.jpg","ha-nguy-n-OFSQ6bHjFjs-unsplash.jpg","1","1","36","19","","","","","","","","","","","","","","","","","","","","","","","","","","","",""
"","choice_confirmation","","html-keyboard-response","88","776574","0.0-64.0-2.0-0.0","0","0","wP5Q8","People","","null","","","","null","","","","8","36","19","","","","","","","","","","","","","","","","","","","","","","","","","","","","","","","","","","","","","",""
"","fixation","","html-keyboard-response","89","777580","0.0-65.0-0.0","0","0","wP5Q8","People","","null","","","","null","","","","","","","","","","","","","","","","","","","","","","","","","","","","","","","","","","","","","","","","","","","",""
"","deliberation","","html-keyboard-response","90","781922","0.0-65.0-1.0","0","0","wP5Q8","People","","4341","","","","68","","","","9","49","27","1","-1","60","52","vicky-hladynets-_gDoyVv5F4c-unsplash.jpg","jurica-koletic-7YVZYZeITc8-unsplash.jpg","1","1","49","27","","","","","","","","","","","","","","","","","","","","","","","","","","","",""
"","choice_confirmation","","html-keyboard-response","91","782427","0.0-65.0-2.0-0.0","0","0","wP5Q8","People","","null","","","","null","","","","9","49","27","","","","","","","","","","","","","","","","","","","","","","","","","","","","","","","","","","","","","",""
"","explain_trial","","survey-text","92","936843","0.0-65.0-5.0-0.0","0","0","wP5Q8","People","","154413","{""Q0"":""The alternative image doesn't bring out any emotions.""}","","","","","","","9","49","27","","","","","","","","","","","{""Q0"":""The alternative image doesn't bring out any emotions.""}","","","","","","","","","","","","","","","","","","","","","","","","","","",""
"","fixation","","html-keyboard-response","93","937847","0.0-66.0-0.0","0","0","wP5Q8","People","","null","","","","null","","","","","","","","","","","","","","","","","","","","","","","","","","","","","","","","","","","","","","","","","","","",""
"","deliberation","","html-keyboard-response","94","940108","0.0-66.0-1.0","0","0","wP5Q8","People","","2259","","","","68","","","","10","43","13","1","-1","70","56","raamin-ka-0qJBEzudn5E-unsplash.jpg","erik-lucatero-d2MSDujJl2g-unsplash.jpg","1","1","43","13","","","","","","","","","","","","","","","","","","","","","","","","","","","",""
"","choice_confirmation","","html-keyboard-response","95","940613","0.0-66.0-2.0-0.0","0","0","wP5Q8","People","","null","","","","null","","","","10","43","13","","","","","","","","","","","","","","","","","","","","","","","","","","","","","","","","","","","","","",""
"","explain_trial","","survey-text","96","997005","0.0-66.0-5.0-0.0","0","0","wP5Q8","People","","56389","{""Q0"":""The subject is more interesting.""}","","","","","","","10","43","13","","","","","","","","","","","{""Q0"":""The subject is more interesting.""}","","","","","","","","","","","","","","","","","","","","","","","","","","",""
"","fixation","","html-keyboard-response","97","998011","0.0-67.0-0.0","0","0","wP5Q8","People","","null","","","","null","","","","","","","","","","","","","","","","","","","","","","","","","","","","","","","","","","","","","","","","","","","",""
"","deliberation","","html-keyboard-response","98","1008019","0.0-67.0-1.0","0","0","wP5Q8","People","","null","","","","null","","","","11","26","8","0","1","63","43","juri-gianfrancesco-9EZadYaMzk4-unsplash.jpg","bruce-dixon-3M9WJQVHzog-unsplash.jpg","1","","","","","","","","","","","","","","","","","","","","","","","","","","","","","","",""
"","deliberation_too_slow","","html-keyboard-response","99","1009521","0.0-67.0-4.0-0.0","1","0","wP5Q8","People","","null","","","","null","","","","11","","","","","","","","","","","","","","","","","","","","","","","","","","","","","","","","","","","","","","","",""
"","fixation","","html-keyboard-response","100","1010528","0.0-67.1-0.1","0","0","wP5Q8","People","","null","","","","null","","","","","","","","","","","","","","","","","","","","","","","","","","","","","","","","","","","","","","","","","","","",""
"","deliberation","","html-keyboard-response","101","1012121","0.0-67.1-1.1","0","0","wP5Q8","People","","1592","","","","68","","","","11","26","8","0","1","63","43","juri-gianfrancesco-9EZadYaMzk4-unsplash.jpg","bruce-dixon-3M9WJQVHzog-unsplash.jpg","1","1","26","8","","","","","","","","","","","","","","","","","","","","","","","","","","","",""
"","choice_confirmation","","html-keyboard-response","102","1012627","0.0-67.1-2.1-0.1","0","0","wP5Q8","People","","null","","","","null","","","","11","26","8","","","","","","","","","","","","","","","","","","","","","","","","","","","","","","","","","","","","","",""
"","practice_deliberation_again","","html-keyboard-response","103","1017597","0.0-67.1-6.1-0.1","0","0","wP5Q8","People","","4970","","","","78","","","","","","","","","","","","","","","","","","","","","","","","","","","","","","","","","","","","","","","","","","","",""
"","fixation","","html-keyboard-response","104","1018604","0.0-68.0-0.0","0","0","wP5Q8","People","","null","","","","null","","","","","","","","","","","","","","","","","","","","","","","","","","","","","","","","","","","","","","","","","","","",""
"","deliberation","","html-keyboard-response","105","1021115","0.0-68.0-1.0","0","0","wP5Q8","People","","2509","","","","68","","","","12","42","15","1","-1","65","71","prince-akachi-l3IHXOdMyHQ-unsplash.jpg","gabriel-silverio-u3WmDyKGsrY-unsplash.jpg","2","1","42","15","","","","","","","","","","","","","","","","","","","","","","","","","","","",""
"","choice_confirmation","","html-keyboard-response","106","1021620","0.0-68.0-2.0-0.0","0","0","wP5Q8","People","","null","","","","null","","","","12","42","15","","","","","","","","","","","","","","","","","","","","","","","","","","","","","","","","","","","","","",""
"","explain_trial","","survey-text","107","1061549","0.0-68.0-5.0-0.0","0","0","wP5Q8","People","","39927","{""Q0"":""I like the vintage look.""}","","","","","","","12","42","15","","","","","","","","","","","{""Q0"":""I like the vintage look.""}","","","","","","","","","","","","","","","","","","","","","","","","","","",""
"","fixation","","html-keyboard-response","108","1062556","0.0-69.0-0.0","0","0","wP5Q8","People","","null","","","","null","","","","","","","","","","","","","","","","","","","","","","","","","","","","","","","","","","","","","","","","","","","",""
"","deliberation","","html-keyboard-response","109","1064893","0.0-69.0-1.0","0","0","wP5Q8","People","","2335","","","","68","","","","13","37","45","0","-1","57","47","pavel-anoshin-d0peGya6R5Y-unsplash.jpg","sarah-noltner-pL5ZzPp1zqg-unsplash.jpg","2","1","37","45","","","","","","","","","","","","","","","","","","","","","","","","","","","",""
"","choice_confirmation","","html-keyboard-response","110","1065398","0.0-69.0-2.0-0.0","0","0","wP5Q8","People","","null","","","","null","","","","13","37","45","","","","","","","","","","","","","","","","","","","","","","","","","","","","","","","","","","","","","",""
"","fixation","","html-keyboard-response","111","1066405","0.0-70.0-0.0","0","0","wP5Q8","People","","null","","","","null","","","","","","","","","","","","","","","","","","","","","","","","","","","","","","","","","","","","","","","","","","","",""
"","deliberation","","html-keyboard-response","112","1068493","0.0-70.0-1.0","0","0","wP5Q8","People","","2086","","","","68","","","","14","17","6","1","1","73","50","gleb-lukomets-paBzWCPN23k-unsplash.jpg","ben-o-bro-C5XyLljkMrY-unsplash.jpg","2","1","17","6","","","","","","","","","","","","","","","","","","","","","","","","","","","",""
"","choice_confirmation","","html-keyboard-response","113","1068998","0.0-70.0-2.0-0.0","0","0","wP5Q8","People","","null","","","","null","","","","14","17","6","","","","","","","","","","","","","","","","","","","","","","","","","","","","","","","","","","","","","",""
"","explain_trial","","survey-text","114","1127707","0.0-70.0-5.0-0.0","0","0","wP5Q8","People","","58707","{""Q0"":""The subject makes me wonder what they are thinking.""}","","","","","","","14","17","6","","","","","","","","","","","{""Q0"":""The subject makes me wonder what they are thinking.""}","","","","","","","","","","","","","","","","","","","","","","","","","","",""
"","fixation","","html-keyboard-response","115","1128710","0.0-71.0-0.0","0","0","wP5Q8","People","","null","","","","null","","","","","","","","","","","","","","","","","","","","","","","","","","","","","","","","","","","","","","","","","","","",""
"","deliberation","","html-keyboard-response","116","1130938","0.0-71.0-1.0","0","0","wP5Q8","People","","2226","","","","68","","","","15","26","8","1","1","63","43","juri-gianfrancesco-9EZadYaMzk4-unsplash.jpg","bruce-dixon-3M9WJQVHzog-unsplash.jpg","2","1","26","8","","","","","","","","","","","","","","","","","","","","","","","","","","","",""
"","choice_confirmation","","html-keyboard-response","117","1131444","0.0-71.0-2.0-0.0","0","0","wP5Q8","People","","null","","","","null","","","","15","26","8","","","","","","","","","","","","","","","","","","","","","","","","","","","","","","","","","","","","","",""
"","explain_trial","","survey-text","118","1181146","0.0-71.0-5.0-0.0","0","0","wP5Q8","People","","49700","{""Q0"":""It's slightly more interesting than the alternative photo.""}","","","","","","","15","26","8","","","","","","","","","","","{""Q0"":""It's slightly more interesting than the alternative photo.""}","","","","","","","","","","","","","","","","","","","","","","","","","","",""
"","fixation","","html-keyboard-response","119","1182154","0.0-72.0-0.0","0","0","wP5Q8","People","","null","","","","null","","","","","","","","","","","","","","","","","","","","","","","","","","","","","","","","","","","","","","","","","","","",""
"","deliberation","","html-keyboard-response","120","1185341","0.0-72.0-1.0","0","0","wP5Q8","People","","3185","","","","68","","","","16","36","19","1","-1","73","55","ospan-ali-mGdA2fzjWLo-unsplash.jpg","ha-nguy-n-OFSQ6bHjFjs-unsplash.jpg","2","1","36","19","","","","","","","","","","","","","","","","","","","","","","","","","","","",""
"","choice_confirmation","","html-keyboard-response","121","1185847","0.0-72.0-2.0-0.0","0","0","wP5Q8","People","","null","","","","null","","","","16","36","19","","","","","","","","","","","","","","","","","","","","","","","","","","","","","","","","","","","","","",""
"","explain_trial","","survey-text","122","1253853","0.0-72.0-5.0-0.0","0","0","wP5Q8","People","","68004","{""Q0"":""The foreign style of dress is captivating and gives a mysterious vibe.""}","","","","","","","16","36","19","","","","","","","","","","","{""Q0"":""The foreign style of dress is captivating and gives a mysterious vibe.""}","","","","","","","","","","","","","","","","","","","","","","","","","","",""
"","fixation","","html-keyboard-response","123","1254856","0.0-73.0-0.0","0","0","wP5Q8","People","","null","","","","null","","","","","","","","","","","","","","","","","","","","","","","","","","","","","","","","","","","","","","","","","","","",""
"","deliberation","","html-keyboard-response","124","1256977","0.0-73.0-1.0","0","0","wP5Q8","People","","2119","","","","68","","","","17","31","23","0","1","53","72","mathilda-khoo-vLR0YP_otCo-unsplash.jpg","joanna-nix-walkup-H4fEMshfwTE-unsplash.jpg","2","1","31","23","","","","","","","","","","","","","","","","","","","","","","","","","","","",""
"","choice_confirmation","","html-keyboard-response","125","1257482","0.0-73.0-2.0-0.0","0","0","wP5Q8","People","","null","","","","null","","","","17","31","23","","","","","","","","","","","","","","","","","","","","","","","","","","","","","","","","","","","","","",""
"","fixation","","html-keyboard-response","126","1258488","0.0-74.0-0.0","0","0","wP5Q8","People","","null","","","","null","","","","","","","","","","","","","","","","","","","","","","","","","","","","","","","","","","","","","","","","","","","",""
"","deliberation","","html-keyboard-response","127","1259896","0.0-74.0-1.0","0","0","wP5Q8","People","","1406","","","","75","","","","18","28","41","1","1","53","67","justin-chen-J7Cf1Gch49E-unsplash.jpg","prince-akachi-i2hoD-C2RUA-unsplash.jpg","2","0","41","28","","","","","","","","","","","","","","","","","","","","","","","","","","","",""
"","choice_confirmation","","html-keyboard-response","128","1260399","0.0-74.0-2.0-0.0","0","0","wP5Q8","People","","null","","","","null","","","","18","28","41","","","","","","","","","","","","","","","","","","","","","","","","","","","","","","","","","","","","","",""
"","explain_trial","","survey-text","129","1302164","0.0-74.0-5.0-0.0","0","0","wP5Q8","People","","41763","{""Q0"":""The alternative image doesn't make me feel anything.""}","","","","","","","18","28","41","","","","","","","","","","","{""Q0"":""The alternative image doesn't make me feel anything.""}","","","","","","","","","","","","","","","","","","","","","","","","","","",""
"","fixation","","html-keyboard-response","130","1303171","0.0-75.0-0.0","0","0","wP5Q8","People","","null","","","","null","","","","","","","","","","","","","","","","","","","","","","","","","","","","","","","","","","","","","","","","","","","",""
"","deliberation","","html-keyboard-response","131","1304688","0.0-75.0-1.0","0","0","wP5Q8","People","","1516","","","","68","","","","19","43","13","0","-1","70","56","raamin-ka-0qJBEzudn5E-unsplash.jpg","erik-lucatero-d2MSDujJl2g-unsplash.jpg","2","1","43","13","","","","","","","","","","","","","","","","","","","","","","","","","","","",""
"","choice_confirmation","","html-keyboard-response","132","1305191","0.0-75.0-2.0-0.0","0","0","wP5Q8","People","","null","","","","null","","","","19","43","13","","","","","","","","","","","","","","","","","","","","","","","","","","","","","","","","","","","","","",""
"","fixation","","html-keyboard-response","133","1306198","0.0-76.0-0.0","0","0","wP5Q8","People","","null","","","","null","","","","","","","","","","","","","","","","","","","","","","","","","","","","","","","","","","","","","","","","","","","",""
"","deliberation","","html-keyboard-response","134","1307983","0.0-76.0-1.0","0","0","wP5Q8","People","","1784","","","","68","","","","20","40","5","0","1","46","60","prince-akachi-4Yv84VgQkRM-unsplash.jpg","batel-studio-ttSRjiYG_WM-unsplash.jpg","2","1","40","5","","","","","","","","","","","","","","","","","","","","","","","","","","","",""
"","choice_confirmation","","html-keyboard-response","135","1308488","0.0-76.0-2.0-0.0","0","0","wP5Q8","People","","null","","","","null","","","","20","40","5","","","","","","","","","","","","","","","","","","","","","","","","","","","","","","","","","","","","","",""
"","fixation","","html-keyboard-response","136","1309492","0.0-77.0-0.0","0","0","wP5Q8","People","","null","","","","null","","","","","","","","","","","","","","","","","","","","","","","","","","","","","","","","","","","","","","","","","","","",""
"","deliberation","","html-keyboard-response","137","1313290","0.0-77.0-1.0","0","0","wP5Q8","People","","3797","","","","75","","","","21","18","30","0","-1","50","59","good-faces-xmSWVeGEnJw-unsplash.jpg","matheus-ferrero-pg_WCHWSdT8-unsplash.jpg","2","0","30","18","","","","","","","","","","","","","","","","","","","","","","","","","","","",""
"","choice_confirmation","","html-keyboard-response","138","1313795","0.0-77.0-2.0-0.0","0","0","wP5Q8","People","","null","","","","null","","","","21","18","30","","","","","","","","","","","","","","","","","","","","","","","","","","","","","","","","","","","","","",""
"","fixation","","html-keyboard-response","139","1314801","0.0-78.0-0.0","0","0","wP5Q8","People","","null","","","","null","","","","","","","","","","","","","","","","","","","","","","","","","","","","","","","","","","","","","","","","","","","",""
"","deliberation","","html-keyboard-response","140","1316968","0.0-78.0-1.0","0","0","wP5Q8","People","","2165","","","","68","","","","22","49","27","0","-1","60","52","vicky-hladynets-_gDoyVv5F4c-unsplash.jpg","jurica-koletic-7YVZYZeITc8-unsplash.jpg","2","1","49","27","","","","","","","","","","","","","","","","","","","","","","","","","","","",""
"","choice_confirmation","","html-keyboard-response","141","1317471","0.0-78.0-2.0-0.0","0","0","wP5Q8","People","","null","","","","null","","","","22","49","27","","","","","","","","","","","","","","","","","","","","","","","","","","","","","","","","","","","","","",""
"","fixation","","html-keyboard-response","142","1318477","0.0-79.0-0.0","0","0","wP5Q8","People","","null","","","","null","","","","","","","","","","","","","","","","","","","","","","","","","","","","","","","","","","","","","","","","","","","",""
"","deliberation","","html-keyboard-response","143","1323318","0.0-79.0-1.0","0","0","wP5Q8","People","","4839","","","","75","","","","23","9","33","1","1","66","70","carlos-andres-gomez-vJuk8Y86mRw-unsplash.jpg","olena-sergienko-0TSd6uCKTKc-unsplash.jpg","2","0","33","9","","","","","","","","","","","","","","","","","","","","","","","","","","","",""
"","choice_confirmation","","html-keyboard-response","144","1323821","0.0-79.0-2.0-0.0","0","0","wP5Q8","People","","null","","","","null","","","","23","9","33","","","","","","","","","","","","","","","","","","","","","","","","","","","","","","","","","","","","","",""
"","explain_trial","","survey-text","145","1444618","0.0-79.0-5.0-0.0","0","0","wP5Q8","People","","120795","{""Q0"":""The way the subject looks at the viewer evokes stronger emotions. ""}","","","","","","","23","9","33","","","","","","","","","","","{""Q0"":""The way the subject looks at the viewer evokes stronger emotions. ""}","","","","","","","","","","","","","","","","","","","","","","","","","","",""
"","start_critical_deliberation_block","","html-keyboard-response","146","1448382","0.0-79.0-7.0-0.0","0","0","wP5Q8","People","","3762","","","","78","","","","","","","","","","","","","","","","","","","","","","","","","","","","","","","","","","","","","","","","","","","",""
"","fixation","","html-keyboard-response","147","1449387","0.0-80.0-0.0","0","0","wP5Q8","People","","null","","","","null","","","","","","","","","","","","","","","","","","","","","","","","","","","","","","","","","","","","","","","","","","","",""
"","deliberation","","html-keyboard-response","148","1450520","0.0-80.0-1.0","0","0","wP5Q8","People","","1131","","","","68","","","","24","17","6","0","1","73","50","gleb-lukomets-paBzWCPN23k-unsplash.jpg","ben-o-bro-C5XyLljkMrY-unsplash.jpg","3","1","17","6","","","","","","","","","","","","","","","","","","","","","","","","","","","",""
"","choice_confirmation","","html-keyboard-response","149","1451026","0.0-80.0-2.0-0.0","0","0","wP5Q8","People","","null","","","","null","","","","24","17","6","","","","","","","","","","","","","","","","","","","","","","","","","","","","","","","","","","","","","",""
"","fixation","","html-keyboard-response","150","1452031","0.0-81.0-0.0","0","0","wP5Q8","People","","null","","","","null","","","","","","","","","","","","","","","","","","","","","","","","","","","","","","","","","","","","","","","","","","","",""
"","deliberation","","html-keyboard-response","151","1453421","0.0-81.0-1.0","0","0","wP5Q8","People","","1387","","","","68","","","","25","43","13","0","-1","70","56","raamin-ka-0qJBEzudn5E-unsplash.jpg","erik-lucatero-d2MSDujJl2g-unsplash.jpg","3","1","43","13","","","","","","","","","","","","","","","","","","","","","","","","","","","",""
"","choice_confirmation","","html-keyboard-response","152","1453926","0.0-81.0-2.0-0.0","0","0","wP5Q8","People","","null","","","","null","","","","25","43","13","","","","","","","","","","","","","","","","","","","","","","","","","","","","","","","","","","","","","",""
"","fixation","","html-keyboard-response","153","1454934","0.0-82.0-0.0","0","0","wP5Q8","People","","null","","","","null","","","","","","","","","","","","","","","","","","","","","","","","","","","","","","","","","","","","","","","","","","","",""
"","deliberation","","html-keyboard-response","154","1455916","0.0-82.0-1.0","0","0","wP5Q8","People","","980","","","","68","","","","26","40","5","0","1","46","60","prince-akachi-4Yv84VgQkRM-unsplash.jpg","batel-studio-ttSRjiYG_WM-unsplash.jpg","3","1","40","5","","","","","","","","","","","","","","","","","","","","","","","","","","","",""
"","choice_confirmation","","html-keyboard-response","155","1456421","0.0-82.0-2.0-0.0","0","0","wP5Q8","People","","null","","","","null","","","","26","40","5","","","","","","","","","","","","","","","","","","","","","","","","","","","","","","","","","","","","","",""
"","fixation","","html-keyboard-response","156","1457427","0.0-83.0-0.0","0","0","wP5Q8","People","","null","","","","null","","","","","","","","","","","","","","","","","","","","","","","","","","","","","","","","","","","","","","","","","","","",""
"","deliberation","","html-keyboard-response","157","1458531","0.0-83.0-1.0","0","0","wP5Q8","People","","1102","","","","68","","","","27","49","27","0","-1","60","52","vicky-hladynets-_gDoyVv5F4c-unsplash.jpg","jurica-koletic-7YVZYZeITc8-unsplash.jpg","3","1","49","27","","","","","","","","","","","","","","","","","","","","","","","","","","","",""
"","choice_confirmation","","html-keyboard-response","158","1459036","0.0-83.0-2.0-0.0","0","0","wP5Q8","People","","null","","","","null","","","","27","49","27","","","","","","","","","","","","","","","","","","","","","","","","","","","","","","","","","","","","","",""
"","fixation","","html-keyboard-response","159","1460042","0.0-84.0-0.0","0","0","wP5Q8","People","","null","","","","null","","","","","","","","","","","","","","","","","","","","","","","","","","","","","","","","","","","","","","","","","","","",""
"","deliberation","","html-keyboard-response","160","1461291","0.0-84.0-1.0","0","0","wP5Q8","People","","1247","","","","75","","","","28","28","41","0","1","53","67","justin-chen-J7Cf1Gch49E-unsplash.jpg","prince-akachi-i2hoD-C2RUA-unsplash.jpg","3","0","41","28","","","","","","","","","","","","","","","","","","","","","","","","","","","",""
"","choice_confirmation","","html-keyboard-response","161","1461796","0.0-84.0-2.0-0.0","0","0","wP5Q8","People","","null","","","","null","","","","28","28","41","","","","","","","","","","","","","","","","","","","","","","","","","","","","","","","","","","","","","",""
"","fixation","","html-keyboard-response","162","1462802","0.0-85.0-0.0","0","0","wP5Q8","People","","null","","","","null","","","","","","","","","","","","","","","","","","","","","","","","","","","","","","","","","","","","","","","","","","","",""
"","deliberation","","html-keyboard-response","163","1464392","0.0-85.0-1.0","0","0","wP5Q8","People","","1588","","","","68","","","","29","42","15","0","-1","65","71","prince-akachi-l3IHXOdMyHQ-unsplash.jpg","gabriel-silverio-u3WmDyKGsrY-unsplash.jpg","3","1","42","15","","","","","","","","","","","","","","","","","","","","","","","","","","","",""
"","choice_confirmation","","html-keyboard-response","164","1464897","0.0-85.0-2.0-0.0","0","0","wP5Q8","People","","null","","","","null","","","","29","42","15","","","","","","","","","","","","","","","","","","","","","","","","","","","","","","","","","","","","","",""
"","fixation","","html-keyboard-response","165","1465902","0.0-86.0-0.0","0","0","wP5Q8","People","","null","","","","null","","","","","","","","","","","","","","","","","","","","","","","","","","","","","","","","","","","","","","","","","","","",""
"","deliberation","","html-keyboard-response","166","1466797","0.0-86.0-1.0","0","0","wP5Q8","People","","893","","","","75","","","","30","9","33","0","1","66","70","carlos-andres-gomez-vJuk8Y86mRw-unsplash.jpg","olena-sergienko-0TSd6uCKTKc-unsplash.jpg","3","0","33","9","","","","","","","","","","","","","","","","","","","","","","","","","","","",""
"","choice_confirmation","","html-keyboard-response","167","1467302","0.0-86.0-2.0-0.0","0","0","wP5Q8","People","","null","","","","null","","","","30","9","33","","","","","","","","","","","","","","","","","","","","","","","","","","","","","","","","","","","","","",""
"","fixation","","html-keyboard-response","168","1468308","0.0-87.0-0.0","0","0","wP5Q8","People","","null","","","","null","","","","","","","","","","","","","","","","","","","","","","","","","","","","","","","","","","","","","","","","","","","",""
"","deliberation","","html-keyboard-response","169","1469184","0.0-87.0-1.0","0","0","wP5Q8","People","","874","","","","68","","","","31","26","8","0","1","63","43","juri-gianfrancesco-9EZadYaMzk4-unsplash.jpg","bruce-dixon-3M9WJQVHzog-unsplash.jpg","3","1","26","8","","","","","","","","","","","","","","","","","","","","","","","","","","","",""
"","choice_confirmation","","html-keyboard-response","170","1469689","0.0-87.0-2.0-0.0","0","0","wP5Q8","People","","null","","","","null","","","","31","26","8","","","","","","","","","","","","","","","","","","","","","","","","","","","","","","","","","","","","","",""
"","fixation","","html-keyboard-response","171","1470697","0.0-88.0-0.0","0","0","wP5Q8","People","","null","","","","null","","","","","","","","","","","","","","","","","","","","","","","","","","","","","","","","","","","","","","","","","","","",""
"","deliberation","","html-keyboard-response","172","1471370","0.0-88.0-1.0","0","0","wP5Q8","People","","671","","","","68","","","","32","31","23","0","1","53","72","mathilda-khoo-vLR0YP_otCo-unsplash.jpg","joanna-nix-walkup-H4fEMshfwTE-unsplash.jpg","3","1","31","23","","","","","","","","","","","","","","","","","","","","","","","","","","","",""
"","choice_confirmation","","html-keyboard-response","173","1471875","0.0-88.0-2.0-0.0","0","0","wP5Q8","People","","null","","","","null","","","","32","31","23","","","","","","","","","","","","","","","","","","","","","","","","","","","","","","","","","","","","","",""
"","fixation","","html-keyboard-response","174","1472881","0.0-89.0-0.0","0","0","wP5Q8","People","","null","","","","null","","","","","","","","","","","","","","","","","","","","","","","","","","","","","","","","","","","","","","","","","","","",""
"","deliberation","","html-keyboard-response","175","1474942","0.0-89.0-1.0","0","0","wP5Q8","People","","2059","","","","75","","","","33","18","30","0","-1","50","59","good-faces-xmSWVeGEnJw-unsplash.jpg","matheus-ferrero-pg_WCHWSdT8-unsplash.jpg","3","0","30","18","","","","","","","","","","","","","","","","","","","","","","","","","","","",""
"","choice_confirmation","","html-keyboard-response","176","1475445","0.0-89.0-2.0-0.0","0","0","wP5Q8","People","","null","","","","null","","","","33","18","30","","","","","","","","","","","","","","","","","","","","","","","","","","","","","","","","","","","","","",""
"","fixation","","html-keyboard-response","177","1476452","0.0-90.0-0.0","0","0","wP5Q8","People","","null","","","","null","","","","","","","","","","","","","","","","","","","","","","","","","","","","","","","","","","","","","","","","","","","",""
"","deliberation","","html-keyboard-response","178","1477556","0.0-90.0-1.0","0","0","wP5Q8","People","","1103","","","","68","","","","34","36","19","0","-1","73","55","ospan-ali-mGdA2fzjWLo-unsplash.jpg","ha-nguy-n-OFSQ6bHjFjs-unsplash.jpg","3","1","36","19","","","","","","","","","","","","","","","","","","","","","","","","","","","",""
"","choice_confirmation","","html-keyboard-response","179","1478061","0.0-90.0-2.0-0.0","0","0","wP5Q8","People","","null","","","","null","","","","34","36","19","","","","","","","","","","","","","","","","","","","","","","","","","","","","","","","","","","","","","",""
"","fixation","","html-keyboard-response","180","1479065","0.0-91.0-0.0","0","0","wP5Q8","People","","null","","","","null","","","","","","","","","","","","","","","","","","","","","","","","","","","","","","","","","","","","","","","","","","","",""
"","deliberation","","html-keyboard-response","181","1479984","0.0-91.0-1.0","0","0","wP5Q8","People","","918","","","","68","","","","35","37","45","0","-1","57","47","pavel-anoshin-d0peGya6R5Y-unsplash.jpg","sarah-noltner-pL5ZzPp1zqg-unsplash.jpg","3","1","37","45","","","","","","","","","","","","","","","","","","","","","","","","","","","",""
"","choice_confirmation","","html-keyboard-response","182","1480496","0.0-91.0-2.0-0.0","0","0","wP5Q8","People","","null","","","","null","","","","35","37","45","","","","","","","","","","","","","","","","","","","","","","","","","","","","","","","","","","","","","",""
"","reward_learning_instructions","","instructions","183","1543563","0.0-92.0-0.0","0","0","wP5Q8","People","[{""page_index"":0,""viewing_time"":30416},{""page_index"":1,""viewing_time"":31101},{""page_index"":2,""viewing_time"":1548}]","63066","","","","","","","","","","","","","","","","","","","","","","","","","","","","","","","","","","","","","","","","","","","","","","","",""
"","","","survey-multi-choice","184","1556384","0.0-92.0-1.0","0","0","wP5Q8","People","","12815","{""Q0"":""True"",""Q1"":""True"",""Q2"":""Press the space bar to see its outcome"",""Q3"":""Press the relevant key while the outcome is presented""}","reward_comprehension_check","0","","","","","","","","","","","","","","","","","","","","","","","","","","","","","","","","","","","","","","","","","","","","",""
"","start_phase","","html-keyboard-response","185","1559745","0.0-93.0","0","0","wP5Q8","People","","3359","","","","78","","","","","","","","","","","","","","","","","","","","","","","","","","","","","","","","","","","","","","","","","","","",""
"","fixation","","html-keyboard-response","186","1560750","0.0-94.0","0","0","wP5Q8","People","","null","","","","null","","","","","","","","","","","","","","","","","","","","","","","","","","","","","","","","","","","","","","","","","","","",""
"","see_reward","","html-keyboard-response","187","1562092","0.0-95.0","0","0","wP5Q8","People","","1340","","","","32","","42","","0","","","","-1","","","","","1","","","","","0","1340","","","","","","","","","","","","","","","","","","","","","","","","",""
"","reward_outcome","","html-keyboard-response","188","1564097","0.0-96.0","0","0","wP5Q8","People","","1464","","","","40","","42","","0","","","","","","","","","","","","","","","","-1","1464","","","","","","","","","","","","","","","","","","","","","","",""
"","fixation","","html-keyboard-response","189","1565104","0.0-99.0","0","0","wP5Q8","People","","null","","","","null","","","","","","","","","","","","","","","","","","","","","","","","","","","","","","","","","","","","","","","","","","","",""
"","see_reward","","html-keyboard-response","190","1567219","0.0-100.0","0","0","wP5Q8","People","","2113","","","","32","","49","","1","","","","-1","","","","","1","","","","","0","2113","","","","","","","","","","","","","","","","","","","","","","","","",""
"","reward_outcome","","html-keyboard-response","191","1569222","0.0-101.0","0","0","wP5Q8","People","","1402","","","","40","","49","","1","","","","","","","","","","","","","","","","-1","1402","","","","","","","","","","","","","","","","","","","","","","",""
"","fixation","","html-keyboard-response","192","1570229","0.0-104.0","0","0","wP5Q8","People","","null","","","","null","","","","","","","","","","","","","","","","","","","","","","","","","","","","","","","","","","","","","","","","","","","",""
"","see_reward","","html-keyboard-response","193","1571507","0.0-105.0","0","0","wP5Q8","People","","1276","","","","32","","33","","2","","","","1","","","","","1","","","","","160","1276","","","","","","","","","","","","","","","","","","","","","","","","",""
"","reward_outcome","","html-keyboard-response","194","1573514","0.0-106.0","0","0","wP5Q8","People","","null","","","","null","","33","","2","","","","","","","","","","","","","","","","NaN","null","","","","","","","","","","","","","","","","","","","","","","",""
"","respond_faster","","html-keyboard-response","195","1575017","0.0-107.0-0.0","1","0","wP5Q8","People","","null","","","","null","","","","","","","","","","","","","","","","","","","","","","","","","","","","","","","","","","","","","","","","","","","",""
"","fixation","","html-keyboard-response","196","1576023","0.0-109.0","0","0","wP5Q8","People","","null","","","","null","","","","","","","","","","","","","","","","","","","","","","","","","","","","","","","","","","","","","","","","","","","",""
"","see_reward","","html-keyboard-response","197","1577139","0.0-110.0","0","0","wP5Q8","People","","1114","","","","32","","40","","3","","","","1","","","","","1","","","","","145","1114","","","","","","","","","","","","","","","","","","","","","","","","",""
"","reward_outcome","","html-keyboard-response","198","1579146","0.0-111.0","0","0","wP5Q8","People","","631","","","","38","","40","","3","","","","","","","","","","","","","","","","1","631","","","","","","","","","","","","","","","","","","","","","","",""
"","fixation","","html-keyboard-response","199","1580154","0.0-114.0","0","0","wP5Q8","People","","null","","","","null","","","","","","","","","","","","","","","","","","","","","","","","","","","","","","","","","","","","","","","","","","","",""
"","see_reward","","html-keyboard-response","200","1581130","0.0-115.0","0","0","wP5Q8","People","","975","","","","32","","30","","4","","","","-1","","","","","1","","","","","0","975","","","","","","","","","","","","","","","","","","","","","","","","",""
"","reward_outcome","","html-keyboard-response","201","1583138","0.0-116.0","0","0","wP5Q8","People","","795","","","","40","","30","","4","","","","","","","","","","","","","","","","-1","795","","","","","","","","","","","","","","","","","","","","","","",""
"","fixation","","html-keyboard-response","202","1584143","0.0-119.0","0","0","wP5Q8","People","","null","","","","null","","","","","","","","","","","","","","","","","","","","","","","","","","","","","","","","","","","","","","","","","","","",""
"","see_reward","","html-keyboard-response","203","1584950","0.0-120.0","0","0","wP5Q8","People","","805","","","","32","","49","","5","","","","-1","","","","","1","","","","","0","805","","","","","","","","","","","","","","","","","","","","","","","","",""
"","reward_outcome","","html-keyboard-response","204","1586957","0.0-121.0","0","0","wP5Q8","People","","761","","","","40","","49","","5","","","","","","","","","","","","","","","","-1","761","","","","","","","","","","","","","","","","","","","","","","",""
"","fixation","","html-keyboard-response","205","1587963","0.0-124.0","0","0","wP5Q8","People","","null","","","","null","","","","","","","","","","","","","","","","","","","","","","","","","","","","","","","","","","","","","","","","","","","",""
"","see_reward","","html-keyboard-response","206","1588406","0.0-125.0","0","0","wP5Q8","People","","441","","","","32","","37","","6","","","","-1","","","","","1","","","","","0","441","","","","","","","","","","","","","","","","","","","","","","","","",""
"","reward_outcome","","html-keyboard-response","207","1590414","0.0-126.0","0","0","wP5Q8","People","","684","","","","40","","37","","6","","","","","","","","","","","","","","","","-1","684","","","","","","","","","","","","","","","","","","","","","","",""
"","fixation","","html-keyboard-response","208","1591419","0.0-129.0","0","0","wP5Q8","People","","null","","","","null","","","","","","","","","","","","","","","","","","","","","","","","","","","","","","","","","","","","","","","","","","","",""
"","see_reward","","html-keyboard-response","209","1592280","0.0-130.0","0","0","wP5Q8","People","","859","","","","32","","43","","7","","","","-1","","","","","1","","","","","0","859","","","","","","","","","","","","","","","","","","","","","","","","",""
"","reward_outcome","","html-keyboard-response","210","1594288","0.0-131.0","0","0","wP5Q8","People","","668","","","","40","","43","","7","","","","","","","","","","","","","","","","-1","668","","","","","","","","","","","","","","","","","","","","","","",""
"","fixation","","html-keyboard-response","211","1595294","0.0-134.0","0","0","wP5Q8","People","","null","","","","null","","","","","","","","","","","","","","","","","","","","","","","","","","","","","","","","","","","","","","","","","","","",""
"","see_reward","","html-keyboard-response","212","1596005","0.0-135.0","0","0","wP5Q8","People","","709","","","","32","","42","","8","","","","-1","","","","","1","","","","","0","709","","","","","","","","","","","","","","","","","","","","","","","","",""
"","reward_outcome","","html-keyboard-response","213","1598011","0.0-136.0","0","0","wP5Q8","People","","662","","","","40","","42","","8","","","","","","","","","","","","","","","","-1","662","","","","","","","","","","","","","","","","","","","","","","",""
"","fixation","","html-keyboard-response","214","1599018","0.0-139.0","0","0","wP5Q8","People","","null","","","","null","","","","","","","","","","","","","","","","","","","","","","","","","","","","","","","","","","","","","","","","","","","",""
"","see_reward","","html-keyboard-response","215","1599759","0.0-140.0","0","0","wP5Q8","People","","739","","","","32","","26","","9","","","","1","","","","","1","","","","","147","739","","","","","","","","","","","","","","","","","","","","","","","","",""
"","reward_outcome","","html-keyboard-response","216","1601766","0.0-141.0","0","0","wP5Q8","People","","835","","","","38","","26","","9","","","","","","","","","","","","","","","","1","835","","","","","","","","","","","","","","","","","","","","","","",""
"","fixation","","html-keyboard-response","217","1602772","0.0-144.0","0","0","wP5Q8","People","","null","","","","null","","","","","","","","","","","","","","","","","","","","","","","","","","","","","","","","","","","","","","","","","","","",""
"","see_reward","","html-keyboard-response","218","1603291","0.0-145.0","0","0","wP5Q8","People","","517","","","","32","","36","","10","","","","-1","","","","","1","","","","","0","517","","","","","","","","","","","","","","","","","","","","","","","","",""
"","reward_outcome","","html-keyboard-response","219","1605296","0.0-146.0","0","0","wP5Q8","People","","698","","","","40","","36","","10","","","","","","","","","","","","","","","","-1","698","","","","","","","","","","","","","","","","","","","","","","",""
"","fixation","","html-keyboard-response","220","1606301","0.0-149.0","0","0","wP5Q8","People","","null","","","","null","","","","","","","","","","","","","","","","","","","","","","","","","","","","","","","","","","","","","","","","","","","",""
"","see_reward","","html-keyboard-response","221","1606868","0.0-150.0","0","0","wP5Q8","People","","564","","","","32","","40","","11","","","","1","","","","","1","","","","","145","564","","","","","","","","","","","","","","","","","","","","","","","","",""
"","reward_outcome","","html-keyboard-response","222","1608872","0.0-151.0","0","0","wP5Q8","People","","699","","","","38","","40","","11","","","","","","","","","","","","","","","","1","699","","","","","","","","","","","","","","","","","","","","","","",""
"","fixation","","html-keyboard-response","223","1609878","0.0-154.0","0","0","wP5Q8","People","","null","","","","null","","","","","","","","","","","","","","","","","","","","","","","","","","","","","","","","","","","","","","","","","","","",""
"","see_reward","","html-keyboard-response","224","1610499","0.0-155.0","0","0","wP5Q8","People","","619","","","","32","","31","","12","","","","1","","","","","1","","","","","154","619","","","","","","","","","","","","","","","","","","","","","","","","",""
"","reward_outcome","","html-keyboard-response","225","1612506","0.0-156.0","0","0","wP5Q8","People","","994","","","","38","","31","","12","","","","","","","","","","","","","","","","1","994","","","","","","","","","","","","","","","","","","","","","","",""
"","fixation","","html-keyboard-response","226","1613513","0.0-159.0","0","0","wP5Q8","People","","null","","","","null","","","","","","","","","","","","","","","","","","","","","","","","","","","","","","","","","","","","","","","","","","","",""
"","see_reward","","html-keyboard-response","227","1614053","0.0-160.0","0","0","wP5Q8","People","","537","","","","32","","26","","13","","","","1","","","","","1","","","","","147","537","","","","","","","","","","","","","","","","","","","","","","","","",""
"","reward_outcome","","html-keyboard-response","228","1616060","0.0-161.0","0","0","wP5Q8","People","","561","","","","38","","26","","13","","","","","","","","","","","","","","","","1","561","","","","","","","","","","","","","","","","","","","","","","",""
"","fixation","","html-keyboard-response","229","1617066","0.0-164.0","0","0","wP5Q8","People","","null","","","","null","","","","","","","","","","","","","","","","","","","","","","","","","","","","","","","","","","","","","","","","","","","",""
"","see_reward","","html-keyboard-response","230","1617681","0.0-165.0","0","0","wP5Q8","People","","613","","","","32","","43","","14","","","","-1","","","","","1","","","","","0","613","","","","","","","","","","","","","","","","","","","","","","","","",""
"","reward_outcome","","html-keyboard-response","231","1619689","0.0-166.0","0","0","wP5Q8","People","","648","","","","40","","43","","14","","","","","","","","","","","","","","","","-1","648","","","","","","","","","","","","","","","","","","","","","","",""
"","fixation","","html-keyboard-response","232","1620695","0.0-169.0","0","0","wP5Q8","People","","null","","","","null","","","","","","","","","","","","","","","","","","","","","","","","","","","","","","","","","","","","","","","","","","","",""
"","see_reward","","html-keyboard-response","233","1621245","0.0-170.0","0","0","wP5Q8","People","","549","","","","32","","41","","15","","","","1","","","","","1","","","","","148","549","","","","","","","","","","","","","","","","","","","","","","","","",""
"","reward_outcome","","html-keyboard-response","234","1623253","0.0-171.0","0","0","wP5Q8","People","","645","","","","38","","41","","15","","","","","","","","","","","","","","","","1","645","","","","","","","","","","","","","","","","","","","","","","",""
"","fixation","","html-keyboard-response","235","1624259","0.0-174.0","0","0","wP5Q8","People","","null","","","","null","","","","","","","","","","","","","","","","","","","","","","","","","","","","","","","","","","","","","","","","","","","",""
"","see_reward","","html-keyboard-response","236","1624862","0.0-175.0","0","0","wP5Q8","People","","601","","","","32","","30","","16","","","","-1","","","","","1","","","","","0","601","","","","","","","","","","","","","","","","","","","","","","","","",""
"","reward_outcome","","html-keyboard-response","237","1626870","0.0-176.0","0","0","wP5Q8","People","","797","","","","40","","30","","16","","","","","","","","","","","","","","","","-1","797","","","","","","","","","","","","","","","","","","","","","","",""
"","fixation","","html-keyboard-response","238","1627875","0.0-179.0","0","0","wP5Q8","People","","null","","","","null","","","","","","","","","","","","","","","","","","","","","","","","","","","","","","","","","","","","","","","","","","","",""
"","see_reward","","html-keyboard-response","239","1628529","0.0-180.0","0","0","wP5Q8","People","","652","","","","32","","17","","17","","","","1","","","","","1","","","","","150","652","","","","","","","","","","","","","","","","","","","","","","","","",""
"","reward_outcome","","html-keyboard-response","240","1630537","0.0-181.0","0","0","wP5Q8","People","","802","","","","38","","17","","17","","","","","","","","","","","","","","","","1","802","","","","","","","","","","","","","","","","","","","","","","",""
"","fixation","","html-keyboard-response","241","1631543","0.0-184.0","0","0","wP5Q8","People","","null","","","","null","","","","","","","","","","","","","","","","","","","","","","","","","","","","","","","","","","","","","","","","","","","",""
"","see_reward","","html-keyboard-response","242","1632121","0.0-185.0","0","0","wP5Q8","People","","576","","","","32","","36","","18","","","","-1","","","","","1","","","","","0","576","","","","","","","","","","","","","","","","","","","","","","","","",""
"","reward_outcome","","html-keyboard-response","243","1634129","0.0-186.0","0","0","wP5Q8","People","","713","","","","40","","36","","18","","","","","","","","","","","","","","","","-1","713","","","","","","","","","","","","","","","","","","","","","","",""
"","fixation","","html-keyboard-response","244","1635135","0.0-189.0","0","0","wP5Q8","People","","null","","","","null","","","","","","","","","","","","","","","","","","","","","","","","","","","","","","","","","","","","","","","","","","","",""
"","see_reward","","html-keyboard-response","245","1635561","0.0-190.0","0","0","wP5Q8","People","","424","","","","32","","37","","19","","","","-1","","","","","1","","","","","0","424","","","","","","","","","","","","","","","","","","","","","","","","",""
"","reward_outcome","","html-keyboard-response","246","1637568","0.0-191.0","0","0","wP5Q8","People","","582","","","","40","","37","","19","","","","","","","","","","","","","","","","-1","582","","","","","","","","","","","","","","","","","","","","","","",""
"","fixation","","html-keyboard-response","247","1638570","0.0-194.0","0","0","wP5Q8","People","","null","","","","null","","","","","","","","","","","","","","","","","","","","","","","","","","","","","","","","","","","","","","","","","","","",""
"","see_reward","","html-keyboard-response","248","1639057","0.0-195.0","0","0","wP5Q8","People","","485","","","","32","","17","","20","","","","1","","","","","1","","","","","150","485","","","","","","","","","","","","","","","","","","","","","","","","",""
"","reward_outcome","","html-keyboard-response","249","1641061","0.0-196.0","0","0","wP5Q8","People","","666","","","","38","","17","","20","","","","","","","","","","","","","","","","1","666","","","","","","","","","","","","","","","","","","","","","","",""
"","fixation","","html-keyboard-response","250","1642067","0.0-199.0","0","0","wP5Q8","People","","null","","","","null","","","","","","","","","","","","","","","","","","","","","","","","","","","","","","","","","","","","","","","","","","","",""
"","see_reward","","html-keyboard-response","251","1642579","0.0-200.0","0","0","wP5Q8","People","","510","","","","32","","33","","21","","","","1","","","","","1","","","","","160","510","","","","","","","","","","","","","","","","","","","","","","","","",""
"","reward_outcome","","html-keyboard-response","252","1644586","0.0-201.0","0","0","wP5Q8","People","","839","","","","38","","33","","21","","","","","","","","","","","","","","","","1","839","","","","","","","","","","","","","","","","","","","","","","",""
"","fixation","","html-keyboard-response","253","1645593","0.0-204.0","0","0","wP5Q8","People","","null","","","","null","","","","","","","","","","","","","","","","","","","","","","","","","","","","","","","","","","","","","","","","","","","",""
"","see_reward","","html-keyboard-response","254","1646261","0.0-205.0","0","0","wP5Q8","People","","666","","","","32","","31","","22","","","","1","","","","","1","","","","","154","666","","","","","","","","","","","","","","","","","","","","","","","","",""
"","reward_outcome","","html-keyboard-response","255","1648268","0.0-206.0","0","0","wP5Q8","People","","1876","","","","38","","31","","22","","","","","","","","","","","","","","","","1","1876","","","","","","","","","","","","","","","","","","","","","","",""
"","fixation","","html-keyboard-response","256","1649273","0.0-209.0","0","0","wP5Q8","People","","null","","","","null","","","","","","","","","","","","","","","","","","","","","","","","","","","","","","","","","","","","","","","","","","","",""
"","see_reward","","html-keyboard-response","257","1649966","0.0-210.0","0","0","wP5Q8","People","","691","","","","32","","41","","23","","","","1","","","","","1","","","","","148","691","","","","","","","","","","","","","","","","","","","","","","","","",""
"","reward_outcome","","html-keyboard-response","258","1651973","0.0-211.0","0","0","wP5Q8","People","","1637","","","","38","","41","","23","","","","","","","","","","","","","","","","1","1637","","","","","","","","","","","","","","","","","","","","","","",""
"","block_over","","html-keyboard-response","259","1654481","0.0-213.0-0.0","0","0","wP5Q8","People","","2506","","","","78","","","","","","","","","","","","","","","","","","","","","","","","","","","","","","","","","","","","","","","","","","","",""
"","fixation","","html-keyboard-response","260","1655487","0.0-214.0","0","0","wP5Q8","People","","null","","","","null","","","","","","","","","","","","","","","","","","","","","","","","","","","","","","","","","","","","","","","","","","","",""
"","see_reward","","html-keyboard-response","261","1656302","0.0-215.0","0","0","wP5Q8","People","","813","","","","32","","30","","24","","","","-1","","","","","2","","","","","0","813","","","","","","","","","","","","","","","","","","","","","","","","",""
"","reward_outcome","","html-keyboard-response","262","1658306","0.0-216.0","0","0","wP5Q8","People","","836","","","","40","","30","","24","","","","","","","","","","","","","","","","-1","836","","","","","","","","","","","","","","","","","","","","","","",""
"","fixation","","html-keyboard-response","263","1659312","0.0-219.0","0","0","wP5Q8","People","","null","","","","null","","","","","","","","","","","","","","","","","","","","","","","","","","","","","","","","","","","","","","","","","","","",""
"","see_reward","","html-keyboard-response","264","1659755","0.0-220.0","0","0","wP5Q8","People","","441","","","","32","","42","","25","","","","-1","","","","","2","","","","","0","441","","","","","","","","","","","","","","","","","","","","","","","","",""
"","reward_outcome","","html-keyboard-response","265","1661762","0.0-221.0","0","0","wP5Q8","People","","567","","","","40","","42","","25","","","","","","","","","","","","","","","","-1","567","","","","","","","","","","","","","","","","","","","","","","",""
"","fixation","","html-keyboard-response","266","1662768","0.0-224.0","0","0","wP5Q8","People","","null","","","","null","","","","","","","","","","","","","","","","","","","","","","","","","","","","","","","","","","","","","","","","","","","",""
"","see_reward","","html-keyboard-response","267","1663221","0.0-225.0","0","0","wP5Q8","People","","451","","","","32","","33","","26","","","","1","","","","","2","","","","","160","451","","","","","","","","","","","","","","","","","","","","","","","","",""
"","reward_outcome","","html-keyboard-response","268","1665225","0.0-226.0","0","0","wP5Q8","People","","827","","","","38","","33","","26","","","","","","","","","","","","","","","","1","827","","","","","","","","","","","","","","","","","","","","","","",""
"","fixation","","html-keyboard-response","269","1666232","0.0-229.0","0","0","wP5Q8","People","","null","","","","null","","","","","","","","","","","","","","","","","","","","","","","","","","","","","","","","","","","","","","","","","","","",""
"","see_reward","","html-keyboard-response","270","1666730","0.0-230.0","0","0","wP5Q8","People","","496","","","","32","","41","","27","","","","1","","","","","2","","","","","148","496","","","","","","","","","","","","","","","","","","","","","","","","",""
"","reward_outcome","","html-keyboard-response","271","1668737","0.0-231.0","0","0","wP5Q8","People","","837","","","","38","","41","","27","","","","","","","","","","","","","","","","1","837","","","","","","","","","","","","","","","","","","","","","","",""
"","fixation","","html-keyboard-response","272","1669743","0.0-234.0","0","0","wP5Q8","People","","null","","","","null","","","","","","","","","","","","","","","","","","","","","","","","","","","","","","","","","","","","","","","","","","","",""
"","see_reward","","html-keyboard-response","273","1671627","0.0-235.0","0","0","wP5Q8","People","","1882","","","","32","","43","","28","","","","-1","","","","","2","","","","","0","1882","","","","","","","","","","","","","","","","","","","","","","","","",""
"","reward_outcome","","html-keyboard-response","274","1673634","0.0-236.0","0","0","wP5Q8","People","","455","","","","40","","43","","28","","","","","","","","","","","","","","","","-1","455","","","","","","","","","","","","","","","","","","","","","","",""
"","fixation","","html-keyboard-response","275","1674640","0.0-239.0","0","0","wP5Q8","People","","null","","","","null","","","","","","","","","","","","","","","","","","","","","","","","","","","","","","","","","","","","","","","","","","","",""
"","see_reward","","html-keyboard-response","276","1675203","0.0-240.0","0","0","wP5Q8","People","","561","","","","32","","31","","29","","","","1","","","","","2","","","","","154","561","","","","","","","","","","","","","","","","","","","","","","","","",""
"","reward_outcome","","html-keyboard-response","277","1677207","0.0-241.0","0","0","wP5Q8","People","","1519","","","","38","","31","","29","","","","","","","","","","","","","","","","1","1519","","","","","","","","","","","","","","","","","","","","","","",""
"","fixation","","html-keyboard-response","278","1678212","0.0-244.0","0","0","wP5Q8","People","","null","","","","null","","","","","","","","","","","","","","","","","","","","","","","","","","","","","","","","","","","","","","","","","","","",""
"","see_reward","","html-keyboard-response","279","1678627","0.0-245.0","0","0","wP5Q8","People","","413","","","","32","","40","","30","","","","1","","","","","2","","","","","145","413","","","","","","","","","","","","","","","","","","","","","","","","",""
"","reward_outcome","","html-keyboard-response","280","1680635","0.0-246.0","0","0","wP5Q8","People","","936","","","","38","","40","","30","","","","","","","","","","","","","","","","1","936","","","","","","","","","","","","","","","","","","","","","","",""
"","fixation","","html-keyboard-response","281","1681641","0.0-249.0","0","0","wP5Q8","People","","null","","","","null","","","","","","","","","","","","","","","","","","","","","","","","","","","","","","","","","","","","","","","","","","","",""
"","see_reward","","html-keyboard-response","282","1682059","0.0-250.0","0","0","wP5Q8","People","","416","","","","32","","40","","31","","","","1","","","","","2","","","","","145","416","","","","","","","","","","","","","","","","","","","","","","","","",""
"","reward_outcome","","html-keyboard-response","283","1684065","0.0-251.0","0","0","wP5Q8","People","","991","","","","38","","40","","31","","","","","","","","","","","","","","","","1","991","","","","","","","","","","","","","","","","","","","","","","",""
"","fixation","","html-keyboard-response","284","1685069","0.0-254.0","0","0","wP5Q8","People","","null","","","","null","","","","","","","","","","","","","","","","","","","","","","","","","","","","","","","","","","","","","","","","","","","",""
"","see_reward","","html-keyboard-response","285","1685836","0.0-255.0","0","0","wP5Q8","People","","765","","","","32","","17","","32","","","","1","","","","","2","","","","","150","765","","","","","","","","","","","","","","","","","","","","","","","","",""
"","reward_outcome","","html-keyboard-response","286","1687843","0.0-256.0","0","0","wP5Q8","People","","1347","","","","38","","17","","32","","","","","","","","","","","","","","","","1","1347","","","","","","","","","","","","","","","","","","","","","","",""
"","fixation","","html-keyboard-response","287","1688849","0.0-259.0","0","0","wP5Q8","People","","null","","","","null","","","","","","","","","","","","","","","","","","","","","","","","","","","","","","","","","","","","","","","","","","","",""
"","see_reward","","html-keyboard-response","288","1689453","0.0-260.0","0","0","wP5Q8","People","","603","","","","32","","49","","33","","","","-1","","","","","2","","","","","0","603","","","","","","","","","","","","","","","","","","","","","","","","",""
"","reward_outcome","","html-keyboard-response","289","1691457","0.0-261.0","0","0","wP5Q8","People","","769","","","","40","","49","","33","","","","","","","","","","","","","","","","-1","769","","","","","","","","","","","","","","","","","","","","","","",""
"","fixation","","html-keyboard-response","290","1692463","0.0-264.0","0","0","wP5Q8","People","","null","","","","null","","","","","","","","","","","","","","","","","","","","","","","","","","","","","","","","","","","","","","","","","","","",""
"","see_reward","","html-keyboard-response","291","1692924","0.0-265.0","0","0","wP5Q8","People","","459","","","","32","","37","","34","","","","-1","","","","","2","","","","","0","459","","","","","","","","","","","","","","","","","","","","","","","","",""
"","reward_outcome","","html-keyboard-response","292","1694931","0.0-266.0","0","0","wP5Q8","People","","511","","","","40","","37","","34","","","","","","","","","","","","","","","","-1","511","","","","","","","","","","","","","","","","","","","","","","",""
"","fixation","","html-keyboard-response","293","1695936","0.0-269.0","0","0","wP5Q8","People","","null","","","","null","","","","","","","","","","","","","","","","","","","","","","","","","","","","","","","","","","","","","","","","","","","",""
"","see_reward","","html-keyboard-response","294","1696774","0.0-270.0","0","0","wP5Q8","People","","835","","","","32","","49","","35","","","","-1","","","","","2","","","","","0","835","","","","","","","","","","","","","","","","","","","","","","","","",""
"","reward_outcome","","html-keyboard-response","295","1698781","0.0-271.0","0","0","wP5Q8","People","","1360","","","","40","","49","","35","","","","","","","","","","","","","","","","-1","1360","","","","","","","","","","","","","","","","","","","","","","",""
"","fixation","","html-keyboard-response","296","1699787","0.0-274.0","0","0","wP5Q8","People","","null","","","","null","","","","","","","","","","","","","","","","","","","","","","","","","","","","","","","","","","","","","","","","","","","",""
"","see_reward","","html-keyboard-response","297","1700530","0.0-275.0","0","0","wP5Q8","People","","741","","","","32","","31","","36","","","","1","","","","","2","","","","","154","741","","","","","","","","","","","","","","","","","","","","","","","","",""
"","reward_outcome","","html-keyboard-response","298","1702537","0.0-276.0","0","0","wP5Q8","People","","1423","","","","38","","31","","36","","","","","","","","","","","","","","","","1","1423","","","","","","","","","","","","","","","","","","","","","","",""
"","fixation","","html-keyboard-response","299","1703543","0.0-279.0","0","0","wP5Q8","People","","null","","","","null","","","","","","","","","","","","","","","","","","","","","","","","","","","","","","","","","","","","","","","","","","","",""
"","see_reward","","html-keyboard-response","300","1704134","0.0-280.0","0","0","wP5Q8","People","","589","","","","32","","36","","37","","","","-1","","","","","2","","","","","0","589","","","","","","","","","","","","","","","","","","","","","","","","",""
"","reward_outcome","","html-keyboard-response","301","1706142","0.0-281.0","0","0","wP5Q8","People","","733","","","","40","","36","","37","","","","","","","","","","","","","","","","-1","733","","","","","","","","","","","","","","","","","","","","","","",""
"","fixation","","html-keyboard-response","302","1707147","0.0-284.0","0","0","wP5Q8","People","","null","","","","null","","","","","","","","","","","","","","","","","","","","","","","","","","","","","","","","","","","","","","","","","","","",""
"","see_reward","","html-keyboard-response","303","1707839","0.0-285.0","0","0","wP5Q8","People","","691","","","","32","","30","","38","","","","-1","","","","","2","","","","","0","691","","","","","","","","","","","","","","","","","","","","","","","","",""
"","reward_outcome","","html-keyboard-response","304","1709847","0.0-286.0","0","0","wP5Q8","People","","566","","","","40","","30","","38","","","","","","","","","","","","","","","","-1","566","","","","","","","","","","","","","","","","","","","","","","",""
"","fixation","","html-keyboard-response","305","1710852","0.0-289.0","0","0","wP5Q8","People","","null","","","","null","","","","","","","","","","","","","","","","","","","","","","","","","","","","","","","","","","","","","","","","","","","",""
"","see_reward","","html-keyboard-response","306","1711475","0.0-290.0","0","0","wP5Q8","People","","622","","","","32","","36","","39","","","","-1","","","","","2","","","","","0","622","","","","","","","","","","","","","","","","","","","","","","","","",""
"","reward_outcome","","html-keyboard-response","307","1713483","0.0-291.0","0","0","wP5Q8","People","","536","","","","40","","36","","39","","","","","","","","","","","","","","","","-1","536","","","","","","","","","","","","","","","","","","","","","","",""
"","fixation","","html-keyboard-response","308","1714488","0.0-294.0","0","0","wP5Q8","People","","null","","","","null","","","","","","","","","","","","","","","","","","","","","","","","","","","","","","","","","","","","","","","","","","","",""
"","see_reward","","html-keyboard-response","309","1715424","0.0-295.0","0","0","wP5Q8","People","","935","","","","32","","26","","40","","","","1","","","","","2","","","","","147","935","","","","","","","","","","","","","","","","","","","","","","","","",""
"","reward_outcome","","html-keyboard-response","310","1717431","0.0-296.0","0","0","wP5Q8","People","","1333","","","","38","","26","","40","","","","","","","","","","","","","","","","1","1333","","","","","","","","","","","","","","","","","","","","","","",""
"","fixation","","html-keyboard-response","311","1718436","0.0-299.0","0","0","wP5Q8","People","","null","","","","null","","","","","","","","","","","","","","","","","","","","","","","","","","","","","","","","","","","","","","","","","","","",""
"","see_reward","","html-keyboard-response","312","1719319","0.0-300.0","0","0","wP5Q8","People","","881","","","","32","","37","","41","","","","-1","","","","","2","","","","","0","881","","","","","","","","","","","","","","","","","","","","","","","","",""
"","reward_outcome","","html-keyboard-response","313","1721326","0.0-301.0","0","0","wP5Q8","People","","486","","","","40","","37","","41","","","","","","","","","","","","","","","","-1","486","","","","","","","","","","","","","","","","","","","","","","",""
"","fixation","","html-keyboard-response","314","1722332","0.0-304.0","0","0","wP5Q8","People","","null","","","","null","","","","","","","","","","","","","","","","","","","","","","","","","","","","","","","","","","","","","","","","","","","",""
"","see_reward","","html-keyboard-response","315","1722806","0.0-305.0","0","0","wP5Q8","People","","473","","","","32","","33","","42","","","","1","","","","","2","","","","","160","473","","","","","","","","","","","","","","","","","","","","","","","","",""
"","reward_outcome","","html-keyboard-response","316","1724813","0.0-306.0","0","0","wP5Q8","People","","673","","","","38","","33","","42","","","","","","","","","","","","","","","","1","673","","","","","","","","","","","","","","","","","","","","","","",""
"","fixation","","html-keyboard-response","317","1725819","0.0-309.0","0","0","wP5Q8","People","","null","","","","null","","","","","","","","","","","","","","","","","","","","","","","","","","","","","","","","","","","","","","","","","","","",""
"","see_reward","","html-keyboard-response","318","1726383","0.0-310.0","0","0","wP5Q8","People","","562","","","","32","","41","","43","","","","1","","","","","2","","","","","148","562","","","","","","","","","","","","","","","","","","","","","","","","",""
"","reward_outcome","","html-keyboard-response","319","1728390","0.0-311.0","0","0","wP5Q8","People","","1018","","","","38","","41","","43","","","","","","","","","","","","","","","","1","1018","","","","","","","","","","","","","","","","","","","","","","",""
"","fixation","","html-keyboard-response","320","1729395","0.0-314.0","0","0","wP5Q8","People","","null","","","","null","","","","","","","","","","","","","","","","","","","","","","","","","","","","","","","","","","","","","","","","","","","",""
"","see_reward","","html-keyboard-response","321","1730171","0.0-315.0","0","0","wP5Q8","People","","774","","","","32","","26","","44","","","","1","","","","","2","","","","","147","774","","","","","","","","","","","","","","","","","","","","","","","","",""
"","reward_outcome","","html-keyboard-response","322","1732176","0.0-316.0","0","0","wP5Q8","People","","1715","","","","38","","26","","44","","","","","","","","","","","","","","","","1","1715","","","","","","","","","","","","","","","","","","","","","","",""
"","fixation","","html-keyboard-response","323","1733183","0.0-319.0","0","0","wP5Q8","People","","null","","","","null","","","","","","","","","","","","","","","","","","","","","","","","","","","","","","","","","","","","","","","","","","","",""
"","see_reward","","html-keyboard-response","324","1734318","0.0-320.0","0","0","wP5Q8","People","","1134","","","","32","","17","","45","","","","1","","","","","2","","","","","150","1134","","","","","","","","","","","","","","","","","","","","","","","","",""
"","reward_outcome","","html-keyboard-response","325","1736325","0.0-321.0","0","0","wP5Q8","People","","768","","","","38","","17","","45","","","","","","","","","","","","","","","","1","768","","","","","","","","","","","","","","","","","","","","","","",""
"","fixation","","html-keyboard-response","326","1737331","0.0-324.0","0","0","wP5Q8","People","","null","","","","null","","","","","","","","","","","","","","","","","","","","","","","","","","","","","","","","","","","","","","","","","","","",""
"","see_reward","","html-keyboard-response","327","1740076","0.0-325.0","0","0","wP5Q8","People","","2743","","","","32","","42","","46","","","","-1","","","","","2","","","","","0","2743","","","","","","","","","","","","","","","","","","","","","","","","",""
"","reward_outcome","","html-keyboard-response","328","1742083","0.0-326.0","0","0","wP5Q8","People","","785","","","","40","","42","","46","","","","","","","","","","","","","","","","-1","785","","","","","","","","","","","","","","","","","","","","","","",""
"","fixation","","html-keyboard-response","329","1743089","0.0-329.0","0","0","wP5Q8","People","","null","","","","null","","","","","","","","","","","","","","","","","","","","","","","","","","","","","","","","","","","","","","","","","","","",""
"","see_reward","","html-keyboard-response","330","1743733","0.0-330.0","0","0","wP5Q8","People","","643","","","","32","","43","","47","","","","-1","","","","","2","","","","","0","643","","","","","","","","","","","","","","","","","","","","","","","","",""
"","reward_outcome","","html-keyboard-response","331","1745740","0.0-331.0","0","0","wP5Q8","People","","611","","","","40","","43","","47","","","","","","","","","","","","","","","","-1","611","","","","","","","","","","","","","","","","","","","","","","",""
"","block_over","","html-keyboard-response","332","1747786","0.0-333.0-0.0","0","0","wP5Q8","People","","2044","","","","78","","","","","","","","","","","","","","","","","","","","","","","","","","","","","","","","","","","","","","","","","","","",""
"","fixation","","html-keyboard-response","333","1748792","0.0-334.0","0","0","wP5Q8","People","","null","","","","null","","","","","","","","","","","","","","","","","","","","","","","","","","","","","","","","","","","","","","","","","","","",""
"","see_reward","","html-keyboard-response","334","1749548","0.0-335.0","0","0","wP5Q8","People","","755","","","","32","","43","","48","","","","-1","","","","","3","","","","","0","755","","","","","","","","","","","","","","","","","","","","","","","","",""
"","reward_outcome","","html-keyboard-response","335","1751555","0.0-336.0","0","0","wP5Q8","People","","707","","","","40","","43","","48","","","","","","","","","","","","","","","","-1","707","","","","","","","","","","","","","","","","","","","","","","",""
"","fixation","","html-keyboard-response","336","1752560","0.0-339.0","0","0","wP5Q8","People","","null","","","","null","","","","","","","","","","","","","","","","","","","","","","","","","","","","","","","","","","","","","","","","","","","",""
"","see_reward","","html-keyboard-response","337","1753590","0.0-340.0","0","0","wP5Q8","People","","1028","","","","32","","26","","49","","","","1","","","","","3","","","","","147","1028","","","","","","","","","","","","","","","","","","","","","","","","",""
"","reward_outcome","","html-keyboard-response","338","1755596","0.0-341.0","0","0","wP5Q8","People","","734","","","","38","","26","","49","","","","","","","","","","","","","","","","1","734","","","","","","","","","","","","","","","","","","","","","","",""
"","fixation","","html-keyboard-response","339","1756599","0.0-344.0","0","0","wP5Q8","People","","null","","","","null","","","","","","","","","","","","","","","","","","","","","","","","","","","","","","","","","","","","","","","","","","","",""
"","see_reward","","html-keyboard-response","340","1757241","0.0-345.0","0","0","wP5Q8","People","","641","","","","32","","30","","50","","","","-1","","","","","3","","","","","0","641","","","","","","","","","","","","","","","","","","","","","","","","",""
"","reward_outcome","","html-keyboard-response","341","1759245","0.0-346.0","0","0","wP5Q8","People","","523","","","","40","","30","","50","","","","","","","","","","","","","","","","-1","523","","","","","","","","","","","","","","","","","","","","","","",""
"","fixation","","html-keyboard-response","342","1760253","0.0-349.0","0","0","wP5Q8","People","","null","","","","null","","","","","","","","","","","","","","","","","","","","","","","","","","","","","","","","","","","","","","","","","","","",""
"","see_reward","","html-keyboard-response","343","1761826","0.0-350.0","0","0","wP5Q8","People","","1572","","","","32","","31","","51","","","","1","","","","","3","","","","","154","1572","","","","","","","","","","","","","","","","","","","","","","","","",""
"","reward_outcome","","html-keyboard-response","344","1763829","0.0-351.0","0","0","wP5Q8","People","","940","","","","38","","31","","51","","","","","","","","","","","","","","","","1","940","","","","","","","","","","","","","","","","","","","","","","",""
"","fixation","","html-keyboard-response","345","1764834","0.0-354.0","0","0","wP5Q8","People","","null","","","","null","","","","","","","","","","","","","","","","","","","","","","","","","","","","","","","","","","","","","","","","","","","",""
"","see_reward","","html-keyboard-response","346","1765322","0.0-355.0","0","0","wP5Q8","People","","486","","","","32","","37","","52","","","","-1","","","","","3","","","","","0","486","","","","","","","","","","","","","","","","","","","","","","","","",""
"","reward_outcome","","html-keyboard-response","347","1767329","0.0-356.0","0","0","wP5Q8","People","","535","","","","40","","37","","52","","","","","","","","","","","","","","","","-1","535","","","","","","","","","","","","","","","","","","","","","","",""
"","fixation","","html-keyboard-response","348","1768334","0.0-359.0","0","0","wP5Q8","People","","null","","","","null","","","","","","","","","","","","","","","","","","","","","","","","","","","","","","","","","","","","","","","","","","","",""
"","see_reward","","html-keyboard-response","349","1768995","0.0-360.0","0","0","wP5Q8","People","","660","","","","32","","42","","53","","","","-1","","","","","3","","","","","0","660","","","","","","","","","","","","","","","","","","","","","","","","",""
