"success","ttype","start_time","trial_type","trial_index","time_elapsed","internal_node_id","warning","missed_checkup","PID","stim_type","view_history","rt","responses","category","repeat_instructions","key_press","response","stimulus_id","painting","index","stimulus_left","stimulus_right","explain_trial","reward_type","rating_left","rating_right","painting_left","painting_right","block","left_chosen","chosen_obj","unchosen_obj","explain_response","reward_amount","see_reward_rt","register_reward_response","register_reward_rt","deliberation_reward_tally","stimulus_left_deliberation_ind","stimulus_right_deliberation_ind","chosen_trial","gain_left","higher_outcome_chosen","old_pair","chosen_object","rt_pairs","left_object_chosen","rt_object","old_response","new_rating","deliberated_stim","initial_rating","outcome_eval_rt","outcome_eval_response","outcome_eval_gain","outcome_eval_acc","preamble","outcome_eval_confidence","outcome_eval_confidence_rt","total_reward_tally"
"true","full_screen","d01182023hr1409","fullscreen","0","36201","0.0-0.0","0","0","mBvvp","People","","","","","","","","","","","","","","","","","","","","","","","","","","","","","","","","","","","","","","","","","","","","","","","","","",""
"","rating_instructions","","instructions","1","60305","0.0-1.0-0.0","0","0","mBvvp","People","[{""page_index"":0,""viewing_time"":12515},{""page_index"":1,""viewing_time"":6128},{""page_index"":0,""viewing_time"":4064},{""page_index"":1,""viewing_time"":1393}]","24101","","","","","","","","","","","","","","","","","","","","","","","","","","","","","","","","","","","","","","","","","","","","","","","",""
"","","","survey-multi-choice","2","70099","0.0-1.0-1.0","0","0","mBvvp","People","","9785","{""Q0"":""True"",""Q1"":""Mouse""}","rating_comprehension_check","0","","","","","","","","","","","","","","","","","","","","","","","","","","","","","","","","","","","","","","","","","","","","",""
"","start_phase","","html-keyboard-response","3","73381","0.0-2.0","0","0","mBvvp","People","","3275","","","","78","","","","","","","","","","","","","","","","","","","","","","","","","","","","","","","","","","","","","","","","","","","",""
"","rating","","html-slider-response","4","79716","0.0-3.0","0","0","mBvvp","People","","6331","","","","","60","48","velizar-ivanov-7ktP9yZA1g4-unsplash.jpg","0","","","","","","","","","","","","","","","","","","","","","","","","","","","","","","","","","","","","","","","",""
"","rating","","html-slider-response","5","84020","0.0-4.0","0","0","mBvvp","People","","4300","","","","","74","25","joseph-gonzalez-iFgRcqHznqg-unsplash.jpg","1","","","","","","","","","","","","","","","","","","","","","","","","","","","","","","","","","","","","","","","",""
"","rating","","html-slider-response","6","87923","0.0-5.0","0","0","mBvvp","People","","3899","","","","","72","40","prince-akachi-4Yv84VgQkRM-unsplash.jpg","2","","","","","","","","","","","","","","","","","","","","","","","","","","","","","","","","","","","","","","","",""
"","rating","","html-slider-response","7","93651","0.0-6.0","0","0","mBvvp","People","","5726","","","","","58","7","brooke-cagle-HRZUzoX1e6w-unsplash.jpg","3","","","","","","","","","","","","","","","","","","","","","","","","","","","","","","","","","","","","","","","",""
"","rating","","html-slider-response","8","98004","0.0-7.0","0","0","mBvvp","People","","4351","","","","","77","6","ben-o-bro-C5XyLljkMrY-unsplash.jpg","4","","","","","","","","","","","","","","","","","","","","","","","","","","","","","","","","","","","","","","","",""
"","rating","","html-slider-response","9","101652","0.0-8.0","0","0","mBvvp","People","","3645","","","","","89","11","christian-ferrer-8vT-DgHZDG4-unsplash.jpg","5","","","","","","","","","","","","","","","","","","","","","","","","","","","","","","","","","","","","","","","",""
"","rating","","html-slider-response","10","105238","0.0-9.0","0","0","mBvvp","People","","3584","","","","","87","3","art-hauntington-jzY0KRJopEI-unsplash.jpg","6","","","","","","","","","","","","","","","","","","","","","","","","","","","","","","","","","","","","","","","",""
"","rating","","html-slider-response","11","108566","0.0-10.0","0","0","mBvvp","People","","3326","","","","","58","23","joanna-nix-walkup-H4fEMshfwTE-unsplash.jpg","7","","","","","","","","","","","","","","","","","","","","","","","","","","","","","","","","","","","","","","","",""
"","rating","","html-slider-response","12","112758","0.0-11.0","0","0","mBvvp","People","","4190","","","","","43","44","rikonavt-HQjfrvdTfak-unsplash.jpg","8","","","","","","","","","","","","","","","","","","","","","","","","","","","","","","","","","","","","","","","",""
"","rating","","html-slider-response","13","117333","0.0-12.0","0","0","mBvvp","People","","4573","","","","","70","21","jessica-felicio-_cvwXhGqG-o-unsplash.jpg","9","","","","","","","","","","","","","","","","","","","","","","","","","","","","","","","","","","","","","","","",""
"","rating","","html-slider-response","14","121126","0.0-13.0","0","0","mBvvp","People","","3791","","","","","63","33","olena-sergienko-0TSd6uCKTKc-unsplash.jpg","10","","","","","","","","","","","","","","","","","","","","","","","","","","","","","","","","","","","","","","","",""
"","rating","","html-slider-response","15","124759","0.0-14.0","0","0","mBvvp","People","","3631","","","","","64","0","abstral-official-cyOKLSgkgCE-unsplash.jpg","11","","","","","","","","","","","","","","","","","","","","","","","","","","","","","","","","","","","","","","","",""
"","rating","","html-slider-response","16","128536","0.0-15.0","0","0","mBvvp","People","","3775","","","","","60","34","oliver-johnson-1TUIcKob7Zs-unsplash.jpg","12","","","","","","","","","","","","","","","","","","","","","","","","","","","","","","","","","","","","","","","",""
"","rating","","html-slider-response","17","132953","0.0-16.0","0","0","mBvvp","People","","4415","","","","","65","28","justin-chen-J7Cf1Gch49E-unsplash.jpg","13","","","","","","","","","","","","","","","","","","","","","","","","","","","","","","","","","","","","","","","",""
"","rating","","html-slider-response","18","136937","0.0-17.0","0","0","mBvvp","People","","3981","","","","","61","8","bruce-dixon-3M9WJQVHzog-unsplash.jpg","14","","","","","","","","","","","","","","","","","","","","","","","","","","","","","","","","","","","","","","","",""
"","rating","","html-slider-response","19","141497","0.0-18.0","0","0","mBvvp","People","","4558","","","","","58","37","pavel-anoshin-d0peGya6R5Y-unsplash.jpg","15","","","","","","","","","","","","","","","","","","","","","","","","","","","","","","","","","","","","","","","",""
"","rating","","html-slider-response","20","145961","0.0-19.0","0","0","mBvvp","People","","4462","","","","","65","5","batel-studio-ttSRjiYG_WM-unsplash.jpg","16","","","","","","","","","","","","","","","","","","","","","","","","","","","","","","","","","","","","","","","",""
"","rating","","html-slider-response","21","150941","0.0-20.0","0","0","mBvvp","People","","4977","","","","","65","41","prince-akachi-i2hoD-C2RUA-unsplash.jpg","17","","","","","","","","","","","","","","","","","","","","","","","","","","","","","","","","","","","","","","","",""
"","rating","","html-slider-response","22","155483","0.0-21.0","0","0","mBvvp","People","","4539","","","","","42","10","charles-etoroma-95UF6LXe-Lo-unsplash.jpg","18","","","","","","","","","","","","","","","","","","","","","","","","","","","","","","","","","","","","","","","",""
"","rating","","html-slider-response","23","159451","0.0-22.0","0","0","mBvvp","People","","3966","","","","","61","14","freddy-kearney-o-ioeoATbIM-unsplash.jpg","19","","","","","","","","","","","","","","","","","","","","","","","","","","","","","","","","","","","","","","","",""
"","rating","","html-slider-response","24","164139","0.0-23.0","0","0","mBvvp","People","","4686","","","","","61","1","aiony-haust-jmATI5Q_YgY-unsplash.jpg","20","","","","","","","","","","","","","","","","","","","","","","","","","","","","","","","","","","","","","","","",""
"","rating","","html-slider-response","25","168300","0.0-24.0","0","0","mBvvp","People","","4159","","","","","44","42","prince-akachi-l3IHXOdMyHQ-unsplash.jpg","21","","","","","","","","","","","","","","","","","","","","","","","","","","","","","","","","","","","","","","","",""
"","rating","","html-slider-response","26","172475","0.0-25.0","0","0","mBvvp","People","","4173","","","","","50","36","ospan-ali-mGdA2fzjWLo-unsplash.jpg","22","","","","","","","","","","","","","","","","","","","","","","","","","","","","","","","","","","","","","","","",""
"","rating","","html-slider-response","27","176237","0.0-26.0","0","0","mBvvp","People","","3760","","","","","67","27","jurica-koletic-7YVZYZeITc8-unsplash.jpg","23","","","","","","","","","","","","","","","","","","","","","","","","","","","","","","","","","","","","","","","",""
"","rating","","html-slider-response","28","179791","0.0-27.0","0","0","mBvvp","People","","3552","","","","","63","49","vicky-hladynets-_gDoyVv5F4c-unsplash.jpg","24","","","","","","","","","","","","","","","","","","","","","","","","","","","","","","","","","","","","","","","",""
"","rating","","html-slider-response","29","183327","0.0-28.0","0","0","mBvvp","People","","3534","","","","","41","32","nathan-dumlao-ger61_TX6oI-unsplash.jpg","25","","","","","","","","","","","","","","","","","","","","","","","","","","","","","","","","","","","","","","","",""
"","rating","","html-slider-response","30","187646","0.0-29.0","0","0","mBvvp","People","","4317","","","","","35","26","juri-gianfrancesco-9EZadYaMzk4-unsplash.jpg","26","","","","","","","","","","","","","","","","","","","","","","","","","","","","","","","","","","","","","","","",""
"","rating","","html-slider-response","31","191184","0.0-30.0","0","0","mBvvp","People","","3535","","","","","44","4","barna-bartis-2x3vfVxwR7o-unsplash.jpg","27","","","","","","","","","","","","","","","","","","","","","","","","","","","","","","","","","","","","","","","",""
"","rating","","html-slider-response","32","196464","0.0-31.0","0","0","mBvvp","People","","5278","","","","","20","2","arjunsyah-TBUA5KHJn6k-unsplash.jpg","28","","","","","","","","","","","","","","","","","","","","","","","","","","","","","","","","","","","","","","","",""
"","rating","","html-slider-response","33","200070","0.0-32.0","0","0","mBvvp","People","","3603","","","","","56","16","giano-currie-5-9YOsmf8IQ-unsplash.jpg","29","","","","","","","","","","","","","","","","","","","","","","","","","","","","","","","","","","","","","","","",""
"","rating","","html-slider-response","34","203120","0.0-33.0","0","0","mBvvp","People","","3047","","","","","36","38","petr-sevcovic-HzDF-rxlSeM-unsplash.jpg","30","","","","","","","","","","","","","","","","","","","","","","","","","","","","","","","","","","","","","","","",""
"","rating","","html-slider-response","35","206816","0.0-34.0","0","0","mBvvp","People","","3693","","","","","39","12","daniel-rigdon-dXmXKPP2L4E-unsplash.jpg","31","","","","","","","","","","","","","","","","","","","","","","","","","","","","","","","","","","","","","","","",""
"","rating","","html-slider-response","36","210193","0.0-35.0","0","0","mBvvp","People","","3374","","","","","44","24","joel-mott-LaK153ghdig-unsplash.jpg","32","","","","","","","","","","","","","","","","","","","","","","","","","","","","","","","","","","","","","","","",""
"","rating","","html-slider-response","37","213170","0.0-36.0","0","0","mBvvp","People","","2974","","","","","39","18","good-faces-xmSWVeGEnJw-unsplash.jpg","33","","","","","","","","","","","","","","","","","","","","","","","","","","","","","","","","","","","","","","","",""
"","rating","","html-slider-response","38","217363","0.0-37.0","0","0","mBvvp","People","","4191","","","","","56","45","sarah-noltner-pL5ZzPp1zqg-unsplash.jpg","34","","","","","","","","","","","","","","","","","","","","","","","","","","","","","","","","","","","","","","","",""
"","rating","","html-slider-response","39","221202","0.0-38.0","0","0","mBvvp","People","","3837","","","","","59","39","philip-martin-5aGUyCW_PJw-unsplash.jpg","35","","","","","","","","","","","","","","","","","","","","","","","","","","","","","","","","","","","","","","","",""
"","rating","","html-slider-response","40","225282","0.0-39.0","0","0","mBvvp","People","","4078","","","","","39","31","mathilda-khoo-vLR0YP_otCo-unsplash.jpg","36","","","","","","","","","","","","","","","","","","","","","","","","","","","","","","","","","","","","","","","",""
"","rating","","html-slider-response","41","228547","0.0-40.0","0","0","mBvvp","People","","3263","","","","","43","47","tyler-nix-ZGa9d1a_4tA-unsplash.jpg","37","","","","","","","","","","","","","","","","","","","","","","","","","","","","","","","","","","","","","","","",""
"","rating","","html-slider-response","42","231765","0.0-41.0","0","0","mBvvp","People","","3215","","","","","70","17","gleb-lukomets-paBzWCPN23k-unsplash.jpg","38","","","","","","","","","","","","","","","","","","","","","","","","","","","","","","","","","","","","","","","",""
"","rating","","html-slider-response","43","235779","0.0-42.0","0","0","mBvvp","People","","4012","","","","","55","35","oliver-ragfelt-khV4fTy6-D8-unsplash.jpg","39","","","","","","","","","","","","","","","","","","","","","","","","","","","","","","","","","","","","","","","",""
"","rating","","html-slider-response","44","275975","0.0-43.0","0","0","mBvvp","People","","40194","","","","","53","29","leilani-angel-K84vnnzxmTQ-unsplash.jpg","40","","","","","","","","","","","","","","","","","","","","","","","","","","","","","","","","","","","","","","","",""
"","rating","","html-slider-response","45","297530","0.0-44.0","0","0","mBvvp","People","","21553","","","","","57","30","matheus-ferrero-pg_WCHWSdT8-unsplash.jpg","41","","","","","","","","","","","","","","","","","","","","","","","","","","","","","","","","","","","","","","","",""
"","rating","","html-slider-response","46","301917","0.0-45.0","0","0","mBvvp","People","","4384","","","","","44","13","erik-lucatero-d2MSDujJl2g-unsplash.jpg","42","","","","","","","","","","","","","","","","","","","","","","","","","","","","","","","","","","","","","","","",""
"","rating","","html-slider-response","47","304442","0.0-46.0","0","0","mBvvp","People","","2522","","","","","57","43","raamin-ka-0qJBEzudn5E-unsplash.jpg","43","","","","","","","","","","","","","","","","","","","","","","","","","","","","","","","","","","","","","","","",""
"","rating","","html-slider-response","48","307036","0.0-47.0","0","0","mBvvp","People","","2592","","","","","56","9","carlos-andres-gomez-vJuk8Y86mRw-unsplash.jpg","44","","","","","","","","","","","","","","","","","","","","","","","","","","","","","","","","","","","","","","","",""
"","rating","","html-slider-response","49","310172","0.0-48.0","0","0","mBvvp","People","","3133","","","","","43","46","stefan-stefancik-QXevDflbl8A-unsplash.jpg","45","","","","","","","","","","","","","","","","","","","","","","","","","","","","","","","","","","","","","","","",""
"","rating","","html-slider-response","50","313018","0.0-49.0","0","0","mBvvp","People","","2844","","","","","43","19","ha-nguy-n-OFSQ6bHjFjs-unsplash.jpg","46","","","","","","","","","","","","","","","","","","","","","","","","","","","","","","","","","","","","","","","",""
"","rating","","html-slider-response","51","316348","0.0-50.0","0","0","mBvvp","People","","3328","","","","","50","20","houcine-ncib-B4TjXnI0Y2c-unsplash.jpg","47","","","","","","","","","","","","","","","","","","","","","","","","","","","","","","","","","","","","","","","",""
"","rating","","html-slider-response","52","319180","0.0-51.0","0","0","mBvvp","People","","2829","","","","","50","22","jessica-radanavong-mrYkTuAesKE-unsplash.jpg","48","","","","","","","","","","","","","","","","","","","","","","","","","","","","","","","","","","","","","","","",""
"","rating","","html-slider-response","53","322204","0.0-52.0","0","0","mBvvp","People","","3022","","","","","44","15","gabriel-silverio-u3WmDyKGsrY-unsplash.jpg","49","","","","","","","","","","","","","","","","","","","","","","","","","","","","","","","","","","","","","","","",""
"","deliberation_instructions","","instructions","54","597643","0.0-53.0-0.0","0","0","mBvvp","People","[{""page_index"":0,""viewing_time"":25679},{""page_index"":1,""viewing_time"":173091},{""page_index"":2,""viewing_time"":45702},{""page_index"":3,""viewing_time"":26803},{""page_index"":4,""viewing_time"":4159}]","275434","","","","","","","","","","","","","","","","","","","","","","","","","","","","","","","","","","","","","","","","","","","","","","","",""
"","","","survey-multi-choice","55","647811","0.0-53.0-1.0","0","0","mBvvp","People","","50159","{""Q0"":""True"",""Q1"":""True"",""Q2"":""Consider carefully and take your time (up to 10 seconds)"",""Q3"":""True"",""Q4"":""D""}","deliberation_comprehension_check","0","","","","","","","","","","","","","","","","","","","","","","","","","","","","","","","","","","","","","","","","","","","","",""
"","start_phase","","html-keyboard-response","56","650796","0.0-54.0","0","0","mBvvp","People","","2981","","","","78","","","","","","","","","","","","","","","","","","","","","","","","","","","","","","","","","","","","","","","","","","","",""
"","first_deliberation_block","","html-keyboard-response","57","654395","0.0-55.0","0","0","mBvvp","People","","3598","","","","78","","","","","","","","","","","","","","","","","","","","","","","","","","","","","","","","","","","","","","","","","","","",""
"","fixation","","html-keyboard-response","58","655401","0.0-56.0-0.0","0","0","mBvvp","People","","null","","","","null","","","","","","","","","","","","","","","","","","","","","","","","","","","","","","","","","","","","","","","","","","","",""
"","deliberation","","html-keyboard-response","59","657231","0.0-56.0-1.0","0","0","mBvvp","People","","1827","","","","75","","","","0","34","35","1","1","60","55","oliver-johnson-1TUIcKob7Zs-unsplash.jpg","oliver-ragfelt-khV4fTy6-D8-unsplash.jpg","1","0","35","34","","","","","","","","","","","","","","","","","","","","","","","","","","","",""
"","choice_confirmation","","html-keyboard-response","60","657737","0.0-56.0-2.0-0.0","0","0","mBvvp","People","","null","","","","null","","","","0","34","35","","","","","","","","","","","","","","","","","","","","","","","","","","","","","","","","","","","","","",""
"","explain_trial","","survey-text","61","677207","0.0-56.0-5.0-0.0","0","0","mBvvp","People","","19465","{""Q0"":""The picture is very intense and clear""}","","","","","","","0","34","35","","","","","","","","","","","{""Q0"":""The picture is very intense and clear""}","","","","","","","","","","","","","","","","","","","","","","","","","","",""
"","fixation","","html-keyboard-response","62","678217","0.0-57.0-0.0","0","0","mBvvp","People","","null","","","","null","","","","","","","","","","","","","","","","","","","","","","","","","","","","","","","","","","","","","","","","","","","",""
"","deliberation","","html-keyboard-response","63","681951","0.0-57.0-1.0","0","0","mBvvp","People","","3732","","","","68","","","","1","37","15","0","-1","58","44","pavel-anoshin-d0peGya6R5Y-unsplash.jpg","gabriel-silverio-u3WmDyKGsrY-unsplash.jpg","1","1","37","15","","","","","","","","","","","","","","","","","","","","","","","","","","","",""
"","choice_confirmation","","html-keyboard-response","64","682457","0.0-57.0-2.0-0.0","0","0","mBvvp","People","","null","","","","null","","","","1","37","15","","","","","","","","","","","","","","","","","","","","","","","","","","","","","","","","","","","","","",""
"","fixation","","html-keyboard-response","65","683465","0.0-58.0-0.0","0","0","mBvvp","People","","null","","","","null","","","","","","","","","","","","","","","","","","","","","","","","","","","","","","","","","","","","","","","","","","","",""
"","deliberation","","html-keyboard-response","66","688890","0.0-58.0-1.0","0","0","mBvvp","People","","5423","","","","68","","","","2","43","23","0","-1","57","58","raamin-ka-0qJBEzudn5E-unsplash.jpg","joanna-nix-walkup-H4fEMshfwTE-unsplash.jpg","1","1","43","23","","","","","","","","","","","","","","","","","","","","","","","","","","","",""
"","choice_confirmation","","html-keyboard-response","67","689401","0.0-58.0-2.0-0.0","0","0","mBvvp","People","","null","","","","null","","","","2","43","23","","","","","","","","","","","","","","","","","","","","","","","","","","","","","","","","","","","","","",""
"","fixation","","html-keyboard-response","68","690410","0.0-59.0-0.0","0","0","mBvvp","People","","null","","","","null","","","","","","","","","","","","","","","","","","","","","","","","","","","","","","","","","","","","","","","","","","","",""
"","deliberation","","html-keyboard-response","69","693608","0.0-59.0-1.0","0","0","mBvvp","People","","3196","","","","75","","","","3","7","29","0","-1","58","53","brooke-cagle-HRZUzoX1e6w-unsplash.jpg","leilani-angel-K84vnnzxmTQ-unsplash.jpg","1","0","29","7","","","","","","","","","","","","","","","","","","","","","","","","","","","",""
"","choice_confirmation","","html-keyboard-response","70","694113","0.0-59.0-2.0-0.0","0","0","mBvvp","People","","null","","","","null","","","","3","7","29","","","","","","","","","","","","","","","","","","","","","","","","","","","","","","","","","","","","","",""
"","fixation","","html-keyboard-response","71","695120","0.0-60.0-0.0","0","0","mBvvp","People","","null","","","","null","","","","","","","","","","","","","","","","","","","","","","","","","","","","","","","","","","","","","","","","","","","",""
"","deliberation","","html-keyboard-response","72","698345","0.0-60.0-1.0","0","0","mBvvp","People","","3223","","","","75","","","","4","33","14","1","-1","63","61","olena-sergienko-0TSd6uCKTKc-unsplash.jpg","freddy-kearney-o-ioeoATbIM-unsplash.jpg","1","0","14","33","","","","","","","","","","","","","","","","","","","","","","","","","","","",""
"","choice_confirmation","","html-keyboard-response","73","698849","0.0-60.0-2.0-0.0","0","0","mBvvp","People","","null","","","","null","","","","4","33","14","","","","","","","","","","","","","","","","","","","","","","","","","","","","","","","","","","","","","",""
"","explain_trial","","survey-text","74","720427","0.0-60.0-5.0-0.0","0","0","mBvvp","People","","21576","{""Q0"":""The emotion is captured very  well""}","","","","","","","4","33","14","","","","","","","","","","","{""Q0"":""The emotion is captured very  well""}","","","","","","","","","","","","","","","","","","","","","","","","","","",""
"","fixation","","html-keyboard-response","75","721434","0.0-61.0-0.0","0","0","mBvvp","People","","null","","","","null","","","","","","","","","","","","","","","","","","","","","","","","","","","","","","","","","","","","","","","","","","","",""
"","deliberation","","html-keyboard-response","76","724148","0.0-61.0-1.0","0","0","mBvvp","People","","2711","","","","75","","","","5","20","36","1","-1","50","50","houcine-ncib-B4TjXnI0Y2c-unsplash.jpg","ospan-ali-mGdA2fzjWLo-unsplash.jpg","1","0","36","20","","","","","","","","","","","","","","","","","","","","","","","","","","","",""
"","choice_confirmation","","html-keyboard-response","77","724657","0.0-61.0-2.0-0.0","0","0","mBvvp","People","","null","","","","null","","","","5","20","36","","","","","","","","","","","","","","","","","","","","","","","","","","","","","","","","","","","","","",""
"","explain_trial","","survey-text","78","738909","0.0-61.0-5.0-0.0","0","0","mBvvp","People","","14250","{""Q0"":""Good compose""}","","","","","","","5","20","36","","","","","","","","","","","{""Q0"":""Good compose""}","","","","","","","","","","","","","","","","","","","","","","","","","","",""
"","fixation","","html-keyboard-response","79","739914","0.0-62.0-0.0","0","0","mBvvp","People","","null","","","","null","","","","","","","","","","","","","","","","","","","","","","","","","","","","","","","","","","","","","","","","","","","",""
"","deliberation","","html-keyboard-response","80","743365","0.0-62.0-1.0","0","0","mBvvp","People","","3448","","","","68","","","","6","4","8","0","1","44","61","barna-bartis-2x3vfVxwR7o-unsplash.jpg","bruce-dixon-3M9WJQVHzog-unsplash.jpg","1","1","4","8","","","","","","","","","","","","","","","","","","","","","","","","","","","",""
"","choice_confirmation","","html-keyboard-response","81","743873","0.0-62.0-2.0-0.0","0","0","mBvvp","People","","null","","","","null","","","","6","4","8","","","","","","","","","","","","","","","","","","","","","","","","","","","","","","","","","","","","","",""
"","fixation","","html-keyboard-response","82","744881","0.0-63.0-0.0","0","0","mBvvp","People","","null","","","","null","","","","","","","","","","","","","","","","","","","","","","","","","","","","","","","","","","","","","","","","","","","",""
"","deliberation","","html-keyboard-response","83","747286","0.0-63.0-1.0","0","0","mBvvp","People","","2403","","","","68","","","","7","1","30","1","1","61","57","aiony-haust-jmATI5Q_YgY-unsplash.jpg","matheus-ferrero-pg_WCHWSdT8-unsplash.jpg","1","1","1","30","","","","","","","","","","","","","","","","","","","","","","","","","","","",""
"","choice_confirmation","","html-keyboard-response","84","747793","0.0-63.0-2.0-0.0","0","0","mBvvp","People","","null","","","","null","","","","7","1","30","","","","","","","","","","","","","","","","","","","","","","","","","","","","","","","","","","","","","",""
"","explain_trial","","survey-text","85","865913","0.0-63.0-5.0-0.0","0","0","mBvvp","People","","118117","{""Q0"":""Very clear emotion capture""}","","","","","","","7","1","30","","","","","","","","","","","{""Q0"":""Very clear emotion capture""}","","","","","","","","","","","","","","","","","","","","","","","","","","",""
"","fixation","","html-keyboard-response","86","866921","0.0-64.0-0.0","0","0","mBvvp","People","","null","","","","null","","","","","","","","","","","","","","","","","","","","","","","","","","","","","","","","","","","","","","","","","","","",""
"","deliberation","","html-keyboard-response","87","869068","0.0-64.0-1.0","0","0","mBvvp","People","","2145","","","","68","","","","8","13","22","1","1","44","50","erik-lucatero-d2MSDujJl2g-unsplash.jpg","jessica-radanavong-mrYkTuAesKE-unsplash.jpg","1","1","13","22","","","","","","","","","","","","","","","","","","","","","","","","","","","",""
"","choice_confirmation","","html-keyboard-response","88","869576","0.0-64.0-2.0-0.0","0","0","mBvvp","People","","null","","","","null","","","","8","13","22","","","","","","","","","","","","","","","","","","","","","","","","","","","","","","","","","","","","","",""
"","explain_trial","","survey-text","89","1069234","0.0-64.0-5.0-0.0","0","0","mBvvp","People","","199655","{""Q0"":""Emotion in eyes""}","","","","","","","8","13","22","","","","","","","","","","","{""Q0"":""Emotion in eyes""}","","","","","","","","","","","","","","","","","","","","","","","","","","",""
"","fixation","","html-keyboard-response","90","1070242","0.0-65.0-0.0","0","0","mBvvp","People","","null","","","","null","","","","","","","","","","","","","","","","","","","","","","","","","","","","","","","","","","","","","","","","","","","",""
"","deliberation","","html-keyboard-response","91","1072066","0.0-65.0-1.0","0","0","mBvvp","People","","1822","","","","75","","","","9","39","45","0","1","59","56","philip-martin-5aGUyCW_PJw-unsplash.jpg","sarah-noltner-pL5ZzPp1zqg-unsplash.jpg","1","0","45","39","","","","","","","","","","","","","","","","","","","","","","","","","","","",""
"","choice_confirmation","","html-keyboard-response","92","1072568","0.0-65.0-2.0-0.0","0","0","mBvvp","People","","null","","","","null","","","","9","39","45","","","","","","","","","","","","","","","","","","","","","","","","","","","","","","","","","","","","","",""
"","fixation","","html-keyboard-response","93","1073576","0.0-66.0-0.0","0","0","mBvvp","People","","null","","","","null","","","","","","","","","","","","","","","","","","","","","","","","","","","","","","","","","","","","","","","","","","","",""
"","deliberation","","html-keyboard-response","94","1075915","0.0-66.0-1.0","0","0","mBvvp","People","","2336","","","","68","","","","10","16","48","0","1","56","60","giano-currie-5-9YOsmf8IQ-unsplash.jpg","velizar-ivanov-7ktP9yZA1g4-unsplash.jpg","1","1","16","48","","","","","","","","","","","","","","","","","","","","","","","","","","","",""
"","choice_confirmation","","html-keyboard-response","95","1076418","0.0-66.0-2.0-0.0","0","0","mBvvp","People","","null","","","","null","","","","10","16","48","","","","","","","","","","","","","","","","","","","","","","","","","","","","","","","","","","","","","",""
"","fixation","","html-keyboard-response","96","1077424","0.0-67.0-0.0","0","0","mBvvp","People","","null","","","","null","","","","","","","","","","","","","","","","","","","","","","","","","","","","","","","","","","","","","","","","","","","",""
"","deliberation","","html-keyboard-response","97","1079756","0.0-67.0-1.0","0","0","mBvvp","People","","2330","","","","68","","","","11","24","9","1","-1","44","56","joel-mott-LaK153ghdig-unsplash.jpg","carlos-andres-gomez-vJuk8Y86mRw-unsplash.jpg","1","1","24","9","","","","","","","","","","","","","","","","","","","","","","","","","","","",""
"","choice_confirmation","","html-keyboard-response","98","1080266","0.0-67.0-2.0-0.0","0","0","mBvvp","People","","null","","","","null","","","","11","24","9","","","","","","","","","","","","","","","","","","","","","","","","","","","","","","","","","","","","","",""
"","explain_trial","","survey-text","99","1096948","0.0-67.0-5.0-0.0","0","0","mBvvp","People","","16679","{""Q0"":""Happiness well captured""}","","","","","","","11","24","9","","","","","","","","","","","{""Q0"":""Happiness well captured""}","","","","","","","","","","","","","","","","","","","","","","","","","","",""
"","practice_deliberation_again","","html-keyboard-response","100","1103174","0.0-67.0-6.0-0.0","0","0","mBvvp","People","","6223","","","","78","","","","","","","","","","","","","","","","","","","","","","","","","","","","","","","","","","","","","","","","","","","",""
"","fixation","","html-keyboard-response","101","1104184","0.0-68.0-0.0","0","0","mBvvp","People","","null","","","","null","","","","","","","","","","","","","","","","","","","","","","","","","","","","","","","","","","","","","","","","","","","",""
"","deliberation","","html-keyboard-response","102","1106454","0.0-68.0-1.0","0","0","mBvvp","People","","2268","","","","68","","","","12","13","22","0","1","44","50","erik-lucatero-d2MSDujJl2g-unsplash.jpg","jessica-radanavong-mrYkTuAesKE-unsplash.jpg","2","1","13","22","","","","","","","","","","","","","","","","","","","","","","","","","","","",""
"","choice_confirmation","","html-keyboard-response","103","1106961","0.0-68.0-2.0-0.0","0","0","mBvvp","People","","null","","","","null","","","","12","13","22","","","","","","","","","","","","","","","","","","","","","","","","","","","","","","","","","","","","","",""
"","fixation","","html-keyboard-response","104","1107968","0.0-69.0-0.0","0","0","mBvvp","People","","null","","","","null","","","","","","","","","","","","","","","","","","","","","","","","","","","","","","","","","","","","","","","","","","","",""
"","deliberation","","html-keyboard-response","105","1109618","0.0-69.0-1.0","0","0","mBvvp","People","","1647","","","","75","","","","13","34","35","0","1","60","55","oliver-johnson-1TUIcKob7Zs-unsplash.jpg","oliver-ragfelt-khV4fTy6-D8-unsplash.jpg","2","0","35","34","","","","","","","","","","","","","","","","","","","","","","","","","","","",""
"","choice_confirmation","","html-keyboard-response","106","1110122","0.0-69.0-2.0-0.0","0","0","mBvvp","People","","null","","","","null","","","","13","34","35","","","","","","","","","","","","","","","","","","","","","","","","","","","","","","","","","","","","","",""
"","fixation","","html-keyboard-response","107","1111128","0.0-70.0-0.0","0","0","mBvvp","People","","null","","","","null","","","","","","","","","","","","","","","","","","","","","","","","","","","","","","","","","","","","","","","","","","","",""
"","deliberation","","html-keyboard-response","108","1112686","0.0-70.0-1.0","0","0","mBvvp","People","","1556","","","","75","","","","14","39","45","1","1","59","56","philip-martin-5aGUyCW_PJw-unsplash.jpg","sarah-noltner-pL5ZzPp1zqg-unsplash.jpg","2","0","45","39","","","","","","","","","","","","","","","","","","","","","","","","","","","",""
"","choice_confirmation","","html-keyboard-response","109","1113193","0.0-70.0-2.0-0.0","0","0","mBvvp","People","","null","","","","null","","","","14","39","45","","","","","","","","","","","","","","","","","","","","","","","","","","","","","","","","","","","","","",""
"","explain_trial","","survey-text","110","1126551","0.0-70.0-5.0-0.0","0","0","mBvvp","People","","13356","{""Q0"":""Well composed""}","","","","","","","14","39","45","","","","","","","","","","","{""Q0"":""Well composed""}","","","","","","","","","","","","","","","","","","","","","","","","","","",""
"","fixation","","html-keyboard-response","111","1127561","0.0-71.0-0.0","0","0","mBvvp","People","","null","","","","null","","","","","","","","","","","","","","","","","","","","","","","","","","","","","","","","","","","","","","","","","","","",""
"","deliberation","","html-keyboard-response","112","1129617","0.0-71.0-1.0","0","0","mBvvp","People","","2054","","","","68","","","","15","1","30","0","1","61","57","aiony-haust-jmATI5Q_YgY-unsplash.jpg","matheus-ferrero-pg_WCHWSdT8-unsplash.jpg","2","1","1","30","","","","","","","","","","","","","","","","","","","","","","","","","","","",""
"","choice_confirmation","","html-keyboard-response","113","1130120","0.0-71.0-2.0-0.0","0","0","mBvvp","People","","null","","","","null","","","","15","1","30","","","","","","","","","","","","","","","","","","","","","","","","","","","","","","","","","","","","","",""
"","fixation","","html-keyboard-response","114","1131129","0.0-72.0-0.0","0","0","mBvvp","People","","null","","","","null","","","","","","","","","","","","","","","","","","","","","","","","","","","","","","","","","","","","","","","","","","","",""
"","deliberation","","html-keyboard-response","115","1135265","0.0-72.0-1.0","0","0","mBvvp","People","","4133","","","","68","","","","16","4","8","1","1","44","61","barna-bartis-2x3vfVxwR7o-unsplash.jpg","bruce-dixon-3M9WJQVHzog-unsplash.jpg","2","1","4","8","","","","","","","","","","","","","","","","","","","","","","","","","","","",""
"","choice_confirmation","","html-keyboard-response","116","1135769","0.0-72.0-2.0-0.0","0","0","mBvvp","People","","null","","","","null","","","","16","4","8","","","","","","","","","","","","","","","","","","","","","","","","","","","","","","","","","","","","","",""
"","explain_trial","","survey-text","117","1151545","0.0-72.0-5.0-0.0","0","0","mBvvp","People","","15774","{""Q0"":""Clear composed""}","","","","","","","16","4","8","","","","","","","","","","","{""Q0"":""Clear composed""}","","","","","","","","","","","","","","","","","","","","","","","","","","",""
"","fixation","","html-keyboard-response","118","1152553","0.0-73.0-0.0","0","0","mBvvp","People","","null","","","","null","","","","","","","","","","","","","","","","","","","","","","","","","","","","","","","","","","","","","","","","","","","",""
"","deliberation","","html-keyboard-response","119","1154427","0.0-73.0-1.0","0","0","mBvvp","People","","1871","","","","75","","","","17","20","36","0","-1","50","50","houcine-ncib-B4TjXnI0Y2c-unsplash.jpg","ospan-ali-mGdA2fzjWLo-unsplash.jpg","2","0","36","20","","","","","","","","","","","","","","","","","","","","","","","","","","","",""
"","choice_confirmation","","html-keyboard-response","120","1154937","0.0-73.0-2.0-0.0","0","0","mBvvp","People","","null","","","","null","","","","17","20","36","","","","","","","","","","","","","","","","","","","","","","","","","","","","","","","","","","","","","",""
"","fixation","","html-keyboard-response","121","1155944","0.0-74.0-0.0","0","0","mBvvp","People","","null","","","","null","","","","","","","","","","","","","","","","","","","","","","","","","","","","","","","","","","","","","","","","","","","",""
"","deliberation","","html-keyboard-response","122","1161380","0.0-74.0-1.0","0","0","mBvvp","People","","5434","","","","75","","","","18","24","9","0","-1","44","56","joel-mott-LaK153ghdig-unsplash.jpg","carlos-andres-gomez-vJuk8Y86mRw-unsplash.jpg","2","0","9","24","","","","","","","","","","","","","","","","","","","","","","","","","","","",""
"","choice_confirmation","","html-keyboard-response","123","1161889","0.0-74.0-2.0-0.0","0","0","mBvvp","People","","null","","","","null","","","","18","24","9","","","","","","","","","","","","","","","","","","","","","","","","","","","","","","","","","","","","","",""
"","fixation","","html-keyboard-response","124","1162896","0.0-75.0-0.0","0","0","mBvvp","People","","null","","","","null","","","","","","","","","","","","","","","","","","","","","","","","","","","","","","","","","","","","","","","","","","","",""
"","deliberation","","html-keyboard-response","125","1164965","0.0-75.0-1.0","0","0","mBvvp","People","","2067","","","","75","","","","19","33","14","0","-1","63","61","olena-sergienko-0TSd6uCKTKc-unsplash.jpg","freddy-kearney-o-ioeoATbIM-unsplash.jpg","2","0","14","33","","","","","","","","","","","","","","","","","","","","","","","","","","","",""
"","choice_confirmation","","html-keyboard-response","126","1165472","0.0-75.0-2.0-0.0","0","0","mBvvp","People","","null","","","","null","","","","19","33","14","","","","","","","","","","","","","","","","","","","","","","","","","","","","","","","","","","","","","",""
"","fixation","","html-keyboard-response","127","1166480","0.0-76.0-0.0","0","0","mBvvp","People","","null","","","","null","","","","","","","","","","","","","","","","","","","","","","","","","","","","","","","","","","","","","","","","","","","",""
"","deliberation","","html-keyboard-response","128","1168605","0.0-76.0-1.0","0","0","mBvvp","People","","2122","","","","75","","","","20","43","23","1","-1","57","58","raamin-ka-0qJBEzudn5E-unsplash.jpg","joanna-nix-walkup-H4fEMshfwTE-unsplash.jpg","2","0","23","43","","","","","","","","","","","","","","","","","","","","","","","","","","","",""
"","choice_confirmation","","html-keyboard-response","129","1169112","0.0-76.0-2.0-0.0","0","0","mBvvp","People","","null","","","","null","","","","20","43","23","","","","","","","","","","","","","","","","","","","","","","","","","","","","","","","","","","","","","",""
"","explain_trial","","survey-text","130","1183197","0.0-76.0-5.0-0.0","0","0","mBvvp","People","","14083","{""Q0"":""Great capture""}","","","","","","","20","43","23","","","","","","","","","","","{""Q0"":""Great capture""}","","","","","","","","","","","","","","","","","","","","","","","","","","",""
"","fixation","","html-keyboard-response","131","1184207","0.0-77.0-0.0","0","0","mBvvp","People","","null","","","","null","","","","","","","","","","","","","","","","","","","","","","","","","","","","","","","","","","","","","","","","","","","",""
"","deliberation","","html-keyboard-response","132","1185886","0.0-77.0-1.0","0","0","mBvvp","People","","1677","","","","75","","","","21","7","29","1","-1","58","53","brooke-cagle-HRZUzoX1e6w-unsplash.jpg","leilani-angel-K84vnnzxmTQ-unsplash.jpg","2","0","29","7","","","","","","","","","","","","","","","","","","","","","","","","","","","",""
"","choice_confirmation","","html-keyboard-response","133","1186392","0.0-77.0-2.0-0.0","0","0","mBvvp","People","","null","","","","null","","","","21","7","29","","","","","","","","","","","","","","","","","","","","","","","","","","","","","","","","","","","","","",""
"","explain_trial","","survey-text","134","1195823","0.0-77.0-5.0-0.0","0","0","mBvvp","People","","9428","{""Q0"":""clear and sharp""}","","","","","","","21","7","29","","","","","","","","","","","{""Q0"":""clear and sharp""}","","","","","","","","","","","","","","","","","","","","","","","","","","",""
"","fixation","","html-keyboard-response","135","1196833","0.0-78.0-0.0","0","0","mBvvp","People","","null","","","","null","","","","","","","","","","","","","","","","","","","","","","","","","","","","","","","","","","","","","","","","","","","",""
"","deliberation","","html-keyboard-response","136","1199497","0.0-78.0-1.0","0","0","mBvvp","People","","2661","","","","68","","","","22","37","15","1","-1","58","44","pavel-anoshin-d0peGya6R5Y-unsplash.jpg","gabriel-silverio-u3WmDyKGsrY-unsplash.jpg","2","1","37","15","","","","","","","","","","","","","","","","","","","","","","","","","","","",""
"","choice_confirmation","","html-keyboard-response","137","1200001","0.0-78.0-2.0-0.0","0","0","mBvvp","People","","null","","","","null","","","","22","37","15","","","","","","","","","","","","","","","","","","","","","","","","","","","","","","","","","","","","","",""
"","explain_trial","","survey-text","138","1222658","0.0-78.0-5.0-0.0","0","0","mBvvp","People","","22655","{""Q0"":""Very intense capture""}","","","","","","","22","37","15","","","","","","","","","","","{""Q0"":""Very intense capture""}","","","","","","","","","","","","","","","","","","","","","","","","","","",""
"","fixation","","html-keyboard-response","139","1223663","0.0-79.0-0.0","0","0","mBvvp","People","","null","","","","null","","","","","","","","","","","","","","","","","","","","","","","","","","","","","","","","","","","","","","","","","","","",""
"","deliberation","","html-keyboard-response","140","1225627","0.0-79.0-1.0","0","0","mBvvp","People","","1961","","","","68","","","","23","16","48","1","1","56","60","giano-currie-5-9YOsmf8IQ-unsplash.jpg","velizar-ivanov-7ktP9yZA1g4-unsplash.jpg","2","1","16","48","","","","","","","","","","","","","","","","","","","","","","","","","","","",""
"","choice_confirmation","","html-keyboard-response","141","1226136","0.0-79.0-2.0-0.0","0","0","mBvvp","People","","null","","","","null","","","","23","16","48","","","","","","","","","","","","","","","","","","","","","","","","","","","","","","","","","","","","","",""
"","explain_trial","","survey-text","142","1240724","0.0-79.0-5.0-0.0","0","0","mBvvp","People","","14585","{""Q0"":""Good compose""}","","","","","","","23","16","48","","","","","","","","","","","{""Q0"":""Good compose""}","","","","","","","","","","","","","","","","","","","","","","","","","","",""
"","start_critical_deliberation_block","","html-keyboard-response","143","1248574","0.0-79.0-7.0-0.0","0","0","mBvvp","People","","7848","","","","78","","","","","","","","","","","","","","","","","","","","","","","","","","","","","","","","","","","","","","","","","","","",""
"","fixation","","html-keyboard-response","144","1249585","0.0-80.0-0.0","0","0","mBvvp","People","","null","","","","null","","","","","","","","","","","","","","","","","","","","","","","","","","","","","","","","","","","","","","","","","","","",""
"","deliberation","","html-keyboard-response","145","1251582","0.0-80.0-1.0","0","0","mBvvp","People","","1994","","","","75","","","","24","7","29","0","-1","58","53","brooke-cagle-HRZUzoX1e6w-unsplash.jpg","leilani-angel-K84vnnzxmTQ-unsplash.jpg","3","0","29","7","","","","","","","","","","","","","","","","","","","","","","","","","","","",""
"","choice_confirmation","","html-keyboard-response","146","1252090","0.0-80.0-2.0-0.0","0","0","mBvvp","People","","null","","","","null","","","","24","7","29","","","","","","","","","","","","","","","","","","","","","","","","","","","","","","","","","","","","","",""
"","fixation","","html-keyboard-response","147","1253097","0.0-81.0-0.0","0","0","mBvvp","People","","null","","","","null","","","","","","","","","","","","","","","","","","","","","","","","","","","","","","","","","","","","","","","","","","","",""
"","deliberation","","html-keyboard-response","148","1254631","0.0-81.0-1.0","0","0","mBvvp","People","","1532","","","","75","","","","25","33","14","0","-1","63","61","olena-sergienko-0TSd6uCKTKc-unsplash.jpg","freddy-kearney-o-ioeoATbIM-unsplash.jpg","3","0","14","33","","","","","","","","","","","","","","","","","","","","","","","","","","","",""
"","choice_confirmation","","html-keyboard-response","149","1255136","0.0-81.0-2.0-0.0","0","0","mBvvp","People","","null","","","","null","","","","25","33","14","","","","","","","","","","","","","","","","","","","","","","","","","","","","","","","","","","","","","",""
"","fixation","","html-keyboard-response","150","1256145","0.0-82.0-0.0","0","0","mBvvp","People","","null","","","","null","","","","","","","","","","","","","","","","","","","","","","","","","","","","","","","","","","","","","","","","","","","",""
"","deliberation","","html-keyboard-response","151","1257871","0.0-82.0-1.0","0","0","mBvvp","People","","1724","","","","68","","","","26","24","9","0","-1","44","56","joel-mott-LaK153ghdig-unsplash.jpg","carlos-andres-gomez-vJuk8Y86mRw-unsplash.jpg","3","1","24","9","","","","","","","","","","","","","","","","","","","","","","","","","","","",""
"","choice_confirmation","","html-keyboard-response","152","1258376","0.0-82.0-2.0-0.0","0","0","mBvvp","People","","null","","","","null","","","","26","24","9","","","","","","","","","","","","","","","","","","","","","","","","","","","","","","","","","","","","","",""
"","fixation","","html-keyboard-response","153","1259385","0.0-83.0-0.0","0","0","mBvvp","People","","null","","","","null","","","","","","","","","","","","","","","","","","","","","","","","","","","","","","","","","","","","","","","","","","","",""
"","deliberation","","html-keyboard-response","154","1261617","0.0-83.0-1.0","0","0","mBvvp","People","","2229","","","","68","","","","27","20","36","0","-1","50","50","houcine-ncib-B4TjXnI0Y2c-unsplash.jpg","ospan-ali-mGdA2fzjWLo-unsplash.jpg","3","1","20","36","","","","","","","","","","","","","","","","","","","","","","","","","","","",""
"","choice_confirmation","","html-keyboard-response","155","1262121","0.0-83.0-2.0-0.0","0","0","mBvvp","People","","null","","","","null","","","","27","20","36","","","","","","","","","","","","","","","","","","","","","","","","","","","","","","","","","","","","","",""
"","fixation","","html-keyboard-response","156","1263129","0.0-84.0-0.0","0","0","mBvvp","People","","null","","","","null","","","","","","","","","","","","","","","","","","","","","","","","","","","","","","","","","","","","","","","","","","","",""
"","deliberation","","html-keyboard-response","157","1264528","0.0-84.0-1.0","0","0","mBvvp","People","","1398","","","","68","","","","28","37","15","0","-1","58","44","pavel-anoshin-d0peGya6R5Y-unsplash.jpg","gabriel-silverio-u3WmDyKGsrY-unsplash.jpg","3","1","37","15","","","","","","","","","","","","","","","","","","","","","","","","","","","",""
"","choice_confirmation","","html-keyboard-response","158","1265033","0.0-84.0-2.0-0.0","0","0","mBvvp","People","","null","","","","null","","","","28","37","15","","","","","","","","","","","","","","","","","","","","","","","","","","","","","","","","","","","","","",""
"","fixation","","html-keyboard-response","159","1266041","0.0-85.0-0.0","0","0","mBvvp","People","","null","","","","null","","","","","","","","","","","","","","","","","","","","","","","","","","","","","","","","","","","","","","","","","","","",""
"","deliberation","","html-keyboard-response","160","1267688","0.0-85.0-1.0","0","0","mBvvp","People","","1646","","","","68","","","","29","4","8","0","1","44","61","barna-bartis-2x3vfVxwR7o-unsplash.jpg","bruce-dixon-3M9WJQVHzog-unsplash.jpg","3","1","4","8","","","","","","","","","","","","","","","","","","","","","","","","","","","",""
"","choice_confirmation","","html-keyboard-response","161","1268193","0.0-85.0-2.0-0.0","0","0","mBvvp","People","","null","","","","null","","","","29","4","8","","","","","","","","","","","","","","","","","","","","","","","","","","","","","","","","","","","","","",""
"","fixation","","html-keyboard-response","162","1269200","0.0-86.0-0.0","0","0","mBvvp","People","","null","","","","null","","","","","","","","","","","","","","","","","","","","","","","","","","","","","","","","","","","","","","","","","","","",""
"","deliberation","","html-keyboard-response","163","1270665","0.0-86.0-1.0","0","0","mBvvp","People","","1463","","","","75","","","","30","39","45","0","1","59","56","philip-martin-5aGUyCW_PJw-unsplash.jpg","sarah-noltner-pL5ZzPp1zqg-unsplash.jpg","3","0","45","39","","","","","","","","","","","","","","","","","","","","","","","","","","","",""
"","choice_confirmation","","html-keyboard-response","164","1271169","0.0-86.0-2.0-0.0","0","0","mBvvp","People","","null","","","","null","","","","30","39","45","","","","","","","","","","","","","","","","","","","","","","","","","","","","","","","","","","","","","",""
"","fixation","","html-keyboard-response","165","1272177","0.0-87.0-0.0","0","0","mBvvp","People","","null","","","","null","","","","","","","","","","","","","","","","","","","","","","","","","","","","","","","","","","","","","","","","","","","",""
"","deliberation","","html-keyboard-response","166","1273794","0.0-87.0-1.0","0","0","mBvvp","People","","1615","","","","68","","","","31","1","30","0","1","61","57","aiony-haust-jmATI5Q_YgY-unsplash.jpg","matheus-ferrero-pg_WCHWSdT8-unsplash.jpg","3","1","1","30","","","","","","","","","","","","","","","","","","","","","","","","","","","",""
"","choice_confirmation","","html-keyboard-response","167","1274297","0.0-87.0-2.0-0.0","0","0","mBvvp","People","","null","","","","null","","","","31","1","30","","","","","","","","","","","","","","","","","","","","","","","","","","","","","","","","","","","","","",""
"","fixation","","html-keyboard-response","168","1275305","0.0-88.0-0.0","0","0","mBvvp","People","","null","","","","null","","","","","","","","","","","","","","","","","","","","","","","","","","","","","","","","","","","","","","","","","","","",""
"","deliberation","","html-keyboard-response","169","1277082","0.0-88.0-1.0","0","0","mBvvp","People","","1775","","","","68","","","","32","13","22","0","1","44","50","erik-lucatero-d2MSDujJl2g-unsplash.jpg","jessica-radanavong-mrYkTuAesKE-unsplash.jpg","3","1","13","22","","","","","","","","","","","","","","","","","","","","","","","","","","","",""
"","choice_confirmation","","html-keyboard-response","170","1277585","0.0-88.0-2.0-0.0","0","0","mBvvp","People","","null","","","","null","","","","32","13","22","","","","","","","","","","","","","","","","","","","","","","","","","","","","","","","","","","","","","",""
"","fixation","","html-keyboard-response","171","1278593","0.0-89.0-0.0","0","0","mBvvp","People","","null","","","","null","","","","","","","","","","","","","","","","","","","","","","","","","","","","","","","","","","","","","","","","","","","",""
"","deliberation","","html-keyboard-response","172","1280027","0.0-89.0-1.0","0","0","mBvvp","People","","1431","","","","68","","","","33","16","48","0","1","56","60","giano-currie-5-9YOsmf8IQ-unsplash.jpg","velizar-ivanov-7ktP9yZA1g4-unsplash.jpg","3","1","16","48","","","","","","","","","","","","","","","","","","","","","","","","","","","",""
"","choice_confirmation","","html-keyboard-response","173","1280529","0.0-89.0-2.0-0.0","0","0","mBvvp","People","","null","","","","null","","","","33","16","48","","","","","","","","","","","","","","","","","","","","","","","","","","","","","","","","","","","","","",""
"","fixation","","html-keyboard-response","174","1281537","0.0-90.0-0.0","0","0","mBvvp","People","","null","","","","null","","","","","","","","","","","","","","","","","","","","","","","","","","","","","","","","","","","","","","","","","","","",""
"","deliberation","","html-keyboard-response","175","1283033","0.0-90.0-1.0","0","0","mBvvp","People","","1495","","","","75","","","","34","34","35","0","1","60","55","oliver-johnson-1TUIcKob7Zs-unsplash.jpg","oliver-ragfelt-khV4fTy6-D8-unsplash.jpg","3","0","35","34","","","","","","","","","","","","","","","","","","","","","","","","","","","",""
"","choice_confirmation","","html-keyboard-response","176","1283537","0.0-90.0-2.0-0.0","0","0","mBvvp","People","","null","","","","null","","","","34","34","35","","","","","","","","","","","","","","","","","","","","","","","","","","","","","","","","","","","","","",""
"","fixation","","html-keyboard-response","177","1284545","0.0-91.0-0.0","0","0","mBvvp","People","","null","","","","null","","","","","","","","","","","","","","","","","","","","","","","","","","","","","","","","","","","","","","","","","","","",""
"","deliberation","","html-keyboard-response","178","1286244","0.0-91.0-1.0","0","0","mBvvp","People","","1696","","","","75","","","","35","43","23","0","-1","57","58","raamin-ka-0qJBEzudn5E-unsplash.jpg","joanna-nix-walkup-H4fEMshfwTE-unsplash.jpg","3","0","23","43","","","","","","","","","","","","","","","","","","","","","","","","","","","",""
"","choice_confirmation","","html-keyboard-response","179","1286769","0.0-91.0-2.0-0.0","0","0","mBvvp","People","","null","","","","null","","","","35","43","23","","","","","","","","","","","","","","","","","","","","","","","","","","","","","","","","","","","","","",""
"","reward_learning_instructions","","instructions","180","1485456","0.0-92.0-0.0","0","0","mBvvp","People","[{""page_index"":0,""viewing_time"":45562},{""page_index"":1,""viewing_time"":148754},{""page_index"":2,""viewing_time"":4368}]","198685","","","","","","","","","","","","","","","","","","","","","","","","","","","","","","","","","","","","","","","","","","","","","","","",""
"","","","survey-multi-choice","181","1508801","0.0-92.0-1.0","0","0","mBvvp","People","","23332","{""Q0"":""True"",""Q1"":""True"",""Q2"":""Press the space bar to see its outcome"",""Q3"":""Press the relevant key while the outcome is presented""}","reward_comprehension_check","0","","","","","","","","","","","","","","","","","","","","","","","","","","","","","","","","","","","","","","","","","","","","",""
"","start_phase","","html-keyboard-response","182","1563384","0.0-93.0","0","0","mBvvp","People","","54580","","","","78","","","","","","","","","","","","","","","","","","","","","","","","","","","","","","","","","","","","","","","","","","","",""
"","fixation","","html-keyboard-response","183","1564393","0.0-94.0","0","0","mBvvp","People","","null","","","","null","","","","","","","","","","","","","","","","","","","","","","","","","","","","","","","","","","","","","","","","","","","",""
"","see_reward","","html-keyboard-response","184","1567665","0.0-95.0","0","0","mBvvp","People","","3270","","","","32","","16","","0","","","","1","","","","","1","","","","","159","3270","","","","","","","","","","","","","","","","","","","","","","","","",""
"","reward_outcome","","html-keyboard-response","185","1569672","0.0-96.0","0","0","mBvvp","People","","null","","","","null","","16","","0","","","","","","","","","","","","","","","","NaN","null","","","","","","","","","","","","","","","","","","","","","","",""
"","respond_faster","","html-keyboard-response","186","1571176","0.0-97.0-0.0","1","0","mBvvp","People","","null","","","","null","","","","","","","","","","","","","","","","","","","","","","","","","","","","","","","","","","","","","","","","","","","",""
"","fixation","","html-keyboard-response","187","1572184","0.0-99.0","0","0","mBvvp","People","","null","","","","null","","","","","","","","","","","","","","","","","","","","","","","","","","","","","","","","","","","","","","","","","","","",""
"","see_reward","","html-keyboard-response","188","1576354","0.0-100.0","0","0","mBvvp","People","","4168","","","","32","","45","","1","","","","1","","","","","1","","","","","159","4168","","","","","","","","","","","","","","","","","","","","","","","","",""
"","reward_outcome","","html-keyboard-response","189","1578360","0.0-101.0","0","0","mBvvp","People","","1023","","","","38","","45","","1","","","","","","","","","","","","","","","","1","1023","","","","","","","","","","","","","","","","","","","","","","",""
"","fixation","","html-keyboard-response","190","1579368","0.0-104.0","0","0","mBvvp","People","","null","","","","null","","","","","","","","","","","","","","","","","","","","","","","","","","","","","","","","","","","","","","","","","","","",""
"","see_reward","","html-keyboard-response","191","1581130","0.0-105.0","0","0","mBvvp","People","","1760","","","","32","","14","","2","","","","-1","","","","","1","","","","","0","1760","","","","","","","","","","","","","","","","","","","","","","","","",""
"","reward_outcome","","html-keyboard-response","192","1583136","0.0-106.0","0","0","mBvvp","People","","848","","","","40","","14","","2","","","","","","","","","","","","","","","","-1","848","","","","","","","","","","","","","","","","","","","","","","",""
"","fixation","","html-keyboard-response","193","1584144","0.0-109.0","0","0","mBvvp","People","","null","","","","null","","","","","","","","","","","","","","","","","","","","","","","","","","","","","","","","","","","","","","","","","","","",""
"","see_reward","","html-keyboard-response","194","1586196","0.0-110.0","0","0","mBvvp","People","","2050","","","","32","","13","","3","","","","1","","","","","1","","","","","147","2050","","","","","","","","","","","","","","","","","","","","","","","","",""
"","reward_outcome","","html-keyboard-response","195","1588200","0.0-111.0","0","0","mBvvp","People","","798","","","","38","","13","","3","","","","","","","","","","","","","","","","1","798","","","","","","","","","","","","","","","","","","","","","","",""
"","fixation","","html-keyboard-response","196","1589207","0.0-114.0","0","0","mBvvp","People","","null","","","","null","","","","","","","","","","","","","","","","","","","","","","","","","","","","","","","","","","","","","","","","","","","",""
"","see_reward","","html-keyboard-response","197","1590602","0.0-115.0","0","0","mBvvp","People","","1394","","","","32","","35","","4","","","","1","","","","","1","","","","","157","1394","","","","","","","","","","","","","","","","","","","","","","","","",""
"","reward_outcome","","html-keyboard-response","198","1592608","0.0-116.0","0","0","mBvvp","People","","976","","","","38","","35","","4","","","","","","","","","","","","","","","","1","976","","","","","","","","","","","","","","","","","","","","","","",""
"","fixation","","html-keyboard-response","199","1593616","0.0-119.0","0","0","mBvvp","People","","null","","","","null","","","","","","","","","","","","","","","","","","","","","","","","","","","","","","","","","","","","","","","","","","","",""
"","see_reward","","html-keyboard-response","200","1595189","0.0-120.0","0","0","mBvvp","People","","1571","","","","32","","1","","5","","","","1","","","","","1","","","","","146","1571","","","","","","","","","","","","","","","","","","","","","","","","",""
"","reward_outcome","","html-keyboard-response","201","1597200","0.0-121.0","0","0","mBvvp","People","","910","","","","38","","1","","5","","","","","","","","","","","","","","","","1","910","","","","","","","","","","","","","","","","","","","","","","",""
"","fixation","","html-keyboard-response","202","1598208","0.0-124.0","0","0","mBvvp","People","","null","","","","null","","","","","","","","","","","","","","","","","","","","","","","","","","","","","","","","","","","","","","","","","","","",""
"","see_reward","","html-keyboard-response","203","1600676","0.0-125.0","0","0","mBvvp","People","","2466","","","","32","","24","","6","","","","-1","","","","","1","","","","","0","2466","","","","","","","","","","","","","","","","","","","","","","","","",""
"","reward_outcome","","html-keyboard-response","204","1602681","0.0-126.0","0","0","mBvvp","People","","1126","","","","40","","24","","6","","","","","","","","","","","","","","","","-1","1126","","","","","","","","","","","","","","","","","","","","","","",""
"","fixation","","html-keyboard-response","205","1603689","0.0-129.0","0","0","mBvvp","People","","null","","","","null","","","","","","","","","","","","","","","","","","","","","","","","","","","","","","","","","","","","","","","","","","","",""
"","see_reward","","html-keyboard-response","206","1604861","0.0-130.0","0","0","mBvvp","People","","1170","","","","32","","13","","7","","","","1","","","","","1","","","","","147","1170","","","","","","","","","","","","","","","","","","","","","","","","",""
"","reward_outcome","","html-keyboard-response","207","1606865","0.0-131.0","0","0","mBvvp","People","","902","","","","38","","13","","7","","","","","","","","","","","","","","","","1","902","","","","","","","","","","","","","","","","","","","","","","",""
"","fixation","","html-keyboard-response","208","1607874","0.0-134.0","0","0","mBvvp","People","","null","","","","null","","","","","","","","","","","","","","","","","","","","","","","","","","","","","","","","","","","","","","","","","","","",""
"","see_reward","","html-keyboard-response","209","1609245","0.0-135.0","0","0","mBvvp","People","","1369","","","","32","","24","","8","","","","-1","","","","","1","","","","","0","1369","","","","","","","","","","","","","","","","","","","","","","","","",""
"","reward_outcome","","html-keyboard-response","210","1611249","0.0-136.0","0","0","mBvvp","People","","1688","","","","40","","24","","8","","","","","","","","","","","","","","","","-1","1688","","","","","","","","","","","","","","","","","","","","","","",""
"","fixation","","html-keyboard-response","211","1612257","0.0-139.0","0","0","mBvvp","People","","null","","","","null","","","","","","","","","","","","","","","","","","","","","","","","","","","","","","","","","","","","","","","","","","","",""
"","see_reward","","html-keyboard-response","212","1613270","0.0-140.0","0","0","mBvvp","People","","1011","","","","32","","20","","9","","","","-1","","","","","1","","","","","0","1011","","","","","","","","","","","","","","","","","","","","","","","","",""
"","reward_outcome","","html-keyboard-response","213","1615280","0.0-141.0","0","0","mBvvp","People","","1286","","","","40","","20","","9","","","","","","","","","","","","","","","","-1","1286","","","","","","","","","","","","","","","","","","","","","","",""
"","fixation","","html-keyboard-response","214","1616288","0.0-144.0","0","0","mBvvp","People","","null","","","","null","","","","","","","","","","","","","","","","","","","","","","","","","","","","","","","","","","","","","","","","","","","",""
"","see_reward","","html-keyboard-response","215","1617462","0.0-145.0","0","0","mBvvp","People","","1173","","","","32","","37","","10","","","","-1","","","","","1","","","","","0","1173","","","","","","","","","","","","","","","","","","","","","","","","",""
"","reward_outcome","","html-keyboard-response","216","1619473","0.0-146.0","0","0","mBvvp","People","","1087","","","","40","","37","","10","","","","","","","","","","","","","","","","-1","1087","","","","","","","","","","","","","","","","","","","","","","",""
"","fixation","","html-keyboard-response","217","1620480","0.0-149.0","0","0","mBvvp","People","","null","","","","null","","","","","","","","","","","","","","","","","","","","","","","","","","","","","","","","","","","","","","","","","","","",""
"","see_reward","","html-keyboard-response","218","1621455","0.0-150.0","0","0","mBvvp","People","","973","","","","32","","29","","11","","","","-1","","","","","1","","","","","0","973","","","","","","","","","","","","","","","","","","","","","","","","",""
"","reward_outcome","","html-keyboard-response","219","1623465","0.0-151.0","0","0","mBvvp","People","","1039","","","","40","","29","","11","","","","","","","","","","","","","","","","-1","1039","","","","","","","","","","","","","","","","","","","","","","",""
"","fixation","","html-keyboard-response","220","1624472","0.0-154.0","0","0","mBvvp","People","","null","","","","null","","","","","","","","","","","","","","","","","","","","","","","","","","","","","","","","","","","","","","","","","","","",""
"","see_reward","","html-keyboard-response","221","1625720","0.0-155.0","0","0","mBvvp","People","","1246","","","","32","","23","","12","","","","-1","","","","","1","","","","","0","1246","","","","","","","","","","","","","","","","","","","","","","","","",""
"","reward_outcome","","html-keyboard-response","222","1627729","0.0-156.0","0","0","mBvvp","People","","981","","","","40","","23","","12","","","","","","","","","","","","","","","","-1","981","","","","","","","","","","","","","","","","","","","","","","",""
"","fixation","","html-keyboard-response","223","1628736","0.0-159.0","0","0","mBvvp","People","","null","","","","null","","","","","","","","","","","","","","","","","","","","","","","","","","","","","","","","","","","","","","","","","","","",""
"","see_reward","","html-keyboard-response","224","1629992","0.0-160.0","0","0","mBvvp","People","","1254","","","","32","","37","","13","","","","-1","","","","","1","","","","","0","1254","","","","","","","","","","","","","","","","","","","","","","","","",""
"","reward_outcome","","html-keyboard-response","225","1632001","0.0-161.0","0","0","mBvvp","People","","839","","","","40","","37","","13","","","","","","","","","","","","","","","","-1","839","","","","","","","","","","","","","","","","","","","","","","",""
"","fixation","","html-keyboard-response","226","1633009","0.0-164.0","0","0","mBvvp","People","","null","","","","null","","","","","","","","","","","","","","","","","","","","","","","","","","","","","","","","","","","","","","","","","","","",""
"","see_reward","","html-keyboard-response","227","1634051","0.0-165.0","0","0","mBvvp","People","","1039","","","","32","","14","","14","","","","-1","","","","","1","","","","","0","1039","","","","","","","","","","","","","","","","","","","","","","","","",""
"","reward_outcome","","html-keyboard-response","228","1636057","0.0-166.0","0","0","mBvvp","People","","876","","","","40","","14","","14","","","","","","","","","","","","","","","","-1","876","","","","","","","","","","","","","","","","","","","","","","",""
"","fixation","","html-keyboard-response","229","1637065","0.0-169.0","0","0","mBvvp","People","","null","","","","null","","","","","","","","","","","","","","","","","","","","","","","","","","","","","","","","","","","","","","","","","","","",""
"","see_reward","","html-keyboard-response","230","1638290","0.0-170.0","0","0","mBvvp","People","","1223","","","","32","","23","","15","","","","-1","","","","","1","","","","","0","1223","","","","","","","","","","","","","","","","","","","","","","","","",""
"","reward_outcome","","html-keyboard-response","231","1640297","0.0-171.0","0","0","mBvvp","People","","828","","","","40","","23","","15","","","","","","","","","","","","","","","","-1","828","","","","","","","","","","","","","","","","","","","","","","",""
"","fixation","","html-keyboard-response","232","1641304","0.0-174.0","0","0","mBvvp","People","","null","","","","null","","","","","","","","","","","","","","","","","","","","","","","","","","","","","","","","","","","","","","","","","","","",""
"","see_reward","","html-keyboard-response","233","1642586","0.0-175.0","0","0","mBvvp","People","","1280","","","","32","","20","","16","","","","-1","","","","","1","","","","","0","1280","","","","","","","","","","","","","","","","","","","","","","","","",""
"","reward_outcome","","html-keyboard-response","234","1644594","0.0-176.0","0","0","mBvvp","People","","999","","","","40","","20","","16","","","","","","","","","","","","","","","","-1","999","","","","","","","","","","","","","","","","","","","","","","",""
"","fixation","","html-keyboard-response","235","1645600","0.0-179.0","0","0","mBvvp","People","","null","","","","null","","","","","","","","","","","","","","","","","","","","","","","","","","","","","","","","","","","","","","","","","","","",""
"","see_reward","","html-keyboard-response","236","1646667","0.0-180.0","0","0","mBvvp","People","","1065","","","","32","","4","","17","","","","1","","","","","1","","","","","150","1065","","","","","","","","","","","","","","","","","","","","","","","","",""
"","reward_outcome","","html-keyboard-response","237","1648673","0.0-181.0","0","0","mBvvp","People","","1165","","","","38","","4","","17","","","","","","","","","","","","","","","","1","1165","","","","","","","","","","","","","","","","","","","","","","",""
"","fixation","","html-keyboard-response","238","1649681","0.0-184.0","0","0","mBvvp","People","","null","","","","null","","","","","","","","","","","","","","","","","","","","","","","","","","","","","","","","","","","","","","","","","","","",""
"","see_reward","","html-keyboard-response","239","1650651","0.0-185.0","0","0","mBvvp","People","","968","","","","32","","4","","18","","","","1","","","","","1","","","","","150","968","","","","","","","","","","","","","","","","","","","","","","","","",""
"","reward_outcome","","html-keyboard-response","240","1652657","0.0-186.0","0","0","mBvvp","People","","710","","","","38","","4","","18","","","","","","","","","","","","","","","","1","710","","","","","","","","","","","","","","","","","","","","","","",""
"","fixation","","html-keyboard-response","241","1653665","0.0-189.0","0","0","mBvvp","People","","null","","","","null","","","","","","","","","","","","","","","","","","","","","","","","","","","","","","","","","","","","","","","","","","","",""
"","see_reward","","html-keyboard-response","242","1654635","0.0-190.0","0","0","mBvvp","People","","968","","","","32","","35","","19","","","","1","","","","","1","","","","","157","968","","","","","","","","","","","","","","","","","","","","","","","","",""
"","reward_outcome","","html-keyboard-response","243","1656640","0.0-191.0","0","0","mBvvp","People","","974","","","","38","","35","","19","","","","","","","","","","","","","","","","1","974","","","","","","","","","","","","","","","","","","","","","","",""
"","fixation","","html-keyboard-response","244","1657648","0.0-194.0","0","0","mBvvp","People","","null","","","","null","","","","","","","","","","","","","","","","","","","","","","","","","","","","","","","","","","","","","","","","","","","",""
"","see_reward","","html-keyboard-response","245","1658595","0.0-195.0","0","0","mBvvp","People","","945","","","","32","","1","","20","","","","1","","","","","1","","","","","146","945","","","","","","","","","","","","","","","","","","","","","","","","",""
"","reward_outcome","","html-keyboard-response","246","1660601","0.0-196.0","0","0","mBvvp","People","","886","","","","38","","1","","20","","","","","","","","","","","","","","","","1","886","","","","","","","","","","","","","","","","","","","","","","",""
"","fixation","","html-keyboard-response","247","1661609","0.0-199.0","0","0","mBvvp","People","","null","","","","null","","","","","","","","","","","","","","","","","","","","","","","","","","","","","","","","","","","","","","","","","","","",""
"","see_reward","","html-keyboard-response","248","1662540","0.0-200.0","0","0","mBvvp","People","","929","","","","32","","29","","21","","","","-1","","","","","1","","","","","0","929","","","","","","","","","","","","","","","","","","","","","","","","",""
"","reward_outcome","","html-keyboard-response","249","1664545","0.0-201.0","0","0","mBvvp","People","","952","","","","40","","29","","21","","","","","","","","","","","","","","","","-1","952","","","","","","","","","","","","","","","","","","","","","","",""
"","fixation","","html-keyboard-response","250","1665553","0.0-204.0","0","0","mBvvp","People","","null","","","","null","","","","","","","","","","","","","","","","","","","","","","","","","","","","","","","","","","","","","","","","","","","",""
"","see_reward","","html-keyboard-response","251","1666389","0.0-205.0","0","0","mBvvp","People","","833","","","","32","","16","","22","","","","1","","","","","1","","","","","159","833","","","","","","","","","","","","","","","","","","","","","","","","",""
"","reward_outcome","","html-keyboard-response","252","1668393","0.0-206.0","0","0","mBvvp","People","","887","","","","38","","16","","22","","","","","","","","","","","","","","","","1","887","","","","","","","","","","","","","","","","","","","","","","",""
"","fixation","","html-keyboard-response","253","1669400","0.0-209.0","0","0","mBvvp","People","","null","","","","null","","","","","","","","","","","","","","","","","","","","","","","","","","","","","","","","","","","","","","","","","","","",""
"","see_reward","","html-keyboard-response","254","1670245","0.0-210.0","0","0","mBvvp","People","","843","","","","32","","45","","23","","","","1","","","","","1","","","","","159","843","","","","","","","","","","","","","","","","","","","","","","","","",""
"","reward_outcome","","html-keyboard-response","255","1672248","0.0-211.0","0","0","mBvvp","People","","846","","","","38","","45","","23","","","","","","","","","","","","","","","","1","846","","","","","","","","","","","","","","","","","","","","","","",""
"","block_over","","html-keyboard-response","256","1785138","0.0-213.0-0.0","0","0","mBvvp","People","","112888","","","","78","","","","","","","","","","","","","","","","","","","","","","","","","","","","","","","","","","","","","","","","","","","",""
"","fixation","","html-keyboard-response","257","1786145","0.0-214.0","0","0","mBvvp","People","","null","","","","null","","","","","","","","","","","","","","","","","","","","","","","","","","","","","","","","","","","","","","","","","","","",""
"","see_reward","","html-keyboard-response","258","1789738","0.0-215.0","0","0","mBvvp","People","","3591","","","","32","","45","","24","","","","1","","","","","2","","","","","159","3591","","","","","","","","","","","","","","","","","","","","","","","","",""
"","reward_outcome","","html-keyboard-response","259","1791745","0.0-216.0","0","0","mBvvp","People","","998","","","","38","","45","","24","","","","","","","","","","","","","","","","1","998","","","","","","","","","","","","","","","","","","","","","","",""
"","fixation","","html-keyboard-response","260","1792753","0.0-219.0","0","0","mBvvp","People","","null","","","","null","","","","","","","","","","","","","","","","","","","","","","","","","","","","","","","","","","","","","","","","","","","",""
"","see_reward","","html-keyboard-response","261","1793747","0.0-220.0","0","0","mBvvp","People","","991","","","","32","","23","","25","","","","-1","","","","","2","","","","","0","991","","","","","","","","","","","","","","","","","","","","","","","","",""
"","reward_outcome","","html-keyboard-response","262","1795753","0.0-221.0","0","0","mBvvp","People","","862","","","","40","","23","","25","","","","","","","","","","","","","","","","-1","862","","","","","","","","","","","","","","","","","","","","","","",""
"","fixation","","html-keyboard-response","263","1796761","0.0-224.0","0","0","mBvvp","People","","null","","","","null","","","","","","","","","","","","","","","","","","","","","","","","","","","","","","","","","","","","","","","","","","","",""
"","see_reward","","html-keyboard-response","264","1797563","0.0-225.0","0","0","mBvvp","People","","800","","","","32","","20","","26","","","","-1","","","","","2","","","","","0","800","","","","","","","","","","","","","","","","","","","","","","","","",""
"","reward_outcome","","html-keyboard-response","265","1799569","0.0-226.0","0","0","mBvvp","People","","872","","","","40","","20","","26","","","","","","","","","","","","","","","","-1","872","","","","","","","","","","","","","","","","","","","","","","",""
"","fixation","","html-keyboard-response","266","1800577","0.0-229.0","0","0","mBvvp","People","","null","","","","null","","","","","","","","","","","","","","","","","","","","","","","","","","","","","","","","","","","","","","","","","","","",""
"","see_reward","","html-keyboard-response","267","1801460","0.0-230.0","0","0","mBvvp","People","","881","","","","32","","13","","27","","","","1","","","","","2","","","","","147","881","","","","","","","","","","","","","","","","","","","","","","","","",""
"","reward_outcome","","html-keyboard-response","268","1803465","0.0-231.0","0","0","mBvvp","People","","950","","","","38","","13","","27","","","","","","","","","","","","","","","","1","950","","","","","","","","","","","","","","","","","","","","","","",""
"","fixation","","html-keyboard-response","269","1804474","0.0-234.0","0","0","mBvvp","People","","null","","","","null","","","","","","","","","","","","","","","","","","","","","","","","","","","","","","","","","","","","","","","","","","","",""
"","see_reward","","html-keyboard-response","270","1805292","0.0-235.0","0","0","mBvvp","People","","817","","","","32","","29","","28","","","","-1","","","","","2","","","","","0","817","","","","","","","","","","","","","","","","","","","","","","","","",""
"","reward_outcome","","html-keyboard-response","271","1807297","0.0-236.0","0","0","mBvvp","People","","871","","","","40","","29","","28","","","","","","","","","","","","","","","","-1","871","","","","","","","","","","","","","","","","","","","","","","",""
"","fixation","","html-keyboard-response","272","1808305","0.0-239.0","0","0","mBvvp","People","","null","","","","null","","","","","","","","","","","","","","","","","","","","","","","","","","","","","","","","","","","","","","","","","","","",""
"","see_reward","","html-keyboard-response","273","1809117","0.0-240.0","0","0","mBvvp","People","","810","","","","32","","16","","29","","","","1","","","","","2","","","","","159","810","","","","","","","","","","","","","","","","","","","","","","","","",""
"","reward_outcome","","html-keyboard-response","274","1811121","0.0-241.0","0","0","mBvvp","People","","853","","","","38","","16","","29","","","","","","","","","","","","","","","","1","853","","","","","","","","","","","","","","","","","","","","","","",""
"","fixation","","html-keyboard-response","275","1812128","0.0-244.0","0","0","mBvvp","People","","null","","","","null","","","","","","","","","","","","","","","","","","","","","","","","","","","","","","","","","","","","","","","","","","","",""
"","see_reward","","html-keyboard-response","276","1813133","0.0-245.0","0","0","mBvvp","People","","1003","","","","32","","35","","30","","","","1","","","","","2","","","","","157","1003","","","","","","","","","","","","","","","","","","","","","","","","",""
"","reward_outcome","","html-keyboard-response","277","1815137","0.0-246.0","0","0","mBvvp","People","","959","","","","38","","35","","30","","","","","","","","","","","","","","","","1","959","","","","","","","","","","","","","","","","","","","","","","",""
"","fixation","","html-keyboard-response","278","1816144","0.0-249.0","0","0","mBvvp","People","","null","","","","null","","","","","","","","","","","","","","","","","","","","","","","","","","","","","","","","","","","","","","","","","","","",""
"","see_reward","","html-keyboard-response","279","1817134","0.0-250.0","0","0","mBvvp","People","","988","","","","32","","1","","31","","","","1","","","","","2","","","","","146","988","","","","","","","","","","","","","","","","","","","","","","","","",""
"","reward_outcome","","html-keyboard-response","280","1819137","0.0-251.0","0","0","mBvvp","People","","918","","","","38","","1","","31","","","","","","","","","","","","","","","","1","918","","","","","","","","","","","","","","","","","","","","","","",""
"","fixation","","html-keyboard-response","281","1820145","0.0-254.0","0","0","mBvvp","People","","null","","","","null","","","","","","","","","","","","","","","","","","","","","","","","","","","","","","","","","","","","","","","","","","","",""
"","see_reward","","html-keyboard-response","282","1821157","0.0-255.0","0","0","mBvvp","People","","1010","","","","32","","29","","32","","","","-1","","","","","2","","","","","0","1010","","","","","","","","","","","","","","","","","","","","","","","","",""
"","reward_outcome","","html-keyboard-response","283","1823160","0.0-256.0","0","0","mBvvp","People","","679","","","","40","","29","","32","","","","","","","","","","","","","","","","-1","679","","","","","","","","","","","","","","","","","","","","","","",""
"","fixation","","html-keyboard-response","284","1824169","0.0-259.0","0","0","mBvvp","People","","null","","","","null","","","","","","","","","","","","","","","","","","","","","","","","","","","","","","","","","","","","","","","","","","","",""
"","see_reward","","html-keyboard-response","285","1825214","0.0-260.0","0","0","mBvvp","People","","1043","","","","32","","14","","33","","","","-1","","","","","2","","","","","0","1043","","","","","","","","","","","","","","","","","","","","","","","","",""
"","reward_outcome","","html-keyboard-response","286","1827225","0.0-261.0","0","0","mBvvp","People","","1007","","","","40","","14","","33","","","","","","","","","","","","","","","","-1","1007","","","","","","","","","","","","","","","","","","","","","","",""
"","fixation","","html-keyboard-response","287","1828233","0.0-264.0","0","0","mBvvp","People","","null","","","","null","","","","","","","","","","","","","","","","","","","","","","","","","","","","","","","","","","","","","","","","","","","",""
"","see_reward","","html-keyboard-response","288","1829151","0.0-265.0","0","0","mBvvp","People","","916","","","","32","","37","","34","","","","-1","","","","","2","","","","","0","916","","","","","","","","","","","","","","","","","","","","","","","","",""
"","reward_outcome","","html-keyboard-response","289","1831160","0.0-266.0","0","0","mBvvp","People","","822","","","","40","","37","","34","","","","","","","","","","","","","","","","-1","822","","","","","","","","","","","","","","","","","","","","","","",""
"","fixation","","html-keyboard-response","290","1832169","0.0-269.0","0","0","mBvvp","People","","null","","","","null","","","","","","","","","","","","","","","","","","","","","","","","","","","","","","","","","","","","","","","","","","","",""
"","see_reward","","html-keyboard-response","291","1833256","0.0-270.0","0","0","mBvvp","People","","1085","","","","32","","16","","35","","","","1","","","","","2","","","","","159","1085","","","","","","","","","","","","","","","","","","","","","","","","",""
"","reward_outcome","","html-keyboard-response","292","1835265","0.0-271.0","0","0","mBvvp","People","","1158","","","","38","","16","","35","","","","","","","","","","","","","","","","1","1158","","","","","","","","","","","","","","","","","","","","","","",""
"","fixation","","html-keyboard-response","293","1836273","0.0-274.0","0","0","mBvvp","People","","null","","","","null","","","","","","","","","","","","","","","","","","","","","","","","","","","","","","","","","","","","","","","","","","","",""
"","see_reward","","html-keyboard-response","294","1837175","0.0-275.0","0","0","mBvvp","People","","900","","","","32","","4","","36","","","","1","","","","","2","","","","","150","900","","","","","","","","","","","","","","","","","","","","","","","","",""
"","reward_outcome","","html-keyboard-response","295","1839185","0.0-276.0","0","0","mBvvp","People","","831","","","","38","","4","","36","","","","","","","","","","","","","","","","1","831","","","","","","","","","","","","","","","","","","","","","","",""
"","fixation","","html-keyboard-response","296","1840193","0.0-279.0","0","0","mBvvp","People","","null","","","","null","","","","","","","","","","","","","","","","","","","","","","","","","","","","","","","","","","","","","","","","","","","",""
"","see_reward","","html-keyboard-response","297","1841208","0.0-280.0","0","0","mBvvp","People","","1013","","","","32","","13","","37","","","","1","","","","","2","","","","","147","1013","","","","","","","","","","","","","","","","","","","","","","","","",""
"","reward_outcome","","html-keyboard-response","298","1843216","0.0-281.0","0","0","mBvvp","People","","1224","","","","38","","13","","37","","","","","","","","","","","","","","","","1","1224","","","","","","","","","","","","","","","","","","","","","","",""
"","fixation","","html-keyboard-response","299","1844224","0.0-284.0","0","0","mBvvp","People","","null","","","","null","","","","","","","","","","","","","","","","","","","","","","","","","","","","","","","","","","","","","","","","","","","",""
"","see_reward","","html-keyboard-response","300","1845130","0.0-285.0","0","0","mBvvp","People","","905","","","","32","","35","","38","","","","1","","","","","2","","","","","157","905","","","","","","","","","","","","","","","","","","","","","","","","",""
"","reward_outcome","","html-keyboard-response","301","1847136","0.0-286.0","0","0","mBvvp","People","","621","","","","38","","35","","38","","","","","","","","","","","","","","","","1","621","","","","","","","","","","","","","","","","","","","","","","",""
"","fixation","","html-keyboard-response","302","1848144","0.0-289.0","0","0","mBvvp","People","","null","","","","null","","","","","","","","","","","","","","","","","","","","","","","","","","","","","","","","","","","","","","","","","","","",""
"","see_reward","","html-keyboard-response","303","1848995","0.0-290.0","0","0","mBvvp","People","","848","","","","32","","23","","39","","","","-1","","","","","2","","","","","0","848","","","","","","","","","","","","","","","","","","","","","","","","",""
"","reward_outcome","","html-keyboard-response","304","1851001","0.0-291.0","0","0","mBvvp","People","","860","","","","40","","23","","39","","","","","","","","","","","","","","","","-1","860","","","","","","","","","","","","","","","","","","","","","","",""
"","fixation","","html-keyboard-response","305","1852009","0.0-294.0","0","0","mBvvp","People","","null","","","","null","","","","","","","","","","","","","","","","","","","","","","","","","","","","","","","","","","","","","","","","","","","",""
"","see_reward","","html-keyboard-response","306","1852850","0.0-295.0","0","0","mBvvp","People","","839","","","","32","","45","","40","","","","1","","","","","2","","","","","159","839","","","","","","","","","","","","","","","","","","","","","","","","",""
"","reward_outcome","","html-keyboard-response","307","1854857","0.0-296.0","0","0","mBvvp","People","","1046","","","","38","","45","","40","","","","","","","","","","","","","","","","1","1046","","","","","","","","","","","","","","","","","","","","","","",""
"","fixation","","html-keyboard-response","308","1855864","0.0-299.0","0","0","mBvvp","People","","null","","","","null","","","","","","","","","","","","","","","","","","","","","","","","","","","","","","","","","","","","","","","","","","","",""
"","see_reward","","html-keyboard-response","309","1856771","0.0-300.0","0","0","mBvvp","People","","905","","","","32","","24","","41","","","","-1","","","","","2","","","","","0","905","","","","","","","","","","","","","","","","","","","","","","","","",""
"","reward_outcome","","html-keyboard-response","310","1858777","0.0-301.0","0","0","mBvvp","People","","925","","","","40","","24","","41","","","","","","","","","","","","","","","","-1","925","","","","","","","","","","","","","","","","","","","","","","",""
"","fixation","","html-keyboard-response","311","1859784","0.0-304.0","0","0","mBvvp","People","","null","","","","null","","","","","","","","","","","","","","","","","","","","","","","","","","","","","","","","","","","","","","","","","","","",""
"","see_reward","","html-keyboard-response","312","1860794","0.0-305.0","0","0","mBvvp","People","","1008","","","","32","","37","","42","","","","-1","","","","","2","","","","","0","1008","","","","","","","","","","","","","","","","","","","","","","","","",""
"","reward_outcome","","html-keyboard-response","313","1862802","0.0-306.0","0","0","mBvvp","People","","687","","","","40","","37","","42","","","","","","","","","","","","","","","","-1","687","","","","","","","","","","","","","","","","","","","","","","",""
"","fixation","","html-keyboard-response","314","1863808","0.0-309.0","0","0","mBvvp","People","","null","","","","null","","","","","","","","","","","","","","","","","","","","","","","","","","","","","","","","","","","","","","","","","","","",""
"","see_reward","","html-keyboard-response","315","1864634","0.0-310.0","0","0","mBvvp","People","","824","","","","32","","14","","43","","","","-1","","","","","2","","","","","0","824","","","","","","","","","","","","","","","","","","","","","","","","",""
"","reward_outcome","","html-keyboard-response","316","1866641","0.0-311.0","0","0","mBvvp","People","","974","","","","40","","14","","43","","","","","","","","","","","","","","","","-1","974","","","","","","","","","","","","","","","","","","","","","","",""
"","fixation","","html-keyboard-response","317","1867647","0.0-314.0","0","0","mBvvp","People","","null","","","","null","","","","","","","","","","","","","","","","","","","","","","","","","","","","","","","","","","","","","","","","","","","",""
"","see_reward","","html-keyboard-response","318","1868434","0.0-315.0","0","0","mBvvp","People","","785","","","","32","","20","","44","","","","-1","","","","","2","","","","","0","785","","","","","","","","","","","","","","","","","","","","","","","","",""
"","reward_outcome","","html-keyboard-response","319","1870440","0.0-316.0","0","0","mBvvp","People","","903","","","","40","","20","","44","","","","","","","","","","","","","","","","-1","903","","","","","","","","","","","","","","","","","","","","","","",""
"","fixation","","html-keyboard-response","320","1871448","0.0-319.0","0","0","mBvvp","People","","null","","","","null","","","","","","","","","","","","","","","","","","","","","","","","","","","","","","","","","","","","","","","","","","","",""
"","see_reward","","html-keyboard-response","321","1872347","0.0-320.0","0","0","mBvvp","People","","898","","","","32","","4","","45","","","","1","","","","","2","","","","","150","898","","","","","","","","","","","","","","","","","","","","","","","","",""
"","reward_outcome","","html-keyboard-response","322","1874352","0.0-321.0","0","0","mBvvp","People","","1045","","","","38","","4","","45","","","","","","","","","","","","","","","","1","1045","","","","","","","","","","","","","","","","","","","","","","",""
"","fixation","","html-keyboard-response","323","1875360","0.0-324.0","0","0","mBvvp","People","","null","","","","null","","","","","","","","","","","","","","","","","","","","","","","","","","","","","","","","","","","","","","","","","","","",""
"","see_reward","","html-keyboard-response","324","1876211","0.0-325.0","0","0","mBvvp","People","","849","","","","32","","24","","46","","","","-1","","","","","2","","","","","0","849","","","","","","","","","","","","","","","","","","","","","","","","",""
"","reward_outcome","","html-keyboard-response","325","1878216","0.0-326.0","0","0","mBvvp","People","","1087","","","","40","","24","","46","","","","","","","","","","","","","","","","-1","1087","","","","","","","","","","","","","","","","","","","","","","",""
"","fixation","","html-keyboard-response","326","1879224","0.0-329.0","0","0","mBvvp","People","","null","","","","null","","","","","","","","","","","","","","","","","","","","","","","","","","","","","","","","","","","","","","","","","","","",""
"","see_reward","","html-keyboard-response","327","1880147","0.0-330.0","0","0","mBvvp","People","","921","","","","32","","1","","47","","","","1","","","","","2","","","","","146","921","","","","","","","","","","","","","","","","","","","","","","","","",""
"","reward_outcome","","html-keyboard-response","328","1882153","0.0-331.0","0","0","mBvvp","People","","975","","","","38","","1","","47","","","","","","","","","","","","","","","","1","975","","","","","","","","","","","","","","","","","","","","","","",""
"","block_over","","html-keyboard-response","329","1884460","0.0-333.0-0.0","0","0","mBvvp","People","","2305","","","","78","","","","","","","","","","","","","","","","","","","","","","","","","","","","","","","","","","","","","","","","","","","",""
"","fixation","","html-keyboard-response","330","1885464","0.0-334.0","0","0","mBvvp","People","","null","","","","null","","","","","","","","","","","","","","","","","","","","","","","","","","","","","","","","","","","","","","","","","","","",""
"","see_reward","","html-keyboard-response","331","1886317","0.0-335.0","0","0","mBvvp","People","","850","","","","32","","4","","48","","","","1","","","","","3","","","","","150","850","","","","","","","","","","","","","","","","","","","","","","","","",""
"","reward_outcome","","html-keyboard-response","332","1888321","0.0-336.0","0","0","mBvvp","People","","685","","","","38","","4","","48","","","","","","","","","","","","","","","","1","685","","","","","","","","","","","","","","","","","","","","","","",""
"","fixation","","html-keyboard-response","333","1889328","0.0-339.0","0","0","mBvvp","People","","null","","","","null","","","","","","","","","","","","","","","","","","","","","","","","","","","","","","","","","","","","","","","","","","","",""
"","see_reward","","html-keyboard-response","334","1890117","0.0-340.0","0","0","mBvvp","People","","787","","","","32","","14","","49","","","","-1","","","","","3","","","","","0","787","","","","","","","","","","","","","","","","","","","","","","","","",""
"","reward_outcome","","html-keyboard-response","335","1892121","0.0-341.0","0","0","mBvvp","People","","686","","","","40","","14","","49","","","","","","","","","","","","","","","","-1","686","","","","","","","","","","","","","","","","","","","","","","",""
"","fixation","","html-keyboard-response","336","1893129","0.0-344.0","0","0","mBvvp","People","","null","","","","null","","","","","","","","","","","","","","","","","","","","","","","","","","","","","","","","","","","","","","","","","","","",""
"","see_reward","","html-keyboard-response","337","1894055","0.0-345.0","0","0","mBvvp","People","","924","","","","32","","29","","50","","","","-1","","","","","3","","","","","0","924","","","","","","","","","","","","","","","","","","","","","","","","",""
"","reward_outcome","","html-keyboard-response","338","1896065","0.0-346.0","0","0","mBvvp","People","","757","","","","40","","29","","50","","","","","","","","","","","","","","","","-1","757","","","","","","","","","","","","","","","","","","","","","","",""
"","fixation","","html-keyboard-response","339","1897072","0.0-349.0","0","0","mBvvp","People","","null","","","","null","","","","","","","","","","","","","","","","","","","","","","","","","","","","","","","","","","","","","","","","","","","",""
"","see_reward","","html-keyboard-response","340","1897927","0.0-350.0","0","0","mBvvp","People","","852","","","","32","","35","","51","","","","1","","","","","3","","","","","157","852","","","","","","","","","","","","","","","","","","","","","","","","",""
"","reward_outcome","","html-keyboard-response","341","1899937","0.0-351.0","0","0","mBvvp","People","","933","","","","38","","35","","51","","","","","","","","","","","","","","","","1","933","","","","","","","","","","","","","","","","","","","","","","",""
"","fixation","","html-keyboard-response","342","1900946","0.0-354.0","0","0","mBvvp","People","","null","","","","null","","","","","","","","","","","","","","","","","","","","","","","","","","","","","","","","","","","","","","","","","","","",""
"","see_reward","","html-keyboard-response","343","1901847","0.0-355.0","0","0","mBvvp","People","","899","","","","32","","16","","52","","","","1","","","","","3","","","","","159","899","","","","","","","","","","","","","","","","","","","","","","","","",""
"","reward_outcome","","html-keyboard-response","344","1903856","0.0-356.0","0","0","mBvvp","People","","1117","","","","38","","16","","52","","","","","","","","","","","","","","","","1","1117","","","","","","","","","","","","","","","","","","","","","","",""
"","fixation","","html-keyboard-response","345","1904864","0.0-359.0","0","0","mBvvp","People","","null","","","","null","","","","","","","","","","","","","","","","","","","","","","","","","","","","","","","","","","","","","","","","","","","",""
"","see_reward","","html-keyboard-response","346","1906087","0.0-360.0","0","0","mBvvp","People","","1221","","","","32","","13","","53","","","","1","","","","","3","","","","","147","1221","","","","","","","","","","","","","","","","","","","","","","","","",""
"","reward_outcome","","html-keyboard-response","347","1908097","0.0-361.0","0","0","mBvvp","People","","830","","","","38","","13","","53","","","","","","","","","","","","","","","","1","830","","","","","","","","","","","","","","","","","","","","","","",""
"","fixation","","html-keyboard-response","348","1909105","0.0-364.0","0","0","mBvvp","People","","null","","","","null","","","","","","","","","","","","","","","","","","","","","","","","","","","","","","","","","","","","","","","","","","","",""
"","see_reward","","html-keyboard-response","349","1910351","0.0-365.0","0","0","mBvvp","People","","1244","","","","32","","37","","54","","","","-1","","","","","3","","","","","0","1244","","","","","","","","","","","","","","","","","","","","","","","","",""
"","reward_outcome","","html-keyboard-response","350","1912360","0.0-366.0","0","0","mBvvp","People","","991","","","","40","","37","","54","","","","","","","","","","","","","","","","-1","991","","","","","","","","","","","","","","","","","","","","","","",""
"","fixation","","html-keyboard-response","351","1913368","0.0-369.0","0","0","mBvvp","People","","null","","","","null","","","","","","","","","","","","","","","","","","","","","","","","","","","","","","","","","","","","","","","","","","","",""
"","see_reward","","html-keyboard-response","352","1915968","0.0-370.0","0","0","mBvvp","People","","2598","","","","32","","23","","55","","","","-1","","","","","3","","","","","0","2598","","","","","","","","","","","","","","","","","","","","","","","","",""
"","reward_outcome","","html-keyboard-response","353","1917977","0.0-371.0","0","0","mBvvp","People","","966","","","","40","","23","","55","","","","","","","","","","","","","","","","-1","966","","","","","","","","","","","","","","","","","","","","","","",""
