"success","ttype","start_time","trial_type","trial_index","time_elapsed","internal_node_id","warning","missed_checkup","PID","stim_type","view_history","rt","responses","category","repeat_instructions","key_press","response","stimulus_id","painting","index","stimulus_left","stimulus_right","explain_trial","reward_type","rating_left","rating_right","painting_left","painting_right","block","left_chosen","chosen_obj","unchosen_obj","explain_response","reward_amount","see_reward_rt","register_reward_response","register_reward_rt","deliberation_reward_tally","stimulus_left_deliberation_ind","stimulus_right_deliberation_ind","chosen_trial","gain_left","higher_outcome_chosen","old_pair","chosen_object","rt_pairs","left_object_chosen","rt_object","old_response","new_rating","deliberated_stim","initial_rating","outcome_eval_rt","outcome_eval_response","outcome_eval_gain","outcome_eval_acc","preamble","outcome_eval_confidence","outcome_eval_confidence_rt","total_reward_tally"
"true","full_screen","d01182023hr1359","fullscreen","0","9008","0.0-0.0","0","0","SZfNj","People","","","","","","","","","","","","","","","","","","","","","","","","","","","","","","","","","","","","","","","","","","","","","","","","","",""
"","rating_instructions","","instructions","1","15744","0.0-1.0-0.0","0","0","SZfNj","People","[{""page_index"":0,""viewing_time"":4766},{""page_index"":1,""viewing_time"":1964}]","6731","","","","","","","","","","","","","","","","","","","","","","","","","","","","","","","","","","","","","","","","","","","","","","","",""
"","","","survey-multi-choice","2","20074","0.0-1.0-1.0","0","0","SZfNj","People","","4325","{""Q0"":""True"",""Q1"":""Mouse""}","rating_comprehension_check","0","","","","","","","","","","","","","","","","","","","","","","","","","","","","","","","","","","","","","","","","","","","","",""
"","start_phase","","html-keyboard-response","3","22153","0.0-2.0","0","0","SZfNj","People","","2073","","","","78","","","","","","","","","","","","","","","","","","","","","","","","","","","","","","","","","","","","","","","","","","","",""
"","rating","","html-slider-response","4","25330","0.0-3.0","0","0","SZfNj","People","","3173","","","","","40","39","philip-martin-5aGUyCW_PJw-unsplash.jpg","0","","","","","","","","","","","","","","","","","","","","","","","","","","","","","","","","","","","","","","","",""
"","rating","","html-slider-response","5","27482","0.0-4.0","0","0","SZfNj","People","","2148","","","","","59","24","joel-mott-LaK153ghdig-unsplash.jpg","1","","","","","","","","","","","","","","","","","","","","","","","","","","","","","","","","","","","","","","","",""
"","rating","","html-slider-response","6","29273","0.0-5.0","0","0","SZfNj","People","","1788","","","","","67","11","christian-ferrer-8vT-DgHZDG4-unsplash.jpg","2","","","","","","","","","","","","","","","","","","","","","","","","","","","","","","","","","","","","","","","",""
"","rating","","html-slider-response","7","31301","0.0-6.0","0","0","SZfNj","People","","2025","","","","","40","44","rikonavt-HQjfrvdTfak-unsplash.jpg","3","","","","","","","","","","","","","","","","","","","","","","","","","","","","","","","","","","","","","","","",""
"","rating","","html-slider-response","8","33358","0.0-7.0","0","0","SZfNj","People","","2054","","","","","34","45","sarah-noltner-pL5ZzPp1zqg-unsplash.jpg","4","","","","","","","","","","","","","","","","","","","","","","","","","","","","","","","","","","","","","","","",""
"","rating","","html-slider-response","9","35352","0.0-8.0","0","0","SZfNj","People","","1990","","","","","46","40","prince-akachi-4Yv84VgQkRM-unsplash.jpg","5","","","","","","","","","","","","","","","","","","","","","","","","","","","","","","","","","","","","","","","",""
"","rating","","html-slider-response","10","38055","0.0-9.0","0","0","SZfNj","People","","2700","","","","","53","10","charles-etoroma-95UF6LXe-Lo-unsplash.jpg","6","","","","","","","","","","","","","","","","","","","","","","","","","","","","","","","","","","","","","","","",""
"","rating","","html-slider-response","11","40397","0.0-10.0","0","0","SZfNj","People","","2338","","","","","34","9","carlos-andres-gomez-vJuk8Y86mRw-unsplash.jpg","7","","","","","","","","","","","","","","","","","","","","","","","","","","","","","","","","","","","","","","","",""
"","rating","","html-slider-response","12","42515","0.0-11.0","0","0","SZfNj","People","","2116","","","","","55","6","ben-o-bro-C5XyLljkMrY-unsplash.jpg","8","","","","","","","","","","","","","","","","","","","","","","","","","","","","","","","","","","","","","","","",""
"","rating","","html-slider-response","13","44535","0.0-12.0","0","0","SZfNj","People","","2017","","","","","36","0","abstral-official-cyOKLSgkgCE-unsplash.jpg","9","","","","","","","","","","","","","","","","","","","","","","","","","","","","","","","","","","","","","","","",""
"","rating","","html-slider-response","14","46797","0.0-13.0","0","0","SZfNj","People","","2259","","","","","44","29","leilani-angel-K84vnnzxmTQ-unsplash.jpg","10","","","","","","","","","","","","","","","","","","","","","","","","","","","","","","","","","","","","","","","",""
"","rating","","html-slider-response","15","49224","0.0-14.0","0","0","SZfNj","People","","2424","","","","","67","20","houcine-ncib-B4TjXnI0Y2c-unsplash.jpg","11","","","","","","","","","","","","","","","","","","","","","","","","","","","","","","","","","","","","","","","",""
"","rating","","html-slider-response","16","51620","0.0-15.0","0","0","SZfNj","People","","2393","","","","","55","15","gabriel-silverio-u3WmDyKGsrY-unsplash.jpg","12","","","","","","","","","","","","","","","","","","","","","","","","","","","","","","","","","","","","","","","",""
"","rating","","html-slider-response","17","53503","0.0-16.0","0","0","SZfNj","People","","1881","","","","","41","22","jessica-radanavong-mrYkTuAesKE-unsplash.jpg","13","","","","","","","","","","","","","","","","","","","","","","","","","","","","","","","","","","","","","","","",""
"","rating","","html-slider-response","18","56005","0.0-17.0","0","0","SZfNj","People","","2501","","","","","35","41","prince-akachi-i2hoD-C2RUA-unsplash.jpg","14","","","","","","","","","","","","","","","","","","","","","","","","","","","","","","","","","","","","","","","",""
"","rating","","html-slider-response","19","58082","0.0-18.0","0","0","SZfNj","People","","2075","","","","","38","26","juri-gianfrancesco-9EZadYaMzk4-unsplash.jpg","15","","","","","","","","","","","","","","","","","","","","","","","","","","","","","","","","","","","","","","","",""
"","rating","","html-slider-response","20","60399","0.0-19.0","0","0","SZfNj","People","","2313","","","","","66","46","stefan-stefancik-QXevDflbl8A-unsplash.jpg","16","","","","","","","","","","","","","","","","","","","","","","","","","","","","","","","","","","","","","","","",""
"","rating","","html-slider-response","21","62545","0.0-20.0","0","0","SZfNj","People","","2144","","","","","79","34","oliver-johnson-1TUIcKob7Zs-unsplash.jpg","17","","","","","","","","","","","","","","","","","","","","","","","","","","","","","","","","","","","","","","","",""
"","rating","","html-slider-response","22","64635","0.0-21.0","0","0","SZfNj","People","","2087","","","","","58","33","olena-sergienko-0TSd6uCKTKc-unsplash.jpg","18","","","","","","","","","","","","","","","","","","","","","","","","","","","","","","","","","","","","","","","",""
"","rating","","html-slider-response","23","66648","0.0-22.0","0","0","SZfNj","People","","2009","","","","","67","3","art-hauntington-jzY0KRJopEI-unsplash.jpg","19","","","","","","","","","","","","","","","","","","","","","","","","","","","","","","","","","","","","","","","",""
"","rating","","html-slider-response","24","68806","0.0-23.0","0","0","SZfNj","People","","2156","","","","","50","17","gleb-lukomets-paBzWCPN23k-unsplash.jpg","20","","","","","","","","","","","","","","","","","","","","","","","","","","","","","","","","","","","","","","","",""
"","rating","","html-slider-response","25","71070","0.0-24.0","0","0","SZfNj","People","","2263","","","","","39","23","joanna-nix-walkup-H4fEMshfwTE-unsplash.jpg","21","","","","","","","","","","","","","","","","","","","","","","","","","","","","","","","","","","","","","","","",""
"","rating","","html-slider-response","26","73334","0.0-25.0","0","0","SZfNj","People","","2263","","","","","34","49","vicky-hladynets-_gDoyVv5F4c-unsplash.jpg","22","","","","","","","","","","","","","","","","","","","","","","","","","","","","","","","","","","","","","","","",""
"","rating","","html-slider-response","27","76021","0.0-26.0","0","0","SZfNj","People","","2684","","","","","46","19","ha-nguy-n-OFSQ6bHjFjs-unsplash.jpg","23","","","","","","","","","","","","","","","","","","","","","","","","","","","","","","","","","","","","","","","",""
"","rating","","html-slider-response","28","78247","0.0-27.0","0","0","SZfNj","People","","2224","","","","","55","27","jurica-koletic-7YVZYZeITc8-unsplash.jpg","24","","","","","","","","","","","","","","","","","","","","","","","","","","","","","","","","","","","","","","","",""
"","rating","","html-slider-response","29","80075","0.0-28.0","0","0","SZfNj","People","","1825","","","","","43","5","batel-studio-ttSRjiYG_WM-unsplash.jpg","25","","","","","","","","","","","","","","","","","","","","","","","","","","","","","","","","","","","","","","","",""
"","rating","","html-slider-response","30","82415","0.0-29.0","0","0","SZfNj","People","","2338","","","","","47","30","matheus-ferrero-pg_WCHWSdT8-unsplash.jpg","26","","","","","","","","","","","","","","","","","","","","","","","","","","","","","","","","","","","","","","","",""
"","rating","","html-slider-response","31","84533","0.0-30.0","0","0","SZfNj","People","","2114","","","","","38","38","petr-sevcovic-HzDF-rxlSeM-unsplash.jpg","27","","","","","","","","","","","","","","","","","","","","","","","","","","","","","","","","","","","","","","","",""
"","rating","","html-slider-response","32","86686","0.0-31.0","0","0","SZfNj","People","","2150","","","","","50","16","giano-currie-5-9YOsmf8IQ-unsplash.jpg","28","","","","","","","","","","","","","","","","","","","","","","","","","","","","","","","","","","","","","","","",""
"","rating","","html-slider-response","33","88958","0.0-32.0","0","0","SZfNj","People","","2269","","","","","57","1","aiony-haust-jmATI5Q_YgY-unsplash.jpg","29","","","","","","","","","","","","","","","","","","","","","","","","","","","","","","","","","","","","","","","",""
"","rating","","html-slider-response","34","90902","0.0-33.0","0","0","SZfNj","People","","1942","","","","","42","13","erik-lucatero-d2MSDujJl2g-unsplash.jpg","30","","","","","","","","","","","","","","","","","","","","","","","","","","","","","","","","","","","","","","","",""
"","rating","","html-slider-response","35","93013","0.0-34.0","0","0","SZfNj","People","","2109","","","","","41","7","brooke-cagle-HRZUzoX1e6w-unsplash.jpg","31","","","","","","","","","","","","","","","","","","","","","","","","","","","","","","","","","","","","","","","",""
"","rating","","html-slider-response","36","95313","0.0-35.0","0","0","SZfNj","People","","2296","","","","","25","25","joseph-gonzalez-iFgRcqHznqg-unsplash.jpg","32","","","","","","","","","","","","","","","","","","","","","","","","","","","","","","","","","","","","","","","",""
"","rating","","html-slider-response","37","97464","0.0-36.0","0","0","SZfNj","People","","2150","","","","","17","42","prince-akachi-l3IHXOdMyHQ-unsplash.jpg","33","","","","","","","","","","","","","","","","","","","","","","","","","","","","","","","","","","","","","","","",""
"","rating","","html-slider-response","38","99729","0.0-37.0","0","0","SZfNj","People","","2262","","","","","45","31","mathilda-khoo-vLR0YP_otCo-unsplash.jpg","34","","","","","","","","","","","","","","","","","","","","","","","","","","","","","","","","","","","","","","","",""
"","rating","","html-slider-response","39","101862","0.0-38.0","0","0","SZfNj","People","","2129","","","","","54","47","tyler-nix-ZGa9d1a_4tA-unsplash.jpg","35","","","","","","","","","","","","","","","","","","","","","","","","","","","","","","","","","","","","","","","",""
"","rating","","html-slider-response","40","103984","0.0-39.0","0","0","SZfNj","People","","2119","","","","","43","37","pavel-anoshin-d0peGya6R5Y-unsplash.jpg","36","","","","","","","","","","","","","","","","","","","","","","","","","","","","","","","","","","","","","","","",""
"","rating","","html-slider-response","41","106243","0.0-40.0","0","0","SZfNj","People","","2257","","","","","61","12","daniel-rigdon-dXmXKPP2L4E-unsplash.jpg","37","","","","","","","","","","","","","","","","","","","","","","","","","","","","","","","","","","","","","","","",""
"","rating","","html-slider-response","42","108780","0.0-41.0","0","0","SZfNj","People","","2534","","","","","60","28","justin-chen-J7Cf1Gch49E-unsplash.jpg","38","","","","","","","","","","","","","","","","","","","","","","","","","","","","","","","","","","","","","","","",""
"","rating","","html-slider-response","43","111643","0.0-42.0","0","0","SZfNj","People","","2860","","","","","43","4","barna-bartis-2x3vfVxwR7o-unsplash.jpg","39","","","","","","","","","","","","","","","","","","","","","","","","","","","","","","","","","","","","","","","",""
"","rating","","html-slider-response","44","113761","0.0-43.0","0","0","SZfNj","People","","2115","","","","","57","2","arjunsyah-TBUA5KHJn6k-unsplash.jpg","40","","","","","","","","","","","","","","","","","","","","","","","","","","","","","","","","","","","","","","","",""
"","rating","","html-slider-response","45","115771","0.0-44.0","0","0","SZfNj","People","","2007","","","","","40","21","jessica-felicio-_cvwXhGqG-o-unsplash.jpg","41","","","","","","","","","","","","","","","","","","","","","","","","","","","","","","","","","","","","","","","",""
"","rating","","html-slider-response","46","118477","0.0-45.0","0","0","SZfNj","People","","2704","","","","","55","43","raamin-ka-0qJBEzudn5E-unsplash.jpg","42","","","","","","","","","","","","","","","","","","","","","","","","","","","","","","","","","","","","","","","",""
"","rating","","html-slider-response","47","121077","0.0-46.0","0","0","SZfNj","People","","2597","","","","","41","18","good-faces-xmSWVeGEnJw-unsplash.jpg","43","","","","","","","","","","","","","","","","","","","","","","","","","","","","","","","","","","","","","","","",""
"","rating","","html-slider-response","48","123460","0.0-47.0","0","0","SZfNj","People","","2380","","","","","32","32","nathan-dumlao-ger61_TX6oI-unsplash.jpg","44","","","","","","","","","","","","","","","","","","","","","","","","","","","","","","","","","","","","","","","",""
"","rating","","html-slider-response","49","125443","0.0-48.0","0","0","SZfNj","People","","1979","","","","","55","48","velizar-ivanov-7ktP9yZA1g4-unsplash.jpg","45","","","","","","","","","","","","","","","","","","","","","","","","","","","","","","","","","","","","","","","",""
"","rating","","html-slider-response","50","127333","0.0-49.0","0","0","SZfNj","People","","1887","","","","","38","14","freddy-kearney-o-ioeoATbIM-unsplash.jpg","46","","","","","","","","","","","","","","","","","","","","","","","","","","","","","","","","","","","","","","","",""
"","rating","","html-slider-response","51","129848","0.0-50.0","0","0","SZfNj","People","","2512","","","","","19","35","oliver-ragfelt-khV4fTy6-D8-unsplash.jpg","47","","","","","","","","","","","","","","","","","","","","","","","","","","","","","","","","","","","","","","","",""
"","rating","","html-slider-response","52","132538","0.0-51.0","0","0","SZfNj","People","","2688","","","","","42","8","bruce-dixon-3M9WJQVHzog-unsplash.jpg","48","","","","","","","","","","","","","","","","","","","","","","","","","","","","","","","","","","","","","","","",""
"","rating","","html-slider-response","53","135652","0.0-52.0","0","0","SZfNj","People","","3112","","","","","58","36","ospan-ali-mGdA2fzjWLo-unsplash.jpg","49","","","","","","","","","","","","","","","","","","","","","","","","","","","","","","","","","","","","","","","",""
"","deliberation_instructions","","instructions","54","178318","0.0-53.0-0.0","0","0","SZfNj","People","[{""page_index"":0,""viewing_time"":10776},{""page_index"":1,""viewing_time"":7608},{""page_index"":2,""viewing_time"":12722},{""page_index"":3,""viewing_time"":9400},{""page_index"":4,""viewing_time"":2155}]","42661","","","","","","","","","","","","","","","","","","","","","","","","","","","","","","","","","","","","","","","","","","","","","","","",""
"","","","survey-multi-choice","55","200555","0.0-53.0-1.0","0","0","SZfNj","People","","22231","{""Q0"":""True"",""Q1"":""True"",""Q2"":""Consider carefully and take your time (up to 10 seconds)"",""Q3"":""True"",""Q4"":""D""}","deliberation_comprehension_check","0","","","","","","","","","","","","","","","","","","","","","","","","","","","","","","","","","","","","","","","","","","","","",""
"","start_phase","","html-keyboard-response","56","202672","0.0-54.0","0","0","SZfNj","People","","2113","","","","78","","","","","","","","","","","","","","","","","","","","","","","","","","","","","","","","","","","","","","","","","","","",""
"","first_deliberation_block","","html-keyboard-response","57","205196","0.0-55.0","0","0","SZfNj","People","","2523","","","","78","","","","","","","","","","","","","","","","","","","","","","","","","","","","","","","","","","","","","","","","","","","",""
"","fixation","","html-keyboard-response","58","206210","0.0-56.0-0.0","0","0","SZfNj","People","","null","","","","null","","","","","","","","","","","","","","","","","","","","","","","","","","","","","","","","","","","","","","","","","","","",""
"","deliberation","","html-keyboard-response","59","207824","0.0-56.0-1.0","0","0","SZfNj","People","","1612","","","","75","","","","0","37","43","0","1","43","55","pavel-anoshin-d0peGya6R5Y-unsplash.jpg","raamin-ka-0qJBEzudn5E-unsplash.jpg","1","0","43","37","","","","","","","","","","","","","","","","","","","","","","","","","","","",""
"","choice_confirmation","","html-keyboard-response","60","208337","0.0-56.0-2.0-0.0","0","0","SZfNj","People","","null","","","","null","","","","0","37","43","","","","","","","","","","","","","","","","","","","","","","","","","","","","","","","","","","","","","",""
"","fixation","","html-keyboard-response","61","209343","0.0-57.0-0.0","0","0","SZfNj","People","","null","","","","null","","","","","","","","","","","","","","","","","","","","","","","","","","","","","","","","","","","","","","","","","","","",""
"","deliberation","","html-keyboard-response","62","212537","0.0-57.0-1.0","0","0","SZfNj","People","","3192","","","","75","","","","1","18","31","1","1","41","45","good-faces-xmSWVeGEnJw-unsplash.jpg","mathilda-khoo-vLR0YP_otCo-unsplash.jpg","1","0","31","18","","","","","","","","","","","","","","","","","","","","","","","","","","","",""
"","choice_confirmation","","html-keyboard-response","63","213052","0.0-57.0-2.0-0.0","0","0","SZfNj","People","","null","","","","null","","","","1","18","31","","","","","","","","","","","","","","","","","","","","","","","","","","","","","","","","","","","","","",""
"","explain_trial","","survey-text","64","230603","0.0-57.0-5.0-0.0","0","0","SZfNj","People","","17548","{""Q0"":""There is more art and human suffering in this one and will draw more buyers.""}","","","","","","","1","18","31","","","","","","","","","","","{""Q0"":""There is more art and human suffering in this one and will draw more buyers.""}","","","","","","","","","","","","","","","","","","","","","","","","","","",""
"","fixation","","html-keyboard-response","65","231612","0.0-58.0-0.0","0","0","SZfNj","People","","null","","","","null","","","","","","","","","","","","","","","","","","","","","","","","","","","","","","","","","","","","","","","","","","","",""
"","deliberation","","html-keyboard-response","66","235124","0.0-58.0-1.0","0","0","SZfNj","People","","3509","","","","68","","","","2","17","13","0","-1","50","42","gleb-lukomets-paBzWCPN23k-unsplash.jpg","erik-lucatero-d2MSDujJl2g-unsplash.jpg","1","1","17","13","","","","","","","","","","","","","","","","","","","","","","","","","","","",""
"","choice_confirmation","","html-keyboard-response","67","235626","0.0-58.0-2.0-0.0","0","0","SZfNj","People","","null","","","","null","","","","2","17","13","","","","","","","","","","","","","","","","","","","","","","","","","","","","","","","","","","","","","",""
"","fixation","","html-keyboard-response","68","236638","0.0-59.0-0.0","0","0","SZfNj","People","","null","","","","null","","","","","","","","","","","","","","","","","","","","","","","","","","","","","","","","","","","","","","","","","","","",""
"","deliberation","","html-keyboard-response","69","239257","0.0-59.0-1.0","0","0","SZfNj","People","","2617","","","","68","","","","3","16","21","0","-1","50","40","giano-currie-5-9YOsmf8IQ-unsplash.jpg","jessica-felicio-_cvwXhGqG-o-unsplash.jpg","1","1","16","21","","","","","","","","","","","","","","","","","","","","","","","","","","","",""
"","choice_confirmation","","html-keyboard-response","70","239770","0.0-59.0-2.0-0.0","0","0","SZfNj","People","","null","","","","null","","","","3","16","21","","","","","","","","","","","","","","","","","","","","","","","","","","","","","","","","","","","","","",""
"","fixation","","html-keyboard-response","71","240778","0.0-60.0-0.0","0","0","SZfNj","People","","null","","","","null","","","","","","","","","","","","","","","","","","","","","","","","","","","","","","","","","","","","","","","","","","","",""
"","deliberation","","html-keyboard-response","72","241946","0.0-60.0-1.0","0","0","SZfNj","People","","1166","","","","75","","","","4","44","10","0","1","40","53","rikonavt-HQjfrvdTfak-unsplash.jpg","charles-etoroma-95UF6LXe-Lo-unsplash.jpg","1","0","10","44","","","","","","","","","","","","","","","","","","","","","","","","","","","",""
"","choice_confirmation","","html-keyboard-response","73","242454","0.0-60.0-2.0-0.0","0","0","SZfNj","People","","null","","","","null","","","","4","44","10","","","","","","","","","","","","","","","","","","","","","","","","","","","","","","","","","","","","","",""
"","fixation","","html-keyboard-response","74","243469","0.0-61.0-0.0","0","0","SZfNj","People","","null","","","","null","","","","","","","","","","","","","","","","","","","","","","","","","","","","","","","","","","","","","","","","","","","",""
"","deliberation","","html-keyboard-response","75","245016","0.0-61.0-1.0","0","0","SZfNj","People","","1545","","","","68","","","","5","5","27","1","-1","43","55","batel-studio-ttSRjiYG_WM-unsplash.jpg","jurica-koletic-7YVZYZeITc8-unsplash.jpg","1","1","5","27","","","","","","","","","","","","","","","","","","","","","","","","","","","",""
"","choice_confirmation","","html-keyboard-response","76","245521","0.0-61.0-2.0-0.0","0","0","SZfNj","People","","null","","","","null","","","","5","5","27","","","","","","","","","","","","","","","","","","","","","","","","","","","","","","","","","","","","","",""
"","explain_trial","","survey-text","77","255275","0.0-61.0-5.0-0.0","0","0","SZfNj","People","","9751","{""Q0"":""This one has more color and vibrancy""}","","","","","","","5","5","27","","","","","","","","","","","{""Q0"":""This one has more color and vibrancy""}","","","","","","","","","","","","","","","","","","","","","","","","","","",""
"","fixation","","html-keyboard-response","78","256282","0.0-62.0-0.0","0","0","SZfNj","People","","null","","","","null","","","","","","","","","","","","","","","","","","","","","","","","","","","","","","","","","","","","","","","","","","","",""
"","deliberation","","html-keyboard-response","79","258218","0.0-62.0-1.0","0","0","SZfNj","People","","1935","","","","75","","","","6","40","7","1","1","46","41","prince-akachi-4Yv84VgQkRM-unsplash.jpg","brooke-cagle-HRZUzoX1e6w-unsplash.jpg","1","0","7","40","","","","","","","","","","","","","","","","","","","","","","","","","","","",""
"","choice_confirmation","","html-keyboard-response","80","258724","0.0-62.0-2.0-0.0","0","0","SZfNj","People","","null","","","","null","","","","6","40","7","","","","","","","","","","","","","","","","","","","","","","","","","","","","","","","","","","","","","",""
"","explain_trial","","survey-text","81","271459","0.0-62.0-5.0-0.0","0","0","SZfNj","People","","12732","{""Q0"":""The sheer emotion shown in this one is moving""}","","","","","","","6","40","7","","","","","","","","","","","{""Q0"":""The sheer emotion shown in this one is moving""}","","","","","","","","","","","","","","","","","","","","","","","","","","",""
"","fixation","","html-keyboard-response","82","272471","0.0-63.0-0.0","0","0","SZfNj","People","","null","","","","null","","","","","","","","","","","","","","","","","","","","","","","","","","","","","","","","","","","","","","","","","","","",""
"","deliberation","","html-keyboard-response","83","274862","0.0-63.0-1.0","0","0","SZfNj","People","","2388","","","","68","","","","7","15","8","1","-1","55","42","gabriel-silverio-u3WmDyKGsrY-unsplash.jpg","bruce-dixon-3M9WJQVHzog-unsplash.jpg","1","1","15","8","","","","","","","","","","","","","","","","","","","","","","","","","","","",""
"","choice_confirmation","","html-keyboard-response","84","275372","0.0-63.0-2.0-0.0","0","0","SZfNj","People","","null","","","","null","","","","7","15","8","","","","","","","","","","","","","","","","","","","","","","","","","","","","","","","","","","","","","",""
"","explain_trial","","survey-text","85","289653","0.0-63.0-5.0-0.0","0","0","SZfNj","People","","14280","{""Q0"":""She is the more attractive subject and her freckles stand out""}","","","","","","","7","15","8","","","","","","","","","","","{""Q0"":""She is the more attractive subject and her freckles stand out""}","","","","","","","","","","","","","","","","","","","","","","","","","","",""
"","fixation","","html-keyboard-response","86","290659","0.0-64.0-0.0","0","0","SZfNj","People","","null","","","","null","","","","","","","","","","","","","","","","","","","","","","","","","","","","","","","","","","","","","","","","","","","",""
"","deliberation","","html-keyboard-response","87","293076","0.0-64.0-1.0","0","0","SZfNj","People","","2414","","","","75","","","","8","4","19","0","-1","43","46","barna-bartis-2x3vfVxwR7o-unsplash.jpg","ha-nguy-n-OFSQ6bHjFjs-unsplash.jpg","1","0","19","4","","","","","","","","","","","","","","","","","","","","","","","","","","","",""
"","choice_confirmation","","html-keyboard-response","88","293592","0.0-64.0-2.0-0.0","0","0","SZfNj","People","","null","","","","null","","","","8","4","19","","","","","","","","","","","","","","","","","","","","","","","","","","","","","","","","","","","","","",""
"","fixation","","html-keyboard-response","89","294608","0.0-65.0-0.0","0","0","SZfNj","People","","null","","","","null","","","","","","","","","","","","","","","","","","","","","","","","","","","","","","","","","","","","","","","","","","","",""
"","deliberation","","html-keyboard-response","90","296871","0.0-65.0-1.0","0","0","SZfNj","People","","2259","","","","75","","","","9","22","30","1","-1","41","47","jessica-radanavong-mrYkTuAesKE-unsplash.jpg","matheus-ferrero-pg_WCHWSdT8-unsplash.jpg","1","0","30","22","","","","","","","","","","","","","","","","","","","","","","","","","","","",""
"","choice_confirmation","","html-keyboard-response","91","297386","0.0-65.0-2.0-0.0","0","0","SZfNj","People","","null","","","","null","","","","9","22","30","","","","","","","","","","","","","","","","","","","","","","","","","","","","","","","","","","","","","",""
"","explain_trial","","survey-text","92","309245","0.0-65.0-5.0-0.0","0","0","SZfNj","People","","11855","{""Q0"":""The background and subject are more interesting""}","","","","","","","9","22","30","","","","","","","","","","","{""Q0"":""The background and subject are more interesting""}","","","","","","","","","","","","","","","","","","","","","","","","","","",""
"","fixation","","html-keyboard-response","93","310255","0.0-66.0-0.0","0","0","SZfNj","People","","null","","","","null","","","","","","","","","","","","","","","","","","","","","","","","","","","","","","","","","","","","","","","","","","","",""
"","deliberation","","html-keyboard-response","94","312181","0.0-66.0-1.0","0","0","SZfNj","People","","1924","","","","68","","","","10","6","29","1","1","55","44","ben-o-bro-C5XyLljkMrY-unsplash.jpg","leilani-angel-K84vnnzxmTQ-unsplash.jpg","1","1","6","29","","","","","","","","","","","","","","","","","","","","","","","","","","","",""
"","choice_confirmation","","html-keyboard-response","95","312690","0.0-66.0-2.0-0.0","0","0","SZfNj","People","","null","","","","null","","","","10","6","29","","","","","","","","","","","","","","","","","","","","","","","","","","","","","","","","","","","","","",""
"","explain_trial","","survey-text","96","321909","0.0-66.0-5.0-0.0","0","0","SZfNj","People","","9216","{""Q0"":""More happiness and sheer emotion is conveyed""}","","","","","","","10","6","29","","","","","","","","","","","{""Q0"":""More happiness and sheer emotion is conveyed""}","","","","","","","","","","","","","","","","","","","","","","","","","","",""
"","fixation","","html-keyboard-response","97","322919","0.0-67.0-0.0","0","0","SZfNj","People","","null","","","","null","","","","","","","","","","","","","","","","","","","","","","","","","","","","","","","","","","","","","","","","","","","",""
"","deliberation","","html-keyboard-response","98","324777","0.0-67.0-1.0","0","0","SZfNj","People","","1855","","","","75","","","","11","47","39","0","1","54","40","tyler-nix-ZGa9d1a_4tA-unsplash.jpg","philip-martin-5aGUyCW_PJw-unsplash.jpg","1","0","39","47","","","","","","","","","","","","","","","","","","","","","","","","","","","",""
"","choice_confirmation","","html-keyboard-response","99","325286","0.0-67.0-2.0-0.0","0","0","SZfNj","People","","null","","","","null","","","","11","47","39","","","","","","","","","","","","","","","","","","","","","","","","","","","","","","","","","","","","","",""
"","practice_deliberation_again","","html-keyboard-response","100","330521","0.0-67.0-6.0-0.0","0","0","SZfNj","People","","5233","","","","78","","","","","","","","","","","","","","","","","","","","","","","","","","","","","","","","","","","","","","","","","","","",""
"","fixation","","html-keyboard-response","101","331537","0.0-68.0-0.0","0","0","SZfNj","People","","null","","","","null","","","","","","","","","","","","","","","","","","","","","","","","","","","","","","","","","","","","","","","","","","","",""
"","deliberation","","html-keyboard-response","102","334674","0.0-68.0-1.0","0","0","SZfNj","People","","3133","","","","75","","","","12","44","10","1","1","40","53","rikonavt-HQjfrvdTfak-unsplash.jpg","charles-etoroma-95UF6LXe-Lo-unsplash.jpg","2","0","10","44","","","","","","","","","","","","","","","","","","","","","","","","","","","",""
"","choice_confirmation","","html-keyboard-response","103","335186","0.0-68.0-2.0-0.0","0","0","SZfNj","People","","null","","","","null","","","","12","44","10","","","","","","","","","","","","","","","","","","","","","","","","","","","","","","","","","","","","","",""
"","explain_trial","","survey-text","104","350448","0.0-68.0-5.0-0.0","0","0","SZfNj","People","","15259","{""Q0"":""The emotion is more vibrant the background more attractive""}","","","","","","","12","44","10","","","","","","","","","","","{""Q0"":""The emotion is more vibrant the background more attractive""}","","","","","","","","","","","","","","","","","","","","","","","","","","",""
"","fixation","","html-keyboard-response","105","351466","0.0-69.0-0.0","0","0","SZfNj","People","","null","","","","null","","","","","","","","","","","","","","","","","","","","","","","","","","","","","","","","","","","","","","","","","","","",""
"","deliberation","","html-keyboard-response","106","353440","0.0-69.0-1.0","0","0","SZfNj","People","","1971","","","","75","","","","13","4","19","1","-1","43","46","barna-bartis-2x3vfVxwR7o-unsplash.jpg","ha-nguy-n-OFSQ6bHjFjs-unsplash.jpg","2","0","19","4","","","","","","","","","","","","","","","","","","","","","","","","","","","",""
"","choice_confirmation","","html-keyboard-response","107","353951","0.0-69.0-2.0-0.0","0","0","SZfNj","People","","null","","","","null","","","","13","4","19","","","","","","","","","","","","","","","","","","","","","","","","","","","","","","","","","","","","","",""
"","explain_trial","","survey-text","108","368002","0.0-69.0-5.0-0.0","0","0","SZfNj","People","","14047","{""Q0"":""The emotions are more raw and the subject more attractive""}","","","","","","","13","4","19","","","","","","","","","","","{""Q0"":""The emotions are more raw and the subject more attractive""}","","","","","","","","","","","","","","","","","","","","","","","","","","",""
"","fixation","","html-keyboard-response","109","369012","0.0-70.0-0.0","0","0","SZfNj","People","","null","","","","null","","","","","","","","","","","","","","","","","","","","","","","","","","","","","","","","","","","","","","","","","","","",""
"","deliberation","","html-keyboard-response","110","370933","0.0-70.0-1.0","0","0","SZfNj","People","","1919","","","","75","","","","14","40","7","0","1","46","41","prince-akachi-4Yv84VgQkRM-unsplash.jpg","brooke-cagle-HRZUzoX1e6w-unsplash.jpg","2","0","7","40","","","","","","","","","","","","","","","","","","","","","","","","","","","",""
"","choice_confirmation","","html-keyboard-response","111","371440","0.0-70.0-2.0-0.0","0","0","SZfNj","People","","null","","","","null","","","","14","40","7","","","","","","","","","","","","","","","","","","","","","","","","","","","","","","","","","","","","","",""
"","fixation","","html-keyboard-response","112","372449","0.0-71.0-0.0","0","0","SZfNj","People","","null","","","","null","","","","","","","","","","","","","","","","","","","","","","","","","","","","","","","","","","","","","","","","","","","",""
"","deliberation","","html-keyboard-response","113","373794","0.0-71.0-1.0","0","0","SZfNj","People","","1344","","","","75","","","","15","18","31","0","1","41","45","good-faces-xmSWVeGEnJw-unsplash.jpg","mathilda-khoo-vLR0YP_otCo-unsplash.jpg","2","0","31","18","","","","","","","","","","","","","","","","","","","","","","","","","","","",""
"","choice_confirmation","","html-keyboard-response","114","374307","0.0-71.0-2.0-0.0","0","0","SZfNj","People","","null","","","","null","","","","15","18","31","","","","","","","","","","","","","","","","","","","","","","","","","","","","","","","","","","","","","",""
"","fixation","","html-keyboard-response","115","375324","0.0-72.0-0.0","0","0","SZfNj","People","","null","","","","null","","","","","","","","","","","","","","","","","","","","","","","","","","","","","","","","","","","","","","","","","","","",""
"","deliberation","","html-keyboard-response","116","377019","0.0-72.0-1.0","0","0","SZfNj","People","","1693","","","","68","","","","16","17","13","1","-1","50","42","gleb-lukomets-paBzWCPN23k-unsplash.jpg","erik-lucatero-d2MSDujJl2g-unsplash.jpg","2","1","17","13","","","","","","","","","","","","","","","","","","","","","","","","","","","",""
"","choice_confirmation","","html-keyboard-response","117","377530","0.0-72.0-2.0-0.0","0","0","SZfNj","People","","null","","","","null","","","","16","17","13","","","","","","","","","","","","","","","","","","","","","","","","","","","","","","","","","","","","","",""
"","explain_trial","","survey-text","118","393095","0.0-72.0-5.0-0.0","0","0","SZfNj","People","","15560","{""Q0"":""The subject is much more beautiful and her choice of outfit is interesting""}","","","","","","","16","17","13","","","","","","","","","","","{""Q0"":""The subject is much more beautiful and her choice of outfit is interesting""}","","","","","","","","","","","","","","","","","","","","","","","","","","",""
"","fixation","","html-keyboard-response","119","394106","0.0-73.0-0.0","0","0","SZfNj","People","","null","","","","null","","","","","","","","","","","","","","","","","","","","","","","","","","","","","","","","","","","","","","","","","","","",""
"","deliberation","","html-keyboard-response","120","396451","0.0-73.0-1.0","0","0","SZfNj","People","","2343","","","","68","","","","17","16","21","1","-1","50","40","giano-currie-5-9YOsmf8IQ-unsplash.jpg","jessica-felicio-_cvwXhGqG-o-unsplash.jpg","2","1","16","21","","","","","","","","","","","","","","","","","","","","","","","","","","","",""
"","choice_confirmation","","html-keyboard-response","121","396959","0.0-73.0-2.0-0.0","0","0","SZfNj","People","","null","","","","null","","","","17","16","21","","","","","","","","","","","","","","","","","","","","","","","","","","","","","","","","","","","","","",""
"","explain_trial","","survey-text","122","409339","0.0-73.0-5.0-0.0","0","0","SZfNj","People","","12377","{""Q0"":""The subject is more interesting and bold""}","","","","","","","17","16","21","","","","","","","","","","","{""Q0"":""The subject is more interesting and bold""}","","","","","","","","","","","","","","","","","","","","","","","","","","",""
"","fixation","","html-keyboard-response","123","410351","0.0-74.0-0.0","0","0","SZfNj","People","","null","","","","null","","","","","","","","","","","","","","","","","","","","","","","","","","","","","","","","","","","","","","","","","","","",""
"","deliberation","","html-keyboard-response","124","412598","0.0-74.0-1.0","0","0","SZfNj","People","","2244","","","","68","","","","18","5","27","0","-1","43","55","batel-studio-ttSRjiYG_WM-unsplash.jpg","jurica-koletic-7YVZYZeITc8-unsplash.jpg","2","1","5","27","","","","","","","","","","","","","","","","","","","","","","","","","","","",""
"","choice_confirmation","","html-keyboard-response","125","413104","0.0-74.0-2.0-0.0","0","0","SZfNj","People","","null","","","","null","","","","18","5","27","","","","","","","","","","","","","","","","","","","","","","","","","","","","","","","","","","","","","",""
"","fixation","","html-keyboard-response","126","414111","0.0-75.0-0.0","0","0","SZfNj","People","","null","","","","null","","","","","","","","","","","","","","","","","","","","","","","","","","","","","","","","","","","","","","","","","","","",""
"","deliberation","","html-keyboard-response","127","416212","0.0-75.0-1.0","0","0","SZfNj","People","","2098","","","","68","","","","19","6","29","0","1","55","44","ben-o-bro-C5XyLljkMrY-unsplash.jpg","leilani-angel-K84vnnzxmTQ-unsplash.jpg","2","1","6","29","","","","","","","","","","","","","","","","","","","","","","","","","","","",""
"","choice_confirmation","","html-keyboard-response","128","416725","0.0-75.0-2.0-0.0","0","0","SZfNj","People","","null","","","","null","","","","19","6","29","","","","","","","","","","","","","","","","","","","","","","","","","","","","","","","","","","","","","",""
"","fixation","","html-keyboard-response","129","417741","0.0-76.0-0.0","0","0","SZfNj","People","","null","","","","null","","","","","","","","","","","","","","","","","","","","","","","","","","","","","","","","","","","","","","","","","","","",""
"","deliberation","","html-keyboard-response","130","419905","0.0-76.0-1.0","0","0","SZfNj","People","","2161","","","","75","","","","20","47","39","1","1","54","40","tyler-nix-ZGa9d1a_4tA-unsplash.jpg","philip-martin-5aGUyCW_PJw-unsplash.jpg","2","0","39","47","","","","","","","","","","","","","","","","","","","","","","","","","","","",""
"","choice_confirmation","","html-keyboard-response","131","420414","0.0-76.0-2.0-0.0","0","0","SZfNj","People","","null","","","","null","","","","20","47","39","","","","","","","","","","","","","","","","","","","","","","","","","","","","","","","","","","","","","",""
"","explain_trial","","survey-text","132","437719","0.0-76.0-5.0-0.0","0","0","SZfNj","People","","17302","{""Q0"":""The city in the background is much more interesting than the plain background in the other.""}","","","","","","","20","47","39","","","","","","","","","","","{""Q0"":""The city in the background is much more interesting than the plain background in the other.""}","","","","","","","","","","","","","","","","","","","","","","","","","","",""
"","fixation","","html-keyboard-response","133","438725","0.0-77.0-0.0","0","0","SZfNj","People","","null","","","","null","","","","","","","","","","","","","","","","","","","","","","","","","","","","","","","","","","","","","","","","","","","",""
"","deliberation","","html-keyboard-response","134","440831","0.0-77.0-1.0","0","0","SZfNj","People","","2103","","","","75","","","","21","37","43","1","1","43","55","pavel-anoshin-d0peGya6R5Y-unsplash.jpg","raamin-ka-0qJBEzudn5E-unsplash.jpg","2","0","43","37","","","","","","","","","","","","","","","","","","","","","","","","","","","",""
"","choice_confirmation","","html-keyboard-response","135","441341","0.0-77.0-2.0-0.0","0","0","SZfNj","People","","null","","","","null","","","","21","37","43","","","","","","","","","","","","","","","","","","","","","","","","","","","","","","","","","","","","","",""
"","explain_trial","","survey-text","136","454039","0.0-77.0-5.0-0.0","0","0","SZfNj","People","","12695","{""Q0"":""The subject is much more kind and attractive""}","","","","","","","21","37","43","","","","","","","","","","","{""Q0"":""The subject is much more kind and attractive""}","","","","","","","","","","","","","","","","","","","","","","","","","","",""
"","fixation","","html-keyboard-response","137","455045","0.0-78.0-0.0","0","0","SZfNj","People","","null","","","","null","","","","","","","","","","","","","","","","","","","","","","","","","","","","","","","","","","","","","","","","","","","",""
"","deliberation","","html-keyboard-response","138","457877","0.0-78.0-1.0","0","0","SZfNj","People","","2829","","","","75","","","","22","22","30","0","-1","41","47","jessica-radanavong-mrYkTuAesKE-unsplash.jpg","matheus-ferrero-pg_WCHWSdT8-unsplash.jpg","2","0","30","22","","","","","","","","","","","","","","","","","","","","","","","","","","","",""
"","choice_confirmation","","html-keyboard-response","139","458381","0.0-78.0-2.0-0.0","0","0","SZfNj","People","","null","","","","null","","","","22","22","30","","","","","","","","","","","","","","","","","","","","","","","","","","","","","","","","","","","","","",""
"","fixation","","html-keyboard-response","140","459391","0.0-79.0-0.0","0","0","SZfNj","People","","null","","","","null","","","","","","","","","","","","","","","","","","","","","","","","","","","","","","","","","","","","","","","","","","","",""
"","deliberation","","html-keyboard-response","141","460640","0.0-79.0-1.0","0","0","SZfNj","People","","1247","","","","68","","","","23","15","8","0","-1","55","42","gabriel-silverio-u3WmDyKGsrY-unsplash.jpg","bruce-dixon-3M9WJQVHzog-unsplash.jpg","2","1","15","8","","","","","","","","","","","","","","","","","","","","","","","","","","","",""
"","choice_confirmation","","html-keyboard-response","142","461158","0.0-79.0-2.0-0.0","0","0","SZfNj","People","","null","","","","null","","","","23","15","8","","","","","","","","","","","","","","","","","","","","","","","","","","","","","","","","","","","","","",""
"","start_critical_deliberation_block","","html-keyboard-response","143","464394","0.0-79.0-7.0-0.0","0","0","SZfNj","People","","3235","","","","78","","","","","","","","","","","","","","","","","","","","","","","","","","","","","","","","","","","","","","","","","","","",""
"","fixation","","html-keyboard-response","144","465407","0.0-80.0-0.0","0","0","SZfNj","People","","null","","","","null","","","","","","","","","","","","","","","","","","","","","","","","","","","","","","","","","","","","","","","","","","","",""
"","deliberation","","html-keyboard-response","145","468235","0.0-80.0-1.0","0","0","SZfNj","People","","2825","","","","75","","","","24","37","43","0","1","43","55","pavel-anoshin-d0peGya6R5Y-unsplash.jpg","raamin-ka-0qJBEzudn5E-unsplash.jpg","3","0","43","37","","","","","","","","","","","","","","","","","","","","","","","","","","","",""
"","choice_confirmation","","html-keyboard-response","146","468747","0.0-80.0-2.0-0.0","0","0","SZfNj","People","","null","","","","null","","","","24","37","43","","","","","","","","","","","","","","","","","","","","","","","","","","","","","","","","","","","","","",""
"","fixation","","html-keyboard-response","147","469757","0.0-81.0-0.0","0","0","SZfNj","People","","null","","","","null","","","","","","","","","","","","","","","","","","","","","","","","","","","","","","","","","","","","","","","","","","","",""
"","deliberation","","html-keyboard-response","148","471018","0.0-81.0-1.0","0","0","SZfNj","People","","1258","","","","68","","","","25","15","8","0","-1","55","42","gabriel-silverio-u3WmDyKGsrY-unsplash.jpg","bruce-dixon-3M9WJQVHzog-unsplash.jpg","3","1","15","8","","","","","","","","","","","","","","","","","","","","","","","","","","","",""
"","choice_confirmation","","html-keyboard-response","149","471532","0.0-81.0-2.0-0.0","0","0","SZfNj","People","","null","","","","null","","","","25","15","8","","","","","","","","","","","","","","","","","","","","","","","","","","","","","","","","","","","","","",""
"","fixation","","html-keyboard-response","150","472549","0.0-82.0-0.0","0","0","SZfNj","People","","null","","","","null","","","","","","","","","","","","","","","","","","","","","","","","","","","","","","","","","","","","","","","","","","","",""
"","deliberation","","html-keyboard-response","151","473630","0.0-82.0-1.0","0","0","SZfNj","People","","1079","","","","75","","","","26","22","30","0","-1","41","47","jessica-radanavong-mrYkTuAesKE-unsplash.jpg","matheus-ferrero-pg_WCHWSdT8-unsplash.jpg","3","0","30","22","","","","","","","","","","","","","","","","","","","","","","","","","","","",""
"","choice_confirmation","","html-keyboard-response","152","474142","0.0-82.0-2.0-0.0","0","0","SZfNj","People","","null","","","","null","","","","26","22","30","","","","","","","","","","","","","","","","","","","","","","","","","","","","","","","","","","","","","",""
"","fixation","","html-keyboard-response","153","475151","0.0-83.0-0.0","0","0","SZfNj","People","","null","","","","null","","","","","","","","","","","","","","","","","","","","","","","","","","","","","","","","","","","","","","","","","","","",""
"","deliberation","","html-keyboard-response","154","476038","0.0-83.0-1.0","0","0","SZfNj","People","","884","","","","68","","","","27","5","27","0","-1","43","55","batel-studio-ttSRjiYG_WM-unsplash.jpg","jurica-koletic-7YVZYZeITc8-unsplash.jpg","3","1","5","27","","","","","","","","","","","","","","","","","","","","","","","","","","","",""
"","choice_confirmation","","html-keyboard-response","155","476549","0.0-83.0-2.0-0.0","0","0","SZfNj","People","","null","","","","null","","","","27","5","27","","","","","","","","","","","","","","","","","","","","","","","","","","","","","","","","","","","","","",""
"","fixation","","html-keyboard-response","156","477559","0.0-84.0-0.0","0","0","SZfNj","People","","null","","","","null","","","","","","","","","","","","","","","","","","","","","","","","","","","","","","","","","","","","","","","","","","","",""
"","deliberation","","html-keyboard-response","157","478449","0.0-84.0-1.0","0","0","SZfNj","People","","887","","","","75","","","","28","47","39","0","1","54","40","tyler-nix-ZGa9d1a_4tA-unsplash.jpg","philip-martin-5aGUyCW_PJw-unsplash.jpg","3","0","39","47","","","","","","","","","","","","","","","","","","","","","","","","","","","",""
"","choice_confirmation","","html-keyboard-response","158","478964","0.0-84.0-2.0-0.0","0","0","SZfNj","People","","null","","","","null","","","","28","47","39","","","","","","","","","","","","","","","","","","","","","","","","","","","","","","","","","","","","","",""
"","fixation","","html-keyboard-response","159","479984","0.0-85.0-0.0","0","0","SZfNj","People","","null","","","","null","","","","","","","","","","","","","","","","","","","","","","","","","","","","","","","","","","","","","","","","","","","",""
"","deliberation","","html-keyboard-response","160","480958","0.0-85.0-1.0","0","0","SZfNj","People","","971","","","","75","","","","29","40","7","0","1","46","41","prince-akachi-4Yv84VgQkRM-unsplash.jpg","brooke-cagle-HRZUzoX1e6w-unsplash.jpg","3","0","7","40","","","","","","","","","","","","","","","","","","","","","","","","","","","",""
"","choice_confirmation","","html-keyboard-response","161","481466","0.0-85.0-2.0-0.0","0","0","SZfNj","People","","null","","","","null","","","","29","40","7","","","","","","","","","","","","","","","","","","","","","","","","","","","","","","","","","","","","","",""
"","fixation","","html-keyboard-response","162","482481","0.0-86.0-0.0","0","0","SZfNj","People","","null","","","","null","","","","","","","","","","","","","","","","","","","","","","","","","","","","","","","","","","","","","","","","","","","",""
"","deliberation","","html-keyboard-response","163","483419","0.0-86.0-1.0","0","0","SZfNj","People","","934","","","","68","","","","30","6","29","0","1","55","44","ben-o-bro-C5XyLljkMrY-unsplash.jpg","leilani-angel-K84vnnzxmTQ-unsplash.jpg","3","1","6","29","","","","","","","","","","","","","","","","","","","","","","","","","","","",""
"","choice_confirmation","","html-keyboard-response","164","483928","0.0-86.0-2.0-0.0","0","0","SZfNj","People","","null","","","","null","","","","30","6","29","","","","","","","","","","","","","","","","","","","","","","","","","","","","","","","","","","","","","",""
"","fixation","","html-keyboard-response","165","484935","0.0-87.0-0.0","0","0","SZfNj","People","","null","","","","null","","","","","","","","","","","","","","","","","","","","","","","","","","","","","","","","","","","","","","","","","","","",""
"","deliberation","","html-keyboard-response","166","485851","0.0-87.0-1.0","0","0","SZfNj","People","","914","","","","75","","","","31","18","31","0","1","41","45","good-faces-xmSWVeGEnJw-unsplash.jpg","mathilda-khoo-vLR0YP_otCo-unsplash.jpg","3","0","31","18","","","","","","","","","","","","","","","","","","","","","","","","","","","",""
"","choice_confirmation","","html-keyboard-response","167","486365","0.0-87.0-2.0-0.0","0","0","SZfNj","People","","null","","","","null","","","","31","18","31","","","","","","","","","","","","","","","","","","","","","","","","","","","","","","","","","","","","","",""
"","fixation","","html-keyboard-response","168","487374","0.0-88.0-0.0","0","0","SZfNj","People","","null","","","","null","","","","","","","","","","","","","","","","","","","","","","","","","","","","","","","","","","","","","","","","","","","",""
"","deliberation","","html-keyboard-response","169","488381","0.0-88.0-1.0","0","0","SZfNj","People","","1004","","","","68","","","","32","17","13","0","-1","50","42","gleb-lukomets-paBzWCPN23k-unsplash.jpg","erik-lucatero-d2MSDujJl2g-unsplash.jpg","3","1","17","13","","","","","","","","","","","","","","","","","","","","","","","","","","","",""
"","choice_confirmation","","html-keyboard-response","170","488891","0.0-88.0-2.0-0.0","0","0","SZfNj","People","","null","","","","null","","","","32","17","13","","","","","","","","","","","","","","","","","","","","","","","","","","","","","","","","","","","","","",""
"","fixation","","html-keyboard-response","171","489907","0.0-89.0-0.0","0","0","SZfNj","People","","null","","","","null","","","","","","","","","","","","","","","","","","","","","","","","","","","","","","","","","","","","","","","","","","","",""
"","deliberation","","html-keyboard-response","172","491387","0.0-89.0-1.0","0","0","SZfNj","People","","1479","","","","75","","","","33","4","19","0","-1","43","46","barna-bartis-2x3vfVxwR7o-unsplash.jpg","ha-nguy-n-OFSQ6bHjFjs-unsplash.jpg","3","0","19","4","","","","","","","","","","","","","","","","","","","","","","","","","","","",""
"","choice_confirmation","","html-keyboard-response","173","491899","0.0-89.0-2.0-0.0","0","0","SZfNj","People","","null","","","","null","","","","33","4","19","","","","","","","","","","","","","","","","","","","","","","","","","","","","","","","","","","","","","",""
"","fixation","","html-keyboard-response","174","492916","0.0-90.0-0.0","0","0","SZfNj","People","","null","","","","null","","","","","","","","","","","","","","","","","","","","","","","","","","","","","","","","","","","","","","","","","","","",""
"","deliberation","","html-keyboard-response","175","494992","0.0-90.0-1.0","0","0","SZfNj","People","","2074","","","","75","","","","34","44","10","0","1","40","53","rikonavt-HQjfrvdTfak-unsplash.jpg","charles-etoroma-95UF6LXe-Lo-unsplash.jpg","3","0","10","44","","","","","","","","","","","","","","","","","","","","","","","","","","","",""
"","choice_confirmation","","html-keyboard-response","176","495508","0.0-90.0-2.0-0.0","0","0","SZfNj","People","","null","","","","null","","","","34","44","10","","","","","","","","","","","","","","","","","","","","","","","","","","","","","","","","","","","","","",""
"","fixation","","html-keyboard-response","177","496525","0.0-91.0-0.0","0","0","SZfNj","People","","null","","","","null","","","","","","","","","","","","","","","","","","","","","","","","","","","","","","","","","","","","","","","","","","","",""
"","deliberation","","html-keyboard-response","178","497396","0.0-91.0-1.0","0","0","SZfNj","People","","869","","","","68","","","","35","16","21","0","-1","50","40","giano-currie-5-9YOsmf8IQ-unsplash.jpg","jessica-felicio-_cvwXhGqG-o-unsplash.jpg","3","1","16","21","","","","","","","","","","","","","","","","","","","","","","","","","","","",""
"","choice_confirmation","","html-keyboard-response","179","497908","0.0-91.0-2.0-0.0","0","0","SZfNj","People","","null","","","","null","","","","35","16","21","","","","","","","","","","","","","","","","","","","","","","","","","","","","","","","","","","","","","",""
"","reward_learning_instructions","","instructions","180","520930","0.0-92.0-0.0","0","0","SZfNj","People","[{""page_index"":0,""viewing_time"":5426},{""page_index"":1,""viewing_time"":14896},{""page_index"":2,""viewing_time"":2697}]","23020","","","","","","","","","","","","","","","","","","","","","","","","","","","","","","","","","","","","","","","","","","","","","","","",""
"","","","survey-multi-choice","181","527968","0.0-92.0-1.0","0","0","SZfNj","People","","7031","{""Q0"":""True"",""Q1"":""True"",""Q2"":""Press the space bar to see its outcome"",""Q3"":""Press the relevant key while the outcome is presented""}","reward_comprehension_check","0","","","","","","","","","","","","","","","","","","","","","","","","","","","","","","","","","","","","","","","","","","","","",""
"","start_phase","","html-keyboard-response","182","529393","0.0-93.0","0","0","SZfNj","People","","1422","","","","78","","","","","","","","","","","","","","","","","","","","","","","","","","","","","","","","","","","","","","","","","","","",""
"","fixation","","html-keyboard-response","183","530398","0.0-94.0","0","0","SZfNj","People","","null","","","","null","","","","","","","","","","","","","","","","","","","","","","","","","","","","","","","","","","","","","","","","","","","",""
"","see_reward","","html-keyboard-response","184","531912","0.0-95.0","0","0","SZfNj","People","","1510","","","","32","","6","","0","","","","1","","","","","1","","","","","145","1510","","","","","","","","","","","","","","","","","","","","","","","","",""
"","reward_outcome","","html-keyboard-response","185","533924","0.0-96.0","0","0","SZfNj","People","","null","","","","null","","6","","0","","","","","","","","","","","","","","","","NaN","null","","","","","","","","","","","","","","","","","","","","","","",""
"","respond_faster","","html-keyboard-response","186","535440","0.0-97.0-0.0","1","0","SZfNj","People","","null","","","","null","","","","","","","","","","","","","","","","","","","","","","","","","","","","","","","","","","","","","","","","","","","",""
"","fixation","","html-keyboard-response","187","536449","0.0-99.0","0","0","SZfNj","People","","null","","","","null","","","","","","","","","","","","","","","","","","","","","","","","","","","","","","","","","","","","","","","","","","","",""
"","see_reward","","html-keyboard-response","188","537576","0.0-100.0","0","0","SZfNj","People","","1123","","","","32","","5","","1","","","","-1","","","","","1","","","","","0","1123","","","","","","","","","","","","","","","","","","","","","","","","",""
"","reward_outcome","","html-keyboard-response","189","539590","0.0-101.0","0","0","SZfNj","People","","1165","","","","40","","5","","1","","","","","","","","","","","","","","","","-1","1165","","","","","","","","","","","","","","","","","","","","","","",""
"","fixation","","html-keyboard-response","190","540599","0.0-104.0","0","0","SZfNj","People","","null","","","","null","","","","","","","","","","","","","","","","","","","","","","","","","","","","","","","","","","","","","","","","","","","",""
"","see_reward","","html-keyboard-response","191","541271","0.0-105.0","0","0","SZfNj","People","","669","","","","32","","16","","2","","","","-1","","","","","1","","","","","0","669","","","","","","","","","","","","","","","","","","","","","","","","",""
"","reward_outcome","","html-keyboard-response","192","543279","0.0-106.0","0","0","SZfNj","People","","null","","","","null","","16","","2","","","","","","","","","","","","","","","","NaN","null","","","","","","","","","","","","","","","","","","","","","","",""
"","respond_faster","","html-keyboard-response","193","544793","0.0-107.0-0.0","1","0","SZfNj","People","","null","","","","null","","","","","","","","","","","","","","","","","","","","","","","","","","","","","","","","","","","","","","","","","","","",""
"","fixation","","html-keyboard-response","194","545808","0.0-109.0","0","0","SZfNj","People","","null","","","","null","","","","","","","","","","","","","","","","","","","","","","","","","","","","","","","","","","","","","","","","","","","",""
"","see_reward","","html-keyboard-response","195","546206","0.0-110.0","0","0","SZfNj","People","","396","","","","32","","10","","3","","","","1","","","","","1","","","","","146","396","","","","","","","","","","","","","","","","","","","","","","","","",""
"","reward_outcome","","html-keyboard-response","196","548215","0.0-111.0","0","0","SZfNj","People","","941","","","","38","","10","","3","","","","","","","","","","","","","","","","1","941","","","","","","","","","","","","","","","","","","","","","","",""
"","fixation","","html-keyboard-response","197","549225","0.0-114.0","0","0","SZfNj","People","","null","","","","null","","","","","","","","","","","","","","","","","","","","","","","","","","","","","","","","","","","","","","","","","","","",""
"","see_reward","","html-keyboard-response","198","549952","0.0-115.0","0","0","SZfNj","People","","725","","","","32","","31","","4","","","","1","","","","","1","","","","","156","725","","","","","","","","","","","","","","","","","","","","","","","","",""
"","reward_outcome","","html-keyboard-response","199","551965","0.0-116.0","0","0","SZfNj","People","","988","","","","38","","31","","4","","","","","","","","","","","","","","","","1","988","","","","","","","","","","","","","","","","","","","","","","",""
"","fixation","","html-keyboard-response","200","552975","0.0-119.0","0","0","SZfNj","People","","null","","","","null","","","","","","","","","","","","","","","","","","","","","","","","","","","","","","","","","","","","","","","","","","","",""
"","see_reward","","html-keyboard-response","201","553774","0.0-120.0","0","0","SZfNj","People","","798","","","","32","","7","","5","","","","1","","","","","1","","","","","158","798","","","","","","","","","","","","","","","","","","","","","","","","",""
"","reward_outcome","","html-keyboard-response","202","555782","0.0-121.0","0","0","SZfNj","People","","985","","","","38","","7","","5","","","","","","","","","","","","","","","","1","985","","","","","","","","","","","","","","","","","","","","","","",""
"","fixation","","html-keyboard-response","203","556792","0.0-124.0","0","0","SZfNj","People","","null","","","","null","","","","","","","","","","","","","","","","","","","","","","","","","","","","","","","","","","","","","","","","","","","",""
"","see_reward","","html-keyboard-response","204","557167","0.0-125.0","0","0","SZfNj","People","","373","","","","32","","19","","6","","","","-1","","","","","1","","","","","0","373","","","","","","","","","","","","","","","","","","","","","","","","",""
"","reward_outcome","","html-keyboard-response","205","559177","0.0-126.0","0","0","SZfNj","People","","981","","","","40","","19","","6","","","","","","","","","","","","","","","","-1","981","","","","","","","","","","","","","","","","","","","","","","",""
"","fixation","","html-keyboard-response","206","560184","0.0-129.0","0","0","SZfNj","People","","null","","","","null","","","","","","","","","","","","","","","","","","","","","","","","","","","","","","","","","","","","","","","","","","","",""
"","see_reward","","html-keyboard-response","207","561121","0.0-130.0","0","0","SZfNj","People","","935","","","","32","","19","","7","","","","-1","","","","","1","","","","","0","935","","","","","","","","","","","","","","","","","","","","","","","","",""
"","reward_outcome","","html-keyboard-response","208","563141","0.0-131.0","0","0","SZfNj","People","","993","","","","40","","19","","7","","","","","","","","","","","","","","","","-1","993","","","","","","","","","","","","","","","","","","","","","","",""
"","fixation","","html-keyboard-response","209","564151","0.0-134.0","0","0","SZfNj","People","","null","","","","null","","","","","","","","","","","","","","","","","","","","","","","","","","","","","","","","","","","","","","","","","","","",""
"","see_reward","","html-keyboard-response","210","564569","0.0-135.0","0","0","SZfNj","People","","416","","","","32","","16","","8","","","","-1","","","","","1","","","","","0","416","","","","","","","","","","","","","","","","","","","","","","","","",""
"","reward_outcome","","html-keyboard-response","211","566576","0.0-136.0","0","0","SZfNj","People","","751","","","","40","","16","","8","","","","","","","","","","","","","","","","-1","751","","","","","","","","","","","","","","","","","","","","","","",""
"","fixation","","html-keyboard-response","212","567583","0.0-139.0","0","0","SZfNj","People","","null","","","","null","","","","","","","","","","","","","","","","","","","","","","","","","","","","","","","","","","","","","","","","","","","",""
"","see_reward","","html-keyboard-response","213","568090","0.0-140.0","0","0","SZfNj","People","","504","","","","32","","7","","9","","","","1","","","","","1","","","","","158","504","","","","","","","","","","","","","","","","","","","","","","","","",""
"","reward_outcome","","html-keyboard-response","214","570105","0.0-141.0","0","0","SZfNj","People","","1040","","","","38","","7","","9","","","","","","","","","","","","","","","","1","1040","","","","","","","","","","","","","","","","","","","","","","",""
"","fixation","","html-keyboard-response","215","571114","0.0-144.0","0","0","SZfNj","People","","null","","","","null","","","","","","","","","","","","","","","","","","","","","","","","","","","","","","","","","","","","","","","","","","","",""
"","see_reward","","html-keyboard-response","216","571373","0.0-145.0","0","0","SZfNj","People","","256","","","","32","","5","","10","","","","-1","","","","","1","","","","","0","256","","","","","","","","","","","","","","","","","","","","","","","","",""
"","reward_outcome","","html-keyboard-response","217","573382","0.0-146.0","0","0","SZfNj","People","","775","","","","40","","5","","10","","","","","","","","","","","","","","","","-1","775","","","","","","","","","","","","","","","","","","","","","","",""
"","fixation","","html-keyboard-response","218","574391","0.0-149.0","0","0","SZfNj","People","","null","","","","null","","","","","","","","","","","","","","","","","","","","","","","","","","","","","","","","","","","","","","","","","","","",""
"","see_reward","","html-keyboard-response","219","574969","0.0-150.0","0","0","SZfNj","People","","577","","","","32","","39","","11","","","","1","","","","","1","","","","","143","577","","","","","","","","","","","","","","","","","","","","","","","","",""
"","reward_outcome","","html-keyboard-response","220","576979","0.0-151.0","0","0","SZfNj","People","","658","","","","38","","39","","11","","","","","","","","","","","","","","","","1","658","","","","","","","","","","","","","","","","","","","","","","",""
"","fixation","","html-keyboard-response","221","577993","0.0-154.0","0","0","SZfNj","People","","null","","","","null","","","","","","","","","","","","","","","","","","","","","","","","","","","","","","","","","","","","","","","","","","","",""
"","see_reward","","html-keyboard-response","222","578475","0.0-155.0","0","0","SZfNj","People","","479","","","","32","","10","","12","","","","1","","","","","1","","","","","146","479","","","","","","","","","","","","","","","","","","","","","","","","",""
"","reward_outcome","","html-keyboard-response","223","580489","0.0-156.0","0","0","SZfNj","People","","526","","","","38","","10","","12","","","","","","","","","","","","","","","","1","526","","","","","","","","","","","","","","","","","","","","","","",""
"","fixation","","html-keyboard-response","224","581500","0.0-159.0","0","0","SZfNj","People","","null","","","","null","","","","","","","","","","","","","","","","","","","","","","","","","","","","","","","","","","","","","","","","","","","",""
"","see_reward","","html-keyboard-response","225","581909","0.0-160.0","0","0","SZfNj","People","","406","","","","32","","6","","13","","","","1","","","","","1","","","","","145","406","","","","","","","","","","","","","","","","","","","","","","","","",""
"","reward_outcome","","html-keyboard-response","226","583916","0.0-161.0","0","0","SZfNj","People","","727","","","","38","","6","","13","","","","","","","","","","","","","","","","1","727","","","","","","","","","","","","","","","","","","","","","","",""
"","fixation","","html-keyboard-response","227","584924","0.0-164.0","0","0","SZfNj","People","","null","","","","null","","","","","","","","","","","","","","","","","","","","","","","","","","","","","","","","","","","","","","","","","","","",""
"","see_reward","","html-keyboard-response","228","585486","0.0-165.0","0","0","SZfNj","People","","559","","","","32","","15","","14","","","","-1","","","","","1","","","","","0","559","","","","","","","","","","","","","","","","","","","","","","","","",""
"","reward_outcome","","html-keyboard-response","229","587499","0.0-166.0","0","0","SZfNj","People","","616","","","","40","","15","","14","","","","","","","","","","","","","","","","-1","616","","","","","","","","","","","","","","","","","","","","","","",""
"","fixation","","html-keyboard-response","230","588508","0.0-169.0","0","0","SZfNj","People","","null","","","","null","","","","","","","","","","","","","","","","","","","","","","","","","","","","","","","","","","","","","","","","","","","",""
"","see_reward","","html-keyboard-response","231","588889","0.0-170.0","0","0","SZfNj","People","","379","","","","32","","43","","15","","","","1","","","","","1","","","","","150","379","","","","","","","","","","","","","","","","","","","","","","","","",""
"","reward_outcome","","html-keyboard-response","232","590907","0.0-171.0","0","0","SZfNj","People","","929","","","","38","","43","","15","","","","","","","","","","","","","","","","1","929","","","","","","","","","","","","","","","","","","","","","","",""
"","fixation","","html-keyboard-response","233","591915","0.0-174.0","0","0","SZfNj","People","","null","","","","null","","","","","","","","","","","","","","","","","","","","","","","","","","","","","","","","","","","","","","","","","","","",""
"","see_reward","","html-keyboard-response","234","592199","0.0-175.0","0","0","SZfNj","People","","282","","","","32","","30","","16","","","","-1","","","","","1","","","","","0","282","","","","","","","","","","","","","","","","","","","","","","","","",""
"","reward_outcome","","html-keyboard-response","235","594206","0.0-176.0","0","0","SZfNj","People","","538","","","","40","","30","","16","","","","","","","","","","","","","","","","-1","538","","","","","","","","","","","","","","","","","","","","","","",""
"","fixation","","html-keyboard-response","236","595215","0.0-179.0","0","0","SZfNj","People","","null","","","","null","","","","","","","","","","","","","","","","","","","","","","","","","","","","","","","","","","","","","","","","","","","",""
"","see_reward","","html-keyboard-response","237","595543","0.0-180.0","0","0","SZfNj","People","","326","","","","32","","17","","17","","","","-1","","","","","1","","","","","0","326","","","","","","","","","","","","","","","","","","","","","","","","",""
"","reward_outcome","","html-keyboard-response","238","597556","0.0-181.0","0","0","SZfNj","People","","523","","","","40","","17","","17","","","","","","","","","","","","","","","","-1","523","","","","","","","","","","","","","","","","","","","","","","",""
"","fixation","","html-keyboard-response","239","598566","0.0-184.0","0","0","SZfNj","People","","null","","","","null","","","","","","","","","","","","","","","","","","","","","","","","","","","","","","","","","","","","","","","","","","","",""
"","see_reward","","html-keyboard-response","240","598881","0.0-185.0","0","0","SZfNj","People","","313","","","","32","","31","","18","","","","1","","","","","1","","","","","156","313","","","","","","","","","","","","","","","","","","","","","","","","",""
"","reward_outcome","","html-keyboard-response","241","600901","0.0-186.0","0","0","SZfNj","People","","610","","","","38","","31","","18","","","","","","","","","","","","","","","","1","610","","","","","","","","","","","","","","","","","","","","","","",""
"","fixation","","html-keyboard-response","242","601909","0.0-189.0","0","0","SZfNj","People","","null","","","","null","","","","","","","","","","","","","","","","","","","","","","","","","","","","","","","","","","","","","","","","","","","",""
"","see_reward","","html-keyboard-response","243","602533","0.0-190.0","0","0","SZfNj","People","","622","","","","32","","15","","19","","","","-1","","","","","1","","","","","0","622","","","","","","","","","","","","","","","","","","","","","","","","",""
"","reward_outcome","","html-keyboard-response","244","604543","0.0-191.0","0","0","SZfNj","People","","551","","","","40","","15","","19","","","","","","","","","","","","","","","","-1","551","","","","","","","","","","","","","","","","","","","","","","",""
"","fixation","","html-keyboard-response","245","605549","0.0-194.0","0","0","SZfNj","People","","null","","","","null","","","","","","","","","","","","","","","","","","","","","","","","","","","","","","","","","","","","","","","","","","","",""
"","see_reward","","html-keyboard-response","246","606356","0.0-195.0","0","0","SZfNj","People","","806","","","","32","","17","","20","","","","-1","","","","","1","","","","","0","806","","","","","","","","","","","","","","","","","","","","","","","","",""
"","reward_outcome","","html-keyboard-response","247","608364","0.0-196.0","0","0","SZfNj","People","","497","","","","40","","17","","20","","","","","","","","","","","","","","","","-1","497","","","","","","","","","","","","","","","","","","","","","","",""
"","fixation","","html-keyboard-response","248","609379","0.0-199.0","0","0","SZfNj","People","","null","","","","null","","","","","","","","","","","","","","","","","","","","","","","","","","","","","","","","","","","","","","","","","","","",""
"","see_reward","","html-keyboard-response","249","609626","0.0-200.0","0","0","SZfNj","People","","244","","","","32","","43","","21","","","","1","","","","","1","","","","","150","244","","","","","","","","","","","","","","","","","","","","","","","","",""
"","reward_outcome","","html-keyboard-response","250","611643","0.0-201.0","0","0","SZfNj","People","","621","","","","38","","43","","21","","","","","","","","","","","","","","","","1","621","","","","","","","","","","","","","","","","","","","","","","",""
"","fixation","","html-keyboard-response","251","612661","0.0-204.0","0","0","SZfNj","People","","null","","","","null","","","","","","","","","","","","","","","","","","","","","","","","","","","","","","","","","","","","","","","","","","","",""
"","see_reward","","html-keyboard-response","252","613148","0.0-205.0","0","0","SZfNj","People","","484","","","","32","","30","","22","","","","-1","","","","","1","","","","","0","484","","","","","","","","","","","","","","","","","","","","","","","","",""
"","reward_outcome","","html-keyboard-response","253","615161","0.0-206.0","0","0","SZfNj","People","","714","","","","40","","30","","22","","","","","","","","","","","","","","","","-1","714","","","","","","","","","","","","","","","","","","","","","","",""
"","fixation","","html-keyboard-response","254","616167","0.0-209.0","0","0","SZfNj","People","","null","","","","null","","","","","","","","","","","","","","","","","","","","","","","","","","","","","","","","","","","","","","","","","","","",""
"","see_reward","","html-keyboard-response","255","616717","0.0-210.0","0","0","SZfNj","People","","548","","","","32","","39","","23","","","","1","","","","","1","","","","","143","548","","","","","","","","","","","","","","","","","","","","","","","","",""
"","reward_outcome","","html-keyboard-response","256","618727","0.0-211.0","0","0","SZfNj","People","","388","","","","38","","39","","23","","","","","","","","","","","","","","","","1","388","","","","","","","","","","","","","","","","","","","","","","",""
"","block_over","","html-keyboard-response","257","620770","0.0-213.0-0.0","0","0","SZfNj","People","","2041","","","","78","","","","","","","","","","","","","","","","","","","","","","","","","","","","","","","","","","","","","","","","","","","",""
"","fixation","","html-keyboard-response","258","621784","0.0-214.0","0","0","SZfNj","People","","null","","","","null","","","","","","","","","","","","","","","","","","","","","","","","","","","","","","","","","","","","","","","","","","","",""
"","see_reward","","html-keyboard-response","259","622328","0.0-215.0","0","0","SZfNj","People","","542","","","","32","","5","","24","","","","-1","","","","","2","","","","","0","542","","","","","","","","","","","","","","","","","","","","","","","","",""
"","reward_outcome","","html-keyboard-response","260","624332","0.0-216.0","0","0","SZfNj","People","","538","","","","40","","5","","24","","","","","","","","","","","","","","","","-1","538","","","","","","","","","","","","","","","","","","","","","","",""
"","fixation","","html-keyboard-response","261","625343","0.0-219.0","0","0","SZfNj","People","","null","","","","null","","","","","","","","","","","","","","","","","","","","","","","","","","","","","","","","","","","","","","","","","","","",""
"","see_reward","","html-keyboard-response","262","625617","0.0-220.0","0","0","SZfNj","People","","271","","","","32","","43","","25","","","","1","","","","","2","","","","","150","271","","","","","","","","","","","","","","","","","","","","","","","","",""
"","reward_outcome","","html-keyboard-response","263","627628","0.0-221.0","0","0","SZfNj","People","","379","","","","38","","43","","25","","","","","","","","","","","","","","","","1","379","","","","","","","","","","","","","","","","","","","","","","",""
"","fixation","","html-keyboard-response","264","628638","0.0-224.0","0","0","SZfNj","People","","null","","","","null","","","","","","","","","","","","","","","","","","","","","","","","","","","","","","","","","","","","","","","","","","","",""
"","see_reward","","html-keyboard-response","265","628898","0.0-225.0","0","0","SZfNj","People","","258","","","","32","","6","","26","","","","1","","","","","2","","","","","145","258","","","","","","","","","","","","","","","","","","","","","","","","",""
"","reward_outcome","","html-keyboard-response","266","630917","0.0-226.0","0","0","SZfNj","People","","467","","","","38","","6","","26","","","","","","","","","","","","","","","","1","467","","","","","","","","","","","","","","","","","","","","","","",""
"","fixation","","html-keyboard-response","267","631927","0.0-229.0","0","0","SZfNj","People","","null","","","","null","","","","","","","","","","","","","","","","","","","","","","","","","","","","","","","","","","","","","","","","","","","",""
"","see_reward","","html-keyboard-response","268","632417","0.0-230.0","0","0","SZfNj","People","","488","","","","32","","7","","27","","","","1","","","","","2","","","","","158","488","","","","","","","","","","","","","","","","","","","","","","","","",""
"","reward_outcome","","html-keyboard-response","269","634435","0.0-231.0","0","0","SZfNj","People","","423","","","","38","","7","","27","","","","","","","","","","","","","","","","1","423","","","","","","","","","","","","","","","","","","","","","","",""
"","fixation","","html-keyboard-response","270","635453","0.0-234.0","0","0","SZfNj","People","","null","","","","null","","","","","","","","","","","","","","","","","","","","","","","","","","","","","","","","","","","","","","","","","","","",""
"","see_reward","","html-keyboard-response","271","635871","0.0-235.0","0","0","SZfNj","People","","414","","","","32","","19","","28","","","","-1","","","","","2","","","","","0","414","","","","","","","","","","","","","","","","","","","","","","","","",""
"","reward_outcome","","html-keyboard-response","272","637884","0.0-236.0","0","0","SZfNj","People","","634","","","","40","","19","","28","","","","","","","","","","","","","","","","-1","634","","","","","","","","","","","","","","","","","","","","","","",""
"","fixation","","html-keyboard-response","273","638895","0.0-239.0","0","0","SZfNj","People","","null","","","","null","","","","","","","","","","","","","","","","","","","","","","","","","","","","","","","","","","","","","","","","","","","",""
"","see_reward","","html-keyboard-response","274","639575","0.0-240.0","0","0","SZfNj","People","","678","","","","32","","10","","29","","","","1","","","","","2","","","","","146","678","","","","","","","","","","","","","","","","","","","","","","","","",""
"","reward_outcome","","html-keyboard-response","275","641587","0.0-241.0","0","0","SZfNj","People","","296","","","","38","","10","","29","","","","","","","","","","","","","","","","1","296","","","","","","","","","","","","","","","","","","","","","","",""
"","fixation","","html-keyboard-response","276","642597","0.0-244.0","0","0","SZfNj","People","","null","","","","null","","","","","","","","","","","","","","","","","","","","","","","","","","","","","","","","","","","","","","","","","","","",""
"","see_reward","","html-keyboard-response","277","643022","0.0-245.0","0","0","SZfNj","People","","423","","","","32","","15","","30","","","","-1","","","","","2","","","","","0","423","","","","","","","","","","","","","","","","","","","","","","","","",""
"","reward_outcome","","html-keyboard-response","278","645030","0.0-246.0","0","0","SZfNj","People","","620","","","","40","","15","","30","","","","","","","","","","","","","","","","-1","620","","","","","","","","","","","","","","","","","","","","","","",""
"","fixation","","html-keyboard-response","279","646038","0.0-249.0","0","0","SZfNj","People","","null","","","","null","","","","","","","","","","","","","","","","","","","","","","","","","","","","","","","","","","","","","","","","","","","",""
"","see_reward","","html-keyboard-response","280","646763","0.0-250.0","0","0","SZfNj","People","","723","","","","32","","15","","31","","","","-1","","","","","2","","","","","0","723","","","","","","","","","","","","","","","","","","","","","","","","",""
"","reward_outcome","","html-keyboard-response","281","648778","0.0-251.0","0","0","SZfNj","People","","313","","","","40","","15","","31","","","","","","","","","","","","","","","","-1","313","","","","","","","","","","","","","","","","","","","","","","",""
"","fixation","","html-keyboard-response","282","649794","0.0-254.0","0","0","SZfNj","People","","null","","","","null","","","","","","","","","","","","","","","","","","","","","","","","","","","","","","","","","","","","","","","","","","","",""
"","see_reward","","html-keyboard-response","283","650200","0.0-255.0","0","0","SZfNj","People","","405","","","","32","","39","","32","","","","1","","","","","2","","","","","143","405","","","","","","","","","","","","","","","","","","","","","","","","",""
"","reward_outcome","","html-keyboard-response","284","652211","0.0-256.0","0","0","SZfNj","People","","570","","","","38","","39","","32","","","","","","","","","","","","","","","","1","570","","","","","","","","","","","","","","","","","","","","","","",""
"","fixation","","html-keyboard-response","285","653228","0.0-259.0","0","0","SZfNj","People","","null","","","","null","","","","","","","","","","","","","","","","","","","","","","","","","","","","","","","","","","","","","","","","","","","",""
"","see_reward","","html-keyboard-response","286","653517","0.0-260.0","0","0","SZfNj","People","","286","","","","32","","31","","33","","","","1","","","","","2","","","","","156","286","","","","","","","","","","","","","","","","","","","","","","","","",""
"","reward_outcome","","html-keyboard-response","287","655525","0.0-261.0","0","0","SZfNj","People","","472","","","","38","","31","","33","","","","","","","","","","","","","","","","1","472","","","","","","","","","","","","","","","","","","","","","","",""
"","fixation","","html-keyboard-response","288","656534","0.0-264.0","0","0","SZfNj","People","","null","","","","null","","","","","","","","","","","","","","","","","","","","","","","","","","","","","","","","","","","","","","","","","","","",""
"","see_reward","","html-keyboard-response","289","656815","0.0-265.0","0","0","SZfNj","People","","279","","","","32","","39","","34","","","","1","","","","","2","","","","","143","279","","","","","","","","","","","","","","","","","","","","","","","","",""
"","reward_outcome","","html-keyboard-response","290","658830","0.0-266.0","0","0","SZfNj","People","","456","","","","38","","39","","34","","","","","","","","","","","","","","","","1","456","","","","","","","","","","","","","","","","","","","","","","",""
"","fixation","","html-keyboard-response","291","659845","0.0-269.0","0","0","SZfNj","People","","null","","","","null","","","","","","","","","","","","","","","","","","","","","","","","","","","","","","","","","","","","","","","","","","","",""
"","see_reward","","html-keyboard-response","292","660179","0.0-270.0","0","0","SZfNj","People","","332","","","","32","","43","","35","","","","1","","","","","2","","","","","150","332","","","","","","","","","","","","","","","","","","","","","","","","",""
"","reward_outcome","","html-keyboard-response","293","662198","0.0-271.0","0","0","SZfNj","People","","403","","","","40","","43","","35","","","","","","","","","","","","","","","","-1","403","","","","","","","","","","","","","","","","","","","","","","",""
"","fixation","","html-keyboard-response","294","663214","0.0-274.0","0","0","SZfNj","People","","null","","","","null","","","","","","","","","","","","","","","","","","","","","","","","","","","","","","","","","","","","","","","","","","","",""
"","see_reward","","html-keyboard-response","295","663710","0.0-275.0","0","0","SZfNj","People","","495","","","","32","","10","","36","","","","1","","","","","2","","","","","146","495","","","","","","","","","","","","","","","","","","","","","","","","",""
"","reward_outcome","","html-keyboard-response","296","665720","0.0-276.0","0","0","SZfNj","People","","353","","","","38","","10","","36","","","","","","","","","","","","","","","","1","353","","","","","","","","","","","","","","","","","","","","","","",""
"","fixation","","html-keyboard-response","297","666724","0.0-279.0","0","0","SZfNj","People","","null","","","","null","","","","","","","","","","","","","","","","","","","","","","","","","","","","","","","","","","","","","","","","","","","",""
"","see_reward","","html-keyboard-response","298","667101","0.0-280.0","0","0","SZfNj","People","","374","","","","32","","6","","37","","","","1","","","","","2","","","","","145","374","","","","","","","","","","","","","","","","","","","","","","","","",""
"","reward_outcome","","html-keyboard-response","299","669110","0.0-281.0","0","0","SZfNj","People","","364","","","","38","","6","","37","","","","","","","","","","","","","","","","1","364","","","","","","","","","","","","","","","","","","","","","","",""
"","fixation","","html-keyboard-response","300","670117","0.0-284.0","0","0","SZfNj","People","","null","","","","null","","","","","","","","","","","","","","","","","","","","","","","","","","","","","","","","","","","","","","","","","","","",""
"","see_reward","","html-keyboard-response","301","670331","0.0-285.0","0","0","SZfNj","People","","213","","","","32","","31","","38","","","","1","","","","","2","","","","","156","213","","","","","","","","","","","","","","","","","","","","","","","","",""
"","reward_outcome","","html-keyboard-response","302","672344","0.0-286.0","0","0","SZfNj","People","","614","","","","38","","31","","38","","","","","","","","","","","","","","","","1","614","","","","","","","","","","","","","","","","","","","","","","",""
"","fixation","","html-keyboard-response","303","673354","0.0-289.0","0","0","SZfNj","People","","null","","","","null","","","","","","","","","","","","","","","","","","","","","","","","","","","","","","","","","","","","","","","","","","","",""
"","see_reward","","html-keyboard-response","304","673990","0.0-290.0","0","0","SZfNj","People","","633","","","","32","","17","","39","","","","-1","","","","","2","","","","","0","633","","","","","","","","","","","","","","","","","","","","","","","","",""
"","reward_outcome","","html-keyboard-response","305","676001","0.0-291.0","0","0","SZfNj","People","","596","","","","40","","17","","39","","","","","","","","","","","","","","","","-1","596","","","","","","","","","","","","","","","","","","","","","","",""
"","fixation","","html-keyboard-response","306","677011","0.0-294.0","0","0","SZfNj","People","","null","","","","null","","","","","","","","","","","","","","","","","","","","","","","","","","","","","","","","","","","","","","","","","","","",""
"","see_reward","","html-keyboard-response","307","677497","0.0-295.0","0","0","SZfNj","People","","484","","","","32","","16","","40","","","","-1","","","","","2","","","","","0","484","","","","","","","","","","","","","","","","","","","","","","","","",""
"","reward_outcome","","html-keyboard-response","308","679508","0.0-296.0","0","0","SZfNj","People","","554","","","","40","","16","","40","","","","","","","","","","","","","","","","-1","554","","","","","","","","","","","","","","","","","","","","","","",""
"","fixation","","html-keyboard-response","309","680519","0.0-299.0","0","0","SZfNj","People","","null","","","","null","","","","","","","","","","","","","","","","","","","","","","","","","","","","","","","","","","","","","","","","","","","",""
"","see_reward","","html-keyboard-response","310","681156","0.0-300.0","0","0","SZfNj","People","","635","","","","32","","7","","41","","","","1","","","","","2","","","","","158","635","","","","","","","","","","","","","","","","","","","","","","","","",""
"","reward_outcome","","html-keyboard-response","311","683174","0.0-301.0","0","0","SZfNj","People","","347","","","","38","","7","","41","","","","","","","","","","","","","","","","1","347","","","","","","","","","","","","","","","","","","","","","","",""
"","fixation","","html-keyboard-response","312","684184","0.0-304.0","0","0","SZfNj","People","","null","","","","null","","","","","","","","","","","","","","","","","","","","","","","","","","","","","","","","","","","","","","","","","","","",""
"","see_reward","","html-keyboard-response","313","684691","0.0-305.0","0","0","SZfNj","People","","504","","","","32","","30","","42","","","","-1","","","","","2","","","","","0","504","","","","","","","","","","","","","","","","","","","","","","","","",""
"","reward_outcome","","html-keyboard-response","314","686703","0.0-306.0","0","0","SZfNj","People","","480","","","","40","","30","","42","","","","","","","","","","","","","","","","-1","480","","","","","","","","","","","","","","","","","","","","","","",""
"","fixation","","html-keyboard-response","315","687719","0.0-309.0","0","0","SZfNj","People","","null","","","","null","","","","","","","","","","","","","","","","","","","","","","","","","","","","","","","","","","","","","","","","","","","",""
"","see_reward","","html-keyboard-response","316","688135","0.0-310.0","0","0","SZfNj","People","","414","","","","32","","30","","43","","","","-1","","","","","2","","","","","0","414","","","","","","","","","","","","","","","","","","","","","","","","",""
"","reward_outcome","","html-keyboard-response","317","690143","0.0-311.0","0","0","SZfNj","People","","346","","","","40","","30","","43","","","","","","","","","","","","","","","","-1","346","","","","","","","","","","","","","","","","","","","","","","",""
"","fixation","","html-keyboard-response","318","691153","0.0-314.0","0","0","SZfNj","People","","null","","","","null","","","","","","","","","","","","","","","","","","","","","","","","","","","","","","","","","","","","","","","","","","","",""
"","see_reward","","html-keyboard-response","319","691447","0.0-315.0","0","0","SZfNj","People","","292","","","","32","","5","","44","","","","-1","","","","","2","","","","","0","292","","","","","","","","","","","","","","","","","","","","","","","","",""
"","reward_outcome","","html-keyboard-response","320","693459","0.0-316.0","0","0","SZfNj","People","","512","","","","40","","5","","44","","","","","","","","","","","","","","","","-1","512","","","","","","","","","","","","","","","","","","","","","","",""
"","fixation","","html-keyboard-response","321","694469","0.0-319.0","0","0","SZfNj","People","","null","","","","null","","","","","","","","","","","","","","","","","","","","","","","","","","","","","","","","","","","","","","","","","","","",""
"","see_reward","","html-keyboard-response","322","694802","0.0-320.0","0","0","SZfNj","People","","330","","","","32","","19","","45","","","","-1","","","","","2","","","","","0","330","","","","","","","","","","","","","","","","","","","","","","","","",""
"","reward_outcome","","html-keyboard-response","323","696818","0.0-321.0","0","0","SZfNj","People","","594","","","","40","","19","","45","","","","","","","","","","","","","","","","-1","594","","","","","","","","","","","","","","","","","","","","","","",""
"","fixation","","html-keyboard-response","324","697838","0.0-324.0","0","0","SZfNj","People","","null","","","","null","","","","","","","","","","","","","","","","","","","","","","","","","","","","","","","","","","","","","","","","","","","",""
"","see_reward","","html-keyboard-response","325","698733","0.0-325.0","0","0","SZfNj","People","","892","","","","32","","17","","46","","","","-1","","","","","2","","","","","0","892","","","","","","","","","","","","","","","","","","","","","","","","",""
"","reward_outcome","","html-keyboard-response","326","700743","0.0-326.0","0","0","SZfNj","People","","777","","","","40","","17","","46","","","","","","","","","","","","","","","","-1","777","","","","","","","","","","","","","","","","","","","","","","",""
"","fixation","","html-keyboard-response","327","701756","0.0-329.0","0","0","SZfNj","People","","null","","","","null","","","","","","","","","","","","","","","","","","","","","","","","","","","","","","","","","","","","","","","","","","","",""
"","see_reward","","html-keyboard-response","328","702537","0.0-330.0","0","0","SZfNj","People","","779","","","","32","","16","","47","","","","-1","","","","","2","","","","","0","779","","","","","","","","","","","","","","","","","","","","","","","","",""
"","reward_outcome","","html-keyboard-response","329","704545","0.0-331.0","0","0","SZfNj","People","","497","","","","40","","16","","47","","","","","","","","","","","","","","","","-1","497","","","","","","","","","","","","","","","","","","","","","","",""
"","block_over","","html-keyboard-response","330","706021","0.0-333.0-0.0","0","0","SZfNj","People","","1473","","","","78","","","","","","","","","","","","","","","","","","","","","","","","","","","","","","","","","","","","","","","","","","","",""
"","fixation","","html-keyboard-response","331","707034","0.0-334.0","0","0","SZfNj","People","","null","","","","null","","","","","","","","","","","","","","","","","","","","","","","","","","","","","","","","","","","","","","","","","","","",""
"","see_reward","","html-keyboard-response","332","707433","0.0-335.0","0","0","SZfNj","People","","396","","","","32","","5","","48","","","","-1","","","","","3","","","","","0","396","","","","","","","","","","","","","","","","","","","","","","","","",""
"","reward_outcome","","html-keyboard-response","333","709445","0.0-336.0","0","0","SZfNj","People","","288","","","","40","","5","","48","","","","","","","","","","","","","","","","-1","288","","","","","","","","","","","","","","","","","","","","","","",""
"","fixation","","html-keyboard-response","334","710461","0.0-339.0","0","0","SZfNj","People","","null","","","","null","","","","","","","","","","","","","","","","","","","","","","","","","","","","","","","","","","","","","","","","","","","",""
"","see_reward","","html-keyboard-response","335","711077","0.0-340.0","0","0","SZfNj","People","","613","","","","32","","31","","49","","","","1","","","","","3","","","","","156","613","","","","","","","","","","","","","","","","","","","","","","","","",""
"","reward_outcome","","html-keyboard-response","336","713085","0.0-341.0","0","0","SZfNj","People","","464","","","","38","","31","","49","","","","","","","","","","","","","","","","1","464","","","","","","","","","","","","","","","","","","","","","","",""
"","fixation","","html-keyboard-response","337","714096","0.0-344.0","0","0","SZfNj","People","","null","","","","null","","","","","","","","","","","","","","","","","","","","","","","","","","","","","","","","","","","","","","","","","","","",""
"","see_reward","","html-keyboard-response","338","714468","0.0-345.0","0","0","SZfNj","People","","371","","","","32","","7","","50","","","","1","","","","","3","","","","","158","371","","","","","","","","","","","","","","","","","","","","","","","","",""
"","reward_outcome","","html-keyboard-response","339","716481","0.0-346.0","0","0","SZfNj","People","","529","","","","38","","7","","50","","","","","","","","","","","","","","","","1","529","","","","","","","","","","","","","","","","","","","","","","",""
"","fixation","","html-keyboard-response","340","717486","0.0-349.0","0","0","SZfNj","People","","null","","","","null","","","","","","","","","","","","","","","","","","","","","","","","","","","","","","","","","","","","","","","","","","","",""
"","see_reward","","html-keyboard-response","341","718124","0.0-350.0","0","0","SZfNj","People","","637","","","","32","","39","","51","","","","1","","","","","3","","","","","143","637","","","","","","","","","","","","","","","","","","","","","","","","",""
"","reward_outcome","","html-keyboard-response","342","720135","0.0-351.0","0","0","SZfNj","People","","251","","","","38","","39","","51","","","","","","","","","","","","","","","","1","251","","","","","","","","","","","","","","","","","","","","","","",""
"","fixation","","html-keyboard-response","343","721145","0.0-354.0","0","0","SZfNj","People","","null","","","","null","","","","","","","","","","","","","","","","","","","","","","","","","","","","","","","","","","","","","","","","","","","",""
"","see_reward","","html-keyboard-response","344","721893","0.0-355.0","0","0","SZfNj","People","","746","","","","32","","17","","52","","","","-1","","","","","3","","","","","0","746","","","","","","","","","","","","","","","","","","","","","","","","",""
"","reward_outcome","","html-keyboard-response","345","723903","0.0-356.0","0","0","SZfNj","People","","386","","","","40","","17","","52","","","","","","","","","","","","","","","","-1","386","","","","","","","","","","","","","","","","","","","","","","",""
"","fixation","","html-keyboard-response","346","724909","0.0-359.0","0","0","SZfNj","People","","null","","","","null","","","","","","","","","","","","","","","","","","","","","","","","","","","","","","","","","","","","","","","","","","","",""
"","see_reward","","html-keyboard-response","347","725533","0.0-360.0","0","0","SZfNj","People","","622","","","","32","","17","","53","","","","-1","","","","","3","","","","","0","622","","","","","","","","","","","","","","","","","","","","","","","","",""
"","reward_outcome","","html-keyboard-response","348","727540","0.0-361.0","0","0","SZfNj","People","","233","","","","40","","17","","53","","","","","","","","","","","","","","","","-1","233","","","","","","","","","","","","","","","","","","","","","","",""
"","fixation","","html-keyboard-response","349","728549","0.0-364.0","0","0","SZfNj","People","","null","","","","null","","","","","","","","","","","","","","","","","","","","","","","","","","","","","","","","","","","","","","","","","","","",""
"","see_reward","","html-keyboard-response","350","729267","0.0-365.0","0","0","SZfNj","People","","715","","","","32","","10","","54","","","","1","","","","","3","","","","","146","715","","","","","","","","","","","","","","","","","","","","","","","","",""
"","reward_outcome","","html-keyboard-response","351","731278","0.0-366.0","0","0","SZfNj","People","","371","","","","38","","10","","54","","","","","","","","","","","","","","","","1","371","","","","","","","","","","","","","","","","","","","","","","",""
