"success","ttype","start_time","trial_type","trial_index","time_elapsed","internal_node_id","warning","missed_checkup","PID","stim_type","view_history","rt","responses","category","repeat_instructions","key_press","response","stimulus_id","painting","index","stimulus_left","stimulus_right","explain_trial","reward_type","rating_left","rating_right","painting_left","painting_right","block","left_chosen","chosen_obj","unchosen_obj","explain_response","reward_amount","see_reward_rt","register_reward_response","register_reward_rt","deliberation_reward_tally","stimulus_left_deliberation_ind","stimulus_right_deliberation_ind","chosen_trial","gain_left","higher_outcome_chosen","old_pair","chosen_object","rt_pairs","left_object_chosen","rt_object","old_response","new_rating","deliberated_stim","initial_rating","outcome_eval_rt","outcome_eval_response","outcome_eval_gain","outcome_eval_acc","preamble","outcome_eval_confidence","outcome_eval_confidence_rt","total_reward_tally"
"true","full_screen","d01182023hr1407","fullscreen","0","42852","0.0-0.0","0","0","aDc5y","People","","","","","","","","","","","","","","","","","","","","","","","","","","","","","","","","","","","","","","","","","","","","","","","","","",""
"","rating_instructions","","instructions","1","51684","0.0-1.0-0.0","0","0","aDc5y","People","[{""page_index"":0,""viewing_time"":7128},{""page_index"":1,""viewing_time"":1700}]","8829","","","","","","","","","","","","","","","","","","","","","","","","","","","","","","","","","","","","","","","","","","","","","","","",""
"","","","survey-multi-choice","2","58387","0.0-1.0-1.0","0","0","aDc5y","People","","6699","{""Q0"":""True"",""Q1"":""Mouse""}","rating_comprehension_check","0","","","","","","","","","","","","","","","","","","","","","","","","","","","","","","","","","","","","","","","","","","","","",""
"","start_phase","","html-keyboard-response","3","60435","0.0-2.0","0","0","aDc5y","People","","2044","","","","78","","","","","","","","","","","","","","","","","","","","","","","","","","","","","","","","","","","","","","","","","","","",""
"","rating","","html-slider-response","4","66531","0.0-3.0","0","0","aDc5y","People","","6092","","","","","17","23","joanna-nix-walkup-H4fEMshfwTE-unsplash.jpg","0","","","","","","","","","","","","","","","","","","","","","","","","","","","","","","","","","","","","","","","",""
"","rating","","html-slider-response","5","70682","0.0-4.0","0","0","aDc5y","People","","4147","","","","","74","4","barna-bartis-2x3vfVxwR7o-unsplash.jpg","1","","","","","","","","","","","","","","","","","","","","","","","","","","","","","","","","","","","","","","","",""
"","rating","","html-slider-response","6","75216","0.0-5.0","0","0","aDc5y","People","","4531","","","","","100","24","joel-mott-LaK153ghdig-unsplash.jpg","2","","","","","","","","","","","","","","","","","","","","","","","","","","","","","","","","","","","","","","","",""
"","rating","","html-slider-response","7","80273","0.0-6.0","0","0","aDc5y","People","","5054","","","","","64","49","vicky-hladynets-_gDoyVv5F4c-unsplash.jpg","3","","","","","","","","","","","","","","","","","","","","","","","","","","","","","","","","","","","","","","","",""
"","rating","","html-slider-response","8","85458","0.0-7.0","0","0","aDc5y","People","","5181","","","","","89","3","art-hauntington-jzY0KRJopEI-unsplash.jpg","4","","","","","","","","","","","","","","","","","","","","","","","","","","","","","","","","","","","","","","","",""
"","rating","","html-slider-response","9","90226","0.0-8.0","0","0","aDc5y","People","","4764","","","","","95","40","prince-akachi-4Yv84VgQkRM-unsplash.jpg","5","","","","","","","","","","","","","","","","","","","","","","","","","","","","","","","","","","","","","","","",""
"","rating","","html-slider-response","10","94978","0.0-9.0","0","0","aDc5y","People","","4749","","","","","20","20","houcine-ncib-B4TjXnI0Y2c-unsplash.jpg","6","","","","","","","","","","","","","","","","","","","","","","","","","","","","","","","","","","","","","","","",""
"","rating","","html-slider-response","11","100402","0.0-10.0","0","0","aDc5y","People","","5422","","","","","68","36","ospan-ali-mGdA2fzjWLo-unsplash.jpg","7","","","","","","","","","","","","","","","","","","","","","","","","","","","","","","","","","","","","","","","",""
"","rating","","html-slider-response","12","105579","0.0-11.0","0","0","aDc5y","People","","5175","","","","","100","5","batel-studio-ttSRjiYG_WM-unsplash.jpg","8","","","","","","","","","","","","","","","","","","","","","","","","","","","","","","","","","","","","","","","",""
"","rating","","html-slider-response","13","110774","0.0-12.0","0","0","aDc5y","People","","5192","","","","","74","11","christian-ferrer-8vT-DgHZDG4-unsplash.jpg","9","","","","","","","","","","","","","","","","","","","","","","","","","","","","","","","","","","","","","","","",""
"","rating","","html-slider-response","14","117650","0.0-13.0","0","0","aDc5y","People","","6873","","","","","37","7","brooke-cagle-HRZUzoX1e6w-unsplash.jpg","10","","","","","","","","","","","","","","","","","","","","","","","","","","","","","","","","","","","","","","","",""
"","rating","","html-slider-response","15","142713","0.0-14.0","0","0","aDc5y","People","","25060","","","","","28","33","olena-sergienko-0TSd6uCKTKc-unsplash.jpg","11","","","","","","","","","","","","","","","","","","","","","","","","","","","","","","","","","","","","","","","",""
"","rating","","html-slider-response","16","149528","0.0-15.0","0","0","aDc5y","People","","6812","","","","","100","6","ben-o-bro-C5XyLljkMrY-unsplash.jpg","12","","","","","","","","","","","","","","","","","","","","","","","","","","","","","","","","","","","","","","","",""
"","rating","","html-slider-response","17","153770","0.0-16.0","0","0","aDc5y","People","","4238","","","","","76","41","prince-akachi-i2hoD-C2RUA-unsplash.jpg","13","","","","","","","","","","","","","","","","","","","","","","","","","","","","","","","","","","","","","","","",""
"","rating","","html-slider-response","18","159016","0.0-17.0","0","0","aDc5y","People","","5244","","","","","92","39","philip-martin-5aGUyCW_PJw-unsplash.jpg","14","","","","","","","","","","","","","","","","","","","","","","","","","","","","","","","","","","","","","","","",""
"","rating","","html-slider-response","19","163230","0.0-18.0","0","0","aDc5y","People","","4210","","","","","100","19","ha-nguy-n-OFSQ6bHjFjs-unsplash.jpg","15","","","","","","","","","","","","","","","","","","","","","","","","","","","","","","","","","","","","","","","",""
"","rating","","html-slider-response","20","167601","0.0-19.0","0","0","aDc5y","People","","4367","","","","","31","48","velizar-ivanov-7ktP9yZA1g4-unsplash.jpg","16","","","","","","","","","","","","","","","","","","","","","","","","","","","","","","","","","","","","","","","",""
"","rating","","html-slider-response","21","173807","0.0-20.0","0","0","aDc5y","People","","6204","","","","","78","43","raamin-ka-0qJBEzudn5E-unsplash.jpg","17","","","","","","","","","","","","","","","","","","","","","","","","","","","","","","","","","","","","","","","",""
"","rating","","html-slider-response","22","179302","0.0-21.0","0","0","aDc5y","People","","5491","","","","","87","38","petr-sevcovic-HzDF-rxlSeM-unsplash.jpg","18","","","","","","","","","","","","","","","","","","","","","","","","","","","","","","","","","","","","","","","",""
"","rating","","html-slider-response","23","184247","0.0-22.0","0","0","aDc5y","People","","4939","","","","","96","15","gabriel-silverio-u3WmDyKGsrY-unsplash.jpg","19","","","","","","","","","","","","","","","","","","","","","","","","","","","","","","","","","","","","","","","",""
"","rating","","html-slider-response","24","191190","0.0-23.0","0","0","aDc5y","People","","6941","","","","","75","32","nathan-dumlao-ger61_TX6oI-unsplash.jpg","20","","","","","","","","","","","","","","","","","","","","","","","","","","","","","","","","","","","","","","","",""
"","rating","","html-slider-response","25","197343","0.0-24.0","0","0","aDc5y","People","","6149","","","","","75","12","daniel-rigdon-dXmXKPP2L4E-unsplash.jpg","21","","","","","","","","","","","","","","","","","","","","","","","","","","","","","","","","","","","","","","","",""
"","rating","","html-slider-response","26","202031","0.0-25.0","0","0","aDc5y","People","","4686","","","","","71","14","freddy-kearney-o-ioeoATbIM-unsplash.jpg","22","","","","","","","","","","","","","","","","","","","","","","","","","","","","","","","","","","","","","","","",""
"","rating","","html-slider-response","27","206670","0.0-26.0","0","0","aDc5y","People","","4636","","","","","65","30","matheus-ferrero-pg_WCHWSdT8-unsplash.jpg","23","","","","","","","","","","","","","","","","","","","","","","","","","","","","","","","","","","","","","","","",""
"","rating","","html-slider-response","28","210711","0.0-27.0","0","0","aDc5y","People","","4038","","","","","84","8","bruce-dixon-3M9WJQVHzog-unsplash.jpg","24","","","","","","","","","","","","","","","","","","","","","","","","","","","","","","","","","","","","","","","",""
"","rating","","html-slider-response","29","215430","0.0-28.0","0","0","aDc5y","People","","4716","","","","","74","9","carlos-andres-gomez-vJuk8Y86mRw-unsplash.jpg","25","","","","","","","","","","","","","","","","","","","","","","","","","","","","","","","","","","","","","","","",""
"","rating","","html-slider-response","30","219405","0.0-29.0","0","0","aDc5y","People","","3972","","","","","72","26","juri-gianfrancesco-9EZadYaMzk4-unsplash.jpg","26","","","","","","","","","","","","","","","","","","","","","","","","","","","","","","","","","","","","","","","",""
"","rating","","html-slider-response","31","223897","0.0-30.0","0","0","aDc5y","People","","4488","","","","","58","16","giano-currie-5-9YOsmf8IQ-unsplash.jpg","27","","","","","","","","","","","","","","","","","","","","","","","","","","","","","","","","","","","","","","","",""
"","rating","","html-slider-response","32","228998","0.0-31.0","0","0","aDc5y","People","","5098","","","","","84","44","rikonavt-HQjfrvdTfak-unsplash.jpg","28","","","","","","","","","","","","","","","","","","","","","","","","","","","","","","","","","","","","","","","",""
"","rating","","html-slider-response","33","233284","0.0-32.0","0","0","aDc5y","People","","4280","","","","","100","10","charles-etoroma-95UF6LXe-Lo-unsplash.jpg","29","","","","","","","","","","","","","","","","","","","","","","","","","","","","","","","","","","","","","","","",""
"","rating","","html-slider-response","34","237814","0.0-33.0","0","0","aDc5y","People","","4527","","","","","63","34","oliver-johnson-1TUIcKob7Zs-unsplash.jpg","30","","","","","","","","","","","","","","","","","","","","","","","","","","","","","","","","","","","","","","","",""
"","rating","","html-slider-response","35","245101","0.0-34.0","0","0","aDc5y","People","","7285","","","","","1","37","pavel-anoshin-d0peGya6R5Y-unsplash.jpg","31","","","","","","","","","","","","","","","","","","","","","","","","","","","","","","","","","","","","","","","",""
"","rating","","html-slider-response","36","249878","0.0-35.0","0","0","aDc5y","People","","4773","","","","","33","0","abstral-official-cyOKLSgkgCE-unsplash.jpg","32","","","","","","","","","","","","","","","","","","","","","","","","","","","","","","","","","","","","","","","",""
"","rating","","html-slider-response","37","254573","0.0-36.0","0","0","aDc5y","People","","4693","","","","","73","45","sarah-noltner-pL5ZzPp1zqg-unsplash.jpg","33","","","","","","","","","","","","","","","","","","","","","","","","","","","","","","","","","","","","","","","",""
"","rating","","html-slider-response","38","258782","0.0-37.0","0","0","aDc5y","People","","4205","","","","","52","42","prince-akachi-l3IHXOdMyHQ-unsplash.jpg","34","","","","","","","","","","","","","","","","","","","","","","","","","","","","","","","","","","","","","","","",""
"","rating","","html-slider-response","39","263317","0.0-38.0","0","0","aDc5y","People","","4533","","","","","82","28","justin-chen-J7Cf1Gch49E-unsplash.jpg","35","","","","","","","","","","","","","","","","","","","","","","","","","","","","","","","","","","","","","","","",""
"","rating","","html-slider-response","40","268302","0.0-39.0","0","0","aDc5y","People","","4981","","","","","100","18","good-faces-xmSWVeGEnJw-unsplash.jpg","36","","","","","","","","","","","","","","","","","","","","","","","","","","","","","","","","","","","","","","","",""
"","rating","","html-slider-response","41","274093","0.0-40.0","0","0","aDc5y","People","","5788","","","","","86","29","leilani-angel-K84vnnzxmTQ-unsplash.jpg","37","","","","","","","","","","","","","","","","","","","","","","","","","","","","","","","","","","","","","","","",""
"","rating","","html-slider-response","42","282125","0.0-41.0","0","0","aDc5y","People","","8030","","","","","34","2","arjunsyah-TBUA5KHJn6k-unsplash.jpg","38","","","","","","","","","","","","","","","","","","","","","","","","","","","","","","","","","","","","","","","",""
"","rating","","html-slider-response","43","287845","0.0-42.0","0","0","aDc5y","People","","5717","","","","","58","27","jurica-koletic-7YVZYZeITc8-unsplash.jpg","39","","","","","","","","","","","","","","","","","","","","","","","","","","","","","","","","","","","","","","","",""
"","rating","","html-slider-response","44","292565","0.0-43.0","0","0","aDc5y","People","","4717","","","","","38","31","mathilda-khoo-vLR0YP_otCo-unsplash.jpg","40","","","","","","","","","","","","","","","","","","","","","","","","","","","","","","","","","","","","","","","",""
"","rating","","html-slider-response","45","297925","0.0-44.0","0","0","aDc5y","People","","5358","","","","","71","46","stefan-stefancik-QXevDflbl8A-unsplash.jpg","41","","","","","","","","","","","","","","","","","","","","","","","","","","","","","","","","","","","","","","","",""
"","rating","","html-slider-response","46","302501","0.0-45.0","0","0","aDc5y","People","","4572","","","","","26","17","gleb-lukomets-paBzWCPN23k-unsplash.jpg","42","","","","","","","","","","","","","","","","","","","","","","","","","","","","","","","","","","","","","","","",""
"","rating","","html-slider-response","47","308691","0.0-46.0","0","0","aDc5y","People","","6187","","","","","24","22","jessica-radanavong-mrYkTuAesKE-unsplash.jpg","43","","","","","","","","","","","","","","","","","","","","","","","","","","","","","","","","","","","","","","","",""
"","rating","","html-slider-response","48","314557","0.0-47.0","0","0","aDc5y","People","","5862","","","","","100","47","tyler-nix-ZGa9d1a_4tA-unsplash.jpg","44","","","","","","","","","","","","","","","","","","","","","","","","","","","","","","","","","","","","","","","",""
"","rating","","html-slider-response","49","317949","0.0-48.0","0","0","aDc5y","People","","3389","","","","","83","21","jessica-felicio-_cvwXhGqG-o-unsplash.jpg","45","","","","","","","","","","","","","","","","","","","","","","","","","","","","","","","","","","","","","","","",""
"","rating","","html-slider-response","50","321251","0.0-49.0","0","0","aDc5y","People","","3300","","","","","16","13","erik-lucatero-d2MSDujJl2g-unsplash.jpg","46","","","","","","","","","","","","","","","","","","","","","","","","","","","","","","","","","","","","","","","",""
"","rating","","html-slider-response","51","323852","0.0-50.0","0","0","aDc5y","People","","2597","","","","","94","25","joseph-gonzalez-iFgRcqHznqg-unsplash.jpg","47","","","","","","","","","","","","","","","","","","","","","","","","","","","","","","","","","","","","","","","",""
"","rating","","html-slider-response","52","326676","0.0-51.0","0","0","aDc5y","People","","2821","","","","","85","1","aiony-haust-jmATI5Q_YgY-unsplash.jpg","48","","","","","","","","","","","","","","","","","","","","","","","","","","","","","","","","","","","","","","","",""
"","rating","","html-slider-response","53","329515","0.0-52.0","0","0","aDc5y","People","","2837","","","","","78","35","oliver-ragfelt-khV4fTy6-D8-unsplash.jpg","49","","","","","","","","","","","","","","","","","","","","","","","","","","","","","","","","","","","","","","","",""
"","deliberation_instructions","","instructions","54","2787582","0.0-53.0-0.0","0","0","aDc5y","People","[{""page_index"":0,""viewing_time"":113041},{""page_index"":1,""viewing_time"":7984},{""page_index"":2,""viewing_time"":31071},{""page_index"":3,""viewing_time"":2438},{""page_index"":2,""viewing_time"":14993},{""page_index"":3,""viewing_time"":2286662},{""page_index"":4,""viewing_time"":1872}]","2458062","","","","","","","","","","","","","","","","","","","","","","","","","","","","","","","","","","","","","","","","","","","","","","","",""
"","","","survey-multi-choice","55","2803189","0.0-53.0-1.0","0","0","aDc5y","People","","15600","{""Q0"":""True"",""Q1"":""True"",""Q2"":""Consider carefully and take your time (up to 10 seconds)"",""Q3"":""True"",""Q4"":""D""}","deliberation_comprehension_check","0","","","","","","","","","","","","","","","","","","","","","","","","","","","","","","","","","","","","","","","","","","","","",""
"","start_phase","","html-keyboard-response","56","2804990","0.0-54.0","0","0","aDc5y","People","","1796","","","","78","","","","","","","","","","","","","","","","","","","","","","","","","","","","","","","","","","","","","","","","","","","",""
"","first_deliberation_block","","html-keyboard-response","57","2809767","0.0-55.0","0","0","aDc5y","People","","4773","","","","78","","","","","","","","","","","","","","","","","","","","","","","","","","","","","","","","","","","","","","","","","","","",""
"","fixation","","html-keyboard-response","58","2810772","0.0-56.0-0.0","0","0","aDc5y","People","","null","","","","null","","","","","","","","","","","","","","","","","","","","","","","","","","","","","","","","","","","","","","","","","","","",""
"","deliberation","","html-keyboard-response","59","2813717","0.0-56.0-1.0","0","0","aDc5y","People","","2942","","","","75","","","","0","27","29","0","1","58","86","jurica-koletic-7YVZYZeITc8-unsplash.jpg","leilani-angel-K84vnnzxmTQ-unsplash.jpg","1","0","29","27","","","","","","","","","","","","","","","","","","","","","","","","","","","",""
"","choice_confirmation","","html-keyboard-response","60","2814220","0.0-56.0-2.0-0.0","0","0","aDc5y","People","","null","","","","null","","","","0","27","29","","","","","","","","","","","","","","","","","","","","","","","","","","","","","","","","","","","","","",""
"","fixation","","html-keyboard-response","61","2815229","0.0-57.0-0.0","0","0","aDc5y","People","","null","","","","null","","","","","","","","","","","","","","","","","","","","","","","","","","","","","","","","","","","","","","","","","","","",""
"","deliberation","","html-keyboard-response","62","2817253","0.0-57.0-1.0","0","0","aDc5y","People","","2022","","","","68","","","","1","4","9","0","1","74","74","barna-bartis-2x3vfVxwR7o-unsplash.jpg","carlos-andres-gomez-vJuk8Y86mRw-unsplash.jpg","1","1","4","9","","","","","","","","","","","","","","","","","","","","","","","","","","","",""
"","choice_confirmation","","html-keyboard-response","63","2817757","0.0-57.0-2.0-0.0","0","0","aDc5y","People","","null","","","","null","","","","1","4","9","","","","","","","","","","","","","","","","","","","","","","","","","","","","","","","","","","","","","",""
"","fixation","","html-keyboard-response","64","2818764","0.0-58.0-0.0","0","0","aDc5y","People","","null","","","","null","","","","","","","","","","","","","","","","","","","","","","","","","","","","","","","","","","","","","","","","","","","",""
"","deliberation","","html-keyboard-response","65","2820253","0.0-58.0-1.0","0","0","aDc5y","People","","1487","","","","75","","","","2","36","14","1","1","68","71","ospan-ali-mGdA2fzjWLo-unsplash.jpg","freddy-kearney-o-ioeoATbIM-unsplash.jpg","1","0","14","36","","","","","","","","","","","","","","","","","","","","","","","","","","","",""
"","choice_confirmation","","html-keyboard-response","66","2820757","0.0-58.0-2.0-0.0","0","0","aDc5y","People","","null","","","","null","","","","2","36","14","","","","","","","","","","","","","","","","","","","","","","","","","","","","","","","","","","","","","",""
"","explain_trial","","survey-text","67","2832139","0.0-58.0-5.0-0.0","0","0","aDc5y","People","","11379","{""Q0"":""The photographer put more effort to take this photo""}","","","","","","","2","36","14","","","","","","","","","","","{""Q0"":""The photographer put more effort to take this photo""}","","","","","","","","","","","","","","","","","","","","","","","","","","",""
"","fixation","","html-keyboard-response","68","2833149","0.0-59.0-0.0","0","0","aDc5y","People","","null","","","","null","","","","","","","","","","","","","","","","","","","","","","","","","","","","","","","","","","","","","","","","","","","",""
"","deliberation","","html-keyboard-response","69","2837308","0.0-59.0-1.0","0","0","aDc5y","People","","4155","","","","68","","","","3","49","34","0","1","64","63","vicky-hladynets-_gDoyVv5F4c-unsplash.jpg","oliver-johnson-1TUIcKob7Zs-unsplash.jpg","1","1","49","34","","","","","","","","","","","","","","","","","","","","","","","","","","","",""
"","choice_confirmation","","html-keyboard-response","70","2837813","0.0-59.0-2.0-0.0","0","0","aDc5y","People","","null","","","","null","","","","3","49","34","","","","","","","","","","","","","","","","","","","","","","","","","","","","","","","","","","","","","",""
"","fixation","","html-keyboard-response","71","2838820","0.0-60.0-0.0","0","0","aDc5y","People","","null","","","","null","","","","","","","","","","","","","","","","","","","","","","","","","","","","","","","","","","","","","","","","","","","",""
"","deliberation","","html-keyboard-response","72","2840775","0.0-60.0-1.0","0","0","aDc5y","People","","1953","","","","68","","","","4","1","28","1","1","85","82","aiony-haust-jmATI5Q_YgY-unsplash.jpg","justin-chen-J7Cf1Gch49E-unsplash.jpg","1","1","1","28","","","","","","","","","","","","","","","","","","","","","","","","","","","",""
"","choice_confirmation","","html-keyboard-response","73","2841285","0.0-60.0-2.0-0.0","0","0","aDc5y","People","","null","","","","null","","","","4","1","28","","","","","","","","","","","","","","","","","","","","","","","","","","","","","","","","","","","","","",""
"","explain_trial","","survey-text","74","2868923","0.0-60.0-5.0-0.0","0","0","aDc5y","People","","27636","{""Q0"":""This photo is more attractive and I like the background.""}","","","","","","","4","1","28","","","","","","","","","","","{""Q0"":""This photo is more attractive and I like the background.""}","","","","","","","","","","","","","","","","","","","","","","","","","","",""
"","fixation","","html-keyboard-response","75","2869932","0.0-61.0-0.0","0","0","aDc5y","People","","null","","","","null","","","","","","","","","","","","","","","","","","","","","","","","","","","","","","","","","","","","","","","","","","","",""
"","deliberation","","html-keyboard-response","76","2872051","0.0-61.0-1.0","0","0","aDc5y","People","","2115","","","","68","","","","5","35","26","0","-1","78","72","oliver-ragfelt-khV4fTy6-D8-unsplash.jpg","juri-gianfrancesco-9EZadYaMzk4-unsplash.jpg","1","1","35","26","","","","","","","","","","","","","","","","","","","","","","","","","","","",""
"","choice_confirmation","","html-keyboard-response","77","2872556","0.0-61.0-2.0-0.0","0","0","aDc5y","People","","null","","","","null","","","","5","35","26","","","","","","","","","","","","","","","","","","","","","","","","","","","","","","","","","","","","","",""
"","fixation","","html-keyboard-response","78","2873563","0.0-62.0-0.0","0","0","aDc5y","People","","null","","","","null","","","","","","","","","","","","","","","","","","","","","","","","","","","","","","","","","","","","","","","","","","","",""
"","deliberation","","html-keyboard-response","79","2876237","0.0-62.0-1.0","0","0","aDc5y","People","","2672","","","","68","","","","6","12","32","0","-1","75","75","daniel-rigdon-dXmXKPP2L4E-unsplash.jpg","nathan-dumlao-ger61_TX6oI-unsplash.jpg","1","1","12","32","","","","","","","","","","","","","","","","","","","","","","","","","","","",""
"","choice_confirmation","","html-keyboard-response","80","2876741","0.0-62.0-2.0-0.0","0","0","aDc5y","People","","null","","","","null","","","","6","12","32","","","","","","","","","","","","","","","","","","","","","","","","","","","","","","","","","","","","","",""
"","fixation","","html-keyboard-response","81","2877751","0.0-63.0-0.0","0","0","aDc5y","People","","null","","","","null","","","","","","","","","","","","","","","","","","","","","","","","","","","","","","","","","","","","","","","","","","","",""
"","deliberation","","html-keyboard-response","82","2879483","0.0-63.0-1.0","0","0","aDc5y","People","","1729","","","","68","","","","7","45","30","0","1","73","65","sarah-noltner-pL5ZzPp1zqg-unsplash.jpg","matheus-ferrero-pg_WCHWSdT8-unsplash.jpg","1","1","45","30","","","","","","","","","","","","","","","","","","","","","","","","","","","",""
"","choice_confirmation","","html-keyboard-response","83","2879988","0.0-63.0-2.0-0.0","0","0","aDc5y","People","","null","","","","null","","","","7","45","30","","","","","","","","","","","","","","","","","","","","","","","","","","","","","","","","","","","","","",""
"","fixation","","html-keyboard-response","84","2880996","0.0-64.0-0.0","0","0","aDc5y","People","","null","","","","null","","","","","","","","","","","","","","","","","","","","","","","","","","","","","","","","","","","","","","","","","","","",""
"","deliberation","","html-keyboard-response","85","2882579","0.0-64.0-1.0","0","0","aDc5y","People","","1581","","","","68","","","","8","11","8","1","-1","74","84","christian-ferrer-8vT-DgHZDG4-unsplash.jpg","bruce-dixon-3M9WJQVHzog-unsplash.jpg","1","1","11","8","","","","","","","","","","","","","","","","","","","","","","","","","","","",""
"","choice_confirmation","","html-keyboard-response","86","2883083","0.0-64.0-2.0-0.0","0","0","aDc5y","People","","null","","","","null","","","","8","11","8","","","","","","","","","","","","","","","","","","","","","","","","","","","","","","","","","","","","","",""
"","explain_trial","","survey-text","87","2900362","0.0-64.0-5.0-0.0","0","0","aDc5y","People","","17275","{""Q0"":""This photo should be attract everyone.""}","","","","","","","8","11","8","","","","","","","","","","","{""Q0"":""This photo should be attract everyone.""}","","","","","","","","","","","","","","","","","","","","","","","","","","",""
"","fixation","","html-keyboard-response","88","2901372","0.0-65.0-0.0","0","0","aDc5y","People","","null","","","","null","","","","","","","","","","","","","","","","","","","","","","","","","","","","","","","","","","","","","","","","","","","",""
"","deliberation","","html-keyboard-response","89","2903763","0.0-65.0-1.0","0","0","aDc5y","People","","2387","","","","68","","","","9","46","43","1","-1","71","78","stefan-stefancik-QXevDflbl8A-unsplash.jpg","raamin-ka-0qJBEzudn5E-unsplash.jpg","1","1","46","43","","","","","","","","","","","","","","","","","","","","","","","","","","","",""
"","choice_confirmation","","html-keyboard-response","90","2904268","0.0-65.0-2.0-0.0","0","0","aDc5y","People","","null","","","","null","","","","9","46","43","","","","","","","","","","","","","","","","","","","","","","","","","","","","","","","","","","","","","",""
"","explain_trial","","survey-text","91","2914481","0.0-65.0-5.0-0.0","0","0","aDc5y","People","","10211","{""Q0"":""I like the background editing.""}","","","","","","","9","46","43","","","","","","","","","","","{""Q0"":""I like the background editing.""}","","","","","","","","","","","","","","","","","","","","","","","","","","",""
"","fixation","","html-keyboard-response","92","2915493","0.0-66.0-0.0","0","0","aDc5y","People","","null","","","","null","","","","","","","","","","","","","","","","","","","","","","","","","","","","","","","","","","","","","","","","","","","",""
"","deliberation","","html-keyboard-response","93","2919146","0.0-66.0-1.0","0","0","aDc5y","People","","3651","","","","68","","","","10","44","21","1","-1","84","83","rikonavt-HQjfrvdTfak-unsplash.jpg","jessica-felicio-_cvwXhGqG-o-unsplash.jpg","1","1","44","21","","","","","","","","","","","","","","","","","","","","","","","","","","","",""
"","choice_confirmation","","html-keyboard-response","94","2919649","0.0-66.0-2.0-0.0","0","0","aDc5y","People","","null","","","","null","","","","10","44","21","","","","","","","","","","","","","","","","","","","","","","","","","","","","","","","","","","","","","",""
"","explain_trial","","survey-text","95","2922826","0.0-66.0-5.0-0.0","0","0","aDc5y","People","","3173","{""Q0"":""This photo is more attractive and I like the background.""}","","","","","","","10","44","21","","","","","","","","","","","{""Q0"":""This photo is more attractive and I like the background.""}","","","","","","","","","","","","","","","","","","","","","","","","","","",""
"","fixation","","html-keyboard-response","96","2924042","0.0-67.0-0.0","0","0","aDc5y","People","","null","","","","null","","","","","","","","","","","","","","","","","","","","","","","","","","","","","","","","","","","","","","","","","","","",""
"","deliberation","","html-keyboard-response","97","2927130","0.0-67.0-1.0","0","0","aDc5y","People","","3076","","","","75","","","","11","16","41","1","-1","58","76","giano-currie-5-9YOsmf8IQ-unsplash.jpg","prince-akachi-i2hoD-C2RUA-unsplash.jpg","1","0","41","16","","","","","","","","","","","","","","","","","","","","","","","","","","","",""
"","choice_confirmation","","html-keyboard-response","98","2927636","0.0-67.0-2.0-0.0","0","0","aDc5y","People","","null","","","","null","","","","11","16","41","","","","","","","","","","","","","","","","","","","","","","","","","","","","","","","","","","","","","",""
"","explain_trial","","survey-text","99","2937049","0.0-67.0-5.0-0.0","0","0","aDc5y","People","","9410","{""Q0"":""The photo makes me pleasure.""}","","","","","","","11","16","41","","","","","","","","","","","{""Q0"":""The photo makes me pleasure.""}","","","","","","","","","","","","","","","","","","","","","","","","","","",""
"","practice_deliberation_again","","html-keyboard-response","100","2939114","0.0-67.0-6.0-0.0","0","0","aDc5y","People","","2063","","","","78","","","","","","","","","","","","","","","","","","","","","","","","","","","","","","","","","","","","","","","","","","","",""
"","fixation","","html-keyboard-response","101","2940125","0.0-68.0-0.0","0","0","aDc5y","People","","null","","","","null","","","","","","","","","","","","","","","","","","","","","","","","","","","","","","","","","","","","","","","","","","","",""
"","deliberation","","html-keyboard-response","102","2943331","0.0-68.0-1.0","0","0","aDc5y","People","","3203","","","","68","","","","12","46","43","0","-1","71","78","stefan-stefancik-QXevDflbl8A-unsplash.jpg","raamin-ka-0qJBEzudn5E-unsplash.jpg","2","1","46","43","","","","","","","","","","","","","","","","","","","","","","","","","","","",""
"","choice_confirmation","","html-keyboard-response","103","2943838","0.0-68.0-2.0-0.0","0","0","aDc5y","People","","null","","","","null","","","","12","46","43","","","","","","","","","","","","","","","","","","","","","","","","","","","","","","","","","","","","","",""
"","fixation","","html-keyboard-response","104","2944844","0.0-69.0-0.0","0","0","aDc5y","People","","null","","","","null","","","","","","","","","","","","","","","","","","","","","","","","","","","","","","","","","","","","","","","","","","","",""
"","deliberation","","html-keyboard-response","105","2946465","0.0-69.0-1.0","0","0","aDc5y","People","","1618","","","","68","","","","13","1","28","0","1","85","82","aiony-haust-jmATI5Q_YgY-unsplash.jpg","justin-chen-J7Cf1Gch49E-unsplash.jpg","2","1","1","28","","","","","","","","","","","","","","","","","","","","","","","","","","","",""
"","choice_confirmation","","html-keyboard-response","106","2946972","0.0-69.0-2.0-0.0","0","0","aDc5y","People","","null","","","","null","","","","13","1","28","","","","","","","","","","","","","","","","","","","","","","","","","","","","","","","","","","","","","",""
"","fixation","","html-keyboard-response","107","2947981","0.0-70.0-0.0","0","0","aDc5y","People","","null","","","","null","","","","","","","","","","","","","","","","","","","","","","","","","","","","","","","","","","","","","","","","","","","",""
"","deliberation","","html-keyboard-response","108","2948955","0.0-70.0-1.0","0","0","aDc5y","People","","971","","","","68","","","","14","35","26","1","-1","78","72","oliver-ragfelt-khV4fTy6-D8-unsplash.jpg","juri-gianfrancesco-9EZadYaMzk4-unsplash.jpg","2","1","35","26","","","","","","","","","","","","","","","","","","","","","","","","","","","",""
"","choice_confirmation","","html-keyboard-response","109","2949460","0.0-70.0-2.0-0.0","0","0","aDc5y","People","","null","","","","null","","","","14","35","26","","","","","","","","","","","","","","","","","","","","","","","","","","","","","","","","","","","","","",""
"","explain_trial","","survey-text","110","2971121","0.0-70.0-5.0-0.0","0","0","aDc5y","People","","21659","{""Q0"":""I like the background of this photo.""}","","","","","","","14","35","26","","","","","","","","","","","{""Q0"":""I like the background of this photo.""}","","","","","","","","","","","","","","","","","","","","","","","","","","",""
"","fixation","","html-keyboard-response","111","2972133","0.0-71.0-0.0","0","0","aDc5y","People","","null","","","","null","","","","","","","","","","","","","","","","","","","","","","","","","","","","","","","","","","","","","","","","","","","",""
"","deliberation","","html-keyboard-response","112","2975025","0.0-71.0-1.0","0","0","aDc5y","People","","2890","","","","68","","","","15","12","32","1","-1","75","75","daniel-rigdon-dXmXKPP2L4E-unsplash.jpg","nathan-dumlao-ger61_TX6oI-unsplash.jpg","2","1","12","32","","","","","","","","","","","","","","","","","","","","","","","","","","","",""
"","choice_confirmation","","html-keyboard-response","113","2975532","0.0-71.0-2.0-0.0","0","0","aDc5y","People","","null","","","","null","","","","15","12","32","","","","","","","","","","","","","","","","","","","","","","","","","","","","","","","","","","","","","",""
"","explain_trial","","survey-text","114","2980377","0.0-71.0-5.0-0.0","0","0","aDc5y","People","","4843","{""Q0"":""This photo is more attractive and I like the background.""}","","","","","","","15","12","32","","","","","","","","","","","{""Q0"":""This photo is more attractive and I like the background.""}","","","","","","","","","","","","","","","","","","","","","","","","","","",""
"","fixation","","html-keyboard-response","115","2981387","0.0-72.0-0.0","0","0","aDc5y","People","","null","","","","null","","","","","","","","","","","","","","","","","","","","","","","","","","","","","","","","","","","","","","","","","","","",""
"","deliberation","","html-keyboard-response","116","2983950","0.0-72.0-1.0","0","0","aDc5y","People","","2562","","","","68","","","","16","4","9","1","1","74","74","barna-bartis-2x3vfVxwR7o-unsplash.jpg","carlos-andres-gomez-vJuk8Y86mRw-unsplash.jpg","2","1","4","9","","","","","","","","","","","","","","","","","","","","","","","","","","","",""
"","choice_confirmation","","html-keyboard-response","117","2984460","0.0-72.0-2.0-0.0","0","0","aDc5y","People","","null","","","","null","","","","16","4","9","","","","","","","","","","","","","","","","","","","","","","","","","","","","","","","","","","","","","",""
"","explain_trial","","survey-text","118","3008211","0.0-72.0-5.0-0.0","0","0","aDc5y","People","","23749","{""Q0"":""Highlight of this photo is omit the background.""}","","","","","","","16","4","9","","","","","","","","","","","{""Q0"":""Highlight of this photo is omit the background.""}","","","","","","","","","","","","","","","","","","","","","","","","","","",""
"","fixation","","html-keyboard-response","119","3009219","0.0-73.0-0.0","0","0","aDc5y","People","","null","","","","null","","","","","","","","","","","","","","","","","","","","","","","","","","","","","","","","","","","","","","","","","","","",""
"","deliberation","","html-keyboard-response","120","3011211","0.0-73.0-1.0","0","0","aDc5y","People","","1990","","","","68","","","","17","27","29","1","1","58","86","jurica-koletic-7YVZYZeITc8-unsplash.jpg","leilani-angel-K84vnnzxmTQ-unsplash.jpg","2","1","27","29","","","","","","","","","","","","","","","","","","","","","","","","","","","",""
"","choice_confirmation","","html-keyboard-response","121","3011715","0.0-73.0-2.0-0.0","0","0","aDc5y","People","","null","","","","null","","","","17","27","29","","","","","","","","","","","","","","","","","","","","","","","","","","","","","","","","","","","","","",""
"","explain_trial","","survey-text","122","3014167","0.0-73.0-5.0-0.0","0","0","aDc5y","People","","2449","{""Q0"":""This photo is more attractive and I like the background.""}","","","","","","","17","27","29","","","","","","","","","","","{""Q0"":""This photo is more attractive and I like the background.""}","","","","","","","","","","","","","","","","","","","","","","","","","","",""
"","fixation","","html-keyboard-response","123","3015172","0.0-74.0-0.0","0","0","aDc5y","People","","null","","","","null","","","","","","","","","","","","","","","","","","","","","","","","","","","","","","","","","","","","","","","","","","","",""
"","deliberation","","html-keyboard-response","124","3016615","0.0-74.0-1.0","0","0","aDc5y","People","","1441","","","","68","","","","18","45","30","1","1","73","65","sarah-noltner-pL5ZzPp1zqg-unsplash.jpg","matheus-ferrero-pg_WCHWSdT8-unsplash.jpg","2","1","45","30","","","","","","","","","","","","","","","","","","","","","","","","","","","",""
"","choice_confirmation","","html-keyboard-response","125","3017124","0.0-74.0-2.0-0.0","0","0","aDc5y","People","","null","","","","null","","","","18","45","30","","","","","","","","","","","","","","","","","","","","","","","","","","","","","","","","","","","","","",""
"","explain_trial","","survey-text","126","3019487","0.0-74.0-5.0-0.0","0","0","aDc5y","People","","2360","{""Q0"":""This photo is more attractive and I like the background.""}","","","","","","","18","45","30","","","","","","","","","","","{""Q0"":""This photo is more attractive and I like the background.""}","","","","","","","","","","","","","","","","","","","","","","","","","","",""
"","fixation","","html-keyboard-response","127","3020493","0.0-75.0-0.0","0","0","aDc5y","People","","null","","","","null","","","","","","","","","","","","","","","","","","","","","","","","","","","","","","","","","","","","","","","","","","","",""
"","deliberation","","html-keyboard-response","128","3022423","0.0-75.0-1.0","0","0","aDc5y","People","","1928","","","","75","","","","19","36","14","0","1","68","71","ospan-ali-mGdA2fzjWLo-unsplash.jpg","freddy-kearney-o-ioeoATbIM-unsplash.jpg","2","0","14","36","","","","","","","","","","","","","","","","","","","","","","","","","","","",""
"","choice_confirmation","","html-keyboard-response","129","3022933","0.0-75.0-2.0-0.0","0","0","aDc5y","People","","null","","","","null","","","","19","36","14","","","","","","","","","","","","","","","","","","","","","","","","","","","","","","","","","","","","","",""
"","fixation","","html-keyboard-response","130","3023941","0.0-76.0-0.0","0","0","aDc5y","People","","null","","","","null","","","","","","","","","","","","","","","","","","","","","","","","","","","","","","","","","","","","","","","","","","","",""
"","deliberation","","html-keyboard-response","131","3024992","0.0-76.0-1.0","0","0","aDc5y","People","","1049","","","","68","","","","20","44","21","0","-1","84","83","rikonavt-HQjfrvdTfak-unsplash.jpg","jessica-felicio-_cvwXhGqG-o-unsplash.jpg","2","1","44","21","","","","","","","","","","","","","","","","","","","","","","","","","","","",""
"","choice_confirmation","","html-keyboard-response","132","3025499","0.0-76.0-2.0-0.0","0","0","aDc5y","People","","null","","","","null","","","","20","44","21","","","","","","","","","","","","","","","","","","","","","","","","","","","","","","","","","","","","","",""
"","fixation","","html-keyboard-response","133","3026508","0.0-77.0-0.0","0","0","aDc5y","People","","null","","","","null","","","","","","","","","","","","","","","","","","","","","","","","","","","","","","","","","","","","","","","","","","","",""
"","deliberation","","html-keyboard-response","134","3027760","0.0-77.0-1.0","0","0","aDc5y","People","","1249","","","","68","","","","21","49","34","1","1","64","63","vicky-hladynets-_gDoyVv5F4c-unsplash.jpg","oliver-johnson-1TUIcKob7Zs-unsplash.jpg","2","1","49","34","","","","","","","","","","","","","","","","","","","","","","","","","","","",""
"","choice_confirmation","","html-keyboard-response","135","3028267","0.0-77.0-2.0-0.0","0","0","aDc5y","People","","null","","","","null","","","","21","49","34","","","","","","","","","","","","","","","","","","","","","","","","","","","","","","","","","","","","","",""
"","explain_trial","","survey-text","136","3047518","0.0-77.0-5.0-0.0","0","0","aDc5y","People","","19247","{""Q0"":""The photo editing effect is high.""}","","","","","","","21","49","34","","","","","","","","","","","{""Q0"":""The photo editing effect is high.""}","","","","","","","","","","","","","","","","","","","","","","","","","","",""
"","fixation","","html-keyboard-response","137","3048524","0.0-78.0-0.0","0","0","aDc5y","People","","null","","","","null","","","","","","","","","","","","","","","","","","","","","","","","","","","","","","","","","","","","","","","","","","","",""
"","deliberation","","html-keyboard-response","138","3051859","0.0-78.0-1.0","0","0","aDc5y","People","","3328","","","","75","","","","22","16","41","0","-1","58","76","giano-currie-5-9YOsmf8IQ-unsplash.jpg","prince-akachi-i2hoD-C2RUA-unsplash.jpg","2","0","41","16","","","","","","","","","","","","","","","","","","","","","","","","","","","",""
"","choice_confirmation","","html-keyboard-response","139","3052372","0.0-78.0-2.0-0.0","0","0","aDc5y","People","","null","","","","null","","","","22","16","41","","","","","","","","","","","","","","","","","","","","","","","","","","","","","","","","","","","","","",""
"","fixation","","html-keyboard-response","140","3053380","0.0-79.0-0.0","0","0","aDc5y","People","","null","","","","null","","","","","","","","","","","","","","","","","","","","","","","","","","","","","","","","","","","","","","","","","","","",""
"","deliberation","","html-keyboard-response","141","3055111","0.0-79.0-1.0","0","0","aDc5y","People","","1729","","","","68","","","","23","11","8","0","-1","74","84","christian-ferrer-8vT-DgHZDG4-unsplash.jpg","bruce-dixon-3M9WJQVHzog-unsplash.jpg","2","1","11","8","","","","","","","","","","","","","","","","","","","","","","","","","","","",""
"","choice_confirmation","","html-keyboard-response","142","3055619","0.0-79.0-2.0-0.0","0","0","aDc5y","People","","null","","","","null","","","","23","11","8","","","","","","","","","","","","","","","","","","","","","","","","","","","","","","","","","","","","","",""
"","start_critical_deliberation_block","","html-keyboard-response","143","3057808","0.0-79.0-7.0-0.0","0","0","aDc5y","People","","2186","","","","78","","","","","","","","","","","","","","","","","","","","","","","","","","","","","","","","","","","","","","","","","","","",""
"","fixation","","html-keyboard-response","144","3058812","0.0-80.0-0.0","0","0","aDc5y","People","","null","","","","null","","","","","","","","","","","","","","","","","","","","","","","","","","","","","","","","","","","","","","","","","","","",""
"","deliberation","","html-keyboard-response","145","3060822","0.0-80.0-1.0","0","0","aDc5y","People","","2007","","","","68","","","","24","49","34","0","1","64","63","vicky-hladynets-_gDoyVv5F4c-unsplash.jpg","oliver-johnson-1TUIcKob7Zs-unsplash.jpg","3","1","49","34","","","","","","","","","","","","","","","","","","","","","","","","","","","",""
"","choice_confirmation","","html-keyboard-response","146","3061331","0.0-80.0-2.0-0.0","0","0","aDc5y","People","","null","","","","null","","","","24","49","34","","","","","","","","","","","","","","","","","","","","","","","","","","","","","","","","","","","","","",""
"","fixation","","html-keyboard-response","147","3062356","0.0-81.0-0.0","0","0","aDc5y","People","","null","","","","null","","","","","","","","","","","","","","","","","","","","","","","","","","","","","","","","","","","","","","","","","","","",""
"","deliberation","","html-keyboard-response","148","3064173","0.0-81.0-1.0","0","0","aDc5y","People","","1815","","","","68","","","","25","45","30","0","1","73","65","sarah-noltner-pL5ZzPp1zqg-unsplash.jpg","matheus-ferrero-pg_WCHWSdT8-unsplash.jpg","3","1","45","30","","","","","","","","","","","","","","","","","","","","","","","","","","","",""
"","choice_confirmation","","html-keyboard-response","149","3064676","0.0-81.0-2.0-0.0","0","0","aDc5y","People","","null","","","","null","","","","25","45","30","","","","","","","","","","","","","","","","","","","","","","","","","","","","","","","","","","","","","",""
"","fixation","","html-keyboard-response","150","3065684","0.0-82.0-0.0","0","0","aDc5y","People","","null","","","","null","","","","","","","","","","","","","","","","","","","","","","","","","","","","","","","","","","","","","","","","","","","",""
"","deliberation","","html-keyboard-response","151","3066783","0.0-82.0-1.0","0","0","aDc5y","People","","1097","","","","68","","","","26","1","28","0","1","85","82","aiony-haust-jmATI5Q_YgY-unsplash.jpg","justin-chen-J7Cf1Gch49E-unsplash.jpg","3","1","1","28","","","","","","","","","","","","","","","","","","","","","","","","","","","",""
"","choice_confirmation","","html-keyboard-response","152","3067288","0.0-82.0-2.0-0.0","0","0","aDc5y","People","","null","","","","null","","","","26","1","28","","","","","","","","","","","","","","","","","","","","","","","","","","","","","","","","","","","","","",""
"","fixation","","html-keyboard-response","153","3068292","0.0-83.0-0.0","0","0","aDc5y","People","","null","","","","null","","","","","","","","","","","","","","","","","","","","","","","","","","","","","","","","","","","","","","","","","","","",""
"","deliberation","","html-keyboard-response","154","3069437","0.0-83.0-1.0","0","0","aDc5y","People","","1143","","","","75","","","","27","16","41","0","-1","58","76","giano-currie-5-9YOsmf8IQ-unsplash.jpg","prince-akachi-i2hoD-C2RUA-unsplash.jpg","3","0","41","16","","","","","","","","","","","","","","","","","","","","","","","","","","","",""
"","choice_confirmation","","html-keyboard-response","155","3069941","0.0-83.0-2.0-0.0","0","0","aDc5y","People","","null","","","","null","","","","27","16","41","","","","","","","","","","","","","","","","","","","","","","","","","","","","","","","","","","","","","",""
"","fixation","","html-keyboard-response","156","3070948","0.0-84.0-0.0","0","0","aDc5y","People","","null","","","","null","","","","","","","","","","","","","","","","","","","","","","","","","","","","","","","","","","","","","","","","","","","",""
"","deliberation","","html-keyboard-response","157","3071926","0.0-84.0-1.0","0","0","aDc5y","People","","976","","","","68","","","","28","11","8","0","-1","74","84","christian-ferrer-8vT-DgHZDG4-unsplash.jpg","bruce-dixon-3M9WJQVHzog-unsplash.jpg","3","1","11","8","","","","","","","","","","","","","","","","","","","","","","","","","","","",""
"","choice_confirmation","","html-keyboard-response","158","3072467","0.0-84.0-2.0-0.0","0","0","aDc5y","People","","null","","","","null","","","","28","11","8","","","","","","","","","","","","","","","","","","","","","","","","","","","","","","","","","","","","","",""
"","fixation","","html-keyboard-response","159","3073476","0.0-85.0-0.0","0","0","aDc5y","People","","null","","","","null","","","","","","","","","","","","","","","","","","","","","","","","","","","","","","","","","","","","","","","","","","","",""
"","deliberation","","html-keyboard-response","160","3075070","0.0-85.0-1.0","0","0","aDc5y","People","","1593","","","","68","","","","29","46","43","0","-1","71","78","stefan-stefancik-QXevDflbl8A-unsplash.jpg","raamin-ka-0qJBEzudn5E-unsplash.jpg","3","1","46","43","","","","","","","","","","","","","","","","","","","","","","","","","","","",""
"","choice_confirmation","","html-keyboard-response","161","3075573","0.0-85.0-2.0-0.0","0","0","aDc5y","People","","null","","","","null","","","","29","46","43","","","","","","","","","","","","","","","","","","","","","","","","","","","","","","","","","","","","","",""
"","fixation","","html-keyboard-response","162","3076580","0.0-86.0-0.0","0","0","aDc5y","People","","null","","","","null","","","","","","","","","","","","","","","","","","","","","","","","","","","","","","","","","","","","","","","","","","","",""
"","deliberation","","html-keyboard-response","163","3077582","0.0-86.0-1.0","0","0","aDc5y","People","","1001","","","","68","","","","30","35","26","0","-1","78","72","oliver-ragfelt-khV4fTy6-D8-unsplash.jpg","juri-gianfrancesco-9EZadYaMzk4-unsplash.jpg","3","1","35","26","","","","","","","","","","","","","","","","","","","","","","","","","","","",""
"","choice_confirmation","","html-keyboard-response","164","3078092","0.0-86.0-2.0-0.0","0","0","aDc5y","People","","null","","","","null","","","","30","35","26","","","","","","","","","","","","","","","","","","","","","","","","","","","","","","","","","","","","","",""
"","fixation","","html-keyboard-response","165","3079101","0.0-87.0-0.0","0","0","aDc5y","People","","null","","","","null","","","","","","","","","","","","","","","","","","","","","","","","","","","","","","","","","","","","","","","","","","","",""
"","deliberation","","html-keyboard-response","166","3080285","0.0-87.0-1.0","0","0","aDc5y","People","","1182","","","","75","","","","31","36","14","0","1","68","71","ospan-ali-mGdA2fzjWLo-unsplash.jpg","freddy-kearney-o-ioeoATbIM-unsplash.jpg","3","0","14","36","","","","","","","","","","","","","","","","","","","","","","","","","","","",""
"","choice_confirmation","","html-keyboard-response","167","3080788","0.0-87.0-2.0-0.0","0","0","aDc5y","People","","null","","","","null","","","","31","36","14","","","","","","","","","","","","","","","","","","","","","","","","","","","","","","","","","","","","","",""
"","fixation","","html-keyboard-response","168","3081795","0.0-88.0-0.0","0","0","aDc5y","People","","null","","","","null","","","","","","","","","","","","","","","","","","","","","","","","","","","","","","","","","","","","","","","","","","","",""
"","deliberation","","html-keyboard-response","169","3083109","0.0-88.0-1.0","0","0","aDc5y","People","","1312","","","","68","","","","32","27","29","0","1","58","86","jurica-koletic-7YVZYZeITc8-unsplash.jpg","leilani-angel-K84vnnzxmTQ-unsplash.jpg","3","1","27","29","","","","","","","","","","","","","","","","","","","","","","","","","","","",""
"","choice_confirmation","","html-keyboard-response","170","3083613","0.0-88.0-2.0-0.0","0","0","aDc5y","People","","null","","","","null","","","","32","27","29","","","","","","","","","","","","","","","","","","","","","","","","","","","","","","","","","","","","","",""
"","fixation","","html-keyboard-response","171","3084619","0.0-89.0-0.0","0","0","aDc5y","People","","null","","","","null","","","","","","","","","","","","","","","","","","","","","","","","","","","","","","","","","","","","","","","","","","","",""
"","deliberation","","html-keyboard-response","172","3086054","0.0-89.0-1.0","0","0","aDc5y","People","","1432","","","","68","","","","33","4","9","0","1","74","74","barna-bartis-2x3vfVxwR7o-unsplash.jpg","carlos-andres-gomez-vJuk8Y86mRw-unsplash.jpg","3","1","4","9","","","","","","","","","","","","","","","","","","","","","","","","","","","",""
"","choice_confirmation","","html-keyboard-response","173","3086556","0.0-89.0-2.0-0.0","0","0","aDc5y","People","","null","","","","null","","","","33","4","9","","","","","","","","","","","","","","","","","","","","","","","","","","","","","","","","","","","","","",""
"","fixation","","html-keyboard-response","174","3087564","0.0-90.0-0.0","0","0","aDc5y","People","","null","","","","null","","","","","","","","","","","","","","","","","","","","","","","","","","","","","","","","","","","","","","","","","","","",""
"","deliberation","","html-keyboard-response","175","3088998","0.0-90.0-1.0","0","0","aDc5y","People","","1431","","","","68","","","","34","12","32","0","-1","75","75","daniel-rigdon-dXmXKPP2L4E-unsplash.jpg","nathan-dumlao-ger61_TX6oI-unsplash.jpg","3","1","12","32","","","","","","","","","","","","","","","","","","","","","","","","","","","",""
"","choice_confirmation","","html-keyboard-response","176","3089500","0.0-90.0-2.0-0.0","0","0","aDc5y","People","","null","","","","null","","","","34","12","32","","","","","","","","","","","","","","","","","","","","","","","","","","","","","","","","","","","","","",""
"","fixation","","html-keyboard-response","177","3090526","0.0-91.0-0.0","0","0","aDc5y","People","","null","","","","null","","","","","","","","","","","","","","","","","","","","","","","","","","","","","","","","","","","","","","","","","","","",""
"","deliberation","","html-keyboard-response","178","3091453","0.0-91.0-1.0","0","0","aDc5y","People","","925","","","","68","","","","35","44","21","0","-1","84","83","rikonavt-HQjfrvdTfak-unsplash.jpg","jessica-felicio-_cvwXhGqG-o-unsplash.jpg","3","1","44","21","","","","","","","","","","","","","","","","","","","","","","","","","","","",""
"","choice_confirmation","","html-keyboard-response","179","3091972","0.0-91.0-2.0-0.0","0","0","aDc5y","People","","null","","","","null","","","","35","44","21","","","","","","","","","","","","","","","","","","","","","","","","","","","","","","","","","","","","","",""
"","reward_learning_instructions","","instructions","180","3126972","0.0-92.0-0.0","0","0","aDc5y","People","[{""page_index"":0,""viewing_time"":19778},{""page_index"":1,""viewing_time"":13556},{""page_index"":2,""viewing_time"":1664}]","34998","","","","","","","","","","","","","","","","","","","","","","","","","","","","","","","","","","","","","","","","","","","","","","","",""
"","","","survey-multi-choice","181","3141661","0.0-92.0-1.0","0","0","aDc5y","People","","14684","{""Q0"":""True"",""Q1"":""True"",""Q2"":""Press the space bar to see its outcome"",""Q3"":""Press the relevant key while the outcome is presented""}","reward_comprehension_check","0","","","","","","","","","","","","","","","","","","","","","","","","","","","","","","","","","","","","","","","","","","","","",""
"","start_phase","","html-keyboard-response","182","3143365","0.0-93.0","0","0","aDc5y","People","","1701","","","","78","","","","","","","","","","","","","","","","","","","","","","","","","","","","","","","","","","","","","","","","","","","",""
"","fixation","","html-keyboard-response","183","3144372","0.0-94.0","0","0","aDc5y","People","","null","","","","null","","","","","","","","","","","","","","","","","","","","","","","","","","","","","","","","","","","","","","","","","","","",""
"","see_reward","","html-keyboard-response","184","3146029","0.0-95.0","0","0","aDc5y","People","","1653","","","","32","","12","","0","","","","-1","","","","","1","","","","","0","1653","","","","","","","","","","","","","","","","","","","","","","","","",""
"","reward_outcome","","html-keyboard-response","185","3148037","0.0-96.0","0","0","aDc5y","People","","893","","","","40","","12","","0","","","","","","","","","","","","","","","","-1","893","","","","","","","","","","","","","","","","","","","","","","",""
"","fixation","","html-keyboard-response","186","3149046","0.0-99.0","0","0","aDc5y","People","","null","","","","null","","","","","","","","","","","","","","","","","","","","","","","","","","","","","","","","","","","","","","","","","","","",""
"","see_reward","","html-keyboard-response","187","3150134","0.0-100.0","0","0","aDc5y","People","","1085","","","","32","","46","","1","","","","-1","","","","","1","","","","","0","1085","","","","","","","","","","","","","","","","","","","","","","","","",""
"","reward_outcome","","html-keyboard-response","188","3152141","0.0-101.0","0","0","aDc5y","People","","708","","","","40","","46","","1","","","","","","","","","","","","","","","","-1","708","","","","","","","","","","","","","","","","","","","","","","",""
"","fixation","","html-keyboard-response","189","3153149","0.0-104.0","0","0","aDc5y","People","","null","","","","null","","","","","","","","","","","","","","","","","","","","","","","","","","","","","","","","","","","","","","","","","","","",""
"","see_reward","","html-keyboard-response","190","3154077","0.0-105.0","0","0","aDc5y","People","","926","","","","32","","14","","2","","","","1","","","","","1","","","","","151","926","","","","","","","","","","","","","","","","","","","","","","","","",""
"","reward_outcome","","html-keyboard-response","191","3156095","0.0-106.0","0","0","aDc5y","People","","677","","","","38","","14","","2","","","","","","","","","","","","","","","","1","677","","","","","","","","","","","","","","","","","","","","","","",""
"","fixation","","html-keyboard-response","192","3157109","0.0-109.0","0","0","aDc5y","People","","null","","","","null","","","","","","","","","","","","","","","","","","","","","","","","","","","","","","","","","","","","","","","","","","","",""
"","see_reward","","html-keyboard-response","193","3157757","0.0-110.0","0","0","aDc5y","People","","645","","","","32","","35","","3","","","","-1","","","","","1","","","","","0","645","","","","","","","","","","","","","","","","","","","","","","","","",""
"","reward_outcome","","html-keyboard-response","194","3159765","0.0-111.0","0","0","aDc5y","People","","885","","","","40","","35","","3","","","","","","","","","","","","","","","","-1","885","","","","","","","","","","","","","","","","","","","","","","",""
"","fixation","","html-keyboard-response","195","3160773","0.0-114.0","0","0","aDc5y","People","","null","","","","null","","","","","","","","","","","","","","","","","","","","","","","","","","","","","","","","","","","","","","","","","","","",""
"","see_reward","","html-keyboard-response","196","3161660","0.0-115.0","0","0","aDc5y","People","","884","","","","32","","35","","4","","","","-1","","","","","1","","","","","0","884","","","","","","","","","","","","","","","","","","","","","","","","",""
"","reward_outcome","","html-keyboard-response","197","3163669","0.0-116.0","0","0","aDc5y","People","","632","","","","40","","35","","4","","","","","","","","","","","","","","","","-1","632","","","","","","","","","","","","","","","","","","","","","","",""
"","fixation","","html-keyboard-response","198","3164676","0.0-119.0","0","0","aDc5y","People","","null","","","","null","","","","","","","","","","","","","","","","","","","","","","","","","","","","","","","","","","","","","","","","","","","",""
"","see_reward","","html-keyboard-response","199","3165692","0.0-120.0","0","0","aDc5y","People","","1013","","","","32","","44","","5","","","","-1","","","","","1","","","","","0","1013","","","","","","","","","","","","","","","","","","","","","","","","",""
"","reward_outcome","","html-keyboard-response","200","3167728","0.0-121.0","0","0","aDc5y","People","","1024","","","","40","","44","","5","","","","","","","","","","","","","","","","-1","1024","","","","","","","","","","","","","","","","","","","","","","",""
"","fixation","","html-keyboard-response","201","3168732","0.0-124.0","0","0","aDc5y","People","","null","","","","null","","","","","","","","","","","","","","","","","","","","","","","","","","","","","","","","","","","","","","","","","","","",""
"","see_reward","","html-keyboard-response","202","3169724","0.0-125.0","0","0","aDc5y","People","","990","","","","32","","14","","6","","","","1","","","","","1","","","","","151","990","","","","","","","","","","","","","","","","","","","","","","","","",""
"","reward_outcome","","html-keyboard-response","203","3171732","0.0-126.0","0","0","aDc5y","People","","627","","","","38","","14","","6","","","","","","","","","","","","","","","","1","627","","","","","","","","","","","","","","","","","","","","","","",""
"","fixation","","html-keyboard-response","204","3172742","0.0-129.0","0","0","aDc5y","People","","null","","","","null","","","","","","","","","","","","","","","","","","","","","","","","","","","","","","","","","","","","","","","","","","","",""
"","see_reward","","html-keyboard-response","205","3173436","0.0-130.0","0","0","aDc5y","People","","691","","","","32","","27","","7","","","","1","","","","","1","","","","","150","691","","","","","","","","","","","","","","","","","","","","","","","","",""
"","reward_outcome","","html-keyboard-response","206","3175445","0.0-131.0","0","0","aDc5y","People","","919","","","","38","","27","","7","","","","","","","","","","","","","","","","1","919","","","","","","","","","","","","","","","","","","","","","","",""
"","fixation","","html-keyboard-response","207","3176453","0.0-134.0","0","0","aDc5y","People","","null","","","","null","","","","","","","","","","","","","","","","","","","","","","","","","","","","","","","","","","","","","","","","","","","",""
"","see_reward","","html-keyboard-response","208","3177268","0.0-135.0","0","0","aDc5y","People","","813","","","","32","","4","","8","","","","1","","","","","1","","","","","155","813","","","","","","","","","","","","","","","","","","","","","","","","",""
"","reward_outcome","","html-keyboard-response","209","3179276","0.0-136.0","0","0","aDc5y","People","","828","","","","38","","4","","8","","","","","","","","","","","","","","","","1","828","","","","","","","","","","","","","","","","","","","","","","",""
"","fixation","","html-keyboard-response","210","3180283","0.0-139.0","0","0","aDc5y","People","","null","","","","null","","","","","","","","","","","","","","","","","","","","","","","","","","","","","","","","","","","","","","","","","","","",""
"","see_reward","","html-keyboard-response","211","3180866","0.0-140.0","0","0","aDc5y","People","","581","","","","32","","45","","9","","","","1","","","","","1","","","","","154","581","","","","","","","","","","","","","","","","","","","","","","","","",""
"","reward_outcome","","html-keyboard-response","212","3182901","0.0-141.0","0","0","aDc5y","People","","784","","","","38","","45","","9","","","","","","","","","","","","","","","","1","784","","","","","","","","","","","","","","","","","","","","","","",""
"","fixation","","html-keyboard-response","213","3184044","0.0-144.0","0","0","aDc5y","People","","null","","","","null","","","","","","","","","","","","","","","","","","","","","","","","","","","","","","","","","","","","","","","","","","","",""
"","see_reward","","html-keyboard-response","214","3184760","0.0-145.0","0","0","aDc5y","People","","714","","","","32","","46","","10","","","","-1","","","","","1","","","","","0","714","","","","","","","","","","","","","","","","","","","","","","","","",""
"","reward_outcome","","html-keyboard-response","215","3186816","0.0-146.0","0","0","aDc5y","People","","846","","","","40","","46","","10","","","","","","","","","","","","","","","","-1","846","","","","","","","","","","","","","","","","","","","","","","",""
"","fixation","","html-keyboard-response","216","3187830","0.0-149.0","0","0","aDc5y","People","","null","","","","null","","","","","","","","","","","","","","","","","","","","","","","","","","","","","","","","","","","","","","","","","","","",""
"","see_reward","","html-keyboard-response","217","3188907","0.0-150.0","0","0","aDc5y","People","","1075","","","","32","","41","","11","","","","-1","","","","","1","","","","","0","1075","","","","","","","","","","","","","","","","","","","","","","","","",""
"","reward_outcome","","html-keyboard-response","218","3190915","0.0-151.0","0","0","aDc5y","People","","805","","","","40","","41","","11","","","","","","","","","","","","","","","","-1","805","","","","","","","","","","","","","","","","","","","","","","",""
"","fixation","","html-keyboard-response","219","3191925","0.0-154.0","0","0","aDc5y","People","","null","","","","null","","","","","","","","","","","","","","","","","","","","","","","","","","","","","","","","","","","","","","","","","","","",""
"","see_reward","","html-keyboard-response","220","3192507","0.0-155.0","0","0","aDc5y","People","","580","","","","32","","11","","12","","","","-1","","","","","1","","","","","0","580","","","","","","","","","","","","","","","","","","","","","","","","",""
"","reward_outcome","","html-keyboard-response","221","3194515","0.0-156.0","0","0","aDc5y","People","","796","","","","40","","11","","12","","","","","","","","","","","","","","","","-1","796","","","","","","","","","","","","","","","","","","","","","","",""
"","fixation","","html-keyboard-response","222","3195524","0.0-159.0","0","0","aDc5y","People","","null","","","","null","","","","","","","","","","","","","","","","","","","","","","","","","","","","","","","","","","","","","","","","","","","",""
"","see_reward","","html-keyboard-response","223","3196127","0.0-160.0","0","0","aDc5y","People","","600","","","","32","","1","","13","","","","1","","","","","1","","","","","155","600","","","","","","","","","","","","","","","","","","","","","","","","",""
"","reward_outcome","","html-keyboard-response","224","3198132","0.0-161.0","0","0","aDc5y","People","","849","","","","38","","1","","13","","","","","","","","","","","","","","","","1","849","","","","","","","","","","","","","","","","","","","","","","",""
"","fixation","","html-keyboard-response","225","3199140","0.0-164.0","0","0","aDc5y","People","","null","","","","null","","","","","","","","","","","","","","","","","","","","","","","","","","","","","","","","","","","","","","","","","","","",""
"","see_reward","","html-keyboard-response","226","3200165","0.0-165.0","0","0","aDc5y","People","","1023","","","","32","","49","","14","","","","1","","","","","1","","","","","147","1023","","","","","","","","","","","","","","","","","","","","","","","","",""
"","reward_outcome","","html-keyboard-response","227","3202172","0.0-166.0","0","0","aDc5y","People","","869","","","","38","","49","","14","","","","","","","","","","","","","","","","1","869","","","","","","","","","","","","","","","","","","","","","","",""
"","fixation","","html-keyboard-response","228","3203180","0.0-169.0","0","0","aDc5y","People","","null","","","","null","","","","","","","","","","","","","","","","","","","","","","","","","","","","","","","","","","","","","","","","","","","",""
"","see_reward","","html-keyboard-response","229","3203946","0.0-170.0","0","0","aDc5y","People","","764","","","","32","","45","","15","","","","1","","","","","1","","","","","154","764","","","","","","","","","","","","","","","","","","","","","","","","",""
"","reward_outcome","","html-keyboard-response","230","3205958","0.0-171.0","0","0","aDc5y","People","","726","","","","38","","45","","15","","","","","","","","","","","","","","","","1","726","","","","","","","","","","","","","","","","","","","","","","",""
"","fixation","","html-keyboard-response","231","3206964","0.0-174.0","0","0","aDc5y","People","","null","","","","null","","","","","","","","","","","","","","","","","","","","","","","","","","","","","","","","","","","","","","","","","","","",""
"","see_reward","","html-keyboard-response","232","3207522","0.0-175.0","0","0","aDc5y","People","","556","","","","32","","1","","16","","","","1","","","","","1","","","","","155","556","","","","","","","","","","","","","","","","","","","","","","","","",""
"","reward_outcome","","html-keyboard-response","233","3209532","0.0-176.0","0","0","aDc5y","People","","670","","","","38","","1","","16","","","","","","","","","","","","","","","","1","670","","","","","","","","","","","","","","","","","","","","","","",""
"","fixation","","html-keyboard-response","234","3210539","0.0-179.0","0","0","aDc5y","People","","null","","","","null","","","","","","","","","","","","","","","","","","","","","","","","","","","","","","","","","","","","","","","","","","","",""
"","see_reward","","html-keyboard-response","235","3211147","0.0-180.0","0","0","aDc5y","People","","606","","","","32","","44","","17","","","","-1","","","","","1","","","","","0","606","","","","","","","","","","","","","","","","","","","","","","","","",""
"","reward_outcome","","html-keyboard-response","236","3213156","0.0-181.0","0","0","aDc5y","People","","789","","","","40","","44","","17","","","","","","","","","","","","","","","","-1","789","","","","","","","","","","","","","","","","","","","","","","",""
"","fixation","","html-keyboard-response","237","3214163","0.0-184.0","0","0","aDc5y","People","","null","","","","null","","","","","","","","","","","","","","","","","","","","","","","","","","","","","","","","","","","","","","","","","","","",""
"","see_reward","","html-keyboard-response","238","3214842","0.0-185.0","0","0","aDc5y","People","","677","","","","32","","4","","18","","","","1","","","","","1","","","","","155","677","","","","","","","","","","","","","","","","","","","","","","","","",""
"","reward_outcome","","html-keyboard-response","239","3216852","0.0-186.0","0","0","aDc5y","People","","679","","","","38","","4","","18","","","","","","","","","","","","","","","","1","679","","","","","","","","","","","","","","","","","","","","","","",""
"","fixation","","html-keyboard-response","240","3217933","0.0-189.0","0","0","aDc5y","People","","null","","","","null","","","","","","","","","","","","","","","","","","","","","","","","","","","","","","","","","","","","","","","","","","","",""
"","see_reward","","html-keyboard-response","241","3219018","0.0-190.0","0","0","aDc5y","People","","1083","","","","32","","12","","19","","","","-1","","","","","1","","","","","0","1083","","","","","","","","","","","","","","","","","","","","","","","","",""
"","reward_outcome","","html-keyboard-response","242","3221028","0.0-191.0","0","0","aDc5y","People","","678","","","","40","","12","","19","","","","","","","","","","","","","","","","-1","678","","","","","","","","","","","","","","","","","","","","","","",""
"","fixation","","html-keyboard-response","243","3222036","0.0-194.0","0","0","aDc5y","People","","null","","","","null","","","","","","","","","","","","","","","","","","","","","","","","","","","","","","","","","","","","","","","","","","","",""
"","see_reward","","html-keyboard-response","244","3223090","0.0-195.0","0","0","aDc5y","People","","1052","","","","32","","27","","20","","","","1","","","","","1","","","","","150","1052","","","","","","","","","","","","","","","","","","","","","","","","",""
"","reward_outcome","","html-keyboard-response","245","3225101","0.0-196.0","0","0","aDc5y","People","","605","","","","38","","27","","20","","","","","","","","","","","","","","","","1","605","","","","","","","","","","","","","","","","","","","","","","",""
"","fixation","","html-keyboard-response","246","3226109","0.0-199.0","0","0","aDc5y","People","","null","","","","null","","","","","","","","","","","","","","","","","","","","","","","","","","","","","","","","","","","","","","","","","","","",""
"","see_reward","","html-keyboard-response","247","3226820","0.0-200.0","0","0","aDc5y","People","","709","","","","32","","49","","21","","","","1","","","","","1","","","","","147","709","","","","","","","","","","","","","","","","","","","","","","","","",""
"","reward_outcome","","html-keyboard-response","248","3228829","0.0-201.0","0","0","aDc5y","People","","605","","","","38","","49","","21","","","","","","","","","","","","","","","","1","605","","","","","","","","","","","","","","","","","","","","","","",""
"","fixation","","html-keyboard-response","249","3229837","0.0-204.0","0","0","aDc5y","People","","null","","","","null","","","","","","","","","","","","","","","","","","","","","","","","","","","","","","","","","","","","","","","","","","","",""
"","see_reward","","html-keyboard-response","250","3230442","0.0-205.0","0","0","aDc5y","People","","603","","","","32","","11","","22","","","","-1","","","","","1","","","","","0","603","","","","","","","","","","","","","","","","","","","","","","","","",""
"","reward_outcome","","html-keyboard-response","251","3232453","0.0-206.0","0","0","aDc5y","People","","781","","","","40","","11","","22","","","","","","","","","","","","","","","","-1","781","","","","","","","","","","","","","","","","","","","","","","",""
"","fixation","","html-keyboard-response","252","3233460","0.0-209.0","0","0","aDc5y","People","","null","","","","null","","","","","","","","","","","","","","","","","","","","","","","","","","","","","","","","","","","","","","","","","","","",""
"","see_reward","","html-keyboard-response","253","3234384","0.0-210.0","0","0","aDc5y","People","","922","","","","32","","41","","23","","","","-1","","","","","1","","","","","0","922","","","","","","","","","","","","","","","","","","","","","","","","",""
"","reward_outcome","","html-keyboard-response","254","3236388","0.0-211.0","0","0","aDc5y","People","","359","","","","40","","41","","23","","","","","","","","","","","","","","","","-1","359","","","","","","","","","","","","","","","","","","","","","","",""
"","block_over","","html-keyboard-response","255","3238906","0.0-213.0-0.0","0","0","aDc5y","People","","2515","","","","78","","","","","","","","","","","","","","","","","","","","","","","","","","","","","","","","","","","","","","","","","","","",""
"","fixation","","html-keyboard-response","256","3239909","0.0-214.0","0","0","aDc5y","People","","null","","","","null","","","","","","","","","","","","","","","","","","","","","","","","","","","","","","","","","","","","","","","","","","","",""
"","see_reward","","html-keyboard-response","257","3241212","0.0-215.0","0","0","aDc5y","People","","1301","","","","32","","45","","24","","","","1","","","","","2","","","","","154","1301","","","","","","","","","","","","","","","","","","","","","","","","",""
"","reward_outcome","","html-keyboard-response","258","3243220","0.0-216.0","0","0","aDc5y","People","","556","","","","38","","45","","24","","","","","","","","","","","","","","","","1","556","","","","","","","","","","","","","","","","","","","","","","",""
"","fixation","","html-keyboard-response","259","3244229","0.0-219.0","0","0","aDc5y","People","","null","","","","null","","","","","","","","","","","","","","","","","","","","","","","","","","","","","","","","","","","","","","","","","","","",""
"","see_reward","","html-keyboard-response","260","3245063","0.0-220.0","0","0","aDc5y","People","","807","","","","32","","4","","25","","","","1","","","","","2","","","","","155","807","","","","","","","","","","","","","","","","","","","","","","","","",""
"","reward_outcome","","html-keyboard-response","261","3247070","0.0-221.0","0","0","aDc5y","People","","617","","","","38","","4","","25","","","","","","","","","","","","","","","","1","617","","","","","","","","","","","","","","","","","","","","","","",""
"","fixation","","html-keyboard-response","262","3248077","0.0-224.0","0","0","aDc5y","People","","null","","","","null","","","","","","","","","","","","","","","","","","","","","","","","","","","","","","","","","","","","","","","","","","","",""
"","see_reward","","html-keyboard-response","263","3248795","0.0-225.0","0","0","aDc5y","People","","716","","","","32","","12","","26","","","","-1","","","","","2","","","","","0","716","","","","","","","","","","","","","","","","","","","","","","","","",""
"","reward_outcome","","html-keyboard-response","264","3250805","0.0-226.0","0","0","aDc5y","People","","560","","","","40","","12","","26","","","","","","","","","","","","","","","","-1","560","","","","","","","","","","","","","","","","","","","","","","",""
"","fixation","","html-keyboard-response","265","3251833","0.0-229.0","0","0","aDc5y","People","","null","","","","null","","","","","","","","","","","","","","","","","","","","","","","","","","","","","","","","","","","","","","","","","","","",""
"","see_reward","","html-keyboard-response","266","3252530","0.0-230.0","0","0","aDc5y","People","","694","","","","32","","4","","27","","","","1","","","","","2","","","","","155","694","","","","","","","","","","","","","","","","","","","","","","","","",""
"","reward_outcome","","html-keyboard-response","267","3254543","0.0-231.0","0","0","aDc5y","People","","717","","","","40","","4","","27","","","","","","","","","","","","","","","","-1","717","","","","","","","","","","","","","","","","","","","","","","",""
"","fixation","","html-keyboard-response","268","3255549","0.0-234.0","0","0","aDc5y","People","","null","","","","null","","","","","","","","","","","","","","","","","","","","","","","","","","","","","","","","","","","","","","","","","","","",""
"","see_reward","","html-keyboard-response","269","3256186","0.0-235.0","0","0","aDc5y","People","","635","","","","32","","46","","28","","","","-1","","","","","2","","","","","0","635","","","","","","","","","","","","","","","","","","","","","","","","",""
"","reward_outcome","","html-keyboard-response","270","3258196","0.0-236.0","0","0","aDc5y","People","","630","","","","40","","46","","28","","","","","","","","","","","","","","","","-1","630","","","","","","","","","","","","","","","","","","","","","","",""
"","fixation","","html-keyboard-response","271","3259204","0.0-239.0","0","0","aDc5y","People","","null","","","","null","","","","","","","","","","","","","","","","","","","","","","","","","","","","","","","","","","","","","","","","","","","",""
"","see_reward","","html-keyboard-response","272","3259977","0.0-240.0","0","0","aDc5y","People","","770","","","","32","","41","","29","","","","-1","","","","","2","","","","","0","770","","","","","","","","","","","","","","","","","","","","","","","","",""
"","reward_outcome","","html-keyboard-response","273","3261981","0.0-241.0","0","0","aDc5y","People","","623","","","","40","","41","","29","","","","","","","","","","","","","","","","-1","623","","","","","","","","","","","","","","","","","","","","","","",""
"","fixation","","html-keyboard-response","274","3262989","0.0-244.0","0","0","aDc5y","People","","null","","","","null","","","","","","","","","","","","","","","","","","","","","","","","","","","","","","","","","","","","","","","","","","","",""
"","see_reward","","html-keyboard-response","275","3263780","0.0-245.0","0","0","aDc5y","People","","789","","","","32","","44","","30","","","","-1","","","","","2","","","","","0","789","","","","","","","","","","","","","","","","","","","","","","","","",""
"","reward_outcome","","html-keyboard-response","276","3265789","0.0-246.0","0","0","aDc5y","People","","588","","","","40","","44","","30","","","","","","","","","","","","","","","","-1","588","","","","","","","","","","","","","","","","","","","","","","",""
"","fixation","","html-keyboard-response","277","3266797","0.0-249.0","0","0","aDc5y","People","","null","","","","null","","","","","","","","","","","","","","","","","","","","","","","","","","","","","","","","","","","","","","","","","","","",""
"","see_reward","","html-keyboard-response","278","3267624","0.0-250.0","0","0","aDc5y","People","","825","","","","32","","35","","31","","","","-1","","","","","2","","","","","0","825","","","","","","","","","","","","","","","","","","","","","","","","",""
"","reward_outcome","","html-keyboard-response","279","3269629","0.0-251.0","0","0","aDc5y","People","","639","","","","40","","35","","31","","","","","","","","","","","","","","","","-1","639","","","","","","","","","","","","","","","","","","","","","","",""
"","fixation","","html-keyboard-response","280","3270637","0.0-254.0","0","0","aDc5y","People","","null","","","","null","","","","","","","","","","","","","","","","","","","","","","","","","","","","","","","","","","","","","","","","","","","",""
"","see_reward","","html-keyboard-response","281","3271521","0.0-255.0","0","0","aDc5y","People","","883","","","","32","","45","","32","","","","1","","","","","2","","","","","154","883","","","","","","","","","","","","","","","","","","","","","","","","",""
"","reward_outcome","","html-keyboard-response","282","3273533","0.0-256.0","0","0","aDc5y","People","","534","","","","38","","45","","32","","","","","","","","","","","","","","","","1","534","","","","","","","","","","","","","","","","","","","","","","",""
"","fixation","","html-keyboard-response","283","3274541","0.0-259.0","0","0","aDc5y","People","","null","","","","null","","","","","","","","","","","","","","","","","","","","","","","","","","","","","","","","","","","","","","","","","","","",""
"","see_reward","","html-keyboard-response","284","3275226","0.0-260.0","0","0","aDc5y","People","","684","","","","32","","27","","33","","","","1","","","","","2","","","","","150","684","","","","","","","","","","","","","","","","","","","","","","","","",""
"","reward_outcome","","html-keyboard-response","285","3277237","0.0-261.0","0","0","aDc5y","People","","914","","","","38","","27","","33","","","","","","","","","","","","","","","","1","914","","","","","","","","","","","","","","","","","","","","","","",""
"","fixation","","html-keyboard-response","286","3278244","0.0-264.0","0","0","aDc5y","People","","null","","","","null","","","","","","","","","","","","","","","","","","","","","","","","","","","","","","","","","","","","","","","","","","","",""
"","see_reward","","html-keyboard-response","287","3278857","0.0-265.0","0","0","aDc5y","People","","611","","","","32","","12","","34","","","","-1","","","","","2","","","","","0","611","","","","","","","","","","","","","","","","","","","","","","","","",""
"","reward_outcome","","html-keyboard-response","288","3280860","0.0-266.0","0","0","aDc5y","People","","727","","","","40","","12","","34","","","","","","","","","","","","","","","","-1","727","","","","","","","","","","","","","","","","","","","","","","",""
"","fixation","","html-keyboard-response","289","3282108","0.0-269.0","0","0","aDc5y","People","","null","","","","null","","","","","","","","","","","","","","","","","","","","","","","","","","","","","","","","","","","","","","","","","","","",""
"","see_reward","","html-keyboard-response","290","3282944","0.0-270.0","0","0","aDc5y","People","","834","","","","32","","35","","35","","","","-1","","","","","2","","","","","0","834","","","","","","","","","","","","","","","","","","","","","","","","",""
"","reward_outcome","","html-keyboard-response","291","3284949","0.0-271.0","0","0","aDc5y","People","","759","","","","40","","35","","35","","","","","","","","","","","","","","","","-1","759","","","","","","","","","","","","","","","","","","","","","","",""
"","fixation","","html-keyboard-response","292","3285957","0.0-274.0","0","0","aDc5y","People","","null","","","","null","","","","","","","","","","","","","","","","","","","","","","","","","","","","","","","","","","","","","","","","","","","",""
"","see_reward","","html-keyboard-response","293","3286934","0.0-275.0","0","0","aDc5y","People","","975","","","","32","","44","","36","","","","-1","","","","","2","","","","","0","975","","","","","","","","","","","","","","","","","","","","","","","","",""
"","reward_outcome","","html-keyboard-response","294","3288940","0.0-276.0","0","0","aDc5y","People","","873","","","","40","","44","","36","","","","","","","","","","","","","","","","-1","873","","","","","","","","","","","","","","","","","","","","","","",""
"","fixation","","html-keyboard-response","295","3289985","0.0-279.0","0","0","aDc5y","People","","null","","","","null","","","","","","","","","","","","","","","","","","","","","","","","","","","","","","","","","","","","","","","","","","","",""
"","see_reward","","html-keyboard-response","296","3290546","0.0-280.0","0","0","aDc5y","People","","560","","","","32","","49","","37","","","","1","","","","","2","","","","","147","560","","","","","","","","","","","","","","","","","","","","","","","","",""
"","reward_outcome","","html-keyboard-response","297","3292556","0.0-281.0","0","0","aDc5y","People","","692","","","","38","","49","","37","","","","","","","","","","","","","","","","1","692","","","","","","","","","","","","","","","","","","","","","","",""
"","fixation","","html-keyboard-response","298","3293564","0.0-284.0","0","0","aDc5y","People","","null","","","","null","","","","","","","","","","","","","","","","","","","","","","","","","","","","","","","","","","","","","","","","","","","",""
"","see_reward","","html-keyboard-response","299","3294112","0.0-285.0","0","0","aDc5y","People","","546","","","","32","","41","","38","","","","-1","","","","","2","","","","","0","546","","","","","","","","","","","","","","","","","","","","","","","","",""
"","reward_outcome","","html-keyboard-response","300","3296116","0.0-286.0","0","0","aDc5y","People","","726","","","","40","","41","","38","","","","","","","","","","","","","","","","-1","726","","","","","","","","","","","","","","","","","","","","","","",""
"","fixation","","html-keyboard-response","301","3297124","0.0-289.0","0","0","aDc5y","People","","null","","","","null","","","","","","","","","","","","","","","","","","","","","","","","","","","","","","","","","","","","","","","","","","","",""
"","see_reward","","html-keyboard-response","302","3297696","0.0-290.0","0","0","aDc5y","People","","570","","","","32","","14","","39","","","","1","","","","","2","","","","","151","570","","","","","","","","","","","","","","","","","","","","","","","","",""
"","reward_outcome","","html-keyboard-response","303","3299700","0.0-291.0","0","0","aDc5y","People","","670","","","","38","","14","","39","","","","","","","","","","","","","","","","1","670","","","","","","","","","","","","","","","","","","","","","","",""
"","fixation","","html-keyboard-response","304","3300708","0.0-294.0","0","0","aDc5y","People","","null","","","","null","","","","","","","","","","","","","","","","","","","","","","","","","","","","","","","","","","","","","","","","","","","",""
"","see_reward","","html-keyboard-response","305","3301288","0.0-295.0","0","0","aDc5y","People","","578","","","","32","","11","","40","","","","-1","","","","","2","","","","","0","578","","","","","","","","","","","","","","","","","","","","","","","","",""
"","reward_outcome","","html-keyboard-response","306","3303292","0.0-296.0","0","0","aDc5y","People","","686","","","","40","","11","","40","","","","","","","","","","","","","","","","-1","686","","","","","","","","","","","","","","","","","","","","","","",""
"","fixation","","html-keyboard-response","307","3304300","0.0-299.0","0","0","aDc5y","People","","null","","","","null","","","","","","","","","","","","","","","","","","","","","","","","","","","","","","","","","","","","","","","","","","","",""
"","see_reward","","html-keyboard-response","308","3304882","0.0-300.0","0","0","aDc5y","People","","580","","","","32","","14","","41","","","","1","","","","","2","","","","","151","580","","","","","","","","","","","","","","","","","","","","","","","","",""
"","reward_outcome","","html-keyboard-response","309","3306891","0.0-301.0","0","0","aDc5y","People","","556","","","","38","","14","","41","","","","","","","","","","","","","","","","1","556","","","","","","","","","","","","","","","","","","","","","","",""
"","fixation","","html-keyboard-response","310","3307901","0.0-304.0","0","0","aDc5y","People","","null","","","","null","","","","","","","","","","","","","","","","","","","","","","","","","","","","","","","","","","","","","","","","","","","",""
"","see_reward","","html-keyboard-response","311","3308520","0.0-305.0","0","0","aDc5y","People","","617","","","","32","","11","","42","","","","-1","","","","","2","","","","","0","617","","","","","","","","","","","","","","","","","","","","","","","","",""
"","reward_outcome","","html-keyboard-response","312","3310778","0.0-306.0","0","0","aDc5y","People","","1542","","","","40","","11","","42","","","","","","","","","","","","","","","","-1","1542","","","","","","","","","","","","","","","","","","","","","","",""
"","fixation","","html-keyboard-response","313","3311789","0.0-309.0","0","0","aDc5y","People","","null","","","","null","","","","","","","","","","","","","","","","","","","","","","","","","","","","","","","","","","","","","","","","","","","",""
"","see_reward","","html-keyboard-response","314","3312592","0.0-310.0","0","0","aDc5y","People","","801","","","","32","","49","","43","","","","1","","","","","2","","","","","147","801","","","","","","","","","","","","","","","","","","","","","","","","",""
"","reward_outcome","","html-keyboard-response","315","3314596","0.0-311.0","0","0","aDc5y","People","","1038","","","","38","","49","","43","","","","","","","","","","","","","","","","1","1038","","","","","","","","","","","","","","","","","","","","","","",""
"","fixation","","html-keyboard-response","316","3315605","0.0-314.0","0","0","aDc5y","People","","null","","","","null","","","","","","","","","","","","","","","","","","","","","","","","","","","","","","","","","","","","","","","","","","","",""
"","see_reward","","html-keyboard-response","317","3316542","0.0-315.0","0","0","aDc5y","People","","935","","","","32","","27","","44","","","","1","","","","","2","","","","","150","935","","","","","","","","","","","","","","","","","","","","","","","","",""
"","reward_outcome","","html-keyboard-response","318","3318547","0.0-316.0","0","0","aDc5y","People","","504","","","","38","","27","","44","","","","","","","","","","","","","","","","1","504","","","","","","","","","","","","","","","","","","","","","","",""
"","fixation","","html-keyboard-response","319","3319557","0.0-319.0","0","0","aDc5y","People","","null","","","","null","","","","","","","","","","","","","","","","","","","","","","","","","","","","","","","","","","","","","","","","","","","",""
"","see_reward","","html-keyboard-response","320","3320232","0.0-320.0","0","0","aDc5y","People","","673","","","","32","","1","","45","","","","1","","","","","2","","","","","155","673","","","","","","","","","","","","","","","","","","","","","","","","",""
"","reward_outcome","","html-keyboard-response","321","3322292","0.0-321.0","0","0","aDc5y","People","","790","","","","38","","1","","45","","","","","","","","","","","","","","","","1","790","","","","","","","","","","","","","","","","","","","","","","",""
"","fixation","","html-keyboard-response","322","3323300","0.0-324.0","0","0","aDc5y","People","","null","","","","null","","","","","","","","","","","","","","","","","","","","","","","","","","","","","","","","","","","","","","","","","","","",""
"","see_reward","","html-keyboard-response","323","3324120","0.0-325.0","0","0","aDc5y","People","","818","","","","32","","46","","46","","","","-1","","","","","2","","","","","0","818","","","","","","","","","","","","","","","","","","","","","","","","",""
"","reward_outcome","","html-keyboard-response","324","3326124","0.0-326.0","0","0","aDc5y","People","","557","","","","40","","46","","46","","","","","","","","","","","","","","","","-1","557","","","","","","","","","","","","","","","","","","","","","","",""
"","fixation","","html-keyboard-response","325","3327132","0.0-329.0","0","0","aDc5y","People","","null","","","","null","","","","","","","","","","","","","","","","","","","","","","","","","","","","","","","","","","","","","","","","","","","",""
"","see_reward","","html-keyboard-response","326","3328090","0.0-330.0","0","0","aDc5y","People","","956","","","","32","","1","","47","","","","1","","","","","2","","","","","155","956","","","","","","","","","","","","","","","","","","","","","","","","",""
"","reward_outcome","","html-keyboard-response","327","3330100","0.0-331.0","0","0","aDc5y","People","","314","","","","38","","1","","47","","","","","","","","","","","","","","","","1","314","","","","","","","","","","","","","","","","","","","","","","",""
"","block_over","","html-keyboard-response","328","3332513","0.0-333.0-0.0","0","0","aDc5y","People","","2411","","","","78","","","","","","","","","","","","","","","","","","","","","","","","","","","","","","","","","","","","","","","","","","","",""
"","fixation","","html-keyboard-response","329","3333517","0.0-334.0","0","0","aDc5y","People","","null","","","","null","","","","","","","","","","","","","","","","","","","","","","","","","","","","","","","","","","","","","","","","","","","",""
"","see_reward","","html-keyboard-response","330","3334385","0.0-335.0","0","0","aDc5y","People","","866","","","","32","","46","","48","","","","-1","","","","","3","","","","","0","866","","","","","","","","","","","","","","","","","","","","","","","","",""
"","reward_outcome","","html-keyboard-response","331","3336388","0.0-336.0","0","0","aDc5y","People","","285","","","","40","","46","","48","","","","","","","","","","","","","","","","-1","285","","","","","","","","","","","","","","","","","","","","","","",""
"","fixation","","html-keyboard-response","332","3337396","0.0-339.0","0","0","aDc5y","People","","null","","","","null","","","","","","","","","","","","","","","","","","","","","","","","","","","","","","","","","","","","","","","","","","","",""
"","see_reward","","html-keyboard-response","333","3338183","0.0-340.0","0","0","aDc5y","People","","786","","","","32","","12","","49","","","","-1","","","","","3","","","","","0","786","","","","","","","","","","","","","","","","","","","","","","","","",""
"","reward_outcome","","html-keyboard-response","334","3340370","0.0-341.0","0","0","aDc5y","People","","438","","","","40","","12","","49","","","","","","","","","","","","","","","","-1","438","","","","","","","","","","","","","","","","","","","","","","",""
"","fixation","","html-keyboard-response","335","3341380","0.0-344.0","0","0","aDc5y","People","","null","","","","null","","","","","","","","","","","","","","","","","","","","","","","","","","","","","","","","","","","","","","","","","","","",""
"","see_reward","","html-keyboard-response","336","3341983","0.0-345.0","0","0","aDc5y","People","","601","","","","32","","27","","50","","","","1","","","","","3","","","","","150","601","","","","","","","","","","","","","","","","","","","","","","","","",""
"","reward_outcome","","html-keyboard-response","337","3343987","0.0-346.0","0","0","aDc5y","People","","527","","","","38","","27","","50","","","","","","","","","","","","","","","","1","527","","","","","","","","","","","","","","","","","","","","","","",""
"","fixation","","html-keyboard-response","338","3344996","0.0-349.0","0","0","aDc5y","People","","null","","","","null","","","","","","","","","","","","","","","","","","","","","","","","","","","","","","","","","","","","","","","","","","","",""
"","see_reward","","html-keyboard-response","339","3345583","0.0-350.0","0","0","aDc5y","People","","585","","","","32","","1","","51","","","","1","","","","","3","","","","","155","585","","","","","","","","","","","","","","","","","","","","","","","","",""
"","reward_outcome","","html-keyboard-response","340","3347589","0.0-351.0","0","0","aDc5y","People","","727","","","","38","","1","","51","","","","","","","","","","","","","","","","1","727","","","","","","","","","","","","","","","","","","","","","","",""
"","fixation","","html-keyboard-response","341","3348597","0.0-354.0","0","0","aDc5y","People","","null","","","","null","","","","","","","","","","","","","","","","","","","","","","","","","","","","","","","","","","","","","","","","","","","",""
"","see_reward","","html-keyboard-response","342","3349409","0.0-355.0","0","0","aDc5y","People","","810","","","","32","","45","","52","","","","1","","","","","3","","","","","154","810","","","","","","","","","","","","","","","","","","","","","","","","",""
"","reward_outcome","","html-keyboard-response","343","3351421","0.0-356.0","0","0","aDc5y","People","","530","","","","38","","45","","52","","","","","","","","","","","","","","","","1","530","","","","","","","","","","","","","","","","","","","","","","",""
"","fixation","","html-keyboard-response","344","3352428","0.0-359.0","0","0","aDc5y","People","","null","","","","null","","","","","","","","","","","","","","","","","","","","","","","","","","","","","","","","","","","","","","","","","","","",""
"","see_reward","","html-keyboard-response","345","3353354","0.0-360.0","0","0","aDc5y","People","","924","","","","32","","12","","53","","","","-1","","","","","3","","","","","0","924","","","","","","","","","","","","","","","","","","","","","","","","",""
"","reward_outcome","","html-keyboard-response","346","3355364","0.0-361.0","0","0","aDc5y","People","","644","","","","40","","12","","53","","","","","","","","","","","","","","","","-1","644","","","","","","","","","","","","","","","","","","","","","","",""
"","fixation","","html-keyboard-response","347","3356372","0.0-364.0","0","0","aDc5y","People","","null","","","","null","","","","","","","","","","","","","","","","","","","","","","","","","","","","","","","","","","","","","","","","","","","",""
"","see_reward","","html-keyboard-response","348","3357353","0.0-365.0","0","0","aDc5y","People","","979","","","","32","","27","","54","","","","1","","","","","3","","","","","150","979","","","","","","","","","","","","","","","","","","","","","","","","",""
"","reward_outcome","","html-keyboard-response","349","3359364","0.0-366.0","0","0","aDc5y","People","","740","","","","38","","27","","54","","","","","","","","","","","","","","","","1","740","","","","","","","","","","","","","","","","","","","","","","",""
"","fixation","","html-keyboard-response","350","3360372","0.0-369.0","0","0","aDc5y","People","","null","","","","null","","","","","","","","","","","","","","","","","","","","","","","","","","","","","","","","","","","","","","","","","","","",""
