"success","ttype","start_time","trial_type","trial_index","time_elapsed","internal_node_id","warning","missed_checkup","PID","stim_type","view_history","rt","responses","category","repeat_instructions","key_press","response","stimulus_id","painting","index","stimulus_left","stimulus_right","explain_trial","reward_type","rating_left","rating_right","painting_left","painting_right","block","left_chosen","chosen_obj","unchosen_obj","explain_response","reward_amount","see_reward_rt","register_reward_response","register_reward_rt","deliberation_reward_tally","stimulus_left_deliberation_ind","stimulus_right_deliberation_ind","chosen_trial","gain_left","higher_outcome_chosen","old_pair","chosen_object","rt_pairs","left_object_chosen","rt_object","old_response","new_rating","deliberated_stim","initial_rating","outcome_eval_rt","outcome_eval_response","outcome_eval_gain","outcome_eval_acc","preamble","outcome_eval_confidence","outcome_eval_confidence_rt","total_reward_tally"
"true","full_screen","d01182023hr1415","fullscreen","0","20902","0.0-0.0","0","0","WUJ86","People","","","","","","","","","","","","","","","","","","","","","","","","","","","","","","","","","","","","","","","","","","","","","","","","","",""
"","rating_instructions","","instructions","1","26066","0.0-1.0-0.0","0","0","WUJ86","People","[{""page_index"":0,""viewing_time"":2477},{""page_index"":1,""viewing_time"":2682}]","5160","","","","","","","","","","","","","","","","","","","","","","","","","","","","","","","","","","","","","","","","","","","","","","","",""
"","","","survey-multi-choice","2","32548","0.0-1.0-1.0","0","0","WUJ86","People","","6477","{""Q0"":""True"",""Q1"":""Mouse""}","rating_comprehension_check","0","","","","","","","","","","","","","","","","","","","","","","","","","","","","","","","","","","","","","","","","","","","","",""
"","start_phase","","html-keyboard-response","3","35044","0.0-2.0","0","0","WUJ86","People","","2491","","","","78","","","","","","","","","","","","","","","","","","","","","","","","","","","","","","","","","","","","","","","","","","","",""
"","rating","","html-slider-response","4","39359","0.0-3.0","0","0","WUJ86","People","","4311","","","","","100","26","juri-gianfrancesco-9EZadYaMzk4-unsplash.jpg","0","","","","","","","","","","","","","","","","","","","","","","","","","","","","","","","","","","","","","","","",""
"","rating","","html-slider-response","5","43501","0.0-4.0","0","0","WUJ86","People","","4136","","","","","100","15","gabriel-silverio-u3WmDyKGsrY-unsplash.jpg","1","","","","","","","","","","","","","","","","","","","","","","","","","","","","","","","","","","","","","","","",""
"","rating","","html-slider-response","6","48314","0.0-5.0","0","0","WUJ86","People","","4808","","","","","66","38","petr-sevcovic-HzDF-rxlSeM-unsplash.jpg","2","","","","","","","","","","","","","","","","","","","","","","","","","","","","","","","","","","","","","","","",""
"","rating","","html-slider-response","7","50733","0.0-6.0","0","0","WUJ86","People","","2414","","","","","100","7","brooke-cagle-HRZUzoX1e6w-unsplash.jpg","3","","","","","","","","","","","","","","","","","","","","","","","","","","","","","","","","","","","","","","","",""
"","rating","","html-slider-response","8","54850","0.0-7.0","0","0","WUJ86","People","","4114","","","","","100","24","joel-mott-LaK153ghdig-unsplash.jpg","4","","","","","","","","","","","","","","","","","","","","","","","","","","","","","","","","","","","","","","","",""
"","rating","","html-slider-response","9","58423","0.0-8.0","0","0","WUJ86","People","","3569","","","","","74","9","carlos-andres-gomez-vJuk8Y86mRw-unsplash.jpg","5","","","","","","","","","","","","","","","","","","","","","","","","","","","","","","","","","","","","","","","",""
"","rating","","html-slider-response","10","61006","0.0-9.0","0","0","WUJ86","People","","2576","","","","","100","5","batel-studio-ttSRjiYG_WM-unsplash.jpg","6","","","","","","","","","","","","","","","","","","","","","","","","","","","","","","","","","","","","","","","",""
"","rating","","html-slider-response","11","65095","0.0-10.0","0","0","WUJ86","People","","4085","","","","","57","11","christian-ferrer-8vT-DgHZDG4-unsplash.jpg","7","","","","","","","","","","","","","","","","","","","","","","","","","","","","","","","","","","","","","","","",""
"","rating","","html-slider-response","12","67907","0.0-11.0","0","0","WUJ86","People","","2808","","","","","54","14","freddy-kearney-o-ioeoATbIM-unsplash.jpg","8","","","","","","","","","","","","","","","","","","","","","","","","","","","","","","","","","","","","","","","",""
"","rating","","html-slider-response","13","70375","0.0-12.0","0","0","WUJ86","People","","2464","","","","","54","18","good-faces-xmSWVeGEnJw-unsplash.jpg","9","","","","","","","","","","","","","","","","","","","","","","","","","","","","","","","","","","","","","","","",""
"","rating","","html-slider-response","14","73467","0.0-13.0","0","0","WUJ86","People","","3089","","","","","50","0","abstral-official-cyOKLSgkgCE-unsplash.jpg","10","","","","","","","","","","","","","","","","","","","","","","","","","","","","","","","","","","","","","","","",""
"","rating","","html-slider-response","15","77503","0.0-14.0","0","0","WUJ86","People","","4033","","","","","57","49","vicky-hladynets-_gDoyVv5F4c-unsplash.jpg","11","","","","","","","","","","","","","","","","","","","","","","","","","","","","","","","","","","","","","","","",""
"","rating","","html-slider-response","16","80219","0.0-15.0","0","0","WUJ86","People","","2712","","","","","50","29","leilani-angel-K84vnnzxmTQ-unsplash.jpg","12","","","","","","","","","","","","","","","","","","","","","","","","","","","","","","","","","","","","","","","",""
"","rating","","html-slider-response","17","82124","0.0-16.0","0","0","WUJ86","People","","1901","","","","","50","33","olena-sergienko-0TSd6uCKTKc-unsplash.jpg","13","","","","","","","","","","","","","","","","","","","","","","","","","","","","","","","","","","","","","","","",""
"","rating","","html-slider-response","18","85249","0.0-17.0","0","0","WUJ86","People","","3121","","","","","39","8","bruce-dixon-3M9WJQVHzog-unsplash.jpg","14","","","","","","","","","","","","","","","","","","","","","","","","","","","","","","","","","","","","","","","",""
"","rating","","html-slider-response","19","87901","0.0-18.0","0","0","WUJ86","People","","2648","","","","","35","39","philip-martin-5aGUyCW_PJw-unsplash.jpg","15","","","","","","","","","","","","","","","","","","","","","","","","","","","","","","","","","","","","","","","",""
"","rating","","html-slider-response","20","90632","0.0-19.0","0","0","WUJ86","People","","2728","","","","","33","34","oliver-johnson-1TUIcKob7Zs-unsplash.jpg","16","","","","","","","","","","","","","","","","","","","","","","","","","","","","","","","","","","","","","","","",""
"","rating","","html-slider-response","21","93828","0.0-20.0","0","0","WUJ86","People","","3193","","","","","55","2","arjunsyah-TBUA5KHJn6k-unsplash.jpg","17","","","","","","","","","","","","","","","","","","","","","","","","","","","","","","","","","","","","","","","",""
"","rating","","html-slider-response","22","98571","0.0-21.0","0","0","WUJ86","People","","4738","","","","","71","19","ha-nguy-n-OFSQ6bHjFjs-unsplash.jpg","18","","","","","","","","","","","","","","","","","","","","","","","","","","","","","","","","","","","","","","","",""
"","rating","","html-slider-response","23","102631","0.0-22.0","0","0","WUJ86","People","","4056","","","","","82","23","joanna-nix-walkup-H4fEMshfwTE-unsplash.jpg","19","","","","","","","","","","","","","","","","","","","","","","","","","","","","","","","","","","","","","","","",""
"","rating","","html-slider-response","24","111005","0.0-23.0","0","0","WUJ86","People","","8370","","","","","47","36","ospan-ali-mGdA2fzjWLo-unsplash.jpg","20","","","","","","","","","","","","","","","","","","","","","","","","","","","","","","","","","","","","","","","",""
"","rating","","html-slider-response","25","114930","0.0-24.0","0","0","WUJ86","People","","3923","","","","","100","45","sarah-noltner-pL5ZzPp1zqg-unsplash.jpg","21","","","","","","","","","","","","","","","","","","","","","","","","","","","","","","","","","","","","","","","",""
"","rating","","html-slider-response","26","118022","0.0-25.0","0","0","WUJ86","People","","3089","","","","","100","13","erik-lucatero-d2MSDujJl2g-unsplash.jpg","22","","","","","","","","","","","","","","","","","","","","","","","","","","","","","","","","","","","","","","","",""
"","rating","","html-slider-response","27","120972","0.0-26.0","0","0","WUJ86","People","","2945","","","","","65","30","matheus-ferrero-pg_WCHWSdT8-unsplash.jpg","23","","","","","","","","","","","","","","","","","","","","","","","","","","","","","","","","","","","","","","","",""
"","rating","","html-slider-response","28","123341","0.0-27.0","0","0","WUJ86","People","","2366","","","","","64","4","barna-bartis-2x3vfVxwR7o-unsplash.jpg","24","","","","","","","","","","","","","","","","","","","","","","","","","","","","","","","","","","","","","","","",""
"","rating","","html-slider-response","29","125937","0.0-28.0","0","0","WUJ86","People","","2593","","","","","65","44","rikonavt-HQjfrvdTfak-unsplash.jpg","25","","","","","","","","","","","","","","","","","","","","","","","","","","","","","","","","","","","","","","","",""
"","rating","","html-slider-response","30","128597","0.0-29.0","0","0","WUJ86","People","","2656","","","","","100","41","prince-akachi-i2hoD-C2RUA-unsplash.jpg","26","","","","","","","","","","","","","","","","","","","","","","","","","","","","","","","","","","","","","","","",""
"","rating","","html-slider-response","31","135325","0.0-30.0","0","0","WUJ86","People","","6724","","","","","100","42","prince-akachi-l3IHXOdMyHQ-unsplash.jpg","27","","","","","","","","","","","","","","","","","","","","","","","","","","","","","","","","","","","","","","","",""
"","rating","","html-slider-response","32","139179","0.0-31.0","0","0","WUJ86","People","","3850","","","","","100","27","jurica-koletic-7YVZYZeITc8-unsplash.jpg","28","","","","","","","","","","","","","","","","","","","","","","","","","","","","","","","","","","","","","","","",""
"","rating","","html-slider-response","33","142607","0.0-32.0","0","0","WUJ86","People","","3424","","","","","30","25","joseph-gonzalez-iFgRcqHznqg-unsplash.jpg","29","","","","","","","","","","","","","","","","","","","","","","","","","","","","","","","","","","","","","","","",""
"","rating","","html-slider-response","34","145563","0.0-33.0","0","0","WUJ86","People","","2952","","","","","59","22","jessica-radanavong-mrYkTuAesKE-unsplash.jpg","30","","","","","","","","","","","","","","","","","","","","","","","","","","","","","","","","","","","","","","","",""
"","rating","","html-slider-response","35","148783","0.0-34.0","0","0","WUJ86","People","","3217","","","","","67","28","justin-chen-J7Cf1Gch49E-unsplash.jpg","31","","","","","","","","","","","","","","","","","","","","","","","","","","","","","","","","","","","","","","","",""
"","rating","","html-slider-response","36","152475","0.0-35.0","0","0","WUJ86","People","","3689","","","","","46","48","velizar-ivanov-7ktP9yZA1g4-unsplash.jpg","32","","","","","","","","","","","","","","","","","","","","","","","","","","","","","","","","","","","","","","","",""
"","rating","","html-slider-response","37","155567","0.0-36.0","0","0","WUJ86","People","","3088","","","","","53","20","houcine-ncib-B4TjXnI0Y2c-unsplash.jpg","33","","","","","","","","","","","","","","","","","","","","","","","","","","","","","","","","","","","","","","","",""
"","rating","","html-slider-response","38","158147","0.0-37.0","0","0","WUJ86","People","","2577","","","","","62","32","nathan-dumlao-ger61_TX6oI-unsplash.jpg","34","","","","","","","","","","","","","","","","","","","","","","","","","","","","","","","","","","","","","","","",""
"","rating","","html-slider-response","39","164051","0.0-38.0","0","0","WUJ86","People","","5901","","","","","51","10","charles-etoroma-95UF6LXe-Lo-unsplash.jpg","35","","","","","","","","","","","","","","","","","","","","","","","","","","","","","","","","","","","","","","","",""
"","rating","","html-slider-response","40","168369","0.0-39.0","0","0","WUJ86","People","","4314","","","","","45","46","stefan-stefancik-QXevDflbl8A-unsplash.jpg","36","","","","","","","","","","","","","","","","","","","","","","","","","","","","","","","","","","","","","","","",""
"","rating","","html-slider-response","41","172437","0.0-40.0","0","0","WUJ86","People","","4064","","","","","44","40","prince-akachi-4Yv84VgQkRM-unsplash.jpg","37","","","","","","","","","","","","","","","","","","","","","","","","","","","","","","","","","","","","","","","",""
"","rating","","html-slider-response","42","175762","0.0-41.0","0","0","WUJ86","People","","3321","","","","","37","16","giano-currie-5-9YOsmf8IQ-unsplash.jpg","38","","","","","","","","","","","","","","","","","","","","","","","","","","","","","","","","","","","","","","","",""
"","rating","","html-slider-response","43","181529","0.0-42.0","0","0","WUJ86","People","","5763","","","","","47","35","oliver-ragfelt-khV4fTy6-D8-unsplash.jpg","39","","","","","","","","","","","","","","","","","","","","","","","","","","","","","","","","","","","","","","","",""
"","rating","","html-slider-response","44","185574","0.0-43.0","0","0","WUJ86","People","","4042","","","","","41","17","gleb-lukomets-paBzWCPN23k-unsplash.jpg","40","","","","","","","","","","","","","","","","","","","","","","","","","","","","","","","","","","","","","","","",""
"","rating","","html-slider-response","45","188155","0.0-44.0","0","0","WUJ86","People","","2576","","","","","44","37","pavel-anoshin-d0peGya6R5Y-unsplash.jpg","41","","","","","","","","","","","","","","","","","","","","","","","","","","","","","","","","","","","","","","","",""
"","rating","","html-slider-response","46","191951","0.0-45.0","0","0","WUJ86","People","","3793","","","","","45","3","art-hauntington-jzY0KRJopEI-unsplash.jpg","42","","","","","","","","","","","","","","","","","","","","","","","","","","","","","","","","","","","","","","","",""
"","rating","","html-slider-response","47","197416","0.0-46.0","0","0","WUJ86","People","","5461","","","","","100","21","jessica-felicio-_cvwXhGqG-o-unsplash.jpg","43","","","","","","","","","","","","","","","","","","","","","","","","","","","","","","","","","","","","","","","",""
"","rating","","html-slider-response","48","203191","0.0-47.0","0","0","WUJ86","People","","5771","","","","","43","1","aiony-haust-jmATI5Q_YgY-unsplash.jpg","44","","","","","","","","","","","","","","","","","","","","","","","","","","","","","","","","","","","","","","","",""
"","rating","","html-slider-response","49","209120","0.0-48.0","0","0","WUJ86","People","","5924","","","","","100","47","tyler-nix-ZGa9d1a_4tA-unsplash.jpg","45","","","","","","","","","","","","","","","","","","","","","","","","","","","","","","","","","","","","","","","",""
"","rating","","html-slider-response","50","212819","0.0-49.0","0","0","WUJ86","People","","3695","","","","","33","43","raamin-ka-0qJBEzudn5E-unsplash.jpg","46","","","","","","","","","","","","","","","","","","","","","","","","","","","","","","","","","","","","","","","",""
"","rating","","html-slider-response","51","216088","0.0-50.0","0","0","WUJ86","People","","3263","","","","","49","31","mathilda-khoo-vLR0YP_otCo-unsplash.jpg","47","","","","","","","","","","","","","","","","","","","","","","","","","","","","","","","","","","","","","","","",""
"","rating","","html-slider-response","52","218443","0.0-51.0","0","0","WUJ86","People","","2351","","","","","99","12","daniel-rigdon-dXmXKPP2L4E-unsplash.jpg","48","","","","","","","","","","","","","","","","","","","","","","","","","","","","","","","","","","","","","","","",""
"","rating","","html-slider-response","53","221175","0.0-52.0","0","0","WUJ86","People","","2729","","","","","40","6","ben-o-bro-C5XyLljkMrY-unsplash.jpg","49","","","","","","","","","","","","","","","","","","","","","","","","","","","","","","","","","","","","","","","",""
"","deliberation_instructions","","instructions","54","231245","0.0-53.0-0.0","0","0","WUJ86","People","[{""page_index"":0,""viewing_time"":2951},{""page_index"":1,""viewing_time"":1834},{""page_index"":2,""viewing_time"":1354},{""page_index"":3,""viewing_time"":2894},{""page_index"":4,""viewing_time"":1032}]","10066","","","","","","","","","","","","","","","","","","","","","","","","","","","","","","","","","","","","","","","","","","","","","","","",""
"","","","survey-multi-choice","55","252094","0.0-53.0-1.0","0","0","WUJ86","People","","20842","{""Q0"":""True"",""Q1"":""True"",""Q2"":""Consider carefully and take your time (up to 10 seconds)"",""Q3"":""True"",""Q4"":""D""}","deliberation_comprehension_check","0","","","","","","","","","","","","","","","","","","","","","","","","","","","","","","","","","","","","","","","","","","","","",""
"","start_phase","","html-keyboard-response","56","255203","0.0-54.0","0","0","WUJ86","People","","3099","","","","78","","","","","","","","","","","","","","","","","","","","","","","","","","","","","","","","","","","","","","","","","","","",""
"","first_deliberation_block","","html-keyboard-response","57","255835","0.0-55.0","0","0","WUJ86","People","","629","","","","78","","","","","","","","","","","","","","","","","","","","","","","","","","","","","","","","","","","","","","","","","","","",""
"","fixation","","html-keyboard-response","58","256846","0.0-56.0-0.0","0","0","WUJ86","People","","null","","","","null","","","","","","","","","","","","","","","","","","","","","","","","","","","","","","","","","","","","","","","","","","","",""
"","deliberation","","html-keyboard-response","59","260163","0.0-56.0-1.0","0","0","WUJ86","People","","3314","","","","75","","","","0","0","35","0","-1","50","47","abstral-official-cyOKLSgkgCE-unsplash.jpg","oliver-ragfelt-khV4fTy6-D8-unsplash.jpg","1","0","35","0","","","","","","","","","","","","","","","","","","","","","","","","","","","",""
"","choice_confirmation","","html-keyboard-response","60","260670","0.0-56.0-2.0-0.0","0","0","WUJ86","People","","null","","","","null","","","","0","0","35","","","","","","","","","","","","","","","","","","","","","","","","","","","","","","","","","","","","","",""
"","fixation","","html-keyboard-response","61","261677","0.0-57.0-0.0","0","0","WUJ86","People","","null","","","","null","","","","","","","","","","","","","","","","","","","","","","","","","","","","","","","","","","","","","","","","","","","",""
"","deliberation","","html-keyboard-response","62","265635","0.0-57.0-1.0","0","0","WUJ86","People","","3955","","","","68","","","","1","18","11","1","1","54","57","good-faces-xmSWVeGEnJw-unsplash.jpg","christian-ferrer-8vT-DgHZDG4-unsplash.jpg","1","1","18","11","","","","","","","","","","","","","","","","","","","","","","","","","","","",""
"","choice_confirmation","","html-keyboard-response","63","266142","0.0-57.0-2.0-0.0","0","0","WUJ86","People","","null","","","","null","","","","1","18","11","","","","","","","","","","","","","","","","","","","","","","","","","","","","","","","","","","","","","",""
"","explain_trial","","survey-text","64","290285","0.0-57.0-5.0-0.0","0","0","WUJ86","People","","24139","{""Q0"":""it is a better natural picture and pose""}","","","","","","","1","18","11","","","","","","","","","","","{""Q0"":""it is a better natural picture and pose""}","","","","","","","","","","","","","","","","","","","","","","","","","","",""
"","fixation","","html-keyboard-response","65","291289","0.0-58.0-0.0","0","0","WUJ86","People","","null","","","","null","","","","","","","","","","","","","","","","","","","","","","","","","","","","","","","","","","","","","","","","","","","",""
"","deliberation","","html-keyboard-response","66","295499","0.0-58.0-1.0","0","0","WUJ86","People","","4206","","","","68","","","","2","23","49","0","1","82","57","joanna-nix-walkup-H4fEMshfwTE-unsplash.jpg","vicky-hladynets-_gDoyVv5F4c-unsplash.jpg","1","1","23","49","","","","","","","","","","","","","","","","","","","","","","","","","","","",""
"","choice_confirmation","","html-keyboard-response","67","296006","0.0-58.0-2.0-0.0","0","0","WUJ86","People","","null","","","","null","","","","2","23","49","","","","","","","","","","","","","","","","","","","","","","","","","","","","","","","","","","","","","",""
"","fixation","","html-keyboard-response","68","297014","0.0-59.0-0.0","0","0","WUJ86","People","","null","","","","null","","","","","","","","","","","","","","","","","","","","","","","","","","","","","","","","","","","","","","","","","","","",""
"","deliberation","","html-keyboard-response","69","300467","0.0-59.0-1.0","0","0","WUJ86","People","","3450","","","","75","","","","3","38","28","0","1","66","67","petr-sevcovic-HzDF-rxlSeM-unsplash.jpg","justin-chen-J7Cf1Gch49E-unsplash.jpg","1","0","28","38","","","","","","","","","","","","","","","","","","","","","","","","","","","",""
"","choice_confirmation","","html-keyboard-response","70","300975","0.0-59.0-2.0-0.0","0","0","WUJ86","People","","null","","","","null","","","","3","38","28","","","","","","","","","","","","","","","","","","","","","","","","","","","","","","","","","","","","","",""
"","fixation","","html-keyboard-response","71","301982","0.0-60.0-0.0","0","0","WUJ86","People","","null","","","","null","","","","","","","","","","","","","","","","","","","","","","","","","","","","","","","","","","","","","","","","","","","",""
"","deliberation","","html-keyboard-response","72","305043","0.0-60.0-1.0","0","0","WUJ86","People","","3057","","","","75","","","","4","2","22","1","-1","55","59","arjunsyah-TBUA5KHJn6k-unsplash.jpg","jessica-radanavong-mrYkTuAesKE-unsplash.jpg","1","0","22","2","","","","","","","","","","","","","","","","","","","","","","","","","","","",""
"","choice_confirmation","","html-keyboard-response","73","305550","0.0-60.0-2.0-0.0","0","0","WUJ86","People","","null","","","","null","","","","4","2","22","","","","","","","","","","","","","","","","","","","","","","","","","","","","","","","","","","","","","",""
"","explain_trial","","survey-text","74","330470","0.0-60.0-5.0-0.0","0","0","WUJ86","People","","24917","{""Q0"":""i think this was presented better""}","","","","","","","4","2","22","","","","","","","","","","","{""Q0"":""i think this was presented better""}","","","","","","","","","","","","","","","","","","","","","","","","","","",""
"","fixation","","html-keyboard-response","75","331477","0.0-61.0-0.0","0","0","WUJ86","People","","null","","","","null","","","","","","","","","","","","","","","","","","","","","","","","","","","","","","","","","","","","","","","","","","","",""
"","deliberation","","html-keyboard-response","76","337339","0.0-61.0-1.0","0","0","WUJ86","People","","5859","","","","75","","","","5","44","36","1","-1","65","47","rikonavt-HQjfrvdTfak-unsplash.jpg","ospan-ali-mGdA2fzjWLo-unsplash.jpg","1","0","36","44","","","","","","","","","","","","","","","","","","","","","","","","","","","",""
"","choice_confirmation","","html-keyboard-response","77","337846","0.0-61.0-2.0-0.0","0","0","WUJ86","People","","null","","","","null","","","","5","44","36","","","","","","","","","","","","","","","","","","","","","","","","","","","","","","","","","","","","","",""
"","explain_trial","","survey-text","78","362654","0.0-61.0-5.0-0.0","0","0","WUJ86","People","","24805","{""Q0"":""plain yet simple and says 1000 words""}","","","","","","","5","44","36","","","","","","","","","","","{""Q0"":""plain yet simple and says 1000 words""}","","","","","","","","","","","","","","","","","","","","","","","","","","",""
"","fixation","","html-keyboard-response","79","363660","0.0-62.0-0.0","0","0","WUJ86","People","","null","","","","null","","","","","","","","","","","","","","","","","","","","","","","","","","","","","","","","","","","","","","","","","","","",""
"","deliberation","","html-keyboard-response","80","368019","0.0-62.0-1.0","0","0","WUJ86","People","","4356","","","","75","","","","6","20","19","0","1","53","71","houcine-ncib-B4TjXnI0Y2c-unsplash.jpg","ha-nguy-n-OFSQ6bHjFjs-unsplash.jpg","1","0","19","20","","","","","","","","","","","","","","","","","","","","","","","","","","","",""
"","choice_confirmation","","html-keyboard-response","81","368525","0.0-62.0-2.0-0.0","0","0","WUJ86","People","","null","","","","null","","","","6","20","19","","","","","","","","","","","","","","","","","","","","","","","","","","","","","","","","","","","","","",""
"","fixation","","html-keyboard-response","82","369534","0.0-63.0-0.0","0","0","WUJ86","People","","null","","","","null","","","","","","","","","","","","","","","","","","","","","","","","","","","","","","","","","","","","","","","","","","","",""
"","deliberation","","html-keyboard-response","83","371915","0.0-63.0-1.0","0","0","WUJ86","People","","2378","","","","75","","","","7","29","30","1","-1","50","65","leilani-angel-K84vnnzxmTQ-unsplash.jpg","matheus-ferrero-pg_WCHWSdT8-unsplash.jpg","1","0","30","29","","","","","","","","","","","","","","","","","","","","","","","","","","","",""
"","choice_confirmation","","html-keyboard-response","84","372422","0.0-63.0-2.0-0.0","0","0","WUJ86","People","","null","","","","null","","","","7","29","30","","","","","","","","","","","","","","","","","","","","","","","","","","","","","","","","","","","","","",""
"","explain_trial","","survey-text","85","386449","0.0-63.0-5.0-0.0","0","0","WUJ86","People","","14023","{""Q0"":""i like the background better""}","","","","","","","7","29","30","","","","","","","","","","","{""Q0"":""i like the background better""}","","","","","","","","","","","","","","","","","","","","","","","","","","",""
"","fixation","","html-keyboard-response","86","387453","0.0-64.0-0.0","0","0","WUJ86","People","","null","","","","null","","","","","","","","","","","","","","","","","","","","","","","","","","","","","","","","","","","","","","","","","","","",""
"","deliberation","","html-keyboard-response","87","392387","0.0-64.0-1.0","0","0","WUJ86","People","","4930","","","","75","","","","8","33","10","0","1","50","51","olena-sergienko-0TSd6uCKTKc-unsplash.jpg","charles-etoroma-95UF6LXe-Lo-unsplash.jpg","1","0","10","33","","","","","","","","","","","","","","","","","","","","","","","","","","","",""
"","choice_confirmation","","html-keyboard-response","88","392893","0.0-64.0-2.0-0.0","0","0","WUJ86","People","","null","","","","null","","","","8","33","10","","","","","","","","","","","","","","","","","","","","","","","","","","","","","","","","","","","","","",""
"","fixation","","html-keyboard-response","89","393901","0.0-65.0-0.0","0","0","WUJ86","People","","null","","","","null","","","","","","","","","","","","","","","","","","","","","","","","","","","","","","","","","","","","","","","","","","","",""
"","deliberation","","html-keyboard-response","90","398907","0.0-65.0-1.0","0","0","WUJ86","People","","5003","","","","75","","","","9","9","31","1","1","74","49","carlos-andres-gomez-vJuk8Y86mRw-unsplash.jpg","mathilda-khoo-vLR0YP_otCo-unsplash.jpg","1","0","31","9","","","","","","","","","","","","","","","","","","","","","","","","","","","",""
"","choice_confirmation","","html-keyboard-response","91","399414","0.0-65.0-2.0-0.0","0","0","WUJ86","People","","null","","","","null","","","","9","9","31","","","","","","","","","","","","","","","","","","","","","","","","","","","","","","","","","","","","","",""
"","explain_trial","","survey-text","92","438052","0.0-65.0-5.0-0.0","0","0","WUJ86","People","","38635","{""Q0"":""the has a story to tell her eyes says it all and the background really brings them out""}","","","","","","","9","9","31","","","","","","","","","","","{""Q0"":""the has a story to tell her eyes says it all and the background really brings them out""}","","","","","","","","","","","","","","","","","","","","","","","","","","",""
"","fixation","","html-keyboard-response","93","439056","0.0-66.0-0.0","0","0","WUJ86","People","","null","","","","null","","","","","","","","","","","","","","","","","","","","","","","","","","","","","","","","","","","","","","","","","","","",""
"","deliberation","","html-keyboard-response","94","442922","0.0-66.0-1.0","0","0","WUJ86","People","","3863","","","","75","","","","10","14","48","0","-1","54","46","freddy-kearney-o-ioeoATbIM-unsplash.jpg","velizar-ivanov-7ktP9yZA1g4-unsplash.jpg","1","0","48","14","","","","","","","","","","","","","","","","","","","","","","","","","","","",""
"","choice_confirmation","","html-keyboard-response","95","443429","0.0-66.0-2.0-0.0","0","0","WUJ86","People","","null","","","","null","","","","10","14","48","","","","","","","","","","","","","","","","","","","","","","","","","","","","","","","","","","","","","",""
"","fixation","","html-keyboard-response","96","444438","0.0-67.0-0.0","0","0","WUJ86","People","","null","","","","null","","","","","","","","","","","","","","","","","","","","","","","","","","","","","","","","","","","","","","","","","","","",""
"","deliberation","","html-keyboard-response","97","447411","0.0-67.0-1.0","0","0","WUJ86","People","","2970","","","","75","","","","11","4","32","1","-1","64","62","barna-bartis-2x3vfVxwR7o-unsplash.jpg","nathan-dumlao-ger61_TX6oI-unsplash.jpg","1","0","32","4","","","","","","","","","","","","","","","","","","","","","","","","","","","",""
"","choice_confirmation","","html-keyboard-response","98","447918","0.0-67.0-2.0-0.0","0","0","WUJ86","People","","null","","","","null","","","","11","4","32","","","","","","","","","","","","","","","","","","","","","","","","","","","","","","","","","","","","","",""
"","explain_trial","","survey-text","99","476256","0.0-67.0-5.0-0.0","0","0","WUJ86","People","","28335","{""Q0"":""he looks refreshed and happy just a peace""}","","","","","","","11","4","32","","","","","","","","","","","{""Q0"":""he looks refreshed and happy just a peace""}","","","","","","","","","","","","","","","","","","","","","","","","","","",""
"","practice_deliberation_again","","html-keyboard-response","100","479603","0.0-67.0-6.0-0.0","0","0","WUJ86","People","","3344","","","","78","","","","","","","","","","","","","","","","","","","","","","","","","","","","","","","","","","","","","","","","","","","",""
"","fixation","","html-keyboard-response","101","480613","0.0-68.0-0.0","0","0","WUJ86","People","","null","","","","null","","","","","","","","","","","","","","","","","","","","","","","","","","","","","","","","","","","","","","","","","","","",""
"","deliberation","","html-keyboard-response","102","485147","0.0-68.0-1.0","0","0","WUJ86","People","","4530","","","","75","","","","12","2","22","0","-1","55","59","arjunsyah-TBUA5KHJn6k-unsplash.jpg","jessica-radanavong-mrYkTuAesKE-unsplash.jpg","2","0","22","2","","","","","","","","","","","","","","","","","","","","","","","","","","","",""
"","choice_confirmation","","html-keyboard-response","103","485654","0.0-68.0-2.0-0.0","0","0","WUJ86","People","","null","","","","null","","","","12","2","22","","","","","","","","","","","","","","","","","","","","","","","","","","","","","","","","","","","","","",""
"","fixation","","html-keyboard-response","104","486661","0.0-69.0-0.0","0","0","WUJ86","People","","null","","","","null","","","","","","","","","","","","","","","","","","","","","","","","","","","","","","","","","","","","","","","","","","","",""
"","deliberation","","html-keyboard-response","105","490483","0.0-69.0-1.0","0","0","WUJ86","People","","3818","","","","75","","","","13","33","10","1","1","50","51","olena-sergienko-0TSd6uCKTKc-unsplash.jpg","charles-etoroma-95UF6LXe-Lo-unsplash.jpg","2","0","10","33","","","","","","","","","","","","","","","","","","","","","","","","","","","",""
"","choice_confirmation","","html-keyboard-response","106","490990","0.0-69.0-2.0-0.0","0","0","WUJ86","People","","null","","","","null","","","","13","33","10","","","","","","","","","","","","","","","","","","","","","","","","","","","","","","","","","","","","","",""
"","explain_trial","","survey-text","107","523853","0.0-69.0-5.0-0.0","0","0","WUJ86","People","","32860","{""Q0"":""i like that the white wall makes everything pop out. the man looks as if he is enjoying life""}","","","","","","","13","33","10","","","","","","","","","","","{""Q0"":""i like that the white wall makes everything pop out. the man looks as if he is enjoying life""}","","","","","","","","","","","","","","","","","","","","","","","","","","",""
"","fixation","","html-keyboard-response","108","524862","0.0-70.0-0.0","0","0","WUJ86","People","","null","","","","null","","","","","","","","","","","","","","","","","","","","","","","","","","","","","","","","","","","","","","","","","","","",""
"","deliberation","","html-keyboard-response","109","528316","0.0-70.0-1.0","0","0","WUJ86","People","","3451","","","","68","","","","14","23","49","1","1","82","57","joanna-nix-walkup-H4fEMshfwTE-unsplash.jpg","vicky-hladynets-_gDoyVv5F4c-unsplash.jpg","2","1","23","49","","","","","","","","","","","","","","","","","","","","","","","","","","","",""
"","choice_confirmation","","html-keyboard-response","110","528822","0.0-70.0-2.0-0.0","0","0","WUJ86","People","","null","","","","null","","","","14","23","49","","","","","","","","","","","","","","","","","","","","","","","","","","","","","","","","","","","","","",""
"","explain_trial","","survey-text","111","571463","0.0-70.0-5.0-0.0","0","0","WUJ86","People","","42636","{""Q0"":""she seems on a mission to accomplish something. the background is great too""}","","","","","","","14","23","49","","","","","","","","","","","{""Q0"":""she seems on a mission to accomplish something. the background is great too""}","","","","","","","","","","","","","","","","","","","","","","","","","","",""
"","fixation","","html-keyboard-response","112","572470","0.0-71.0-0.0","0","0","WUJ86","People","","null","","","","null","","","","","","","","","","","","","","","","","","","","","","","","","","","","","","","","","","","","","","","","","","","",""
"","deliberation","","html-keyboard-response","113","574940","0.0-71.0-1.0","0","0","WUJ86","People","","2466","","","","75","","","","15","0","35","1","-1","50","47","abstral-official-cyOKLSgkgCE-unsplash.jpg","oliver-ragfelt-khV4fTy6-D8-unsplash.jpg","2","0","35","0","","","","","","","","","","","","","","","","","","","","","","","","","","","",""
"","choice_confirmation","","html-keyboard-response","114","575445","0.0-71.0-2.0-0.0","0","0","WUJ86","People","","null","","","","null","","","","15","0","35","","","","","","","","","","","","","","","","","","","","","","","","","","","","","","","","","","","","","",""
"","explain_trial","","survey-text","115","611958","0.0-71.0-5.0-0.0","0","0","WUJ86","People","","36509","{""Q0"":""good headshot colors not clashing with the background""}","","","","","","","15","0","35","","","","","","","","","","","{""Q0"":""good headshot colors not clashing with the background""}","","","","","","","","","","","","","","","","","","","","","","","","","","",""
"","fixation","","html-keyboard-response","116","612965","0.0-72.0-0.0","0","0","WUJ86","People","","null","","","","null","","","","","","","","","","","","","","","","","","","","","","","","","","","","","","","","","","","","","","","","","","","",""
"","deliberation","","html-keyboard-response","117","618682","0.0-72.0-1.0","0","0","WUJ86","People","","5713","","","","68","","","","16","18","11","0","1","54","57","good-faces-xmSWVeGEnJw-unsplash.jpg","christian-ferrer-8vT-DgHZDG4-unsplash.jpg","2","1","18","11","","","","","","","","","","","","","","","","","","","","","","","","","","","",""
"","choice_confirmation","","html-keyboard-response","118","619190","0.0-72.0-2.0-0.0","0","0","WUJ86","People","","null","","","","null","","","","16","18","11","","","","","","","","","","","","","","","","","","","","","","","","","","","","","","","","","","","","","",""
"","fixation","","html-keyboard-response","119","620198","0.0-73.0-0.0","0","0","WUJ86","People","","null","","","","null","","","","","","","","","","","","","","","","","","","","","","","","","","","","","","","","","","","","","","","","","","","",""
"","deliberation","","html-keyboard-response","120","623195","0.0-73.0-1.0","0","0","WUJ86","People","","2994","","","","75","","","","17","44","36","0","-1","65","47","rikonavt-HQjfrvdTfak-unsplash.jpg","ospan-ali-mGdA2fzjWLo-unsplash.jpg","2","0","36","44","","","","","","","","","","","","","","","","","","","","","","","","","","","",""
"","choice_confirmation","","html-keyboard-response","121","623701","0.0-73.0-2.0-0.0","0","0","WUJ86","People","","null","","","","null","","","","17","44","36","","","","","","","","","","","","","","","","","","","","","","","","","","","","","","","","","","","","","",""
"","fixation","","html-keyboard-response","122","624710","0.0-74.0-0.0","0","0","WUJ86","People","","null","","","","null","","","","","","","","","","","","","","","","","","","","","","","","","","","","","","","","","","","","","","","","","","","",""
"","deliberation","","html-keyboard-response","123","626746","0.0-74.0-1.0","0","0","WUJ86","People","","2033","","","","75","","","","18","9","31","0","1","74","49","carlos-andres-gomez-vJuk8Y86mRw-unsplash.jpg","mathilda-khoo-vLR0YP_otCo-unsplash.jpg","2","0","31","9","","","","","","","","","","","","","","","","","","","","","","","","","","","",""
"","choice_confirmation","","html-keyboard-response","124","627253","0.0-74.0-2.0-0.0","0","0","WUJ86","People","","null","","","","null","","","","18","9","31","","","","","","","","","","","","","","","","","","","","","","","","","","","","","","","","","","","","","",""
"","fixation","","html-keyboard-response","125","628261","0.0-75.0-0.0","0","0","WUJ86","People","","null","","","","null","","","","","","","","","","","","","","","","","","","","","","","","","","","","","","","","","","","","","","","","","","","",""
"","deliberation","","html-keyboard-response","126","630882","0.0-75.0-1.0","0","0","WUJ86","People","","2618","","","","75","","","","19","20","19","1","1","53","71","houcine-ncib-B4TjXnI0Y2c-unsplash.jpg","ha-nguy-n-OFSQ6bHjFjs-unsplash.jpg","2","0","19","20","","","","","","","","","","","","","","","","","","","","","","","","","","","",""
"","choice_confirmation","","html-keyboard-response","127","631389","0.0-75.0-2.0-0.0","0","0","WUJ86","People","","null","","","","null","","","","19","20","19","","","","","","","","","","","","","","","","","","","","","","","","","","","","","","","","","","","","","",""
"","explain_trial","","survey-text","128","685592","0.0-75.0-5.0-0.0","0","0","WUJ86","People","","54199","{""Q0"":""do not like the background but I like that he still seems natural in the environment""}","","","","","","","19","20","19","","","","","","","","","","","{""Q0"":""do not like the background but I like that he still seems natural in the environment""}","","","","","","","","","","","","","","","","","","","","","","","","","","",""
"","fixation","","html-keyboard-response","129","686598","0.0-76.0-0.0","0","0","WUJ86","People","","null","","","","null","","","","","","","","","","","","","","","","","","","","","","","","","","","","","","","","","","","","","","","","","","","",""
"","deliberation","","html-keyboard-response","130","688887","0.0-76.0-1.0","0","0","WUJ86","People","","2274","","","","75","","","","20","14","48","1","-1","54","46","freddy-kearney-o-ioeoATbIM-unsplash.jpg","velizar-ivanov-7ktP9yZA1g4-unsplash.jpg","2","0","48","14","","","","","","","","","","","","","","","","","","","","","","","","","","","",""
"","choice_confirmation","","html-keyboard-response","131","689397","0.0-76.0-2.0-0.0","0","0","WUJ86","People","","null","","","","null","","","","20","14","48","","","","","","","","","","","","","","","","","","","","","","","","","","","","","","","","","","","","","",""
"","explain_trial","","survey-text","132","718848","0.0-76.0-5.0-0.0","0","0","WUJ86","People","","29432","{""Q0"":""she has so many things to say and feelings i wonder what she is thinking""}","","","","","","","20","14","48","","","","","","","","","","","{""Q0"":""she has so many things to say and feelings i wonder what she is thinking""}","","","","","","","","","","","","","","","","","","","","","","","","","","",""
"","fixation","","html-keyboard-response","133","719881","0.0-77.0-0.0","0","0","WUJ86","People","","null","","","","null","","","","","","","","","","","","","","","","","","","","","","","","","","","","","","","","","","","","","","","","","","","",""
"","deliberation","","html-keyboard-response","134","723091","0.0-77.0-1.0","0","0","WUJ86","People","","3207","","","","75","","","","21","29","30","0","-1","50","65","leilani-angel-K84vnnzxmTQ-unsplash.jpg","matheus-ferrero-pg_WCHWSdT8-unsplash.jpg","2","0","30","29","","","","","","","","","","","","","","","","","","","","","","","","","","","",""
"","choice_confirmation","","html-keyboard-response","135","723598","0.0-77.0-2.0-0.0","0","0","WUJ86","People","","null","","","","null","","","","21","29","30","","","","","","","","","","","","","","","","","","","","","","","","","","","","","","","","","","","","","",""
"","fixation","","html-keyboard-response","136","724605","0.0-78.0-0.0","0","0","WUJ86","People","","null","","","","null","","","","","","","","","","","","","","","","","","","","","","","","","","","","","","","","","","","","","","","","","","","",""
"","deliberation","","html-keyboard-response","137","727315","0.0-78.0-1.0","0","0","WUJ86","People","","2707","","","","75","","","","22","38","28","1","1","66","67","petr-sevcovic-HzDF-rxlSeM-unsplash.jpg","justin-chen-J7Cf1Gch49E-unsplash.jpg","2","0","28","38","","","","","","","","","","","","","","","","","","","","","","","","","","","",""
"","choice_confirmation","","html-keyboard-response","138","727821","0.0-78.0-2.0-0.0","0","0","WUJ86","People","","null","","","","null","","","","22","38","28","","","","","","","","","","","","","","","","","","","","","","","","","","","","","","","","","","","","","",""
"","explain_trial","","survey-text","139","755820","0.0-78.0-5.0-0.0","0","0","WUJ86","People","","27994","{""Q0"":""like the lighting and sharpness of the picture""}","","","","","","","22","38","28","","","","","","","","","","","{""Q0"":""like the lighting and sharpness of the picture""}","","","","","","","","","","","","","","","","","","","","","","","","","","",""
"","fixation","","html-keyboard-response","140","756823","0.0-79.0-0.0","0","0","WUJ86","People","","null","","","","null","","","","","","","","","","","","","","","","","","","","","","","","","","","","","","","","","","","","","","","","","","","",""
"","deliberation","","html-keyboard-response","141","760083","0.0-79.0-1.0","0","0","WUJ86","People","","3258","","","","75","","","","23","4","32","0","-1","64","62","barna-bartis-2x3vfVxwR7o-unsplash.jpg","nathan-dumlao-ger61_TX6oI-unsplash.jpg","2","0","32","4","","","","","","","","","","","","","","","","","","","","","","","","","","","",""
"","choice_confirmation","","html-keyboard-response","142","760589","0.0-79.0-2.0-0.0","0","0","WUJ86","People","","null","","","","null","","","","23","4","32","","","","","","","","","","","","","","","","","","","","","","","","","","","","","","","","","","","","","",""
"","start_critical_deliberation_block","","html-keyboard-response","143","765251","0.0-79.0-7.0-0.0","0","0","WUJ86","People","","4659","","","","78","","","","","","","","","","","","","","","","","","","","","","","","","","","","","","","","","","","","","","","","","","","",""
"","fixation","","html-keyboard-response","144","766262","0.0-80.0-0.0","0","0","WUJ86","People","","null","","","","null","","","","","","","","","","","","","","","","","","","","","","","","","","","","","","","","","","","","","","","","","","","",""
"","deliberation","","html-keyboard-response","145","768218","0.0-80.0-1.0","0","0","WUJ86","People","","1953","","","","75","","","","24","20","19","0","1","53","71","houcine-ncib-B4TjXnI0Y2c-unsplash.jpg","ha-nguy-n-OFSQ6bHjFjs-unsplash.jpg","3","0","19","20","","","","","","","","","","","","","","","","","","","","","","","","","","","",""
"","choice_confirmation","","html-keyboard-response","146","768726","0.0-80.0-2.0-0.0","0","0","WUJ86","People","","null","","","","null","","","","24","20","19","","","","","","","","","","","","","","","","","","","","","","","","","","","","","","","","","","","","","",""
"","fixation","","html-keyboard-response","147","769734","0.0-81.0-0.0","0","0","WUJ86","People","","null","","","","null","","","","","","","","","","","","","","","","","","","","","","","","","","","","","","","","","","","","","","","","","","","",""
"","deliberation","","html-keyboard-response","148","771220","0.0-81.0-1.0","0","0","WUJ86","People","","1484","","","","75","","","","25","33","10","0","1","50","51","olena-sergienko-0TSd6uCKTKc-unsplash.jpg","charles-etoroma-95UF6LXe-Lo-unsplash.jpg","3","0","10","33","","","","","","","","","","","","","","","","","","","","","","","","","","","",""
"","choice_confirmation","","html-keyboard-response","149","771725","0.0-81.0-2.0-0.0","0","0","WUJ86","People","","null","","","","null","","","","25","33","10","","","","","","","","","","","","","","","","","","","","","","","","","","","","","","","","","","","","","",""
"","fixation","","html-keyboard-response","150","772733","0.0-82.0-0.0","0","0","WUJ86","People","","null","","","","null","","","","","","","","","","","","","","","","","","","","","","","","","","","","","","","","","","","","","","","","","","","",""
"","deliberation","","html-keyboard-response","151","773875","0.0-82.0-1.0","0","0","WUJ86","People","","1138","","","","75","","","","26","14","48","0","-1","54","46","freddy-kearney-o-ioeoATbIM-unsplash.jpg","velizar-ivanov-7ktP9yZA1g4-unsplash.jpg","3","0","48","14","","","","","","","","","","","","","","","","","","","","","","","","","","","",""
"","choice_confirmation","","html-keyboard-response","152","774382","0.0-82.0-2.0-0.0","0","0","WUJ86","People","","null","","","","null","","","","26","14","48","","","","","","","","","","","","","","","","","","","","","","","","","","","","","","","","","","","","","",""
"","fixation","","html-keyboard-response","153","775389","0.0-83.0-0.0","0","0","WUJ86","People","","null","","","","null","","","","","","","","","","","","","","","","","","","","","","","","","","","","","","","","","","","","","","","","","","","",""
"","deliberation","","html-keyboard-response","154","778426","0.0-83.0-1.0","0","0","WUJ86","People","","3035","","","","68","","","","27","18","11","0","1","54","57","good-faces-xmSWVeGEnJw-unsplash.jpg","christian-ferrer-8vT-DgHZDG4-unsplash.jpg","3","1","18","11","","","","","","","","","","","","","","","","","","","","","","","","","","","",""
"","choice_confirmation","","html-keyboard-response","155","778934","0.0-83.0-2.0-0.0","0","0","WUJ86","People","","null","","","","null","","","","27","18","11","","","","","","","","","","","","","","","","","","","","","","","","","","","","","","","","","","","","","",""
"","fixation","","html-keyboard-response","156","779941","0.0-84.0-0.0","0","0","WUJ86","People","","null","","","","null","","","","","","","","","","","","","","","","","","","","","","","","","","","","","","","","","","","","","","","","","","","",""
"","deliberation","","html-keyboard-response","157","781098","0.0-84.0-1.0","0","0","WUJ86","People","","1154","","","","75","","","","28","44","36","0","-1","65","47","rikonavt-HQjfrvdTfak-unsplash.jpg","ospan-ali-mGdA2fzjWLo-unsplash.jpg","3","0","36","44","","","","","","","","","","","","","","","","","","","","","","","","","","","",""
"","choice_confirmation","","html-keyboard-response","158","781606","0.0-84.0-2.0-0.0","0","0","WUJ86","People","","null","","","","null","","","","28","44","36","","","","","","","","","","","","","","","","","","","","","","","","","","","","","","","","","","","","","",""
"","fixation","","html-keyboard-response","159","782613","0.0-85.0-0.0","0","0","WUJ86","People","","null","","","","null","","","","","","","","","","","","","","","","","","","","","","","","","","","","","","","","","","","","","","","","","","","",""
"","deliberation","","html-keyboard-response","160","783995","0.0-85.0-1.0","0","0","WUJ86","People","","1379","","","","75","","","","29","29","30","0","-1","50","65","leilani-angel-K84vnnzxmTQ-unsplash.jpg","matheus-ferrero-pg_WCHWSdT8-unsplash.jpg","3","0","30","29","","","","","","","","","","","","","","","","","","","","","","","","","","","",""
"","choice_confirmation","","html-keyboard-response","161","784502","0.0-85.0-2.0-0.0","0","0","WUJ86","People","","null","","","","null","","","","29","29","30","","","","","","","","","","","","","","","","","","","","","","","","","","","","","","","","","","","","","",""
"","fixation","","html-keyboard-response","162","785510","0.0-86.0-0.0","0","0","WUJ86","People","","null","","","","null","","","","","","","","","","","","","","","","","","","","","","","","","","","","","","","","","","","","","","","","","","","",""
"","deliberation","","html-keyboard-response","163","786867","0.0-86.0-1.0","0","0","WUJ86","People","","1354","","","","75","","","","30","9","31","0","1","74","49","carlos-andres-gomez-vJuk8Y86mRw-unsplash.jpg","mathilda-khoo-vLR0YP_otCo-unsplash.jpg","3","0","31","9","","","","","","","","","","","","","","","","","","","","","","","","","","","",""
"","choice_confirmation","","html-keyboard-response","164","787374","0.0-86.0-2.0-0.0","0","0","WUJ86","People","","null","","","","null","","","","30","9","31","","","","","","","","","","","","","","","","","","","","","","","","","","","","","","","","","","","","","",""
"","fixation","","html-keyboard-response","165","788382","0.0-87.0-0.0","0","0","WUJ86","People","","null","","","","null","","","","","","","","","","","","","","","","","","","","","","","","","","","","","","","","","","","","","","","","","","","",""
"","deliberation","","html-keyboard-response","166","791506","0.0-87.0-1.0","0","0","WUJ86","People","","3121","","","","75","","","","31","23","49","0","1","82","57","joanna-nix-walkup-H4fEMshfwTE-unsplash.jpg","vicky-hladynets-_gDoyVv5F4c-unsplash.jpg","3","0","49","23","","","","","","","","","","","","","","","","","","","","","","","","","","","",""
"","choice_confirmation","","html-keyboard-response","167","792014","0.0-87.0-2.0-0.0","0","0","WUJ86","People","","null","","","","null","","","","31","23","49","","","","","","","","","","","","","","","","","","","","","","","","","","","","","","","","","","","","","",""
"","fixation","","html-keyboard-response","168","793022","0.0-88.0-0.0","0","0","WUJ86","People","","null","","","","null","","","","","","","","","","","","","","","","","","","","","","","","","","","","","","","","","","","","","","","","","","","",""
"","deliberation","","html-keyboard-response","169","794611","0.0-88.0-1.0","0","0","WUJ86","People","","1586","","","","75","","","","32","4","32","0","-1","64","62","barna-bartis-2x3vfVxwR7o-unsplash.jpg","nathan-dumlao-ger61_TX6oI-unsplash.jpg","3","0","32","4","","","","","","","","","","","","","","","","","","","","","","","","","","","",""
"","choice_confirmation","","html-keyboard-response","170","795118","0.0-88.0-2.0-0.0","0","0","WUJ86","People","","null","","","","null","","","","32","4","32","","","","","","","","","","","","","","","","","","","","","","","","","","","","","","","","","","","","","",""
"","fixation","","html-keyboard-response","171","796125","0.0-89.0-0.0","0","0","WUJ86","People","","null","","","","null","","","","","","","","","","","","","","","","","","","","","","","","","","","","","","","","","","","","","","","","","","","",""
"","deliberation","","html-keyboard-response","172","798578","0.0-89.0-1.0","0","0","WUJ86","People","","2451","","","","75","","","","33","2","22","0","-1","55","59","arjunsyah-TBUA5KHJn6k-unsplash.jpg","jessica-radanavong-mrYkTuAesKE-unsplash.jpg","3","0","22","2","","","","","","","","","","","","","","","","","","","","","","","","","","","",""
"","choice_confirmation","","html-keyboard-response","173","799085","0.0-89.0-2.0-0.0","0","0","WUJ86","People","","null","","","","null","","","","33","2","22","","","","","","","","","","","","","","","","","","","","","","","","","","","","","","","","","","","","","",""
"","fixation","","html-keyboard-response","174","800093","0.0-90.0-0.0","0","0","WUJ86","People","","null","","","","null","","","","","","","","","","","","","","","","","","","","","","","","","","","","","","","","","","","","","","","","","","","",""
"","deliberation","","html-keyboard-response","175","802179","0.0-90.0-1.0","0","0","WUJ86","People","","2083","","","","75","","","","34","0","35","0","-1","50","47","abstral-official-cyOKLSgkgCE-unsplash.jpg","oliver-ragfelt-khV4fTy6-D8-unsplash.jpg","3","0","35","0","","","","","","","","","","","","","","","","","","","","","","","","","","","",""
"","choice_confirmation","","html-keyboard-response","176","802686","0.0-90.0-2.0-0.0","0","0","WUJ86","People","","null","","","","null","","","","34","0","35","","","","","","","","","","","","","","","","","","","","","","","","","","","","","","","","","","","","","",""
"","fixation","","html-keyboard-response","177","803694","0.0-91.0-0.0","0","0","WUJ86","People","","null","","","","null","","","","","","","","","","","","","","","","","","","","","","","","","","","","","","","","","","","","","","","","","","","",""
"","deliberation","","html-keyboard-response","178","805451","0.0-91.0-1.0","0","0","WUJ86","People","","1754","","","","75","","","","35","38","28","0","1","66","67","petr-sevcovic-HzDF-rxlSeM-unsplash.jpg","justin-chen-J7Cf1Gch49E-unsplash.jpg","3","0","28","38","","","","","","","","","","","","","","","","","","","","","","","","","","","",""
"","choice_confirmation","","html-keyboard-response","179","805974","0.0-91.0-2.0-0.0","0","0","WUJ86","People","","null","","","","null","","","","35","38","28","","","","","","","","","","","","","","","","","","","","","","","","","","","","","","","","","","","","","",""
"","reward_learning_instructions","","instructions","180","854539","0.0-92.0-0.0","0","0","WUJ86","People","[{""page_index"":0,""viewing_time"":11359},{""page_index"":1,""viewing_time"":35960},{""page_index"":2,""viewing_time"":1244}]","48563","","","","","","","","","","","","","","","","","","","","","","","","","","","","","","","","","","","","","","","","","","","","","","","",""
"","","","survey-multi-choice","181","880580","0.0-92.0-1.0","0","0","WUJ86","People","","26003","{""Q0"":""True"",""Q1"":""True"",""Q2"":""Press the space bar to see its outcome"",""Q3"":""Press the relevant key while the outcome is presented""}","reward_comprehension_check","0","","","","","","","","","","","","","","","","","","","","","","","","","","","","","","","","","","","","","","","","","","","","",""
"","start_phase","","html-keyboard-response","182","883850","0.0-93.0","0","0","WUJ86","People","","3266","","","","78","","","","","","","","","","","","","","","","","","","","","","","","","","","","","","","","","","","","","","","","","","","",""
"","fixation","","html-keyboard-response","183","884854","0.0-94.0","0","0","WUJ86","People","","null","","","","null","","","","","","","","","","","","","","","","","","","","","","","","","","","","","","","","","","","","","","","","","","","",""
"","see_reward","","html-keyboard-response","184","885866","0.0-95.0","0","0","WUJ86","People","","1010","","","","32","","36","","0","","","","-1","","","","","1","","","","","0","1010","","","","","","","","","","","","","","","","","","","","","","","","",""
"","reward_outcome","","html-keyboard-response","185","887878","0.0-96.0","0","0","WUJ86","People","","null","","","","null","","36","","0","","","","","","","","","","","","","","","","NaN","null","","","","","","","","","","","","","","","","","","","","","","",""
"","respond_faster","","html-keyboard-response","186","889382","0.0-97.0-0.0","1","0","WUJ86","People","","null","","","","null","","","","","","","","","","","","","","","","","","","","","","","","","","","","","","","","","","","","","","","","","","","",""
"","fixation","","html-keyboard-response","187","890390","0.0-99.0","0","0","WUJ86","People","","null","","","","null","","","","","","","","","","","","","","","","","","","","","","","","","","","","","","","","","","","","","","","","","","","",""
"","see_reward","","html-keyboard-response","188","891427","0.0-100.0","0","0","WUJ86","People","","1035","","","","32","","30","","1","","","","-1","","","","","1","","","","","0","1035","","","","","","","","","","","","","","","","","","","","","","","","",""
"","reward_outcome","","html-keyboard-response","189","893438","0.0-101.0","0","0","WUJ86","People","","541","","","","40","","30","","1","","","","","","","","","","","","","","","","-1","541","","","","","","","","","","","","","","","","","","","","","","",""
"","fixation","","html-keyboard-response","190","894446","0.0-104.0","0","0","WUJ86","People","","null","","","","null","","","","","","","","","","","","","","","","","","","","","","","","","","","","","","","","","","","","","","","","","","","",""
"","see_reward","","html-keyboard-response","191","895243","0.0-105.0","0","0","WUJ86","People","","795","","","","32","","32","","2","","","","-1","","","","","1","","","","","0","795","","","","","","","","","","","","","","","","","","","","","","","","",""
"","reward_outcome","","html-keyboard-response","192","897254","0.0-106.0","0","0","WUJ86","People","","1012","","","","40","","32","","2","","","","","","","","","","","","","","","","-1","1012","","","","","","","","","","","","","","","","","","","","","","",""
"","fixation","","html-keyboard-response","193","898262","0.0-109.0","0","0","WUJ86","People","","null","","","","null","","","","","","","","","","","","","","","","","","","","","","","","","","","","","","","","","","","","","","","","","","","",""
"","see_reward","","html-keyboard-response","194","898899","0.0-110.0","0","0","WUJ86","People","","635","","","","32","","19","","3","","","","1","","","","","1","","","","","150","635","","","","","","","","","","","","","","","","","","","","","","","","",""
"","reward_outcome","","html-keyboard-response","195","900910","0.0-111.0","0","0","WUJ86","People","","981","","","","38","","19","","3","","","","","","","","","","","","","","","","1","981","","","","","","","","","","","","","","","","","","","","","","",""
"","fixation","","html-keyboard-response","196","901918","0.0-114.0","0","0","WUJ86","People","","null","","","","null","","","","","","","","","","","","","","","","","","","","","","","","","","","","","","","","","","","","","","","","","","","",""
"","see_reward","","html-keyboard-response","197","902707","0.0-115.0","0","0","WUJ86","People","","786","","","","32","","10","","4","","","","1","","","","","1","","","","","155","786","","","","","","","","","","","","","","","","","","","","","","","","",""
"","reward_outcome","","html-keyboard-response","198","904718","0.0-116.0","0","0","WUJ86","People","","973","","","","38","","10","","4","","","","","","","","","","","","","","","","1","973","","","","","","","","","","","","","","","","","","","","","","",""
"","fixation","","html-keyboard-response","199","905725","0.0-119.0","0","0","WUJ86","People","","null","","","","null","","","","","","","","","","","","","","","","","","","","","","","","","","","","","","","","","","","","","","","","","","","",""
"","see_reward","","html-keyboard-response","200","906426","0.0-120.0","0","0","WUJ86","People","","699","","","","32","","49","","5","","","","1","","","","","1","","","","","146","699","","","","","","","","","","","","","","","","","","","","","","","","",""
"","reward_outcome","","html-keyboard-response","201","908438","0.0-121.0","0","0","WUJ86","People","","565","","","","38","","49","","5","","","","","","","","","","","","","","","","1","565","","","","","","","","","","","","","","","","","","","","","","",""
"","fixation","","html-keyboard-response","202","909446","0.0-124.0","0","0","WUJ86","People","","null","","","","null","","","","","","","","","","","","","","","","","","","","","","","","","","","","","","","","","","","","","","","","","","","",""
"","see_reward","","html-keyboard-response","203","910003","0.0-125.0","0","0","WUJ86","People","","554","","","","32","","32","","6","","","","-1","","","","","1","","","","","0","554","","","","","","","","","","","","","","","","","","","","","","","","",""
"","reward_outcome","","html-keyboard-response","204","912014","0.0-126.0","0","0","WUJ86","People","","781","","","","40","","32","","6","","","","","","","","","","","","","","","","-1","781","","","","","","","","","","","","","","","","","","","","","","",""
"","fixation","","html-keyboard-response","205","913022","0.0-129.0","0","0","WUJ86","People","","null","","","","null","","","","","","","","","","","","","","","","","","","","","","","","","","","","","","","","","","","","","","","","","","","",""
"","see_reward","","html-keyboard-response","206","913435","0.0-130.0","0","0","WUJ86","People","","410","","","","32","","31","","7","","","","1","","","","","1","","","","","152","410","","","","","","","","","","","","","","","","","","","","","","","","",""
"","reward_outcome","","html-keyboard-response","207","915446","0.0-131.0","0","0","WUJ86","People","","525","","","","38","","31","","7","","","","","","","","","","","","","","","","1","525","","","","","","","","","","","","","","","","","","","","","","",""
"","fixation","","html-keyboard-response","208","916454","0.0-134.0","0","0","WUJ86","People","","null","","","","null","","","","","","","","","","","","","","","","","","","","","","","","","","","","","","","","","","","","","","","","","","","",""
"","see_reward","","html-keyboard-response","209","917067","0.0-135.0","0","0","WUJ86","People","","611","","","","32","","35","","8","","","","-1","","","","","1","","","","","0","611","","","","","","","","","","","","","","","","","","","","","","","","",""
"","reward_outcome","","html-keyboard-response","210","919078","0.0-136.0","0","0","WUJ86","People","","645","","","","40","","35","","8","","","","","","","","","","","","","","","","-1","645","","","","","","","","","","","","","","","","","","","","","","",""
"","fixation","","html-keyboard-response","211","920086","0.0-139.0","0","0","WUJ86","People","","null","","","","null","","","","","","","","","","","","","","","","","","","","","","","","","","","","","","","","","","","","","","","","","","","",""
"","see_reward","","html-keyboard-response","212","920395","0.0-140.0","0","0","WUJ86","People","","306","","","","32","","10","","9","","","","1","","","","","1","","","","","155","306","","","","","","","","","","","","","","","","","","","","","","","","",""
"","reward_outcome","","html-keyboard-response","213","922406","0.0-141.0","0","0","WUJ86","People","","492","","","","38","","10","","9","","","","","","","","","","","","","","","","1","492","","","","","","","","","","","","","","","","","","","","","","",""
"","fixation","","html-keyboard-response","214","923414","0.0-144.0","0","0","WUJ86","People","","null","","","","null","","","","","","","","","","","","","","","","","","","","","","","","","","","","","","","","","","","","","","","","","","","",""
"","see_reward","","html-keyboard-response","215","923843","0.0-145.0","0","0","WUJ86","People","","426","","","","32","","30","","10","","","","-1","","","","","1","","","","","0","426","","","","","","","","","","","","","","","","","","","","","","","","",""
"","reward_outcome","","html-keyboard-response","216","925854","0.0-146.0","0","0","WUJ86","People","","652","","","","40","","30","","10","","","","","","","","","","","","","","","","-1","652","","","","","","","","","","","","","","","","","","","","","","",""
"","fixation","","html-keyboard-response","217","926861","0.0-149.0","0","0","WUJ86","People","","null","","","","null","","","","","","","","","","","","","","","","","","","","","","","","","","","","","","","","","","","","","","","","","","","",""
"","see_reward","","html-keyboard-response","218","927259","0.0-150.0","0","0","WUJ86","People","","395","","","","32","","48","","11","","","","-1","","","","","1","","","","","0","395","","","","","","","","","","","","","","","","","","","","","","","","",""
"","reward_outcome","","html-keyboard-response","219","929270","0.0-151.0","0","0","WUJ86","People","","683","","","","40","","48","","11","","","","","","","","","","","","","","","","-1","683","","","","","","","","","","","","","","","","","","","","","","",""
"","fixation","","html-keyboard-response","220","930278","0.0-154.0","0","0","WUJ86","People","","null","","","","null","","","","","","","","","","","","","","","","","","","","","","","","","","","","","","","","","","","","","","","","","","","",""
"","see_reward","","html-keyboard-response","221","930746","0.0-155.0","0","0","WUJ86","People","","466","","","","32","","18","","12","","","","1","","","","","1","","","","","153","466","","","","","","","","","","","","","","","","","","","","","","","","",""
"","reward_outcome","","html-keyboard-response","222","932757","0.0-156.0","0","0","WUJ86","People","","685","","","","38","","18","","12","","","","","","","","","","","","","","","","1","685","","","","","","","","","","","","","","","","","","","","","","",""
"","fixation","","html-keyboard-response","223","933766","0.0-159.0","0","0","WUJ86","People","","null","","","","null","","","","","","","","","","","","","","","","","","","","","","","","","","","","","","","","","","","","","","","","","","","",""
"","see_reward","","html-keyboard-response","224","934459","0.0-160.0","0","0","WUJ86","People","","690","","","","32","","28","","13","","","","1","","","","","1","","","","","149","690","","","","","","","","","","","","","","","","","","","","","","","","",""
"","reward_outcome","","html-keyboard-response","225","936470","0.0-161.0","0","0","WUJ86","People","","1421","","","","38","","28","","13","","","","","","","","","","","","","","","","1","1421","","","","","","","","","","","","","","","","","","","","","","",""
"","fixation","","html-keyboard-response","226","937477","0.0-164.0","0","0","WUJ86","People","","null","","","","null","","","","","","","","","","","","","","","","","","","","","","","","","","","","","","","","","","","","","","","","","","","",""
"","see_reward","","html-keyboard-response","227","938266","0.0-165.0","0","0","WUJ86","People","","786","","","","32","","31","","14","","","","1","","","","","1","","","","","152","786","","","","","","","","","","","","","","","","","","","","","","","","",""
"","reward_outcome","","html-keyboard-response","228","940269","0.0-166.0","0","0","WUJ86","People","","710","","","","38","","31","","14","","","","","","","","","","","","","","","","1","710","","","","","","","","","","","","","","","","","","","","","","",""
"","fixation","","html-keyboard-response","229","941278","0.0-169.0","0","0","WUJ86","People","","null","","","","null","","","","","","","","","","","","","","","","","","","","","","","","","","","","","","","","","","","","","","","","","","","",""
"","see_reward","","html-keyboard-response","230","941834","0.0-170.0","0","0","WUJ86","People","","554","","","","32","","35","","15","","","","-1","","","","","1","","","","","0","554","","","","","","","","","","","","","","","","","","","","","","","","",""
"","reward_outcome","","html-keyboard-response","231","943846","0.0-171.0","0","0","WUJ86","People","","662","","","","40","","35","","15","","","","","","","","","","","","","","","","-1","662","","","","","","","","","","","","","","","","","","","","","","",""
"","fixation","","html-keyboard-response","232","944853","0.0-174.0","0","0","WUJ86","People","","null","","","","null","","","","","","","","","","","","","","","","","","","","","","","","","","","","","","","","","","","","","","","","","","","",""
"","see_reward","","html-keyboard-response","233","945539","0.0-175.0","0","0","WUJ86","People","","683","","","","32","","19","","16","","","","1","","","","","1","","","","","150","683","","","","","","","","","","","","","","","","","","","","","","","","",""
"","reward_outcome","","html-keyboard-response","234","947550","0.0-176.0","0","0","WUJ86","People","","677","","","","38","","19","","16","","","","","","","","","","","","","","","","1","677","","","","","","","","","","","","","","","","","","","","","","",""
"","fixation","","html-keyboard-response","235","948558","0.0-179.0","0","0","WUJ86","People","","null","","","","null","","","","","","","","","","","","","","","","","","","","","","","","","","","","","","","","","","","","","","","","","","","",""
"","see_reward","","html-keyboard-response","236","949659","0.0-180.0","0","0","WUJ86","People","","1099","","","","32","","22","","17","","","","-1","","","","","1","","","","","0","1099","","","","","","","","","","","","","","","","","","","","","","","","",""
"","reward_outcome","","html-keyboard-response","237","951670","0.0-181.0","0","0","WUJ86","People","","669","","","","40","","22","","17","","","","","","","","","","","","","","","","-1","669","","","","","","","","","","","","","","","","","","","","","","",""
"","fixation","","html-keyboard-response","238","952678","0.0-184.0","0","0","WUJ86","People","","null","","","","null","","","","","","","","","","","","","","","","","","","","","","","","","","","","","","","","","","","","","","","","","","","",""
"","see_reward","","html-keyboard-response","239","953162","0.0-185.0","0","0","WUJ86","People","","481","","","","32","","18","","18","","","","1","","","","","1","","","","","153","481","","","","","","","","","","","","","","","","","","","","","","","","",""
"","reward_outcome","","html-keyboard-response","240","955166","0.0-186.0","0","0","WUJ86","People","","789","","","","38","","18","","18","","","","","","","","","","","","","","","","1","789","","","","","","","","","","","","","","","","","","","","","","",""
"","fixation","","html-keyboard-response","241","956174","0.0-189.0","0","0","WUJ86","People","","null","","","","null","","","","","","","","","","","","","","","","","","","","","","","","","","","","","","","","","","","","","","","","","","","",""
"","see_reward","","html-keyboard-response","242","956643","0.0-190.0","0","0","WUJ86","People","","466","","","","32","","49","","19","","","","1","","","","","1","","","","","146","466","","","","","","","","","","","","","","","","","","","","","","","","",""
"","reward_outcome","","html-keyboard-response","243","958654","0.0-191.0","0","0","WUJ86","People","","757","","","","38","","49","","19","","","","","","","","","","","","","","","","1","757","","","","","","","","","","","","","","","","","","","","","","",""
"","fixation","","html-keyboard-response","244","959662","0.0-194.0","0","0","WUJ86","People","","null","","","","null","","","","","","","","","","","","","","","","","","","","","","","","","","","","","","","","","","","","","","","","","","","",""
"","see_reward","","html-keyboard-response","245","960274","0.0-195.0","0","0","WUJ86","People","","610","","","","32","","28","","20","","","","1","","","","","1","","","","","149","610","","","","","","","","","","","","","","","","","","","","","","","","",""
"","reward_outcome","","html-keyboard-response","246","962278","0.0-196.0","0","0","WUJ86","People","","694","","","","38","","28","","20","","","","","","","","","","","","","","","","1","694","","","","","","","","","","","","","","","","","","","","","","",""
"","fixation","","html-keyboard-response","247","963285","0.0-199.0","0","0","WUJ86","People","","null","","","","null","","","","","","","","","","","","","","","","","","","","","","","","","","","","","","","","","","","","","","","","","","","",""
"","see_reward","","html-keyboard-response","248","963803","0.0-200.0","0","0","WUJ86","People","","514","","","","32","","22","","21","","","","-1","","","","","1","","","","","0","514","","","","","","","","","","","","","","","","","","","","","","","","",""
"","reward_outcome","","html-keyboard-response","249","965814","0.0-201.0","0","0","WUJ86","People","","613","","","","40","","22","","21","","","","","","","","","","","","","","","","-1","613","","","","","","","","","","","","","","","","","","","","","","",""
"","fixation","","html-keyboard-response","250","966822","0.0-204.0","0","0","WUJ86","People","","null","","","","null","","","","","","","","","","","","","","","","","","","","","","","","","","","","","","","","","","","","","","","","","","","",""
"","see_reward","","html-keyboard-response","251","967435","0.0-205.0","0","0","WUJ86","People","","610","","","","32","","48","","22","","","","-1","","","","","1","","","","","0","610","","","","","","","","","","","","","","","","","","","","","","","","",""
"","reward_outcome","","html-keyboard-response","252","969446","0.0-206.0","0","0","WUJ86","People","","645","","","","40","","48","","22","","","","","","","","","","","","","","","","-1","645","","","","","","","","","","","","","","","","","","","","","","",""
"","fixation","","html-keyboard-response","253","970453","0.0-209.0","0","0","WUJ86","People","","null","","","","null","","","","","","","","","","","","","","","","","","","","","","","","","","","","","","","","","","","","","","","","","","","",""
"","see_reward","","html-keyboard-response","254","970850","0.0-210.0","0","0","WUJ86","People","","394","","","","32","","36","","23","","","","-1","","","","","1","","","","","0","394","","","","","","","","","","","","","","","","","","","","","","","","",""
"","reward_outcome","","html-keyboard-response","255","972862","0.0-211.0","0","0","WUJ86","People","","717","","","","40","","36","","23","","","","","","","","","","","","","","","","-1","717","","","","","","","","","","","","","","","","","","","","","","",""
"","block_over","","html-keyboard-response","256","976003","0.0-213.0-0.0","0","0","WUJ86","People","","3138","","","","78","","","","","","","","","","","","","","","","","","","","","","","","","","","","","","","","","","","","","","","","","","","",""
"","fixation","","html-keyboard-response","257","977014","0.0-214.0","0","0","WUJ86","People","","null","","","","null","","","","","","","","","","","","","","","","","","","","","","","","","","","","","","","","","","","","","","","","","","","",""
"","see_reward","","html-keyboard-response","258","979643","0.0-215.0","0","0","WUJ86","People","","2626","","","","32","","10","","24","","","","1","","","","","2","","","","","155","2626","","","","","","","","","","","","","","","","","","","","","","","","",""
"","reward_outcome","","html-keyboard-response","259","981654","0.0-216.0","0","0","WUJ86","People","","645","","","","38","","10","","24","","","","","","","","","","","","","","","","1","645","","","","","","","","","","","","","","","","","","","","","","",""
"","fixation","","html-keyboard-response","260","982662","0.0-219.0","0","0","WUJ86","People","","null","","","","null","","","","","","","","","","","","","","","","","","","","","","","","","","","","","","","","","","","","","","","","","","","",""
"","see_reward","","html-keyboard-response","261","983235","0.0-220.0","0","0","WUJ86","People","","570","","","","32","","48","","25","","","","-1","","","","","2","","","","","0","570","","","","","","","","","","","","","","","","","","","","","","","","",""
"","reward_outcome","","html-keyboard-response","262","985245","0.0-221.0","0","0","WUJ86","People","","621","","","","40","","48","","25","","","","","","","","","","","","","","","","-1","621","","","","","","","","","","","","","","","","","","","","","","",""
"","fixation","","html-keyboard-response","263","986253","0.0-224.0","0","0","WUJ86","People","","null","","","","null","","","","","","","","","","","","","","","","","","","","","","","","","","","","","","","","","","","","","","","","","","","",""
"","see_reward","","html-keyboard-response","264","986562","0.0-225.0","0","0","WUJ86","People","","307","","","","32","","19","","26","","","","1","","","","","2","","","","","150","307","","","","","","","","","","","","","","","","","","","","","","","","",""
"","reward_outcome","","html-keyboard-response","265","988573","0.0-226.0","0","0","WUJ86","People","","749","","","","38","","19","","26","","","","","","","","","","","","","","","","1","749","","","","","","","","","","","","","","","","","","","","","","",""
"","fixation","","html-keyboard-response","266","989581","0.0-229.0","0","0","WUJ86","People","","null","","","","null","","","","","","","","","","","","","","","","","","","","","","","","","","","","","","","","","","","","","","","","","","","",""
"","see_reward","","html-keyboard-response","267","990187","0.0-230.0","0","0","WUJ86","People","","602","","","","32","","31","","27","","","","1","","","","","2","","","","","152","602","","","","","","","","","","","","","","","","","","","","","","","","",""
"","reward_outcome","","html-keyboard-response","268","992198","0.0-231.0","0","0","WUJ86","People","","652","","","","38","","31","","27","","","","","","","","","","","","","","","","1","652","","","","","","","","","","","","","","","","","","","","","","",""
"","fixation","","html-keyboard-response","269","993206","0.0-234.0","0","0","WUJ86","People","","null","","","","null","","","","","","","","","","","","","","","","","","","","","","","","","","","","","","","","","","","","","","","","","","","",""
"","see_reward","","html-keyboard-response","270","993810","0.0-235.0","0","0","WUJ86","People","","602","","","","32","","49","","28","","","","1","","","","","2","","","","","146","602","","","","","","","","","","","","","","","","","","","","","","","","",""
"","reward_outcome","","html-keyboard-response","271","995814","0.0-236.0","0","0","WUJ86","People","","702","","","","38","","49","","28","","","","","","","","","","","","","","","","1","702","","","","","","","","","","","","","","","","","","","","","","",""
"","fixation","","html-keyboard-response","272","996822","0.0-239.0","0","0","WUJ86","People","","null","","","","null","","","","","","","","","","","","","","","","","","","","","","","","","","","","","","","","","","","","","","","","","","","",""
"","see_reward","","html-keyboard-response","273","997363","0.0-240.0","0","0","WUJ86","People","","538","","","","32","","30","","29","","","","-1","","","","","2","","","","","0","538","","","","","","","","","","","","","","","","","","","","","","","","",""
"","reward_outcome","","html-keyboard-response","274","999374","0.0-241.0","0","0","WUJ86","People","","941","","","","40","","30","","29","","","","","","","","","","","","","","","","-1","941","","","","","","","","","","","","","","","","","","","","","","",""
"","fixation","","html-keyboard-response","275","1000381","0.0-244.0","0","0","WUJ86","People","","null","","","","null","","","","","","","","","","","","","","","","","","","","","","","","","","","","","","","","","","","","","","","","","","","",""
"","see_reward","","html-keyboard-response","276","1000859","0.0-245.0","0","0","WUJ86","People","","475","","","","32","","22","","30","","","","-1","","","","","2","","","","","0","475","","","","","","","","","","","","","","","","","","","","","","","","",""
"","reward_outcome","","html-keyboard-response","277","1002870","0.0-246.0","0","0","WUJ86","People","","765","","","","40","","22","","30","","","","","","","","","","","","","","","","-1","765","","","","","","","","","","","","","","","","","","","","","","",""
"","fixation","","html-keyboard-response","278","1003878","0.0-249.0","0","0","WUJ86","People","","null","","","","null","","","","","","","","","","","","","","","","","","","","","","","","","","","","","","","","","","","","","","","","","","","",""
"","see_reward","","html-keyboard-response","279","1004355","0.0-250.0","0","0","WUJ86","People","","474","","","","32","","28","","31","","","","1","","","","","2","","","","","149","474","","","","","","","","","","","","","","","","","","","","","","","","",""
"","reward_outcome","","html-keyboard-response","280","1006366","0.0-251.0","0","0","WUJ86","People","","597","","","","38","","28","","31","","","","","","","","","","","","","","","","1","597","","","","","","","","","","","","","","","","","","","","","","",""
"","fixation","","html-keyboard-response","281","1007374","0.0-254.0","0","0","WUJ86","People","","null","","","","null","","","","","","","","","","","","","","","","","","","","","","","","","","","","","","","","","","","","","","","","","","","",""
"","see_reward","","html-keyboard-response","282","1007971","0.0-255.0","0","0","WUJ86","People","","594","","","","32","","32","","32","","","","-1","","","","","2","","","","","0","594","","","","","","","","","","","","","","","","","","","","","","","","",""
"","reward_outcome","","html-keyboard-response","283","1009982","0.0-256.0","0","0","WUJ86","People","","717","","","","40","","32","","32","","","","","","","","","","","","","","","","-1","717","","","","","","","","","","","","","","","","","","","","","","",""
"","fixation","","html-keyboard-response","284","1010990","0.0-259.0","0","0","WUJ86","People","","null","","","","null","","","","","","","","","","","","","","","","","","","","","","","","","","","","","","","","","","","","","","","","","","","",""
"","see_reward","","html-keyboard-response","285","1011539","0.0-260.0","0","0","WUJ86","People","","546","","","","32","","35","","33","","","","-1","","","","","2","","","","","0","546","","","","","","","","","","","","","","","","","","","","","","","","",""
"","reward_outcome","","html-keyboard-response","286","1013549","0.0-261.0","0","0","WUJ86","People","","612","","","","40","","35","","33","","","","","","","","","","","","","","","","-1","612","","","","","","","","","","","","","","","","","","","","","","",""
"","fixation","","html-keyboard-response","287","1014558","0.0-264.0","0","0","WUJ86","People","","null","","","","null","","","","","","","","","","","","","","","","","","","","","","","","","","","","","","","","","","","","","","","","","","","",""
"","see_reward","","html-keyboard-response","288","1015010","0.0-265.0","0","0","WUJ86","People","","450","","","","32","","19","","34","","","","1","","","","","2","","","","","150","450","","","","","","","","","","","","","","","","","","","","","","","","",""
"","reward_outcome","","html-keyboard-response","289","1017022","0.0-266.0","0","0","WUJ86","People","","636","","","","38","","19","","34","","","","","","","","","","","","","","","","1","636","","","","","","","","","","","","","","","","","","","","","","",""
"","fixation","","html-keyboard-response","290","1018030","0.0-269.0","0","0","WUJ86","People","","null","","","","null","","","","","","","","","","","","","","","","","","","","","","","","","","","","","","","","","","","","","","","","","","","",""
"","see_reward","","html-keyboard-response","291","1018875","0.0-270.0","0","0","WUJ86","People","","842","","","","32","","18","","35","","","","1","","","","","2","","","","","153","842","","","","","","","","","","","","","","","","","","","","","","","","",""
"","reward_outcome","","html-keyboard-response","292","1020886","0.0-271.0","0","0","WUJ86","People","","637","","","","38","","18","","35","","","","","","","","","","","","","","","","1","637","","","","","","","","","","","","","","","","","","","","","","",""
"","fixation","","html-keyboard-response","293","1021894","0.0-274.0","0","0","WUJ86","People","","null","","","","null","","","","","","","","","","","","","","","","","","","","","","","","","","","","","","","","","","","","","","","","","","","",""
"","see_reward","","html-keyboard-response","294","1022443","0.0-275.0","0","0","WUJ86","People","","546","","","","32","","36","","36","","","","-1","","","","","2","","","","","0","546","","","","","","","","","","","","","","","","","","","","","","","","",""
"","reward_outcome","","html-keyboard-response","295","1024454","0.0-276.0","0","0","WUJ86","People","","605","","","","40","","36","","36","","","","","","","","","","","","","","","","-1","605","","","","","","","","","","","","","","","","","","","","","","",""
"","fixation","","html-keyboard-response","296","1025461","0.0-279.0","0","0","WUJ86","People","","null","","","","null","","","","","","","","","","","","","","","","","","","","","","","","","","","","","","","","","","","","","","","","","","","",""
"","see_reward","","html-keyboard-response","297","1026075","0.0-280.0","0","0","WUJ86","People","","611","","","","32","","49","","37","","","","1","","","","","2","","","","","146","611","","","","","","","","","","","","","","","","","","","","","","","","",""
"","reward_outcome","","html-keyboard-response","298","1028086","0.0-281.0","0","0","WUJ86","People","","653","","","","38","","49","","37","","","","","","","","","","","","","","","","1","653","","","","","","","","","","","","","","","","","","","","","","",""
"","fixation","","html-keyboard-response","299","1029094","0.0-284.0","0","0","WUJ86","People","","null","","","","null","","","","","","","","","","","","","","","","","","","","","","","","","","","","","","","","","","","","","","","","","","","",""
"","see_reward","","html-keyboard-response","300","1029666","0.0-285.0","0","0","WUJ86","People","","569","","","","32","","35","","38","","","","-1","","","","","2","","","","","0","569","","","","","","","","","","","","","","","","","","","","","","","","",""
"","reward_outcome","","html-keyboard-response","301","1031670","0.0-286.0","0","0","WUJ86","People","","718","","","","40","","35","","38","","","","","","","","","","","","","","","","-1","718","","","","","","","","","","","","","","","","","","","","","","",""
"","fixation","","html-keyboard-response","302","1032678","0.0-289.0","0","0","WUJ86","People","","null","","","","null","","","","","","","","","","","","","","","","","","","","","","","","","","","","","","","","","","","","","","","","","","","",""
"","see_reward","","html-keyboard-response","303","1033315","0.0-290.0","0","0","WUJ86","People","","634","","","","32","","48","","39","","","","-1","","","","","2","","","","","0","634","","","","","","","","","","","","","","","","","","","","","","","","",""
"","reward_outcome","","html-keyboard-response","304","1035326","0.0-291.0","0","0","WUJ86","People","","637","","","","40","","48","","39","","","","","","","","","","","","","","","","-1","637","","","","","","","","","","","","","","","","","","","","","","",""
"","fixation","","html-keyboard-response","305","1036333","0.0-294.0","0","0","WUJ86","People","","null","","","","null","","","","","","","","","","","","","","","","","","","","","","","","","","","","","","","","","","","","","","","","","","","",""
"","see_reward","","html-keyboard-response","306","1037115","0.0-295.0","0","0","WUJ86","People","","777","","","","32","","32","","40","","","","-1","","","","","2","","","","","0","777","","","","","","","","","","","","","","","","","","","","","","","","",""
"","reward_outcome","","html-keyboard-response","307","1039126","0.0-296.0","0","0","WUJ86","People","","747","","","","40","","32","","40","","","","","","","","","","","","","","","","-1","747","","","","","","","","","","","","","","","","","","","","","","",""
"","fixation","","html-keyboard-response","308","1040134","0.0-299.0","0","0","WUJ86","People","","null","","","","null","","","","","","","","","","","","","","","","","","","","","","","","","","","","","","","","","","","","","","","","","","","",""
"","see_reward","","html-keyboard-response","309","1040644","0.0-300.0","0","0","WUJ86","People","","506","","","","32","","10","","41","","","","1","","","","","2","","","","","155","506","","","","","","","","","","","","","","","","","","","","","","","","",""
"","reward_outcome","","html-keyboard-response","310","1042654","0.0-301.0","0","0","WUJ86","People","","628","","","","38","","10","","41","","","","","","","","","","","","","","","","1","628","","","","","","","","","","","","","","","","","","","","","","",""
"","fixation","","html-keyboard-response","311","1043661","0.0-304.0","0","0","WUJ86","People","","null","","","","null","","","","","","","","","","","","","","","","","","","","","","","","","","","","","","","","","","","","","","","","","","","",""
"","see_reward","","html-keyboard-response","312","1044411","0.0-305.0","0","0","WUJ86","People","","746","","","","32","","28","","42","","","","1","","","","","2","","","","","149","746","","","","","","","","","","","","","","","","","","","","","","","","",""
"","reward_outcome","","html-keyboard-response","313","1046422","0.0-306.0","0","0","WUJ86","People","","636","","","","40","","28","","42","","","","","","","","","","","","","","","","-1","636","","","","","","","","","","","","","","","","","","","","","","",""
"","fixation","","html-keyboard-response","314","1047429","0.0-309.0","0","0","WUJ86","People","","null","","","","null","","","","","","","","","","","","","","","","","","","","","","","","","","","","","","","","","","","","","","","","","","","",""
"","see_reward","","html-keyboard-response","315","1047931","0.0-310.0","0","0","WUJ86","People","","499","","","","32","","22","","43","","","","-1","","","","","2","","","","","0","499","","","","","","","","","","","","","","","","","","","","","","","","",""
"","reward_outcome","","html-keyboard-response","316","1049942","0.0-311.0","0","0","WUJ86","People","","749","","","","40","","22","","43","","","","","","","","","","","","","","","","-1","749","","","","","","","","","","","","","","","","","","","","","","",""
"","fixation","","html-keyboard-response","317","1050950","0.0-314.0","0","0","WUJ86","People","","null","","","","null","","","","","","","","","","","","","","","","","","","","","","","","","","","","","","","","","","","","","","","","","","","",""
"","see_reward","","html-keyboard-response","318","1051490","0.0-315.0","0","0","WUJ86","People","","537","","","","32","","30","","44","","","","-1","","","","","2","","","","","0","537","","","","","","","","","","","","","","","","","","","","","","","","",""
"","reward_outcome","","html-keyboard-response","319","1053502","0.0-316.0","0","0","WUJ86","People","","691","","","","40","","30","","44","","","","","","","","","","","","","","","","-1","691","","","","","","","","","","","","","","","","","","","","","","",""
"","fixation","","html-keyboard-response","320","1054510","0.0-319.0","0","0","WUJ86","People","","null","","","","null","","","","","","","","","","","","","","","","","","","","","","","","","","","","","","","","","","","","","","","","","","","",""
"","see_reward","","html-keyboard-response","321","1055139","0.0-320.0","0","0","WUJ86","People","","626","","","","32","","36","","45","","","","-1","","","","","2","","","","","0","626","","","","","","","","","","","","","","","","","","","","","","","","",""
"","reward_outcome","","html-keyboard-response","322","1057150","0.0-321.0","0","0","WUJ86","People","","717","","","","40","","36","","45","","","","","","","","","","","","","","","","-1","717","","","","","","","","","","","","","","","","","","","","","","",""
"","fixation","","html-keyboard-response","323","1058158","0.0-324.0","0","0","WUJ86","People","","null","","","","null","","","","","","","","","","","","","","","","","","","","","","","","","","","","","","","","","","","","","","","","","","","",""
"","see_reward","","html-keyboard-response","324","1058635","0.0-325.0","0","0","WUJ86","People","","474","","","","32","","18","","46","","","","1","","","","","2","","","","","153","474","","","","","","","","","","","","","","","","","","","","","","","","",""
"","reward_outcome","","html-keyboard-response","325","1060646","0.0-326.0","0","0","WUJ86","People","","653","","","","38","","18","","46","","","","","","","","","","","","","","","","1","653","","","","","","","","","","","","","","","","","","","","","","",""
"","fixation","","html-keyboard-response","326","1061653","0.0-329.0","0","0","WUJ86","People","","null","","","","null","","","","","","","","","","","","","","","","","","","","","","","","","","","","","","","","","","","","","","","","","","","",""
"","see_reward","","html-keyboard-response","327","1062290","0.0-330.0","0","0","WUJ86","People","","634","","","","32","","31","","47","","","","1","","","","","2","","","","","152","634","","","","","","","","","","","","","","","","","","","","","","","","",""
"","reward_outcome","","html-keyboard-response","328","1064302","0.0-331.0","0","0","WUJ86","People","","749","","","","38","","31","","47","","","","","","","","","","","","","","","","1","749","","","","","","","","","","","","","","","","","","","","","","",""
"","block_over","","html-keyboard-response","329","1067075","0.0-333.0-0.0","0","0","WUJ86","People","","2771","","","","78","","","","","","","","","","","","","","","","","","","","","","","","","","","","","","","","","","","","","","","","","","","",""
"","fixation","","html-keyboard-response","330","1068086","0.0-334.0","0","0","WUJ86","People","","null","","","","null","","","","","","","","","","","","","","","","","","","","","","","","","","","","","","","","","","","","","","","","","","","",""
"","see_reward","","html-keyboard-response","331","1068923","0.0-335.0","0","0","WUJ86","People","","834","","","","32","","10","","48","","","","1","","","","","3","","","","","155","834","","","","","","","","","","","","","","","","","","","","","","","","",""
"","reward_outcome","","html-keyboard-response","332","1070934","0.0-336.0","0","0","WUJ86","People","","709","","","","38","","10","","48","","","","","","","","","","","","","","","","1","709","","","","","","","","","","","","","","","","","","","","","","",""
"","fixation","","html-keyboard-response","333","1071941","0.0-339.0","0","0","WUJ86","People","","null","","","","null","","","","","","","","","","","","","","","","","","","","","","","","","","","","","","","","","","","","","","","","","","","",""
"","see_reward","","html-keyboard-response","334","1072370","0.0-340.0","0","0","WUJ86","People","","426","","","","32","","30","","49","","","","-1","","","","","3","","","","","0","426","","","","","","","","","","","","","","","","","","","","","","","","",""
"","reward_outcome","","html-keyboard-response","335","1074382","0.0-341.0","0","0","WUJ86","People","","589","","","","40","","30","","49","","","","","","","","","","","","","","","","-1","589","","","","","","","","","","","","","","","","","","","","","","",""
"","fixation","","html-keyboard-response","336","1075390","0.0-344.0","0","0","WUJ86","People","","null","","","","null","","","","","","","","","","","","","","","","","","","","","","","","","","","","","","","","","","","","","","","","","","","",""
"","see_reward","","html-keyboard-response","337","1076082","0.0-345.0","0","0","WUJ86","People","","690","","","","32","","28","","50","","","","1","","","","","3","","","","","149","690","","","","","","","","","","","","","","","","","","","","","","","","",""
"","reward_outcome","","html-keyboard-response","338","1078094","0.0-346.0","0","0","WUJ86","People","","477","","","","38","","28","","50","","","","","","","","","","","","","","","","1","477","","","","","","","","","","","","","","","","","","","","","","",""
"","fixation","","html-keyboard-response","339","1079102","0.0-349.0","0","0","WUJ86","People","","null","","","","null","","","","","","","","","","","","","","","","","","","","","","","","","","","","","","","","","","","","","","","","","","","",""
"","see_reward","","html-keyboard-response","340","1079507","0.0-350.0","0","0","WUJ86","People","","402","","","","32","","36","","51","","","","-1","","","","","3","","","","","0","402","","","","","","","","","","","","","","","","","","","","","","","","",""
"","reward_outcome","","html-keyboard-response","341","1081518","0.0-351.0","0","0","WUJ86","People","","477","","","","40","","36","","51","","","","","","","","","","","","","","","","-1","477","","","","","","","","","","","","","","","","","","","","","","",""
"","fixation","","html-keyboard-response","342","1082526","0.0-354.0","0","0","WUJ86","People","","null","","","","null","","","","","","","","","","","","","","","","","","","","","","","","","","","","","","","","","","","","","","","","","","","",""
"","see_reward","","html-keyboard-response","343","1083442","0.0-355.0","0","0","WUJ86","People","","914","","","","32","","32","","52","","","","-1","","","","","3","","","","","0","914","","","","","","","","","","","","","","","","","","","","","","","","",""
"","reward_outcome","","html-keyboard-response","344","1085454","0.0-356.0","0","0","WUJ86","People","","628","","","","40","","32","","52","","","","","","","","","","","","","","","","-1","628","","","","","","","","","","","","","","","","","","","","","","",""
"","fixation","","html-keyboard-response","345","1086462","0.0-359.0","0","0","WUJ86","People","","null","","","","null","","","","","","","","","","","","","","","","","","","","","","","","","","","","","","","","","","","","","","","","","","","",""
"","see_reward","","html-keyboard-response","346","1087027","0.0-360.0","0","0","WUJ86","People","","562","","","","32","","35","","53","","","","-1","","","","","3","","","","","0","562","","","","","","","","","","","","","","","","","","","","","","","","",""
"","reward_outcome","","html-keyboard-response","347","1089038","0.0-361.0","0","0","WUJ86","People","","869","","","","40","","35","","53","","","","","","","","","","","","","","","","-1","869","","","","","","","","","","","","","","","","","","","","","","",""
"","fixation","","html-keyboard-response","348","1090046","0.0-364.0","0","0","WUJ86","People","","null","","","","null","","","","","","","","","","","","","","","","","","","","","","","","","","","","","","","","","","","","","","","","","","","",""
"","see_reward","","html-keyboard-response","349","1091491","0.0-365.0","0","0","WUJ86","People","","1442","","","","32","","31","","54","","","","1","","","","","3","","","","","152","1442","","","","","","","","","","","","","","","","","","","","","","","","",""
"","reward_outcome","","html-keyboard-response","350","1093502","0.0-366.0","0","0","WUJ86","People","","580","","","","38","","31","","54","","","","","","","","","","","","","","","","1","580","","","","","","","","","","","","","","","","","","","","","","",""
