"success","ttype","start_time","trial_type","trial_index","time_elapsed","internal_node_id","warning","missed_checkup","PID","stim_type","view_history","rt","responses","repeat_instructions","key_press","response","stimulus_id","painting","index","stimulus_left","stimulus_right","explain_trial","reward_type","rating_left","rating_right","painting_left","painting_right","block","left_chosen","chosen_obj","unchosen_obj","explain_response","reward_amount","see_reward_rt","register_reward_response","register_reward_rt","deliberation_reward_tally","stimulus_left_deliberation_ind","stimulus_right_deliberation_ind","chosen_trial","gain_left","higher_outcome_chosen","old_pair","chosen_object","rt_pairs","left_object_chosen","rt_object","old_response","new_rating","deliberated_stim","initial_rating","outcome_eval_rt","outcome_eval_response","outcome_eval_gain","outcome_eval_acc","preamble","outcome_eval_confidence","outcome_eval_confidence_rt","total_reward_tally"
"true","full_screen","d01202023hr0430","fullscreen","0","34195","0.0-0.0","0","0","Gaf7I","Scenes","","","","","","","","","","","","","","","","","","","","","","","","","","","","","","","","","","","","","","","","","","","","","","","","",""
"","rating_instructions","","instructions","1","54399","0.0-1.0-0.0","0","0","Gaf7I","Scenes","[{""page_index"":0,""viewing_time"":17354},{""page_index"":1,""viewing_time"":2845}]","20199","","","","","","","","","","","","","","","","","","","","","","","","","","","","","","","","","","","","","","","","","","","","","","",""
"","rating_comprehension_check","","survey-multi-choice","2","60369","0.0-1.0-1.0","0","0","Gaf7I","Scenes","","5968","{""Q0"":""True"",""Q1"":""Mouse""}","0","","","","","","","","","","","","","","","","","","","","","","","","","","","","","","","","","","","","","","","","","","","","",""
"","start_phase","","html-keyboard-response","3","62967","0.0-2.0","0","0","Gaf7I","Scenes","","2596","","","78","","","","","","","","","","","","","","","","","","","","","","","","","","","","","","","","","","","","","","","","","","","",""
"","rating","","html-slider-response","4","67260","0.0-3.0","0","0","Gaf7I","Scenes","","4290","","","","77","109","brigitta-schneiter-hXXRLtTxXCU-unsplash.jpg","0","","","","","","","","","","","","","","","","","","","","","","","","","","","","","","","","","","","","","","","",""
"","rating","","html-slider-response","5","70667","0.0-4.0","0","0","Gaf7I","Scenes","","3403","","","","95","125","john-lee-oMneOBYhJxY-unsplash.jpg","1","","","","","","","","","","","","","","","","","","","","","","","","","","","","","","","","","","","","","","","",""
"","rating","","html-slider-response","6","75016","0.0-5.0","0","0","Gaf7I","Scenes","","4347","","","","56","143","sigurdur-fjalar-jonsson-1KxBabIntpE-unsplash.jpg","2","","","","","","","","","","","","","","","","","","","","","","","","","","","","","","","","","","","","","","","",""
"","rating","","html-slider-response","7","79438","0.0-6.0","0","0","Gaf7I","Scenes","","4420","","","","8","107","benjamin-davies-Zm2n2O7Fph4-unsplash.jpg","3","","","","","","","","","","","","","","","","","","","","","","","","","","","","","","","","","","","","","","","",""
"","rating","","html-slider-response","8","84338","0.0-7.0","0","0","Gaf7I","Scenes","","4897","","","","85","148","tom-gainor-ZqLeQDjY6fY-unsplash.jpg","4","","","","","","","","","","","","","","","","","","","","","","","","","","","","","","","","","","","","","","","",""
"","rating","","html-slider-response","9","88979","0.0-8.0","0","0","Gaf7I","Scenes","","4637","","","","98","134","milada-vigerova-pQMM63GE7fo-unsplash.jpg","5","","","","","","","","","","","","","","","","","","","","","","","","","","","","","","","","","","","","","","","",""
"","rating","","html-slider-response","10","92662","0.0-9.0","0","0","Gaf7I","Scenes","","3681","","","","100","136","nicolas-jehly-LzVB84KkZOE-unsplash.jpg","6","","","","","","","","","","","","","","","","","","","","","","","","","","","","","","","","","","","","","","","",""
"","rating","","html-slider-response","11","97254","0.0-10.0","0","0","Gaf7I","Scenes","","4591","","","","45","103","anton-darius-FBJugtbHsWU-unsplash.jpg","7","","","","","","","","","","","","","","","","","","","","","","","","","","","","","","","","","","","","","","","",""
"","rating","","html-slider-response","12","101426","0.0-11.0","0","0","Gaf7I","Scenes","","4170","","","","100","106","ashim-d-silva-WeYamle9fDM-unsplash.jpg","8","","","","","","","","","","","","","","","","","","","","","","","","","","","","","","","","","","","","","","","",""
"","rating","","html-slider-response","13","106569","0.0-12.0","0","0","Gaf7I","Scenes","","5141","","","","58","119","james-wheeler-AFC0XvICMgs-unsplash.jpg","9","","","","","","","","","","","","","","","","","","","","","","","","","","","","","","","","","","","","","","","",""
"","rating","","html-slider-response","14","110381","0.0-13.0","0","0","Gaf7I","Scenes","","3809","","","","100","141","sebastian-unrau-v4e3JI7DDHI-unsplash.jpg","10","","","","","","","","","","","","","","","","","","","","","","","","","","","","","","","","","","","","","","","",""
"","rating","","html-slider-response","15","116685","0.0-14.0","0","0","Gaf7I","Scenes","","6303","","","","100","120","jarrett-kow-1ZOyYPOBn7I-unsplash.jpg","11","","","","","","","","","","","","","","","","","","","","","","","","","","","","","","","","","","","","","","","",""
"","rating","","html-slider-response","16","120987","0.0-15.0","0","0","Gaf7I","Scenes","","4300","","","","89","139","samsommer-vddccTqwal8-unsplash.jpg","12","","","","","","","","","","","","","","","","","","","","","","","","","","","","","","","","","","","","","","","",""
"","rating","","html-slider-response","17","125223","0.0-16.0","0","0","Gaf7I","Scenes","","4234","","","","100","113","damian-denis-D8R_txR_0PE-unsplash.jpg","13","","","","","","","","","","","","","","","","","","","","","","","","","","","","","","","","","","","","","","","",""
"","rating","","html-slider-response","18","129547","0.0-17.0","0","0","Gaf7I","Scenes","","4323","","","","62","144","solotravelgoals-7kLufxYoqWk-unsplash.jpg","14","","","","","","","","","","","","","","","","","","","","","","","","","","","","","","","","","","","","","","","",""
"","rating","","html-slider-response","19","136400","0.0-18.0","0","0","Gaf7I","Scenes","","6851","","","","100","140","samuele-errico-piccarini-JEBqFu2AOOA-unsplash.jpg","15","","","","","","","","","","","","","","","","","","","","","","","","","","","","","","","","","","","","","","","",""
"","rating","","html-slider-response","20","141653","0.0-19.0","0","0","Gaf7I","Scenes","","5252","","","","57","108","benjamin-voros-phIFdC6lA4E-unsplash.jpg","16","","","","","","","","","","","","","","","","","","","","","","","","","","","","","","","","","","","","","","","",""
"","rating","","html-slider-response","21","147505","0.0-20.0","0","0","Gaf7I","Scenes","","5849","","","","100","121","jean-pierre-brungs-qxCqkbF7tUc-unsplash.jpg","17","","","","","","","","","","","","","","","","","","","","","","","","","","","","","","","","","","","","","","","",""
"","rating","","html-slider-response","22","155433","0.0-21.0","0","0","Gaf7I","Scenes","","7926","","","","56","132","meng-ji-8BH_M-53CyA-unsplash.jpg","18","","","","","","","","","","","","","","","","","","","","","","","","","","","","","","","","","","","","","","","",""
"","rating","","html-slider-response","23","165489","0.0-22.0","0","0","Gaf7I","Scenes","","10053","","","","56","129","kurt-cotoaga-cqbLg3lZEpk-unsplash.jpg","19","","","","","","","","","","","","","","","","","","","","","","","","","","","","","","","","","","","","","","","",""
"","rating","","html-slider-response","24","171474","0.0-23.0","0","0","Gaf7I","Scenes","","5984","","","","100","137","olga-stalska-QaWRyEdlffY-unsplash.jpg","20","","","","","","","","","","","","","","","","","","","","","","","","","","","","","","","","","","","","","","","",""
"","rating","","html-slider-response","25","176245","0.0-24.0","0","0","Gaf7I","Scenes","","4769","","","","39","130","lina-loos-04-C1NZk1hE-unsplash.jpg","21","","","","","","","","","","","","","","","","","","","","","","","","","","","","","","","","","","","","","","","",""
"","rating","","html-slider-response","26","182054","0.0-25.0","0","0","Gaf7I","Scenes","","5808","","","","100","100","aleksandra-boguslawska-MS7KD9Ti7FQ-unsplash.jpg","22","","","","","","","","","","","","","","","","","","","","","","","","","","","","","","","","","","","","","","","",""
"","rating","","html-slider-response","27","186791","0.0-26.0","0","0","Gaf7I","Scenes","","4736","","","","100","142","sergey-pesterev-y-b_FOmJXdg-unsplash.jpg","23","","","","","","","","","","","","","","","","","","","","","","","","","","","","","","","","","","","","","","","",""
"","rating","","html-slider-response","28","191571","0.0-27.0","0","0","Gaf7I","Scenes","","4777","","","","100","114","daniel-sessler-z_9VmsxR8hs-unsplash.jpg","24","","","","","","","","","","","","","","","","","","","","","","","","","","","","","","","","","","","","","","","",""
"","rating","","html-slider-response","29","196381","0.0-28.0","0","0","Gaf7I","Scenes","","4808","","","","62","123","joel-jasmin-forestbird-efuwb5eBDrI-unsplash.jpg","25","","","","","","","","","","","","","","","","","","","","","","","","","","","","","","","","","","","","","","","",""
"","rating","","html-slider-response","30","202982","0.0-29.0","0","0","Gaf7I","Scenes","","6600","","","","41","146","thomas-morse-cuKKa0vWZSY-unsplash.jpg","26","","","","","","","","","","","","","","","","","","","","","","","","","","","","","","","","","","","","","","","",""
"","rating","","html-slider-response","31","206560","0.0-30.0","0","0","Gaf7I","Scenes","","3575","","","","100","133","mickey-o-neil-xL66l--msXU-unsplash.jpg","27","","","","","","","","","","","","","","","","","","","","","","","","","","","","","","","","","","","","","","","",""
"","rating","","html-slider-response","32","210999","0.0-31.0","0","0","Gaf7I","Scenes","","4437","","","","56","118","henry-be-NLF6hTe4PAg-unsplash.jpg","28","","","","","","","","","","","","","","","","","","","","","","","","","","","","","","","","","","","","","","","",""
"","rating","","html-slider-response","33","218657","0.0-32.0","0","0","Gaf7I","Scenes","","7656","","","","44","147","tobias-keller-73F4pKoUkM0-unsplash.jpg","29","","","","","","","","","","","","","","","","","","","","","","","","","","","","","","","","","","","","","","","",""
"","rating","","html-slider-response","34","221620","0.0-33.0","0","0","Gaf7I","Scenes","","2961","","","","30","149","yuriy-bogdanov-W51VK3Obcj0-unsplash.jpg","30","","","","","","","","","","","","","","","","","","","","","","","","","","","","","","","","","","","","","","","",""
"","rating","","html-slider-response","35","226034","0.0-34.0","0","0","Gaf7I","Scenes","","4413","","","","100","145","stephen-leonardi-gyIRjKPXupE-unsplash.jpg","31","","","","","","","","","","","","","","","","","","","","","","","","","","","","","","","","","","","","","","","",""
"","rating","","html-slider-response","36","230957","0.0-35.0","0","0","Gaf7I","Scenes","","4921","","","","46","135","mohammad-alizade-4wzRuAb-KWs-unsplash.jpg","32","","","","","","","","","","","","","","","","","","","","","","","","","","","","","","","","","","","","","","","",""
"","rating","","html-slider-response","37","235524","0.0-36.0","0","0","Gaf7I","Scenes","","4566","","","","100","124","johannes-plenio-sPt5RIjKfpk-unsplash.jpg","33","","","","","","","","","","","","","","","","","","","","","","","","","","","","","","","","","","","","","","","",""
"","rating","","html-slider-response","38","240948","0.0-37.0","0","0","Gaf7I","Scenes","","5422","","","","100","128","karsten-wurth-jS0zC2PJ17A-unsplash.jpg","34","","","","","","","","","","","","","","","","","","","","","","","","","","","","","","","","","","","","","","","",""
"","rating","","html-slider-response","39","248439","0.0-38.0","0","0","Gaf7I","Scenes","","7489","","","","33","117","frank-mckenna-OD9EOzfSOh0-unsplash.jpg","35","","","","","","","","","","","","","","","","","","","","","","","","","","","","","","","","","","","","","","","",""
"","rating","","html-slider-response","40","253948","0.0-39.0","0","0","Gaf7I","Scenes","","5508","","","","24","111","claudio-testa-U3F2o6vz3bs-unsplash.jpg","36","","","","","","","","","","","","","","","","","","","","","","","","","","","","","","","","","","","","","","","",""
"","rating","","html-slider-response","41","261533","0.0-40.0","0","0","Gaf7I","Scenes","","7583","","","","80","101","aniket-deole-T-tOgjWZ0fQ-unsplash.jpg","37","","","","","","","","","","","","","","","","","","","","","","","","","","","","","","","","","","","","","","","",""
"","rating","","html-slider-response","42","266553","0.0-41.0","0","0","Gaf7I","Scenes","","5018","","","","100","112","cosmic-timetraveler-pYyOZ8q7AII-unsplash.jpg","38","","","","","","","","","","","","","","","","","","","","","","","","","","","","","","","","","","","","","","","",""
"","rating","","html-slider-response","43","272775","0.0-42.0","0","0","Gaf7I","Scenes","","6220","","","","89","104","artem-sapegin-XGDBdSQ70O0-unsplash.jpg","39","","","","","","","","","","","","","","","","","","","","","","","","","","","","","","","","","","","","","","","",""
"","rating","","html-slider-response","44","276558","0.0-43.0","0","0","Gaf7I","Scenes","","3780","","","","33","102","anisur-rahman-K2b7UDed6uQ-unsplash.jpg","40","","","","","","","","","","","","","","","","","","","","","","","","","","","","","","","","","","","","","","","",""
"","rating","","html-slider-response","45","280648","0.0-44.0","0","0","Gaf7I","Scenes","","4089","","","","88","116","david-marcu-W5MhJ6cy1So-unsplash.jpg","41","","","","","","","","","","","","","","","","","","","","","","","","","","","","","","","","","","","","","","","",""
"","rating","","html-slider-response","46","284323","0.0-45.0","0","0","Gaf7I","Scenes","","3674","","","","100","127","kace-rodriguez-p3OzJuT_Dks-unsplash.jpg","42","","","","","","","","","","","","","","","","","","","","","","","","","","","","","","","","","","","","","","","",""
"","rating","","html-slider-response","47","286846","0.0-46.0","0","0","Gaf7I","Scenes","","2523","","","","100","105","ashim-d-silva-S2Q5mdOrrVc-unsplash.jpg","43","","","","","","","","","","","","","","","","","","","","","","","","","","","","","","","","","","","","","","","",""
"","rating","","html-slider-response","48","292206","0.0-47.0","0","0","Gaf7I","Scenes","","5358","","","","100","131","luca-bravo-hFzIoD0F_i8-unsplash.jpg","44","","","","","","","","","","","","","","","","","","","","","","","","","","","","","","","","","","","","","","","",""
"","rating","","html-slider-response","49","295886","0.0-48.0","0","0","Gaf7I","Scenes","","3680","","","","56","138","petr-vysohlid-9fqwGqGLUxc-unsplash.jpg","45","","","","","","","","","","","","","","","","","","","","","","","","","","","","","","","","","","","","","","","",""
"","rating","","html-slider-response","50","299082","0.0-49.0","0","0","Gaf7I","Scenes","","3194","","","","87","122","jeff-king-bJHWJeiHfHc-unsplash.jpg","46","","","","","","","","","","","","","","","","","","","","","","","","","","","","","","","","","","","","","","","",""
"","rating","","html-slider-response","51","302542","0.0-50.0","0","0","Gaf7I","Scenes","","3457","","","","65","115","darrell-cassell-hoCXpPUMCoE-unsplash.jpg","47","","","","","","","","","","","","","","","","","","","","","","","","","","","","","","","","","","","","","","","",""
"","rating","","html-slider-response","52","306664","0.0-51.0","0","0","Gaf7I","Scenes","","4120","","","","68","126","jordan-mcqueen-PJCZOWuOxbU-unsplash.jpg","48","","","","","","","","","","","","","","","","","","","","","","","","","","","","","","","","","","","","","","","",""
"","rating","","html-slider-response","53","310258","0.0-52.0","0","0","Gaf7I","Scenes","","3593","","","","42","110","bruno-van-der-kraan-qez8mNJ3ilU-unsplash.jpg","49","","","","","","","","","","","","","","","","","","","","","","","","","","","","","","","","","","","","","","","",""
"","deliberation_instructions","","instructions","54","408555","0.0-53.0-0.0","0","0","Gaf7I","Scenes","[{""page_index"":0,""viewing_time"":43978},{""page_index"":1,""viewing_time"":12857},{""page_index"":2,""viewing_time"":12613},{""page_index"":3,""viewing_time"":26660},{""page_index"":4,""viewing_time"":2184}]","98292","","","","","","","","","","","","","","","","","","","","","","","","","","","","","","","","","","","","","","","","","","","","","","",""
"","deliberation_comprehension_check","","survey-multi-choice","55","430191","0.0-53.0-1.0","0","0","Gaf7I","Scenes","","21634","{""Q0"":""True"",""Q1"":""True"",""Q2"":""Consider carefully and take your time (up to 10 seconds)"",""Q3"":""True"",""Q4"":""D""}","0","","","","","","","","","","","","","","","","","","","","","","","","","","","","","","","","","","","","","","","","","","","","",""
"","start_phase","","html-keyboard-response","56","432534","0.0-54.0","0","0","Gaf7I","Scenes","","2340","","","78","","","","","","","","","","","","","","","","","","","","","","","","","","","","","","","","","","","","","","","","","","","",""
"","first_deliberation_block","","html-keyboard-response","57","438017","0.0-55.0","0","0","Gaf7I","Scenes","","5479","","","78","","","","","","","","","","","","","","","","","","","","","","","","","","","","","","","","","","","","","","","","","","","",""
"","fixation","","html-keyboard-response","58","439020","0.0-56.0-0.0","0","0","Gaf7I","Scenes","","null","","","null","","","","","","","","","","","","","","","","","","","","","","","","","","","","","","","","","","","","","","","","","","","",""
"","deliberation","","html-keyboard-response","59","443039","0.0-56.0-1.0","0","0","Gaf7I","Scenes","","4015","","","68","","","","0","123","138","1","1","62","56","joel-jasmin-forestbird-efuwb5eBDrI-unsplash.jpg","petr-vysohlid-9fqwGqGLUxc-unsplash.jpg","1","1","123","138","","","","","","","","","","","","","","","","","","","","","","","","","","","",""
"","choice_confirmation","","html-keyboard-response","60","443548","0.0-56.0-2.0-0.0","0","0","Gaf7I","Scenes","","null","","","null","","","","0","123","138","","","","","","","","","","","","","","","","","","","","","","","","","","","","","","","","","","","","","",""
"","explain_trial","","survey-text","61","465383","0.0-56.0-5.0-0.0","0","0","Gaf7I","Scenes","","21832","{""Q0"":""I think its aesthetics are stronger and more unique, making it a stronger choice.""}","","","","","","0","123","138","","","","","","","","","","","{""Q0"":""I think its aesthetics are stronger and more unique, making it a stronger choice.""}","","","","","","","","","","","","","","","","","","","","","","","","","","",""
"","fixation","","html-keyboard-response","62","466401","0.0-57.0-0.0","0","0","Gaf7I","Scenes","","null","","","null","","","","","","","","","","","","","","","","","","","","","","","","","","","","","","","","","","","","","","","","","","","",""
"","deliberation","","html-keyboard-response","63","470195","0.0-57.0-1.0","0","0","Gaf7I","Scenes","","3789","","","75","","","","1","134","113","0","-1","98","100","milada-vigerova-pQMM63GE7fo-unsplash.jpg","damian-denis-D8R_txR_0PE-unsplash.jpg","1","0","113","134","","","","","","","","","","","","","","","","","","","","","","","","","","","",""
"","choice_confirmation","","html-keyboard-response","64","470704","0.0-57.0-2.0-0.0","0","0","Gaf7I","Scenes","","null","","","null","","","","1","134","113","","","","","","","","","","","","","","","","","","","","","","","","","","","","","","","","","","","","","",""
"","fixation","","html-keyboard-response","65","471706","0.0-58.0-0.0","0","0","Gaf7I","Scenes","","null","","","null","","","","","","","","","","","","","","","","","","","","","","","","","","","","","","","","","","","","","","","","","","","",""
"","deliberation","","html-keyboard-response","66","474408","0.0-58.0-1.0","0","0","Gaf7I","Scenes","","2699","","","75","","","","2","118","136","1","-1","56","100","henry-be-NLF6hTe4PAg-unsplash.jpg","nicolas-jehly-LzVB84KkZOE-unsplash.jpg","1","0","136","118","","","","","","","","","","","","","","","","","","","","","","","","","","","",""
"","choice_confirmation","","html-keyboard-response","67","474924","0.0-58.0-2.0-0.0","0","0","Gaf7I","Scenes","","null","","","null","","","","2","118","136","","","","","","","","","","","","","","","","","","","","","","","","","","","","","","","","","","","","","",""
"","explain_trial","","survey-text","68","493425","0.0-58.0-5.0-0.0","0","0","Gaf7I","Scenes","","18501","{""Q0"":""I think it has a much more striking appearance and would look better as a piece of decorative art.""}","","","","","","2","118","136","","","","","","","","","","","{""Q0"":""I think it has a much more striking appearance and would look better as a piece of decorative art.""}","","","","","","","","","","","","","","","","","","","","","","","","","","",""
"","fixation","","html-keyboard-response","69","494439","0.0-59.0-0.0","0","0","Gaf7I","Scenes","","null","","","null","","","","","","","","","","","","","","","","","","","","","","","","","","","","","","","","","","","","","","","","","","","",""
"","deliberation","","html-keyboard-response","70","499895","0.0-59.0-1.0","0","0","Gaf7I","Scenes","","5455","","","75","","","","3","101","140","1","1","80","100","aniket-deole-T-tOgjWZ0fQ-unsplash.jpg","samuele-errico-piccarini-JEBqFu2AOOA-unsplash.jpg","1","0","140","101","","","","","","","","","","","","","","","","","","","","","","","","","","","",""
"","choice_confirmation","","html-keyboard-response","71","500399","0.0-59.0-2.0-0.0","0","0","Gaf7I","Scenes","","null","","","null","","","","3","101","140","","","","","","","","","","","","","","","","","","","","","","","","","","","","","","","","","","","","","",""
"","explain_trial","","survey-text","72","516573","0.0-59.0-5.0-0.0","0","0","Gaf7I","Scenes","","16170","{""Q0"":""Its content gives a more homely feel.""}","","","","","","3","101","140","","","","","","","","","","","{""Q0"":""Its content gives a more homely feel.""}","","","","","","","","","","","","","","","","","","","","","","","","","","",""
"","fixation","","html-keyboard-response","73","517582","0.0-60.0-0.0","0","0","Gaf7I","Scenes","","null","","","null","","","","","","","","","","","","","","","","","","","","","","","","","","","","","","","","","","","","","","","","","","","",""
"","deliberation","","html-keyboard-response","74","520606","0.0-60.0-1.0","0","0","Gaf7I","Scenes","","3021","","","68","","","","4","106","109","1","1","100","77","ashim-d-silva-WeYamle9fDM-unsplash.jpg","brigitta-schneiter-hXXRLtTxXCU-unsplash.jpg","1","1","106","109","","","","","","","","","","","","","","","","","","","","","","","","","","","",""
"","choice_confirmation","","html-keyboard-response","75","521122","0.0-60.0-2.0-0.0","0","0","Gaf7I","Scenes","","null","","","null","","","","4","106","109","","","","","","","","","","","","","","","","","","","","","","","","","","","","","","","","","","","","","",""
"","explain_trial","","survey-text","76","540117","0.0-60.0-5.0-0.0","0","0","Gaf7I","Scenes","","18994","{""Q0"":""It's an image so striking it's almost hard to believe it's real. People would love to look at it.""}","","","","","","4","106","109","","","","","","","","","","","{""Q0"":""It's an image so striking it's almost hard to believe it's real. People would love to look at it.""}","","","","","","","","","","","","","","","","","","","","","","","","","","",""
"","fixation","","html-keyboard-response","77","541120","0.0-61.0-0.0","0","0","Gaf7I","Scenes","","null","","","null","","","","","","","","","","","","","","","","","","","","","","","","","","","","","","","","","","","","","","","","","","","",""
"","deliberation","","html-keyboard-response","78","546775","0.0-61.0-1.0","0","0","Gaf7I","Scenes","","5652","","","75","","","","5","148","129","0","-1","85","56","tom-gainor-ZqLeQDjY6fY-unsplash.jpg","kurt-cotoaga-cqbLg3lZEpk-unsplash.jpg","1","0","129","148","","","","","","","","","","","","","","","","","","","","","","","","","","","",""
"","choice_confirmation","","html-keyboard-response","79","547294","0.0-61.0-2.0-0.0","0","0","Gaf7I","Scenes","","null","","","null","","","","5","148","129","","","","","","","","","","","","","","","","","","","","","","","","","","","","","","","","","","","","","",""
"","fixation","","html-keyboard-response","80","548303","0.0-62.0-0.0","0","0","Gaf7I","Scenes","","null","","","null","","","","","","","","","","","","","","","","","","","","","","","","","","","","","","","","","","","","","","","","","","","",""
"","deliberation","","html-keyboard-response","81","552384","0.0-62.0-1.0","0","0","Gaf7I","Scenes","","4078","","","68","","","","6","108","125","1","-1","57","95","benjamin-voros-phIFdC6lA4E-unsplash.jpg","john-lee-oMneOBYhJxY-unsplash.jpg","1","1","108","125","","","","","","","","","","","","","","","","","","","","","","","","","","","",""
"","choice_confirmation","","html-keyboard-response","82","552888","0.0-62.0-2.0-0.0","0","0","Gaf7I","Scenes","","null","","","null","","","","6","108","125","","","","","","","","","","","","","","","","","","","","","","","","","","","","","","","","","","","","","",""
"","explain_trial","","survey-text","83","581686","0.0-62.0-5.0-0.0","0","0","Gaf7I","Scenes","","28795","{""Q0"":""I think the stars and shooting star in this image give it a special niche for people interested in space.""}","","","","","","6","108","125","","","","","","","","","","","{""Q0"":""I think the stars and shooting star in this image give it a special niche for people interested in space.""}","","","","","","","","","","","","","","","","","","","","","","","","","","",""
"","fixation","","html-keyboard-response","84","582694","0.0-63.0-0.0","0","0","Gaf7I","Scenes","","null","","","null","","","","","","","","","","","","","","","","","","","","","","","","","","","","","","","","","","","","","","","","","","","",""
"","deliberation","","html-keyboard-response","85","588997","0.0-63.0-1.0","0","0","Gaf7I","Scenes","","6299","","","75","","","","7","141","139","0","1","100","89","sebastian-unrau-v4e3JI7DDHI-unsplash.jpg","samsommer-vddccTqwal8-unsplash.jpg","1","0","139","141","","","","","","","","","","","","","","","","","","","","","","","","","","","",""
"","choice_confirmation","","html-keyboard-response","86","589512","0.0-63.0-2.0-0.0","0","0","Gaf7I","Scenes","","null","","","null","","","","7","141","139","","","","","","","","","","","","","","","","","","","","","","","","","","","","","","","","","","","","","",""
"","fixation","","html-keyboard-response","87","590523","0.0-64.0-0.0","0","0","Gaf7I","Scenes","","null","","","null","","","","","","","","","","","","","","","","","","","","","","","","","","","","","","","","","","","","","","","","","","","",""
"","deliberation","","html-keyboard-response","88","592684","0.0-64.0-1.0","0","0","Gaf7I","Scenes","","2158","","","68","","","","8","104","119","1","-1","89","58","artem-sapegin-XGDBdSQ70O0-unsplash.jpg","james-wheeler-AFC0XvICMgs-unsplash.jpg","1","1","104","119","","","","","","","","","","","","","","","","","","","","","","","","","","","",""
"","choice_confirmation","","html-keyboard-response","89","593189","0.0-64.0-2.0-0.0","0","0","Gaf7I","Scenes","","null","","","null","","","","8","104","119","","","","","","","","","","","","","","","","","","","","","","","","","","","","","","","","","","","","","",""
"","explain_trial","","survey-text","90","611489","0.0-64.0-5.0-0.0","0","0","Gaf7I","Scenes","","18299","{""Q0"":""It's a thought provoking piece that the right person would spend a lot on.""}","","","","","","8","104","119","","","","","","","","","","","{""Q0"":""It's a thought provoking piece that the right person would spend a lot on.""}","","","","","","","","","","","","","","","","","","","","","","","","","","",""
"","fixation","","html-keyboard-response","91","612495","0.0-65.0-0.0","0","0","Gaf7I","Scenes","","null","","","null","","","","","","","","","","","","","","","","","","","","","","","","","","","","","","","","","","","","","","","","","","","",""
"","deliberation","","html-keyboard-response","92","616580","0.0-65.0-1.0","0","0","Gaf7I","Scenes","","4082","","","68","","","","9","115","126","0","1","65","68","darrell-cassell-hoCXpPUMCoE-unsplash.jpg","jordan-mcqueen-PJCZOWuOxbU-unsplash.jpg","1","1","115","126","","","","","","","","","","","","","","","","","","","","","","","","","","","",""
"","choice_confirmation","","html-keyboard-response","93","617083","0.0-65.0-2.0-0.0","0","0","Gaf7I","Scenes","","null","","","null","","","","9","115","126","","","","","","","","","","","","","","","","","","","","","","","","","","","","","","","","","","","","","",""
"","fixation","","html-keyboard-response","94","618097","0.0-66.0-0.0","0","0","Gaf7I","Scenes","","null","","","null","","","","","","","","","","","","","","","","","","","","","","","","","","","","","","","","","","","","","","","","","","","",""
"","deliberation","","html-keyboard-response","95","621249","0.0-66.0-1.0","0","0","Gaf7I","Scenes","","3151","","","75","","","","10","116","122","0","-1","88","87","david-marcu-W5MhJ6cy1So-unsplash.jpg","jeff-king-bJHWJeiHfHc-unsplash.jpg","1","0","122","116","","","","","","","","","","","","","","","","","","","","","","","","","","","",""
"","choice_confirmation","","html-keyboard-response","96","621763","0.0-66.0-2.0-0.0","0","0","Gaf7I","Scenes","","null","","","null","","","","10","116","122","","","","","","","","","","","","","","","","","","","","","","","","","","","","","","","","","","","","","",""
"","fixation","","html-keyboard-response","97","622775","0.0-67.0-0.0","0","0","Gaf7I","Scenes","","null","","","null","","","","","","","","","","","","","","","","","","","","","","","","","","","","","","","","","","","","","","","","","","","",""
"","deliberation","","html-keyboard-response","98","624713","0.0-67.0-1.0","0","0","Gaf7I","Scenes","","1934","","","75","","","","11","144","120","0","1","62","100","solotravelgoals-7kLufxYoqWk-unsplash.jpg","jarrett-kow-1ZOyYPOBn7I-unsplash.jpg","1","0","120","144","","","","","","","","","","","","","","","","","","","","","","","","","","","",""
"","choice_confirmation","","html-keyboard-response","99","625225","0.0-67.0-2.0-0.0","0","0","Gaf7I","Scenes","","null","","","null","","","","11","144","120","","","","","","","","","","","","","","","","","","","","","","","","","","","","","","","","","","","","","",""
"","practice_deliberation_again","","html-keyboard-response","100","628534","0.0-67.0-6.0-0.0","0","0","Gaf7I","Scenes","","3307","","","78","","","","","","","","","","","","","","","","","","","","","","","","","","","","","","","","","","","","","","","","","","","",""
"","fixation","","html-keyboard-response","101","629547","0.0-68.0-0.0","0","0","Gaf7I","Scenes","","null","","","null","","","","","","","","","","","","","","","","","","","","","","","","","","","","","","","","","","","","","","","","","","","",""
"","deliberation","","html-keyboard-response","102","632735","0.0-68.0-1.0","0","0","Gaf7I","Scenes","","3185","","","68","","","","12","104","119","0","-1","89","58","artem-sapegin-XGDBdSQ70O0-unsplash.jpg","james-wheeler-AFC0XvICMgs-unsplash.jpg","2","1","104","119","","","","","","","","","","","","","","","","","","","","","","","","","","","",""
"","choice_confirmation","","html-keyboard-response","103","633247","0.0-68.0-2.0-0.0","0","0","Gaf7I","Scenes","","null","","","null","","","","12","104","119","","","","","","","","","","","","","","","","","","","","","","","","","","","","","","","","","","","","","",""
"","fixation","","html-keyboard-response","104","634261","0.0-69.0-0.0","0","0","Gaf7I","Scenes","","null","","","null","","","","","","","","","","","","","","","","","","","","","","","","","","","","","","","","","","","","","","","","","","","",""
"","deliberation","","html-keyboard-response","105","636347","0.0-69.0-1.0","0","0","Gaf7I","Scenes","","2084","","","75","","","","13","148","129","1","-1","85","56","tom-gainor-ZqLeQDjY6fY-unsplash.jpg","kurt-cotoaga-cqbLg3lZEpk-unsplash.jpg","2","0","129","148","","","","","","","","","","","","","","","","","","","","","","","","","","","",""
"","choice_confirmation","","html-keyboard-response","106","636853","0.0-69.0-2.0-0.0","0","0","Gaf7I","Scenes","","null","","","null","","","","13","148","129","","","","","","","","","","","","","","","","","","","","","","","","","","","","","","","","","","","","","",""
"","explain_trial","","survey-text","107","654927","0.0-69.0-5.0-0.0","0","0","Gaf7I","Scenes","","18070","{""Q0"":""Its coloration is very unique for the subject matter.""}","","","","","","13","148","129","","","","","","","","","","","{""Q0"":""Its coloration is very unique for the subject matter.""}","","","","","","","","","","","","","","","","","","","","","","","","","","",""
"","fixation","","html-keyboard-response","108","655931","0.0-70.0-0.0","0","0","Gaf7I","Scenes","","null","","","null","","","","","","","","","","","","","","","","","","","","","","","","","","","","","","","","","","","","","","","","","","","",""
"","deliberation","","html-keyboard-response","109","657880","0.0-70.0-1.0","0","0","Gaf7I","Scenes","","1946","","","68","","","","14","115","126","1","1","65","68","darrell-cassell-hoCXpPUMCoE-unsplash.jpg","jordan-mcqueen-PJCZOWuOxbU-unsplash.jpg","2","1","115","126","","","","","","","","","","","","","","","","","","","","","","","","","","","",""
"","choice_confirmation","","html-keyboard-response","110","658390","0.0-70.0-2.0-0.0","0","0","Gaf7I","Scenes","","null","","","null","","","","14","115","126","","","","","","","","","","","","","","","","","","","","","","","","","","","","","","","","","","","","","",""
"","explain_trial","","survey-text","111","681450","0.0-70.0-5.0-0.0","0","0","Gaf7I","Scenes","","23057","{""Q0"":""Its framing is so distant that it would make the viewer feel small, which could be interesting.""}","","","","","","14","115","126","","","","","","","","","","","{""Q0"":""Its framing is so distant that it would make the viewer feel small, which could be interesting.""}","","","","","","","","","","","","","","","","","","","","","","","","","","",""
"","fixation","","html-keyboard-response","112","682457","0.0-71.0-0.0","0","0","Gaf7I","Scenes","","null","","","null","","","","","","","","","","","","","","","","","","","","","","","","","","","","","","","","","","","","","","","","","","","",""
"","deliberation","","html-keyboard-response","113","684494","0.0-71.0-1.0","0","0","Gaf7I","Scenes","","2033","","","75","","","","15","134","113","1","-1","98","100","milada-vigerova-pQMM63GE7fo-unsplash.jpg","damian-denis-D8R_txR_0PE-unsplash.jpg","2","0","113","134","","","","","","","","","","","","","","","","","","","","","","","","","","","",""
"","choice_confirmation","","html-keyboard-response","114","685008","0.0-71.0-2.0-0.0","0","0","Gaf7I","Scenes","","null","","","null","","","","15","134","113","","","","","","","","","","","","","","","","","","","","","","","","","","","","","","","","","","","","","",""
"","explain_trial","","survey-text","115","696734","0.0-71.0-5.0-0.0","0","0","Gaf7I","Scenes","","11724","{""Q0"":""It would appeal to someone who is a loner in their life.""}","","","","","","15","134","113","","","","","","","","","","","{""Q0"":""It would appeal to someone who is a loner in their life.""}","","","","","","","","","","","","","","","","","","","","","","","","","","",""
"","fixation","","html-keyboard-response","116","697750","0.0-72.0-0.0","0","0","Gaf7I","Scenes","","null","","","null","","","","","","","","","","","","","","","","","","","","","","","","","","","","","","","","","","","","","","","","","","","",""
"","deliberation","","html-keyboard-response","117","699759","0.0-72.0-1.0","0","0","Gaf7I","Scenes","","2006","","","68","","","","16","123","138","0","1","62","56","joel-jasmin-forestbird-efuwb5eBDrI-unsplash.jpg","petr-vysohlid-9fqwGqGLUxc-unsplash.jpg","2","1","123","138","","","","","","","","","","","","","","","","","","","","","","","","","","","",""
"","choice_confirmation","","html-keyboard-response","118","700265","0.0-72.0-2.0-0.0","0","0","Gaf7I","Scenes","","null","","","null","","","","16","123","138","","","","","","","","","","","","","","","","","","","","","","","","","","","","","","","","","","","","","",""
"","fixation","","html-keyboard-response","119","701281","0.0-73.0-0.0","0","0","Gaf7I","Scenes","","null","","","null","","","","","","","","","","","","","","","","","","","","","","","","","","","","","","","","","","","","","","","","","","","",""
"","deliberation","","html-keyboard-response","120","702736","0.0-73.0-1.0","0","0","Gaf7I","Scenes","","1450","","","68","","","","17","108","125","0","-1","57","95","benjamin-voros-phIFdC6lA4E-unsplash.jpg","john-lee-oMneOBYhJxY-unsplash.jpg","2","1","108","125","","","","","","","","","","","","","","","","","","","","","","","","","","","",""
"","choice_confirmation","","html-keyboard-response","121","703250","0.0-73.0-2.0-0.0","0","0","Gaf7I","Scenes","","null","","","null","","","","17","108","125","","","","","","","","","","","","","","","","","","","","","","","","","","","","","","","","","","","","","",""
"","fixation","","html-keyboard-response","122","704261","0.0-74.0-0.0","0","0","Gaf7I","Scenes","","null","","","null","","","","","","","","","","","","","","","","","","","","","","","","","","","","","","","","","","","","","","","","","","","",""
"","deliberation","","html-keyboard-response","123","705321","0.0-74.0-1.0","0","0","Gaf7I","Scenes","","1059","","","68","","","","18","106","109","0","1","100","77","ashim-d-silva-WeYamle9fDM-unsplash.jpg","brigitta-schneiter-hXXRLtTxXCU-unsplash.jpg","2","1","106","109","","","","","","","","","","","","","","","","","","","","","","","","","","","",""
"","choice_confirmation","","html-keyboard-response","124","705837","0.0-74.0-2.0-0.0","0","0","Gaf7I","Scenes","","null","","","null","","","","18","106","109","","","","","","","","","","","","","","","","","","","","","","","","","","","","","","","","","","","","","",""
"","fixation","","html-keyboard-response","125","706847","0.0-75.0-0.0","0","0","Gaf7I","Scenes","","null","","","null","","","","","","","","","","","","","","","","","","","","","","","","","","","","","","","","","","","","","","","","","","","",""
"","deliberation","","html-keyboard-response","126","708031","0.0-75.0-1.0","0","0","Gaf7I","Scenes","","1180","","","75","","","","19","118","136","0","-1","56","100","henry-be-NLF6hTe4PAg-unsplash.jpg","nicolas-jehly-LzVB84KkZOE-unsplash.jpg","2","0","136","118","","","","","","","","","","","","","","","","","","","","","","","","","","","",""
"","choice_confirmation","","html-keyboard-response","127","708539","0.0-75.0-2.0-0.0","0","0","Gaf7I","Scenes","","null","","","null","","","","19","118","136","","","","","","","","","","","","","","","","","","","","","","","","","","","","","","","","","","","","","",""
"","fixation","","html-keyboard-response","128","709544","0.0-76.0-0.0","0","0","Gaf7I","Scenes","","null","","","null","","","","","","","","","","","","","","","","","","","","","","","","","","","","","","","","","","","","","","","","","","","",""
"","deliberation","","html-keyboard-response","129","711018","0.0-76.0-1.0","0","0","Gaf7I","Scenes","","1471","","","75","","","","20","101","140","0","1","80","100","aniket-deole-T-tOgjWZ0fQ-unsplash.jpg","samuele-errico-piccarini-JEBqFu2AOOA-unsplash.jpg","2","0","140","101","","","","","","","","","","","","","","","","","","","","","","","","","","","",""
"","choice_confirmation","","html-keyboard-response","130","711525","0.0-76.0-2.0-0.0","0","0","Gaf7I","Scenes","","null","","","null","","","","20","101","140","","","","","","","","","","","","","","","","","","","","","","","","","","","","","","","","","","","","","",""
"","fixation","","html-keyboard-response","131","712542","0.0-77.0-0.0","0","0","Gaf7I","Scenes","","null","","","null","","","","","","","","","","","","","","","","","","","","","","","","","","","","","","","","","","","","","","","","","","","",""
"","deliberation","","html-keyboard-response","132","713587","0.0-77.0-1.0","0","0","Gaf7I","Scenes","","1042","","","75","","","","21","144","120","1","1","62","100","solotravelgoals-7kLufxYoqWk-unsplash.jpg","jarrett-kow-1ZOyYPOBn7I-unsplash.jpg","2","0","120","144","","","","","","","","","","","","","","","","","","","","","","","","","","","",""
"","choice_confirmation","","html-keyboard-response","133","714095","0.0-77.0-2.0-0.0","0","0","Gaf7I","Scenes","","null","","","null","","","","21","144","120","","","","","","","","","","","","","","","","","","","","","","","","","","","","","","","","","","","","","",""
"","explain_trial","","survey-text","134","736556","0.0-77.0-5.0-0.0","0","0","Gaf7I","Scenes","","22460","{""Q0"":""The reflections and 'real' parts of the image blend together to a point that it's hard to stop staring.""}","","","","","","21","144","120","","","","","","","","","","","{""Q0"":""The reflections and 'real' parts of the image blend together to a point that it's hard to stop staring.""}","","","","","","","","","","","","","","","","","","","","","","","","","","",""
"","fixation","","html-keyboard-response","135","737571","0.0-78.0-0.0","0","0","Gaf7I","Scenes","","null","","","null","","","","","","","","","","","","","","","","","","","","","","","","","","","","","","","","","","","","","","","","","","","",""
"","deliberation","","html-keyboard-response","136","741044","0.0-78.0-1.0","0","0","Gaf7I","Scenes","","3470","","","68","","","","22","116","122","1","-1","88","87","david-marcu-W5MhJ6cy1So-unsplash.jpg","jeff-king-bJHWJeiHfHc-unsplash.jpg","2","1","116","122","","","","","","","","","","","","","","","","","","","","","","","","","","","",""
"","choice_confirmation","","html-keyboard-response","137","741559","0.0-78.0-2.0-0.0","0","0","Gaf7I","Scenes","","null","","","null","","","","22","116","122","","","","","","","","","","","","","","","","","","","","","","","","","","","","","","","","","","","","","",""
"","explain_trial","","survey-text","138","766107","0.0-78.0-5.0-0.0","0","0","Gaf7I","Scenes","","24545","{""Q0"":""The other image is a bit cheesy with its obnoxiously bright green, whereas the left image has nice fall colors.""}","","","","","","22","116","122","","","","","","","","","","","{""Q0"":""The other image is a bit cheesy with its obnoxiously bright green, whereas the left image has nice fall colors.""}","","","","","","","","","","","","","","","","","","","","","","","","","","",""
"","fixation","","html-keyboard-response","139","767116","0.0-79.0-0.0","0","0","Gaf7I","Scenes","","null","","","null","","","","","","","","","","","","","","","","","","","","","","","","","","","","","","","","","","","","","","","","","","","",""
"","deliberation","","html-keyboard-response","140","769470","0.0-79.0-1.0","0","0","Gaf7I","Scenes","","2350","","","75","","","","23","141","139","1","1","100","89","sebastian-unrau-v4e3JI7DDHI-unsplash.jpg","samsommer-vddccTqwal8-unsplash.jpg","2","0","139","141","","","","","","","","","","","","","","","","","","","","","","","","","","","",""
"","choice_confirmation","","html-keyboard-response","141","769976","0.0-79.0-2.0-0.0","0","0","Gaf7I","Scenes","","null","","","null","","","","23","141","139","","","","","","","","","","","","","","","","","","","","","","","","","","","","","","","","","","","","","",""
"","explain_trial","","survey-text","142","789892","0.0-79.0-5.0-0.0","0","0","Gaf7I","Scenes","","19914","{""Q0"":""The image on the left looks like a more personal photo and I think people would be reluctant to purchase it.""}","","","","","","23","141","139","","","","","","","","","","","{""Q0"":""The image on the left looks like a more personal photo and I think people would be reluctant to purchase it.""}","","","","","","","","","","","","","","","","","","","","","","","","","","",""
"","start_critical_deliberation_block","","html-keyboard-response","143","792808","0.0-79.0-7.0-0.0","0","0","Gaf7I","Scenes","","2914","","","78","","","","","","","","","","","","","","","","","","","","","","","","","","","","","","","","","","","","","","","","","","","",""
"","fixation","","html-keyboard-response","144","793815","0.0-80.0-0.0","0","0","Gaf7I","Scenes","","null","","","null","","","","","","","","","","","","","","","","","","","","","","","","","","","","","","","","","","","","","","","","","","","",""
"","deliberation","","html-keyboard-response","145","795171","0.0-80.0-1.0","0","0","Gaf7I","Scenes","","1354","","","68","","","","24","106","109","0","1","100","77","ashim-d-silva-WeYamle9fDM-unsplash.jpg","brigitta-schneiter-hXXRLtTxXCU-unsplash.jpg","3","1","106","109","","","","","","","","","","","","","","","","","","","","","","","","","","","",""
"","choice_confirmation","","html-keyboard-response","146","795674","0.0-80.0-2.0-0.0","0","0","Gaf7I","Scenes","","null","","","null","","","","24","106","109","","","","","","","","","","","","","","","","","","","","","","","","","","","","","","","","","","","","","",""
"","fixation","","html-keyboard-response","147","796690","0.0-81.0-0.0","0","0","Gaf7I","Scenes","","null","","","null","","","","","","","","","","","","","","","","","","","","","","","","","","","","","","","","","","","","","","","","","","","",""
"","deliberation","","html-keyboard-response","148","798134","0.0-81.0-1.0","0","0","Gaf7I","Scenes","","1441","","","75","","","","25","148","129","0","-1","85","56","tom-gainor-ZqLeQDjY6fY-unsplash.jpg","kurt-cotoaga-cqbLg3lZEpk-unsplash.jpg","3","0","129","148","","","","","","","","","","","","","","","","","","","","","","","","","","","",""
"","choice_confirmation","","html-keyboard-response","149","798650","0.0-81.0-2.0-0.0","0","0","Gaf7I","Scenes","","null","","","null","","","","25","148","129","","","","","","","","","","","","","","","","","","","","","","","","","","","","","","","","","","","","","",""
"","fixation","","html-keyboard-response","150","799665","0.0-82.0-0.0","0","0","Gaf7I","Scenes","","null","","","null","","","","","","","","","","","","","","","","","","","","","","","","","","","","","","","","","","","","","","","","","","","",""
"","deliberation","","html-keyboard-response","151","800816","0.0-82.0-1.0","0","0","Gaf7I","Scenes","","1149","","","68","","","","26","123","138","0","1","62","56","joel-jasmin-forestbird-efuwb5eBDrI-unsplash.jpg","petr-vysohlid-9fqwGqGLUxc-unsplash.jpg","3","1","123","138","","","","","","","","","","","","","","","","","","","","","","","","","","","",""
"","choice_confirmation","","html-keyboard-response","152","801332","0.0-82.0-2.0-0.0","0","0","Gaf7I","Scenes","","null","","","null","","","","26","123","138","","","","","","","","","","","","","","","","","","","","","","","","","","","","","","","","","","","","","",""
"","fixation","","html-keyboard-response","153","802349","0.0-83.0-0.0","0","0","Gaf7I","Scenes","","null","","","null","","","","","","","","","","","","","","","","","","","","","","","","","","","","","","","","","","","","","","","","","","","",""
"","deliberation","","html-keyboard-response","154","803140","0.0-83.0-1.0","0","0","Gaf7I","Scenes","","788","","","75","","","","27","144","120","0","1","62","100","solotravelgoals-7kLufxYoqWk-unsplash.jpg","jarrett-kow-1ZOyYPOBn7I-unsplash.jpg","3","0","120","144","","","","","","","","","","","","","","","","","","","","","","","","","","","",""
"","choice_confirmation","","html-keyboard-response","155","803643","0.0-83.0-2.0-0.0","0","0","Gaf7I","Scenes","","null","","","null","","","","27","144","120","","","","","","","","","","","","","","","","","","","","","","","","","","","","","","","","","","","","","",""
"","fixation","","html-keyboard-response","156","804645","0.0-84.0-0.0","0","0","Gaf7I","Scenes","","null","","","null","","","","","","","","","","","","","","","","","","","","","","","","","","","","","","","","","","","","","","","","","","","",""
"","deliberation","","html-keyboard-response","157","805643","0.0-84.0-1.0","0","0","Gaf7I","Scenes","","997","","","75","","","","28","101","140","0","1","80","100","aniket-deole-T-tOgjWZ0fQ-unsplash.jpg","samuele-errico-piccarini-JEBqFu2AOOA-unsplash.jpg","3","0","140","101","","","","","","","","","","","","","","","","","","","","","","","","","","","",""
"","choice_confirmation","","html-keyboard-response","158","806149","0.0-84.0-2.0-0.0","0","0","Gaf7I","Scenes","","null","","","null","","","","28","101","140","","","","","","","","","","","","","","","","","","","","","","","","","","","","","","","","","","","","","",""
"","fixation","","html-keyboard-response","159","807154","0.0-85.0-0.0","0","0","Gaf7I","Scenes","","null","","","null","","","","","","","","","","","","","","","","","","","","","","","","","","","","","","","","","","","","","","","","","","","",""
"","deliberation","","html-keyboard-response","160","808132","0.0-85.0-1.0","0","0","Gaf7I","Scenes","","976","","","68","","","","29","116","122","0","-1","88","87","david-marcu-W5MhJ6cy1So-unsplash.jpg","jeff-king-bJHWJeiHfHc-unsplash.jpg","3","1","116","122","","","","","","","","","","","","","","","","","","","","","","","","","","","",""
"","choice_confirmation","","html-keyboard-response","161","808645","0.0-85.0-2.0-0.0","0","0","Gaf7I","Scenes","","null","","","null","","","","29","116","122","","","","","","","","","","","","","","","","","","","","","","","","","","","","","","","","","","","","","",""
"","fixation","","html-keyboard-response","162","809660","0.0-86.0-0.0","0","0","Gaf7I","Scenes","","null","","","null","","","","","","","","","","","","","","","","","","","","","","","","","","","","","","","","","","","","","","","","","","","",""
"","deliberation","","html-keyboard-response","163","810649","0.0-86.0-1.0","0","0","Gaf7I","Scenes","","984","","","75","","","","30","134","113","0","-1","98","100","milada-vigerova-pQMM63GE7fo-unsplash.jpg","damian-denis-D8R_txR_0PE-unsplash.jpg","3","0","113","134","","","","","","","","","","","","","","","","","","","","","","","","","","","",""
"","choice_confirmation","","html-keyboard-response","164","811158","0.0-86.0-2.0-0.0","0","0","Gaf7I","Scenes","","null","","","null","","","","30","134","113","","","","","","","","","","","","","","","","","","","","","","","","","","","","","","","","","","","","","",""
"","fixation","","html-keyboard-response","165","812172","0.0-87.0-0.0","0","0","Gaf7I","Scenes","","null","","","null","","","","","","","","","","","","","","","","","","","","","","","","","","","","","","","","","","","","","","","","","","","",""
"","deliberation","","html-keyboard-response","166","813218","0.0-87.0-1.0","0","0","Gaf7I","Scenes","","1043","","","75","","","","31","141","139","0","1","100","89","sebastian-unrau-v4e3JI7DDHI-unsplash.jpg","samsommer-vddccTqwal8-unsplash.jpg","3","0","139","141","","","","","","","","","","","","","","","","","","","","","","","","","","","",""
"","choice_confirmation","","html-keyboard-response","167","813730","0.0-87.0-2.0-0.0","0","0","Gaf7I","Scenes","","null","","","null","","","","31","141","139","","","","","","","","","","","","","","","","","","","","","","","","","","","","","","","","","","","","","",""
"","fixation","","html-keyboard-response","168","814744","0.0-88.0-0.0","0","0","Gaf7I","Scenes","","null","","","null","","","","","","","","","","","","","","","","","","","","","","","","","","","","","","","","","","","","","","","","","","","",""
"","deliberation","","html-keyboard-response","169","815755","0.0-88.0-1.0","0","0","Gaf7I","Scenes","","1009","","","75","","","","32","118","136","0","-1","56","100","henry-be-NLF6hTe4PAg-unsplash.jpg","nicolas-jehly-LzVB84KkZOE-unsplash.jpg","3","0","136","118","","","","","","","","","","","","","","","","","","","","","","","","","","","",""
"","choice_confirmation","","html-keyboard-response","170","816268","0.0-88.0-2.0-0.0","0","0","Gaf7I","Scenes","","null","","","null","","","","32","118","136","","","","","","","","","","","","","","","","","","","","","","","","","","","","","","","","","","","","","",""
"","fixation","","html-keyboard-response","171","817270","0.0-89.0-0.0","0","0","Gaf7I","Scenes","","null","","","null","","","","","","","","","","","","","","","","","","","","","","","","","","","","","","","","","","","","","","","","","","","",""
"","deliberation","","html-keyboard-response","172","819176","0.0-89.0-1.0","0","0","Gaf7I","Scenes","","1903","","","68","","","","33","108","125","0","-1","57","95","benjamin-voros-phIFdC6lA4E-unsplash.jpg","john-lee-oMneOBYhJxY-unsplash.jpg","3","1","108","125","","","","","","","","","","","","","","","","","","","","","","","","","","","",""
"","choice_confirmation","","html-keyboard-response","173","819678","0.0-89.0-2.0-0.0","0","0","Gaf7I","Scenes","","null","","","null","","","","33","108","125","","","","","","","","","","","","","","","","","","","","","","","","","","","","","","","","","","","","","",""
"","fixation","","html-keyboard-response","174","820693","0.0-90.0-0.0","0","0","Gaf7I","Scenes","","null","","","null","","","","","","","","","","","","","","","","","","","","","","","","","","","","","","","","","","","","","","","","","","","",""
"","deliberation","","html-keyboard-response","175","821936","0.0-90.0-1.0","0","0","Gaf7I","Scenes","","1241","","","68","","","","34","115","126","0","1","65","68","darrell-cassell-hoCXpPUMCoE-unsplash.jpg","jordan-mcqueen-PJCZOWuOxbU-unsplash.jpg","3","1","115","126","","","","","","","","","","","","","","","","","","","","","","","","","","","",""
"","choice_confirmation","","html-keyboard-response","176","822453","0.0-90.0-2.0-0.0","0","0","Gaf7I","Scenes","","null","","","null","","","","34","115","126","","","","","","","","","","","","","","","","","","","","","","","","","","","","","","","","","","","","","",""
"","fixation","","html-keyboard-response","177","823464","0.0-91.0-0.0","0","0","Gaf7I","Scenes","","null","","","null","","","","","","","","","","","","","","","","","","","","","","","","","","","","","","","","","","","","","","","","","","","",""
"","deliberation","","html-keyboard-response","178","824389","0.0-91.0-1.0","0","0","Gaf7I","Scenes","","921","","","68","","","","35","104","119","0","-1","89","58","artem-sapegin-XGDBdSQ70O0-unsplash.jpg","james-wheeler-AFC0XvICMgs-unsplash.jpg","3","1","104","119","","","","","","","","","","","","","","","","","","","","","","","","","","","",""
"","choice_confirmation","","html-keyboard-response","179","824898","0.0-91.0-2.0-0.0","0","0","Gaf7I","Scenes","","null","","","null","","","","35","104","119","","","","","","","","","","","","","","","","","","","","","","","","","","","","","","","","","","","","","",""
"","reward_learning_instructions","","instructions","180","877176","0.0-92.0-0.0","0","0","Gaf7I","Scenes","[{""page_index"":0,""viewing_time"":21383},{""page_index"":1,""viewing_time"":28868},{""page_index"":2,""viewing_time"":2025}]","52276","","","","","","","","","","","","","","","","","","","","","","","","","","","","","","","","","","","","","","","","","","","","","","",""
"","reward_comprehension_check","","survey-multi-choice","181","887674","0.0-92.0-1.0","0","0","Gaf7I","Scenes","","10497","{""Q0"":""True"",""Q1"":""True"",""Q2"":""Press the space bar to see its outcome"",""Q3"":""Press the relevant key while the outcome is presented""}","0","","","","","","","","","","","","","","","","","","","","","","","","","","","","","","","","","","","","","","","","","","","","",""
"","start_phase","","html-keyboard-response","182","889510","0.0-93.0","0","0","Gaf7I","Scenes","","1831","","","78","","","","","","","","","","","","","","","","","","","","","","","","","","","","","","","","","","","","","","","","","","","",""
"","fixation","","html-keyboard-response","183","890516","0.0-94.0","0","0","Gaf7I","Scenes","","null","","","null","","","","","","","","","","","","","","","","","","","","","","","","","","","","","","","","","","","","","","","","","","","",""
"","see_reward","","html-keyboard-response","184","891626","0.0-95.0","0","0","Gaf7I","Scenes","","1109","","","32","","106","","0","","","","1","","","","","1","","","","","147","1109","","","","","","","","","","","","","","","","","","","","","","","","",""
"","reward_outcome","","html-keyboard-response","185","893640","0.0-96.0","0","0","Gaf7I","Scenes","","1172","","","38","","106","","0","","","","","","","","","","","","","","","","1","1172","","","","","","","","","","","","","","","","","","","","","","",""
"","fixation","","html-keyboard-response","186","894653","0.0-99.0","0","0","Gaf7I","Scenes","","null","","","null","","","","","","","","","","","","","","","","","","","","","","","","","","","","","","","","","","","","","","","","","","","",""
"","see_reward","","html-keyboard-response","187","895760","0.0-100.0","0","0","Gaf7I","Scenes","","1104","","","32","","140","","1","","","","1","","","","","1","","","","","152","1104","","","","","","","","","","","","","","","","","","","","","","","","",""
"","reward_outcome","","html-keyboard-response","188","897770","0.0-101.0","0","0","Gaf7I","Scenes","","1322","","","38","","140","","1","","","","","","","","","","","","","","","","1","1322","","","","","","","","","","","","","","","","","","","","","","",""
"","fixation","","html-keyboard-response","189","898777","0.0-104.0","0","0","Gaf7I","Scenes","","null","","","null","","","","","","","","","","","","","","","","","","","","","","","","","","","","","","","","","","","","","","","","","","","",""
"","see_reward","","html-keyboard-response","190","899641","0.0-105.0","0","0","Gaf7I","Scenes","","861","","","32","","129","","2","","","","-1","","","","","1","","","","","0","861","","","","","","","","","","","","","","","","","","","","","","","","",""
"","reward_outcome","","html-keyboard-response","191","901654","0.0-106.0","0","0","Gaf7I","Scenes","","1390","","","40","","129","","2","","","","","","","","","","","","","","","","-1","1390","","","","","","","","","","","","","","","","","","","","","","",""
"","fixation","","html-keyboard-response","192","902673","0.0-109.0","0","0","Gaf7I","Scenes","","null","","","null","","","","","","","","","","","","","","","","","","","","","","","","","","","","","","","","","","","","","","","","","","","",""
"","see_reward","","html-keyboard-response","193","903436","0.0-110.0","0","0","Gaf7I","Scenes","","758","","","32","","123","","3","","","","1","","","","","1","","","","","155","758","","","","","","","","","","","","","","","","","","","","","","","","",""
"","reward_outcome","","html-keyboard-response","194","905439","0.0-111.0","0","0","Gaf7I","Scenes","","1103","","","38","","123","","3","","","","","","","","","","","","","","","","1","1103","","","","","","","","","","","","","","","","","","","","","","",""
"","fixation","","html-keyboard-response","195","906456","0.0-114.0","0","0","Gaf7I","Scenes","","null","","","null","","","","","","","","","","","","","","","","","","","","","","","","","","","","","","","","","","","","","","","","","","","",""
"","see_reward","","html-keyboard-response","196","907245","0.0-115.0","0","0","Gaf7I","Scenes","","787","","","32","","113","","4","","","","-1","","","","","1","","","","","0","787","","","","","","","","","","","","","","","","","","","","","","","","",""
"","reward_outcome","","html-keyboard-response","197","909252","0.0-116.0","0","0","Gaf7I","Scenes","","1104","","","40","","113","","4","","","","","","","","","","","","","","","","-1","1104","","","","","","","","","","","","","","","","","","","","","","",""
"","fixation","","html-keyboard-response","198","910266","0.0-119.0","0","0","Gaf7I","Scenes","","null","","","null","","","","","","","","","","","","","","","","","","","","","","","","","","","","","","","","","","","","","","","","","","","",""
"","see_reward","","html-keyboard-response","199","911326","0.0-120.0","0","0","Gaf7I","Scenes","","1057","","","32","","136","","5","","","","-1","","","","","1","","","","","0","1057","","","","","","","","","","","","","","","","","","","","","","","","",""
"","reward_outcome","","html-keyboard-response","200","913333","0.0-121.0","0","0","Gaf7I","Scenes","","1059","","","40","","136","","5","","","","","","","","","","","","","","","","-1","1059","","","","","","","","","","","","","","","","","","","","","","",""
"","fixation","","html-keyboard-response","201","914344","0.0-124.0","0","0","Gaf7I","Scenes","","null","","","null","","","","","","","","","","","","","","","","","","","","","","","","","","","","","","","","","","","","","","","","","","","",""
"","see_reward","","html-keyboard-response","202","915221","0.0-125.0","0","0","Gaf7I","Scenes","","873","","","32","","108","","6","","","","-1","","","","","1","","","","","0","873","","","","","","","","","","","","","","","","","","","","","","","","",""
"","reward_outcome","","html-keyboard-response","203","917233","0.0-126.0","0","0","Gaf7I","Scenes","","949","","","40","","108","","6","","","","","","","","","","","","","","","","-1","949","","","","","","","","","","","","","","","","","","","","","","",""
"","fixation","","html-keyboard-response","204","918236","0.0-129.0","0","0","Gaf7I","Scenes","","null","","","null","","","","","","","","","","","","","","","","","","","","","","","","","","","","","","","","","","","","","","","","","","","",""
"","see_reward","","html-keyboard-response","205","919082","0.0-130.0","0","0","Gaf7I","Scenes","","845","","","32","","115","","7","","","","1","","","","","1","","","","","143","845","","","","","","","","","","","","","","","","","","","","","","","","",""
"","reward_outcome","","html-keyboard-response","206","921095","0.0-131.0","0","0","Gaf7I","Scenes","","962","","","38","","115","","7","","","","","","","","","","","","","","","","1","962","","","","","","","","","","","","","","","","","","","","","","",""
"","fixation","","html-keyboard-response","207","922098","0.0-134.0","0","0","Gaf7I","Scenes","","null","","","null","","","","","","","","","","","","","","","","","","","","","","","","","","","","","","","","","","","","","","","","","","","",""
"","see_reward","","html-keyboard-response","208","922881","0.0-135.0","0","0","Gaf7I","Scenes","","781","","","32","","108","","8","","","","-1","","","","","1","","","","","0","781","","","","","","","","","","","","","","","","","","","","","","","","",""
"","reward_outcome","","html-keyboard-response","209","924898","0.0-136.0","0","0","Gaf7I","Scenes","","1067","","","40","","108","","8","","","","","","","","","","","","","","","","-1","1067","","","","","","","","","","","","","","","","","","","","","","",""
"","fixation","","html-keyboard-response","210","925914","0.0-139.0","0","0","Gaf7I","Scenes","","null","","","null","","","","","","","","","","","","","","","","","","","","","","","","","","","","","","","","","","","","","","","","","","","",""
"","see_reward","","html-keyboard-response","211","926769","0.0-140.0","0","0","Gaf7I","Scenes","","852","","","32","","139","","9","","","","1","","","","","1","","","","","141","852","","","","","","","","","","","","","","","","","","","","","","","","",""
"","reward_outcome","","html-keyboard-response","212","928785","0.0-141.0","0","0","Gaf7I","Scenes","","935","","","38","","139","","9","","","","","","","","","","","","","","","","1","935","","","","","","","","","","","","","","","","","","","","","","",""
"","fixation","","html-keyboard-response","213","929790","0.0-144.0","0","0","Gaf7I","Scenes","","null","","","null","","","","","","","","","","","","","","","","","","","","","","","","","","","","","","","","","","","","","","","","","","","",""
"","see_reward","","html-keyboard-response","214","930982","0.0-145.0","0","0","Gaf7I","Scenes","","1191","","","32","","120","","10","","","","1","","","","","1","","","","","150","1191","","","","","","","","","","","","","","","","","","","","","","","","",""
"","reward_outcome","","html-keyboard-response","215","933002","0.0-146.0","0","0","Gaf7I","Scenes","","1054","","","38","","120","","10","","","","","","","","","","","","","","","","1","1054","","","","","","","","","","","","","","","","","","","","","","",""
"","fixation","","html-keyboard-response","216","934009","0.0-149.0","0","0","Gaf7I","Scenes","","null","","","null","","","","","","","","","","","","","","","","","","","","","","","","","","","","","","","","","","","","","","","","","","","",""
"","see_reward","","html-keyboard-response","217","934779","0.0-150.0","0","0","Gaf7I","Scenes","","768","","","32","","123","","11","","","","1","","","","","1","","","","","155","768","","","","","","","","","","","","","","","","","","","","","","","","",""
"","reward_outcome","","html-keyboard-response","218","936785","0.0-151.0","0","0","Gaf7I","Scenes","","955","","","38","","123","","11","","","","","","","","","","","","","","","","1","955","","","","","","","","","","","","","","","","","","","","","","",""
"","fixation","","html-keyboard-response","219","937799","0.0-154.0","0","0","Gaf7I","Scenes","","null","","","null","","","","","","","","","","","","","","","","","","","","","","","","","","","","","","","","","","","","","","","","","","","",""
"","see_reward","","html-keyboard-response","220","938672","0.0-155.0","0","0","Gaf7I","Scenes","","871","","","32","","116","","12","","","","-1","","","","","1","","","","","0","871","","","","","","","","","","","","","","","","","","","","","","","","",""
"","reward_outcome","","html-keyboard-response","221","940681","0.0-156.0","0","0","Gaf7I","Scenes","","958","","","40","","116","","12","","","","","","","","","","","","","","","","-1","958","","","","","","","","","","","","","","","","","","","","","","",""
"","fixation","","html-keyboard-response","222","941689","0.0-159.0","0","0","Gaf7I","Scenes","","null","","","null","","","","","","","","","","","","","","","","","","","","","","","","","","","","","","","","","","","","","","","","","","","",""
"","see_reward","","html-keyboard-response","223","942358","0.0-160.0","0","0","Gaf7I","Scenes","","666","","","32","","140","","13","","","","1","","","","","1","","","","","152","666","","","","","","","","","","","","","","","","","","","","","","","","",""
"","reward_outcome","","html-keyboard-response","224","944367","0.0-161.0","0","0","Gaf7I","Scenes","","858","","","38","","140","","13","","","","","","","","","","","","","","","","1","858","","","","","","","","","","","","","","","","","","","","","","",""
"","fixation","","html-keyboard-response","225","945380","0.0-164.0","0","0","Gaf7I","Scenes","","null","","","null","","","","","","","","","","","","","","","","","","","","","","","","","","","","","","","","","","","","","","","","","","","",""
"","see_reward","","html-keyboard-response","226","946108","0.0-165.0","0","0","Gaf7I","Scenes","","725","","","32","","113","","14","","","","-1","","","","","1","","","","","0","725","","","","","","","","","","","","","","","","","","","","","","","","",""
"","reward_outcome","","html-keyboard-response","227","948114","0.0-166.0","0","0","Gaf7I","Scenes","","782","","","40","","113","","14","","","","","","","","","","","","","","","","-1","782","","","","","","","","","","","","","","","","","","","","","","",""
"","fixation","","html-keyboard-response","228","949116","0.0-169.0","0","0","Gaf7I","Scenes","","null","","","null","","","","","","","","","","","","","","","","","","","","","","","","","","","","","","","","","","","","","","","","","","","",""
"","see_reward","","html-keyboard-response","229","950086","0.0-170.0","0","0","Gaf7I","Scenes","","967","","","32","","136","","15","","","","-1","","","","","1","","","","","0","967","","","","","","","","","","","","","","","","","","","","","","","","",""
"","reward_outcome","","html-keyboard-response","230","952091","0.0-171.0","0","0","Gaf7I","Scenes","","902","","","40","","136","","15","","","","","","","","","","","","","","","","-1","902","","","","","","","","","","","","","","","","","","","","","","",""
"","fixation","","html-keyboard-response","231","953103","0.0-174.0","0","0","Gaf7I","Scenes","","null","","","null","","","","","","","","","","","","","","","","","","","","","","","","","","","","","","","","","","","","","","","","","","","",""
"","see_reward","","html-keyboard-response","232","954026","0.0-175.0","0","0","Gaf7I","Scenes","","921","","","32","","106","","16","","","","1","","","","","1","","","","","147","921","","","","","","","","","","","","","","","","","","","","","","","","",""
"","reward_outcome","","html-keyboard-response","233","956042","0.0-176.0","0","0","Gaf7I","Scenes","","898","","","38","","106","","16","","","","","","","","","","","","","","","","1","898","","","","","","","","","","","","","","","","","","","","","","",""
"","fixation","","html-keyboard-response","234","957059","0.0-179.0","0","0","Gaf7I","Scenes","","null","","","null","","","","","","","","","","","","","","","","","","","","","","","","","","","","","","","","","","","","","","","","","","","",""
"","see_reward","","html-keyboard-response","235","957775","0.0-180.0","0","0","Gaf7I","Scenes","","713","","","32","","104","","17","","","","-1","","","","","1","","","","","0","713","","","","","","","","","","","","","","","","","","","","","","","","",""
"","reward_outcome","","html-keyboard-response","236","959787","0.0-181.0","0","0","Gaf7I","Scenes","","777","","","40","","104","","17","","","","","","","","","","","","","","","","-1","777","","","","","","","","","","","","","","","","","","","","","","",""
"","fixation","","html-keyboard-response","237","960803","0.0-184.0","0","0","Gaf7I","Scenes","","null","","","null","","","","","","","","","","","","","","","","","","","","","","","","","","","","","","","","","","","","","","","","","","","",""
"","see_reward","","html-keyboard-response","238","961347","0.0-185.0","0","0","Gaf7I","Scenes","","540","","","32","","120","","18","","","","1","","","","","1","","","","","150","540","","","","","","","","","","","","","","","","","","","","","","","","",""
"","reward_outcome","","html-keyboard-response","239","963351","0.0-186.0","0","0","Gaf7I","Scenes","","869","","","38","","120","","18","","","","","","","","","","","","","","","","1","869","","","","","","","","","","","","","","","","","","","","","","",""
"","fixation","","html-keyboard-response","240","964369","0.0-189.0","0","0","Gaf7I","Scenes","","null","","","null","","","","","","","","","","","","","","","","","","","","","","","","","","","","","","","","","","","","","","","","","","","",""
"","see_reward","","html-keyboard-response","241","964854","0.0-190.0","0","0","Gaf7I","Scenes","","483","","","32","","139","","19","","","","1","","","","","1","","","","","141","483","","","","","","","","","","","","","","","","","","","","","","","","",""
"","reward_outcome","","html-keyboard-response","242","966863","0.0-191.0","0","0","Gaf7I","Scenes","","871","","","38","","139","","19","","","","","","","","","","","","","","","","1","871","","","","","","","","","","","","","","","","","","","","","","",""
"","fixation","","html-keyboard-response","243","967879","0.0-194.0","0","0","Gaf7I","Scenes","","null","","","null","","","","","","","","","","","","","","","","","","","","","","","","","","","","","","","","","","","","","","","","","","","",""
"","see_reward","","html-keyboard-response","244","968841","0.0-195.0","0","0","Gaf7I","Scenes","","958","","","32","","116","","20","","","","-1","","","","","1","","","","","0","958","","","","","","","","","","","","","","","","","","","","","","","","",""
"","reward_outcome","","html-keyboard-response","245","970846","0.0-196.0","0","0","Gaf7I","Scenes","","721","","","40","","116","","20","","","","","","","","","","","","","","","","-1","721","","","","","","","","","","","","","","","","","","","","","","",""
"","fixation","","html-keyboard-response","246","971851","0.0-199.0","0","0","Gaf7I","Scenes","","null","","","null","","","","","","","","","","","","","","","","","","","","","","","","","","","","","","","","","","","","","","","","","","","",""
"","see_reward","","html-keyboard-response","247","972734","0.0-200.0","0","0","Gaf7I","Scenes","","881","","","32","","115","","21","","","","1","","","","","1","","","","","143","881","","","","","","","","","","","","","","","","","","","","","","","","",""
"","reward_outcome","","html-keyboard-response","248","974751","0.0-201.0","0","0","Gaf7I","Scenes","","869","","","38","","115","","21","","","","","","","","","","","","","","","","1","869","","","","","","","","","","","","","","","","","","","","","","",""
"","fixation","","html-keyboard-response","249","975763","0.0-204.0","0","0","Gaf7I","Scenes","","null","","","null","","","","","","","","","","","","","","","","","","","","","","","","","","","","","","","","","","","","","","","","","","","",""
"","see_reward","","html-keyboard-response","250","976826","0.0-205.0","0","0","Gaf7I","Scenes","","1060","","","32","","104","","22","","","","-1","","","","","1","","","","","0","1060","","","","","","","","","","","","","","","","","","","","","","","","",""
"","reward_outcome","","html-keyboard-response","251","978834","0.0-206.0","0","0","Gaf7I","Scenes","","763","","","40","","104","","22","","","","","","","","","","","","","","","","-1","763","","","","","","","","","","","","","","","","","","","","","","",""
"","fixation","","html-keyboard-response","252","979847","0.0-209.0","0","0","Gaf7I","Scenes","","null","","","null","","","","","","","","","","","","","","","","","","","","","","","","","","","","","","","","","","","","","","","","","","","",""
"","see_reward","","html-keyboard-response","253","980835","0.0-210.0","0","0","Gaf7I","Scenes","","987","","","32","","129","","23","","","","-1","","","","","1","","","","","0","987","","","","","","","","","","","","","","","","","","","","","","","","",""
"","reward_outcome","","html-keyboard-response","254","982851","0.0-211.0","0","0","Gaf7I","Scenes","","584","","","40","","129","","23","","","","","","","","","","","","","","","","-1","584","","","","","","","","","","","","","","","","","","","","","","",""
"","block_over","","html-keyboard-response","255","985282","0.0-213.0-0.0","0","0","Gaf7I","Scenes","","2428","","","78","","","","","","","","","","","","","","","","","","","","","","","","","","","","","","","","","","","","","","","","","","","",""
"","fixation","","html-keyboard-response","256","986295","0.0-214.0","0","0","Gaf7I","Scenes","","null","","","null","","","","","","","","","","","","","","","","","","","","","","","","","","","","","","","","","","","","","","","","","","","",""
"","see_reward","","html-keyboard-response","257","987567","0.0-215.0","0","0","Gaf7I","Scenes","","1269","","","32","","116","","24","","","","-1","","","","","2","","","","","0","1269","","","","","","","","","","","","","","","","","","","","","","","","",""
"","reward_outcome","","html-keyboard-response","258","989582","0.0-216.0","0","0","Gaf7I","Scenes","","937","","","40","","116","","24","","","","","","","","","","","","","","","","-1","937","","","","","","","","","","","","","","","","","","","","","","",""
"","fixation","","html-keyboard-response","259","990597","0.0-219.0","0","0","Gaf7I","Scenes","","null","","","null","","","","","","","","","","","","","","","","","","","","","","","","","","","","","","","","","","","","","","","","","","","",""
"","see_reward","","html-keyboard-response","260","991321","0.0-220.0","0","0","Gaf7I","Scenes","","720","","","32","","113","","25","","","","-1","","","","","2","","","","","0","720","","","","","","","","","","","","","","","","","","","","","","","","",""
"","reward_outcome","","html-keyboard-response","261","993335","0.0-221.0","0","0","Gaf7I","Scenes","","689","","","40","","113","","25","","","","","","","","","","","","","","","","-1","689","","","","","","","","","","","","","","","","","","","","","","",""
"","fixation","","html-keyboard-response","262","994339","0.0-224.0","0","0","Gaf7I","Scenes","","null","","","null","","","","","","","","","","","","","","","","","","","","","","","","","","","","","","","","","","","","","","","","","","","",""
"","see_reward","","html-keyboard-response","263","995122","0.0-225.0","0","0","Gaf7I","Scenes","","781","","","32","","140","","26","","","","1","","","","","2","","","","","152","781","","","","","","","","","","","","","","","","","","","","","","","","",""
"","reward_outcome","","html-keyboard-response","264","997137","0.0-226.0","0","0","Gaf7I","Scenes","","720","","","38","","140","","26","","","","","","","","","","","","","","","","1","720","","","","","","","","","","","","","","","","","","","","","","",""
"","fixation","","html-keyboard-response","265","998153","0.0-229.0","0","0","Gaf7I","Scenes","","null","","","null","","","","","","","","","","","","","","","","","","","","","","","","","","","","","","","","","","","","","","","","","","","",""
"","see_reward","","html-keyboard-response","266","998850","0.0-230.0","0","0","Gaf7I","Scenes","","696","","","32","","113","","27","","","","-1","","","","","2","","","","","0","696","","","","","","","","","","","","","","","","","","","","","","","","",""
"","reward_outcome","","html-keyboard-response","267","1000863","0.0-231.0","0","0","Gaf7I","Scenes","","584","","","40","","113","","27","","","","","","","","","","","","","","","","-1","584","","","","","","","","","","","","","","","","","","","","","","",""
"","fixation","","html-keyboard-response","268","1001872","0.0-234.0","0","0","Gaf7I","Scenes","","null","","","null","","","","","","","","","","","","","","","","","","","","","","","","","","","","","","","","","","","","","","","","","","","",""
"","see_reward","","html-keyboard-response","269","1002427","0.0-235.0","0","0","Gaf7I","Scenes","","551","","","32","","106","","28","","","","1","","","","","2","","","","","147","551","","","","","","","","","","","","","","","","","","","","","","","","",""
"","reward_outcome","","html-keyboard-response","270","1004431","0.0-236.0","0","0","Gaf7I","Scenes","","536","","","38","","106","","28","","","","","","","","","","","","","","","","1","536","","","","","","","","","","","","","","","","","","","","","","",""
"","fixation","","html-keyboard-response","271","1005440","0.0-239.0","0","0","Gaf7I","Scenes","","null","","","null","","","","","","","","","","","","","","","","","","","","","","","","","","","","","","","","","","","","","","","","","","","",""
"","see_reward","","html-keyboard-response","272","1005727","0.0-240.0","0","0","Gaf7I","Scenes","","283","","","32","","139","","29","","","","1","","","","","2","","","","","141","283","","","","","","","","","","","","","","","","","","","","","","","","",""
"","reward_outcome","","html-keyboard-response","273","1007745","0.0-241.0","0","0","Gaf7I","Scenes","","659","","","38","","139","","29","","","","","","","","","","","","","","","","1","659","","","","","","","","","","","","","","","","","","","","","","",""
"","fixation","","html-keyboard-response","274","1008762","0.0-244.0","0","0","Gaf7I","Scenes","","null","","","null","","","","","","","","","","","","","","","","","","","","","","","","","","","","","","","","","","","","","","","","","","","",""
"","see_reward","","html-keyboard-response","275","1009411","0.0-245.0","0","0","Gaf7I","Scenes","","647","","","32","","123","","30","","","","1","","","","","2","","","","","155","647","","","","","","","","","","","","","","","","","","","","","","","","",""
"","reward_outcome","","html-keyboard-response","276","1011423","0.0-246.0","0","0","Gaf7I","Scenes","","504","","","38","","123","","30","","","","","","","","","","","","","","","","1","504","","","","","","","","","","","","","","","","","","","","","","",""
"","fixation","","html-keyboard-response","277","1012440","0.0-249.0","0","0","Gaf7I","Scenes","","null","","","null","","","","","","","","","","","","","","","","","","","","","","","","","","","","","","","","","","","","","","","","","","","",""
"","see_reward","","html-keyboard-response","278","1012796","0.0-250.0","0","0","Gaf7I","Scenes","","355","","","32","","129","","31","","","","-1","","","","","2","","","","","0","355","","","","","","","","","","","","","","","","","","","","","","","","",""
"","reward_outcome","","html-keyboard-response","279","1014804","0.0-251.0","0","0","Gaf7I","Scenes","","483","","","40","","129","","31","","","","","","","","","","","","","","","","-1","483","","","","","","","","","","","","","","","","","","","","","","",""
"","fixation","","html-keyboard-response","280","1015821","0.0-254.0","0","0","Gaf7I","Scenes","","null","","","null","","","","","","","","","","","","","","","","","","","","","","","","","","","","","","","","","","","","","","","","","","","",""
"","see_reward","","html-keyboard-response","281","1016394","0.0-255.0","0","0","Gaf7I","Scenes","","571","","","32","","120","","32","","","","1","","","","","2","","","","","150","571","","","","","","","","","","","","","","","","","","","","","","","","",""
"","reward_outcome","","html-keyboard-response","282","1018411","0.0-256.0","0","0","Gaf7I","Scenes","","480","","","38","","120","","32","","","","","","","","","","","","","","","","1","480","","","","","","","","","","","","","","","","","","","","","","",""
"","fixation","","html-keyboard-response","283","1019425","0.0-259.0","0","0","Gaf7I","Scenes","","null","","","null","","","","","","","","","","","","","","","","","","","","","","","","","","","","","","","","","","","","","","","","","","","",""
"","see_reward","","html-keyboard-response","284","1020092","0.0-260.0","0","0","Gaf7I","Scenes","","664","","","32","","108","","33","","","","-1","","","","","2","","","","","0","664","","","","","","","","","","","","","","","","","","","","","","","","",""
"","reward_outcome","","html-keyboard-response","285","1022108","0.0-261.0","0","0","Gaf7I","Scenes","","584","","","40","","108","","33","","","","","","","","","","","","","","","","-1","584","","","","","","","","","","","","","","","","","","","","","","",""
"","fixation","","html-keyboard-response","286","1023125","0.0-264.0","0","0","Gaf7I","Scenes","","null","","","null","","","","","","","","","","","","","","","","","","","","","","","","","","","","","","","","","","","","","","","","","","","",""
"","see_reward","","html-keyboard-response","287","1023700","0.0-265.0","0","0","Gaf7I","Scenes","","573","","","32","","120","","34","","","","1","","","","","2","","","","","150","573","","","","","","","","","","","","","","","","","","","","","","","","",""
"","reward_outcome","","html-keyboard-response","288","1025709","0.0-266.0","0","0","Gaf7I","Scenes","","496","","","38","","120","","34","","","","","","","","","","","","","","","","1","496","","","","","","","","","","","","","","","","","","","","","","",""
"","fixation","","html-keyboard-response","289","1026714","0.0-269.0","0","0","Gaf7I","Scenes","","null","","","null","","","","","","","","","","","","","","","","","","","","","","","","","","","","","","","","","","","","","","","","","","","",""
"","see_reward","","html-keyboard-response","290","1027386","0.0-270.0","0","0","Gaf7I","Scenes","","670","","","32","","116","","35","","","","-1","","","","","2","","","","","0","670","","","","","","","","","","","","","","","","","","","","","","","","",""
"","reward_outcome","","html-keyboard-response","291","1029392","0.0-271.0","0","0","Gaf7I","Scenes","","536","","","40","","116","","35","","","","","","","","","","","","","","","","-1","536","","","","","","","","","","","","","","","","","","","","","","",""
"","fixation","","html-keyboard-response","292","1030408","0.0-274.0","0","0","Gaf7I","Scenes","","null","","","null","","","","","","","","","","","","","","","","","","","","","","","","","","","","","","","","","","","","","","","","","","","",""
"","see_reward","","html-keyboard-response","293","1030836","0.0-275.0","0","0","Gaf7I","Scenes","","424","","","32","","108","","36","","","","-1","","","","","2","","","","","0","424","","","","","","","","","","","","","","","","","","","","","","","","",""
"","reward_outcome","","html-keyboard-response","294","1032838","0.0-276.0","0","0","Gaf7I","Scenes","","686","","","40","","108","","36","","","","","","","","","","","","","","","","-1","686","","","","","","","","","","","","","","","","","","","","","","",""
"","fixation","","html-keyboard-response","295","1033854","0.0-279.0","0","0","Gaf7I","Scenes","","null","","","null","","","","","","","","","","","","","","","","","","","","","","","","","","","","","","","","","","","","","","","","","","","",""
"","see_reward","","html-keyboard-response","296","1034562","0.0-280.0","0","0","Gaf7I","Scenes","","704","","","32","","106","","37","","","","1","","","","","2","","","","","147","704","","","","","","","","","","","","","","","","","","","","","","","","",""
"","reward_outcome","","html-keyboard-response","297","1036567","0.0-281.0","0","0","Gaf7I","Scenes","","603","","","38","","106","","37","","","","","","","","","","","","","","","","1","603","","","","","","","","","","","","","","","","","","","","","","",""
"","fixation","","html-keyboard-response","298","1037583","0.0-284.0","0","0","Gaf7I","Scenes","","null","","","null","","","","","","","","","","","","","","","","","","","","","","","","","","","","","","","","","","","","","","","","","","","",""
"","see_reward","","html-keyboard-response","299","1038266","0.0-285.0","0","0","Gaf7I","Scenes","","682","","","32","","104","","38","","","","-1","","","","","2","","","","","0","682","","","","","","","","","","","","","","","","","","","","","","","","",""
"","reward_outcome","","html-keyboard-response","300","1040281","0.0-286.0","0","0","Gaf7I","Scenes","","656","","","40","","104","","38","","","","","","","","","","","","","","","","-1","656","","","","","","","","","","","","","","","","","","","","","","",""
"","fixation","","html-keyboard-response","301","1041297","0.0-289.0","0","0","Gaf7I","Scenes","","null","","","null","","","","","","","","","","","","","","","","","","","","","","","","","","","","","","","","","","","","","","","","","","","",""
"","see_reward","","html-keyboard-response","302","1041818","0.0-290.0","0","0","Gaf7I","Scenes","","518","","","32","","140","","39","","","","1","","","","","2","","","","","152","518","","","","","","","","","","","","","","","","","","","","","","","","",""
"","reward_outcome","","html-keyboard-response","303","1043832","0.0-291.0","0","0","Gaf7I","Scenes","","709","","","38","","140","","39","","","","","","","","","","","","","","","","1","709","","","","","","","","","","","","","","","","","","","","","","",""
"","fixation","","html-keyboard-response","304","1044848","0.0-294.0","0","0","Gaf7I","Scenes","","null","","","null","","","","","","","","","","","","","","","","","","","","","","","","","","","","","","","","","","","","","","","","","","","",""
"","see_reward","","html-keyboard-response","305","1045472","0.0-295.0","0","0","Gaf7I","Scenes","","621","","","32","","139","","40","","","","1","","","","","2","","","","","141","621","","","","","","","","","","","","","","","","","","","","","","","","",""
"","reward_outcome","","html-keyboard-response","306","1047485","0.0-296.0","0","0","Gaf7I","Scenes","","699","","","38","","139","","40","","","","","","","","","","","","","","","","1","699","","","","","","","","","","","","","","","","","","","","","","",""
"","fixation","","html-keyboard-response","307","1048498","0.0-299.0","0","0","Gaf7I","Scenes","","null","","","null","","","","","","","","","","","","","","","","","","","","","","","","","","","","","","","","","","","","","","","","","","","",""
"","see_reward","","html-keyboard-response","308","1049115","0.0-300.0","0","0","Gaf7I","Scenes","","616","","","32","","115","","41","","","","1","","","","","2","","","","","143","616","","","","","","","","","","","","","","","","","","","","","","","","",""
"","reward_outcome","","html-keyboard-response","309","1051128","0.0-301.0","0","0","Gaf7I","Scenes","","677","","","38","","115","","41","","","","","","","","","","","","","","","","1","677","","","","","","","","","","","","","","","","","","","","","","",""
"","fixation","","html-keyboard-response","310","1052142","0.0-304.0","0","0","Gaf7I","Scenes","","null","","","null","","","","","","","","","","","","","","","","","","","","","","","","","","","","","","","","","","","","","","","","","","","",""
"","see_reward","","html-keyboard-response","311","1052873","0.0-305.0","0","0","Gaf7I","Scenes","","728","","","32","","123","","42","","","","1","","","","","2","","","","","155","728","","","","","","","","","","","","","","","","","","","","","","","","",""
"","reward_outcome","","html-keyboard-response","312","1054882","0.0-306.0","0","0","Gaf7I","Scenes","","564","","","38","","123","","42","","","","","","","","","","","","","","","","1","564","","","","","","","","","","","","","","","","","","","","","","",""
"","fixation","","html-keyboard-response","313","1055887","0.0-309.0","0","0","Gaf7I","Scenes","","null","","","null","","","","","","","","","","","","","","","","","","","","","","","","","","","","","","","","","","","","","","","","","","","",""
"","see_reward","","html-keyboard-response","314","1056582","0.0-310.0","0","0","Gaf7I","Scenes","","691","","","32","","136","","43","","","","-1","","","","","2","","","","","0","691","","","","","","","","","","","","","","","","","","","","","","","","",""
"","reward_outcome","","html-keyboard-response","315","1058588","0.0-311.0","0","0","Gaf7I","Scenes","","566","","","40","","136","","43","","","","","","","","","","","","","","","","-1","566","","","","","","","","","","","","","","","","","","","","","","",""
"","fixation","","html-keyboard-response","316","1059592","0.0-314.0","0","0","Gaf7I","Scenes","","null","","","null","","","","","","","","","","","","","","","","","","","","","","","","","","","","","","","","","","","","","","","","","","","",""
"","see_reward","","html-keyboard-response","317","1060256","0.0-315.0","0","0","Gaf7I","Scenes","","663","","","32","","136","","44","","","","-1","","","","","2","","","","","0","663","","","","","","","","","","","","","","","","","","","","","","","","",""
"","reward_outcome","","html-keyboard-response","318","1062270","0.0-316.0","0","0","Gaf7I","Scenes","","608","","","40","","136","","44","","","","","","","","","","","","","","","","-1","608","","","","","","","","","","","","","","","","","","","","","","",""
"","fixation","","html-keyboard-response","319","1063272","0.0-319.0","0","0","Gaf7I","Scenes","","null","","","null","","","","","","","","","","","","","","","","","","","","","","","","","","","","","","","","","","","","","","","","","","","",""
"","see_reward","","html-keyboard-response","320","1064104","0.0-320.0","0","0","Gaf7I","Scenes","","830","","","32","","104","","45","","","","-1","","","","","2","","","","","0","830","","","","","","","","","","","","","","","","","","","","","","","","",""
"","reward_outcome","","html-keyboard-response","321","1066118","0.0-321.0","0","0","Gaf7I","Scenes","","649","","","40","","104","","45","","","","","","","","","","","","","","","","-1","649","","","","","","","","","","","","","","","","","","","","","","",""
"","fixation","","html-keyboard-response","322","1067134","0.0-324.0","0","0","Gaf7I","Scenes","","null","","","null","","","","","","","","","","","","","","","","","","","","","","","","","","","","","","","","","","","","","","","","","","","",""
"","see_reward","","html-keyboard-response","323","1067978","0.0-325.0","0","0","Gaf7I","Scenes","","841","","","32","","129","","46","","","","-1","","","","","2","","","","","0","841","","","","","","","","","","","","","","","","","","","","","","","","",""
"","reward_outcome","","html-keyboard-response","324","1069986","0.0-326.0","0","0","Gaf7I","Scenes","","681","","","40","","129","","46","","","","","","","","","","","","","","","","-1","681","","","","","","","","","","","","","","","","","","","","","","",""
"","fixation","","html-keyboard-response","325","1070999","0.0-329.0","0","0","Gaf7I","Scenes","","null","","","null","","","","","","","","","","","","","","","","","","","","","","","","","","","","","","","","","","","","","","","","","","","",""
"","see_reward","","html-keyboard-response","326","1071662","0.0-330.0","0","0","Gaf7I","Scenes","","660","","","32","","115","","47","","","","1","","","","","2","","","","","143","660","","","","","","","","","","","","","","","","","","","","","","","","",""
"","reward_outcome","","html-keyboard-response","327","1073674","0.0-331.0","0","0","Gaf7I","Scenes","","696","","","38","","115","","47","","","","","","","","","","","","","","","","1","696","","","","","","","","","","","","","","","","","","","","","","",""
"","block_over","","html-keyboard-response","328","1075737","0.0-333.0-0.0","0","0","Gaf7I","Scenes","","2060","","","78","","","","","","","","","","","","","","","","","","","","","","","","","","","","","","","","","","","","","","","","","","","",""
"","fixation","","html-keyboard-response","329","1076749","0.0-334.0","0","0","Gaf7I","Scenes","","null","","","null","","","","","","","","","","","","","","","","","","","","","","","","","","","","","","","","","","","","","","","","","","","",""
"","see_reward","","html-keyboard-response","330","1077525","0.0-335.0","0","0","Gaf7I","Scenes","","773","","","32","","139","","48","","","","1","","","","","3","","","","","141","773","","","","","","","","","","","","","","","","","","","","","","","","",""
"","reward_outcome","","html-keyboard-response","331","1079534","0.0-336.0","0","0","Gaf7I","Scenes","","665","","","38","","139","","48","","","","","","","","","","","","","","","","1","665","","","","","","","","","","","","","","","","","","","","","","",""
"","fixation","","html-keyboard-response","332","1080549","0.0-339.0","0","0","Gaf7I","Scenes","","null","","","null","","","","","","","","","","","","","","","","","","","","","","","","","","","","","","","","","","","","","","","","","","","",""
"","see_reward","","html-keyboard-response","333","1081407","0.0-340.0","0","0","Gaf7I","Scenes","","856","","","32","","140","","49","","","","1","","","","","3","","","","","152","856","","","","","","","","","","","","","","","","","","","","","","","","",""
"","reward_outcome","","html-keyboard-response","334","1083411","0.0-341.0","0","0","Gaf7I","Scenes","","490","","","38","","140","","49","","","","","","","","","","","","","","","","1","490","","","","","","","","","","","","","","","","","","","","","","",""
"","fixation","","html-keyboard-response","335","1084422","0.0-344.0","0","0","Gaf7I","Scenes","","null","","","null","","","","","","","","","","","","","","","","","","","","","","","","","","","","","","","","","","","","","","","","","","","",""
"","see_reward","","html-keyboard-response","336","1085106","0.0-345.0","0","0","Gaf7I","Scenes","","681","","","32","","104","","50","","","","-1","","","","","3","","","","","0","681","","","","","","","","","","","","","","","","","","","","","","","","",""
"","reward_outcome","","html-keyboard-response","337","1087115","0.0-346.0","0","0","Gaf7I","Scenes","","552","","","40","","104","","50","","","","","","","","","","","","","","","","-1","552","","","","","","","","","","","","","","","","","","","","","","",""
"","fixation","","html-keyboard-response","338","1088131","0.0-349.0","0","0","Gaf7I","Scenes","","null","","","null","","","","","","","","","","","","","","","","","","","","","","","","","","","","","","","","","","","","","","","","","","","",""
"","see_reward","","html-keyboard-response","339","1088719","0.0-350.0","0","0","Gaf7I","Scenes","","587","","","32","","115","","51","","","","1","","","","","3","","","","","143","587","","","","","","","","","","","","","","","","","","","","","","","","",""
"","reward_outcome","","html-keyboard-response","340","1090726","0.0-351.0","0","0","Gaf7I","Scenes","","576","","","38","","115","","51","","","","","","","","","","","","","","","","1","576","","","","","","","","","","","","","","","","","","","","","","",""
"","fixation","","html-keyboard-response","341","1091729","0.0-354.0","0","0","Gaf7I","Scenes","","null","","","null","","","","","","","","","","","","","","","","","","","","","","","","","","","","","","","","","","","","","","","","","","","",""
"","see_reward","","html-keyboard-response","342","1092312","0.0-355.0","0","0","Gaf7I","Scenes","","582","","","32","","106","","52","","","","1","","","","","3","","","","","147","582","","","","","","","","","","","","","","","","","","","","","","","","",""
"","reward_outcome","","html-keyboard-response","343","1094316","0.0-356.0","0","0","Gaf7I","Scenes","","599","","","38","","106","","52","","","","","","","","","","","","","","","","1","599","","","","","","","","","","","","","","","","","","","","","","",""
"","fixation","","html-keyboard-response","344","1095317","0.0-359.0","0","0","Gaf7I","Scenes","","null","","","null","","","","","","","","","","","","","","","","","","","","","","","","","","","","","","","","","","","","","","","","","","","",""
"","see_reward","","html-keyboard-response","345","1095795","0.0-360.0","0","0","Gaf7I","Scenes","","475","","","32","","113","","53","","","","-1","","","","","3","","","","","0","475","","","","","","","","","","","","","","","","","","","","","","","","",""
"","reward_outcome","","html-keyboard-response","346","1097812","0.0-361.0","0","0","Gaf7I","Scenes","","691","","","40","","113","","53","","","","","","","","","","","","","","","","-1","691","","","","","","","","","","","","","","","","","","","","","","",""
"","fixation","","html-keyboard-response","347","1098826","0.0-364.0","0","0","Gaf7I","Scenes","","null","","","null","","","","","","","","","","","","","","","","","","","","","","","","","","","","","","","","","","","","","","","","","","","",""
"","see_reward","","html-keyboard-response","348","1099537","0.0-365.0","0","0","Gaf7I","Scenes","","707","","","32","","123","","54","","","","1","","","","","3","","","","","155","707","","","","","","","","","","","","","","","","","","","","","","","","",""
"","reward_outcome","","html-keyboard-response","349","1101542","0.0-366.0","0","0","Gaf7I","Scenes","","557","","","38","","123","","54","","","","","","","","","","","","","","","","1","557","","","","","","","","","","","","","","","","","","","","","","",""
"","fixation","","html-keyboard-response","350","1102560","0.0-369.0","0","0","Gaf7I","Scenes","","null","","","null","","","","","","","","","","","","","","","","","","","","","","","","","","","","","","","","","","","","","","","","","","","",""
