"success","ttype","start_time","trial_type","trial_index","time_elapsed","internal_node_id","warning","missed_checkup","PID","stim_type","view_history","rt","responses","category","repeat_instructions","key_press","response","stimulus_id","painting","index","stimulus_left","stimulus_right","explain_trial","reward_type","rating_left","rating_right","painting_left","painting_right","block","left_chosen","chosen_obj","unchosen_obj","explain_response","reward_amount","see_reward_rt","register_reward_response","register_reward_rt","deliberation_reward_tally","stimulus_left_deliberation_ind","stimulus_right_deliberation_ind","chosen_trial","gain_left","higher_outcome_chosen","old_pair","chosen_object","rt_pairs","left_object_chosen","rt_object","old_response","new_rating","deliberated_stim","initial_rating","outcome_eval_rt","outcome_eval_response","outcome_eval_gain","outcome_eval_acc","preamble","outcome_eval_confidence","outcome_eval_confidence_rt","total_reward_tally"
"true","full_screen","d01182023hr1444","fullscreen","0","47043","0.0-0.0","0","0","6mfmY","People","","","","","","","","","","","","","","","","","","","","","","","","","","","","","","","","","","","","","","","","","","","","","","","","","",""
"","rating_instructions","","instructions","1","66824","0.0-1.0-0.0","0","0","6mfmY","People","[{""page_index"":0,""viewing_time"":18135},{""page_index"":1,""viewing_time"":1643}]","19779","","","","","","","","","","","","","","","","","","","","","","","","","","","","","","","","","","","","","","","","","","","","","","","",""
"","","","survey-multi-choice","2","71732","0.0-1.0-1.0","0","0","6mfmY","People","","4904","{""Q0"":""True"",""Q1"":""Mouse""}","rating_comprehension_check","0","","","","","","","","","","","","","","","","","","","","","","","","","","","","","","","","","","","","","","","","","","","","",""
"","start_phase","","html-keyboard-response","3","73721","0.0-2.0","0","0","6mfmY","People","","1986","","","","78","","","","","","","","","","","","","","","","","","","","","","","","","","","","","","","","","","","","","","","","","","","",""
"","rating","","html-slider-response","4","77960","0.0-3.0","0","0","6mfmY","People","","4237","","","","","100","7","brooke-cagle-HRZUzoX1e6w-unsplash.jpg","0","","","","","","","","","","","","","","","","","","","","","","","","","","","","","","","","","","","","","","","",""
"","rating","","html-slider-response","5","85143","0.0-4.0","0","0","6mfmY","People","","7180","","","","","75","8","bruce-dixon-3M9WJQVHzog-unsplash.jpg","1","","","","","","","","","","","","","","","","","","","","","","","","","","","","","","","","","","","","","","","",""
"","rating","","html-slider-response","6","104733","0.0-5.0","0","0","6mfmY","People","","19588","","","","","100","3","art-hauntington-jzY0KRJopEI-unsplash.jpg","2","","","","","","","","","","","","","","","","","","","","","","","","","","","","","","","","","","","","","","","",""
"","rating","","html-slider-response","7","109388","0.0-6.0","0","0","6mfmY","People","","4653","","","","","28","2","arjunsyah-TBUA5KHJn6k-unsplash.jpg","3","","","","","","","","","","","","","","","","","","","","","","","","","","","","","","","","","","","","","","","",""
"","rating","","html-slider-response","8","115459","0.0-7.0","0","0","6mfmY","People","","6069","","","","","26","22","jessica-radanavong-mrYkTuAesKE-unsplash.jpg","4","","","","","","","","","","","","","","","","","","","","","","","","","","","","","","","","","","","","","","","",""
"","rating","","html-slider-response","9","120420","0.0-8.0","0","0","6mfmY","People","","4959","","","","","22","6","ben-o-bro-C5XyLljkMrY-unsplash.jpg","5","","","","","","","","","","","","","","","","","","","","","","","","","","","","","","","","","","","","","","","",""
"","rating","","html-slider-response","10","131204","0.0-9.0","0","0","6mfmY","People","","10782","","","","","23","35","oliver-ragfelt-khV4fTy6-D8-unsplash.jpg","6","","","","","","","","","","","","","","","","","","","","","","","","","","","","","","","","","","","","","","","",""
"","rating","","html-slider-response","11","138907","0.0-10.0","0","0","6mfmY","People","","7702","","","","","88","12","daniel-rigdon-dXmXKPP2L4E-unsplash.jpg","7","","","","","","","","","","","","","","","","","","","","","","","","","","","","","","","","","","","","","","","",""
"","rating","","html-slider-response","12","144959","0.0-11.0","0","0","6mfmY","People","","6050","","","","","12","40","prince-akachi-4Yv84VgQkRM-unsplash.jpg","8","","","","","","","","","","","","","","","","","","","","","","","","","","","","","","","","","","","","","","","",""
"","rating","","html-slider-response","13","149857","0.0-12.0","0","0","6mfmY","People","","4896","","","","","100","17","gleb-lukomets-paBzWCPN23k-unsplash.jpg","9","","","","","","","","","","","","","","","","","","","","","","","","","","","","","","","","","","","","","","","",""
"","rating","","html-slider-response","14","179149","0.0-13.0","0","0","6mfmY","People","","29291","","","","","30","4","barna-bartis-2x3vfVxwR7o-unsplash.jpg","10","","","","","","","","","","","","","","","","","","","","","","","","","","","","","","","","","","","","","","","",""
"","rating","","html-slider-response","15","183780","0.0-14.0","0","0","6mfmY","People","","4630","","","","","100","34","oliver-johnson-1TUIcKob7Zs-unsplash.jpg","11","","","","","","","","","","","","","","","","","","","","","","","","","","","","","","","","","","","","","","","",""
"","rating","","html-slider-response","16","189491","0.0-15.0","0","0","6mfmY","People","","5709","","","","","14","37","pavel-anoshin-d0peGya6R5Y-unsplash.jpg","12","","","","","","","","","","","","","","","","","","","","","","","","","","","","","","","","","","","","","","","",""
"","rating","","html-slider-response","17","193351","0.0-16.0","0","0","6mfmY","People","","3858","","","","","78","9","carlos-andres-gomez-vJuk8Y86mRw-unsplash.jpg","13","","","","","","","","","","","","","","","","","","","","","","","","","","","","","","","","","","","","","","","",""
"","rating","","html-slider-response","18","196841","0.0-17.0","0","0","6mfmY","People","","3488","","","","","16","47","tyler-nix-ZGa9d1a_4tA-unsplash.jpg","14","","","","","","","","","","","","","","","","","","","","","","","","","","","","","","","","","","","","","","","",""
"","rating","","html-slider-response","19","200348","0.0-18.0","0","0","6mfmY","People","","3505","","","","","15","14","freddy-kearney-o-ioeoATbIM-unsplash.jpg","15","","","","","","","","","","","","","","","","","","","","","","","","","","","","","","","","","","","","","","","",""
"","rating","","html-slider-response","20","204814","0.0-19.0","0","0","6mfmY","People","","4464","","","","","22","31","mathilda-khoo-vLR0YP_otCo-unsplash.jpg","16","","","","","","","","","","","","","","","","","","","","","","","","","","","","","","","","","","","","","","","",""
"","rating","","html-slider-response","21","208611","0.0-20.0","0","0","6mfmY","People","","3795","","","","","11","28","justin-chen-J7Cf1Gch49E-unsplash.jpg","17","","","","","","","","","","","","","","","","","","","","","","","","","","","","","","","","","","","","","","","",""
"","rating","","html-slider-response","22","250501","0.0-21.0","0","0","6mfmY","People","","41888","","","","","100","42","prince-akachi-l3IHXOdMyHQ-unsplash.jpg","18","","","","","","","","","","","","","","","","","","","","","","","","","","","","","","","","","","","","","","","",""
"","rating","","html-slider-response","23","317312","0.0-22.0","0","0","6mfmY","People","","66810","","","","","68","36","ospan-ali-mGdA2fzjWLo-unsplash.jpg","19","","","","","","","","","","","","","","","","","","","","","","","","","","","","","","","","","","","","","","","",""
"","rating","","html-slider-response","24","321259","0.0-23.0","0","0","6mfmY","People","","3945","","","","","65","25","joseph-gonzalez-iFgRcqHznqg-unsplash.jpg","20","","","","","","","","","","","","","","","","","","","","","","","","","","","","","","","","","","","","","","","",""
"","rating","","html-slider-response","25","324214","0.0-24.0","0","0","6mfmY","People","","2953","","","","","74","38","petr-sevcovic-HzDF-rxlSeM-unsplash.jpg","21","","","","","","","","","","","","","","","","","","","","","","","","","","","","","","","","","","","","","","","",""
"","rating","","html-slider-response","26","326369","0.0-25.0","0","0","6mfmY","People","","2153","","","","","71","32","nathan-dumlao-ger61_TX6oI-unsplash.jpg","22","","","","","","","","","","","","","","","","","","","","","","","","","","","","","","","","","","","","","","","",""
"","rating","","html-slider-response","27","330420","0.0-26.0","0","0","6mfmY","People","","4049","","","","","100","41","prince-akachi-i2hoD-C2RUA-unsplash.jpg","23","","","","","","","","","","","","","","","","","","","","","","","","","","","","","","","","","","","","","","","",""
"","rating","","html-slider-response","28","334230","0.0-27.0","0","0","6mfmY","People","","3808","","","","","80","33","olena-sergienko-0TSd6uCKTKc-unsplash.jpg","24","","","","","","","","","","","","","","","","","","","","","","","","","","","","","","","","","","","","","","","",""
"","rating","","html-slider-response","29","338457","0.0-28.0","0","0","6mfmY","People","","4225","","","","","15","10","charles-etoroma-95UF6LXe-Lo-unsplash.jpg","25","","","","","","","","","","","","","","","","","","","","","","","","","","","","","","","","","","","","","","","",""
"","rating","","html-slider-response","30","341831","0.0-29.0","0","0","6mfmY","People","","3372","","","","","91","49","vicky-hladynets-_gDoyVv5F4c-unsplash.jpg","26","","","","","","","","","","","","","","","","","","","","","","","","","","","","","","","","","","","","","","","",""
"","rating","","html-slider-response","31","345145","0.0-30.0","0","0","6mfmY","People","","3313","","","","","89","0","abstral-official-cyOKLSgkgCE-unsplash.jpg","27","","","","","","","","","","","","","","","","","","","","","","","","","","","","","","","","","","","","","","","",""
"","rating","","html-slider-response","32","350210","0.0-31.0","0","0","6mfmY","People","","5063","","","","","94","44","rikonavt-HQjfrvdTfak-unsplash.jpg","28","","","","","","","","","","","","","","","","","","","","","","","","","","","","","","","","","","","","","","","",""
"","rating","","html-slider-response","33","353853","0.0-32.0","0","0","6mfmY","People","","3641","","","","","90","30","matheus-ferrero-pg_WCHWSdT8-unsplash.jpg","29","","","","","","","","","","","","","","","","","","","","","","","","","","","","","","","","","","","","","","","",""
"","rating","","html-slider-response","34","357219","0.0-33.0","0","0","6mfmY","People","","3364","","","","","92","19","ha-nguy-n-OFSQ6bHjFjs-unsplash.jpg","30","","","","","","","","","","","","","","","","","","","","","","","","","","","","","","","","","","","","","","","",""
"","rating","","html-slider-response","35","361279","0.0-34.0","0","0","6mfmY","People","","4059","","","","","93","1","aiony-haust-jmATI5Q_YgY-unsplash.jpg","31","","","","","","","","","","","","","","","","","","","","","","","","","","","","","","","","","","","","","","","",""
"","rating","","html-slider-response","36","364790","0.0-35.0","0","0","6mfmY","People","","3509","","","","","92","39","philip-martin-5aGUyCW_PJw-unsplash.jpg","32","","","","","","","","","","","","","","","","","","","","","","","","","","","","","","","","","","","","","","","",""
"","rating","","html-slider-response","37","367686","0.0-36.0","0","0","6mfmY","People","","2894","","","","","93","48","velizar-ivanov-7ktP9yZA1g4-unsplash.jpg","33","","","","","","","","","","","","","","","","","","","","","","","","","","","","","","","","","","","","","","","",""
"","rating","","html-slider-response","38","370833","0.0-37.0","0","0","6mfmY","People","","3144","","","","","88","45","sarah-noltner-pL5ZzPp1zqg-unsplash.jpg","34","","","","","","","","","","","","","","","","","","","","","","","","","","","","","","","","","","","","","","","",""
"","rating","","html-slider-response","39","405082","0.0-38.0","0","0","6mfmY","People","","34247","","","","","93","29","leilani-angel-K84vnnzxmTQ-unsplash.jpg","35","","","","","","","","","","","","","","","","","","","","","","","","","","","","","","","","","","","","","","","",""
"","rating","","html-slider-response","40","410358","0.0-39.0","0","0","6mfmY","People","","5274","","","","","88","15","gabriel-silverio-u3WmDyKGsrY-unsplash.jpg","36","","","","","","","","","","","","","","","","","","","","","","","","","","","","","","","","","","","","","","","",""
"","rating","","html-slider-response","41","413941","0.0-40.0","0","0","6mfmY","People","","3581","","","","","90","27","jurica-koletic-7YVZYZeITc8-unsplash.jpg","37","","","","","","","","","","","","","","","","","","","","","","","","","","","","","","","","","","","","","","","",""
"","rating","","html-slider-response","42","421940","0.0-41.0","0","0","6mfmY","People","","7997","","","","","93","11","christian-ferrer-8vT-DgHZDG4-unsplash.jpg","38","","","","","","","","","","","","","","","","","","","","","","","","","","","","","","","","","","","","","","","",""
"","rating","","html-slider-response","43","424170","0.0-42.0","0","0","6mfmY","People","","2228","","","","","84","24","joel-mott-LaK153ghdig-unsplash.jpg","39","","","","","","","","","","","","","","","","","","","","","","","","","","","","","","","","","","","","","","","",""
"","rating","","html-slider-response","44","432158","0.0-43.0","0","0","6mfmY","People","","7986","","","","","88","23","joanna-nix-walkup-H4fEMshfwTE-unsplash.jpg","40","","","","","","","","","","","","","","","","","","","","","","","","","","","","","","","","","","","","","","","",""
"","rating","","html-slider-response","45","436605","0.0-44.0","0","0","6mfmY","People","","4446","","","","","97","13","erik-lucatero-d2MSDujJl2g-unsplash.jpg","41","","","","","","","","","","","","","","","","","","","","","","","","","","","","","","","","","","","","","","","",""
"","rating","","html-slider-response","46","441318","0.0-45.0","0","0","6mfmY","People","","4711","","","","","96","16","giano-currie-5-9YOsmf8IQ-unsplash.jpg","42","","","","","","","","","","","","","","","","","","","","","","","","","","","","","","","","","","","","","","","",""
"","rating","","html-slider-response","47","444873","0.0-46.0","0","0","6mfmY","People","","3553","","","","","91","21","jessica-felicio-_cvwXhGqG-o-unsplash.jpg","43","","","","","","","","","","","","","","","","","","","","","","","","","","","","","","","","","","","","","","","",""
"","rating","","html-slider-response","48","448893","0.0-47.0","0","0","6mfmY","People","","4018","","","","","87","26","juri-gianfrancesco-9EZadYaMzk4-unsplash.jpg","44","","","","","","","","","","","","","","","","","","","","","","","","","","","","","","","","","","","","","","","",""
"","rating","","html-slider-response","49","452522","0.0-48.0","0","0","6mfmY","People","","3627","","","","","95","5","batel-studio-ttSRjiYG_WM-unsplash.jpg","45","","","","","","","","","","","","","","","","","","","","","","","","","","","","","","","","","","","","","","","",""
"","rating","","html-slider-response","50","455889","0.0-49.0","0","0","6mfmY","People","","3366","","","","","93","46","stefan-stefancik-QXevDflbl8A-unsplash.jpg","46","","","","","","","","","","","","","","","","","","","","","","","","","","","","","","","","","","","","","","","",""
"","rating","","html-slider-response","51","463881","0.0-50.0","0","0","6mfmY","People","","7990","","","","","93","18","good-faces-xmSWVeGEnJw-unsplash.jpg","47","","","","","","","","","","","","","","","","","","","","","","","","","","","","","","","","","","","","","","","",""
"","rating","","html-slider-response","52","481650","0.0-51.0","0","0","6mfmY","People","","17768","","","","","90","43","raamin-ka-0qJBEzudn5E-unsplash.jpg","48","","","","","","","","","","","","","","","","","","","","","","","","","","","","","","","","","","","","","","","",""
"","rating","","html-slider-response","53","484884","0.0-52.0","0","0","6mfmY","People","","3233","","","","","87","20","houcine-ncib-B4TjXnI0Y2c-unsplash.jpg","49","","","","","","","","","","","","","","","","","","","","","","","","","","","","","","","","","","","","","","","",""
"","deliberation_instructions","","instructions","54","577733","0.0-53.0-0.0","0","0","6mfmY","People","[{""page_index"":0,""viewing_time"":35430},{""page_index"":1,""viewing_time"":12997},{""page_index"":2,""viewing_time"":16236},{""page_index"":3,""viewing_time"":27044},{""page_index"":4,""viewing_time"":1139}]","92847","","","","","","","","","","","","","","","","","","","","","","","","","","","","","","","","","","","","","","","","","","","","","","","",""
"","","","survey-multi-choice","55","605722","0.0-53.0-1.0","0","0","6mfmY","People","","27982","{""Q0"":""True"",""Q1"":""True"",""Q2"":""Consider carefully and take your time (up to 10 seconds)"",""Q3"":""True"",""Q4"":""D""}","deliberation_comprehension_check","0","","","","","","","","","","","","","","","","","","","","","","","","","","","","","","","","","","","","","","","","","","","","",""
"","start_phase","","html-keyboard-response","56","608153","0.0-54.0","0","0","6mfmY","People","","2429","","","","78","","","","","","","","","","","","","","","","","","","","","","","","","","","","","","","","","","","","","","","","","","","",""
"","first_deliberation_block","","html-keyboard-response","57","610143","0.0-55.0","0","0","6mfmY","People","","1988","","","","78","","","","","","","","","","","","","","","","","","","","","","","","","","","","","","","","","","","","","","","","","","","",""
"","fixation","","html-keyboard-response","58","611148","0.0-56.0-0.0","0","0","6mfmY","People","","null","","","","null","","","","","","","","","","","","","","","","","","","","","","","","","","","","","","","","","","","","","","","","","","","",""
"","deliberation","","html-keyboard-response","59","615350","0.0-56.0-1.0","0","0","6mfmY","People","","4200","","","","75","","","","0","24","15","0","-1","84","88","joel-mott-LaK153ghdig-unsplash.jpg","gabriel-silverio-u3WmDyKGsrY-unsplash.jpg","1","0","15","24","","","","","","","","","","","","","","","","","","","","","","","","","","","",""
"","choice_confirmation","","html-keyboard-response","60","615853","0.0-56.0-2.0-0.0","0","0","6mfmY","People","","null","","","","null","","","","0","24","15","","","","","","","","","","","","","","","","","","","","","","","","","","","","","","","","","","","","","",""
"","fixation","","html-keyboard-response","61","616858","0.0-57.0-0.0","0","0","6mfmY","People","","null","","","","null","","","","","","","","","","","","","","","","","","","","","","","","","","","","","","","","","","","","","","","","","","","",""
"","deliberation","","html-keyboard-response","62","617830","0.0-57.0-1.0","0","0","6mfmY","People","","970","","","","75","","","","1","23","48","0","-1","88","93","joanna-nix-walkup-H4fEMshfwTE-unsplash.jpg","velizar-ivanov-7ktP9yZA1g4-unsplash.jpg","1","0","48","23","","","","","","","","","","","","","","","","","","","","","","","","","","","",""
"","choice_confirmation","","html-keyboard-response","63","618332","0.0-57.0-2.0-0.0","0","0","6mfmY","People","","null","","","","null","","","","1","23","48","","","","","","","","","","","","","","","","","","","","","","","","","","","","","","","","","","","","","",""
"","fixation","","html-keyboard-response","64","619338","0.0-58.0-0.0","0","0","6mfmY","People","","null","","","","null","","","","","","","","","","","","","","","","","","","","","","","","","","","","","","","","","","","","","","","","","","","",""
"","deliberation","","html-keyboard-response","65","620352","0.0-58.0-1.0","0","0","6mfmY","People","","1013","","","","68","","","","2","20","26","1","1","87","87","houcine-ncib-B4TjXnI0Y2c-unsplash.jpg","juri-gianfrancesco-9EZadYaMzk4-unsplash.jpg","1","1","20","26","","","","","","","","","","","","","","","","","","","","","","","","","","","",""
"","choice_confirmation","","html-keyboard-response","66","620854","0.0-58.0-2.0-0.0","0","0","6mfmY","People","","null","","","","null","","","","2","20","26","","","","","","","","","","","","","","","","","","","","","","","","","","","","","","","","","","","","","",""
"","explain_trial","","survey-text","67","628495","0.0-58.0-5.0-0.0","0","0","6mfmY","People","","7639","{""Q0"":""its cooler""}","","","","","","","2","20","26","","","","","","","","","","","{""Q0"":""its cooler""}","","","","","","","","","","","","","","","","","","","","","","","","","","",""
"","fixation","","html-keyboard-response","68","629497","0.0-59.0-0.0","0","0","6mfmY","People","","null","","","","null","","","","","","","","","","","","","","","","","","","","","","","","","","","","","","","","","","","","","","","","","","","",""
"","deliberation","","html-keyboard-response","69","630298","0.0-59.0-1.0","0","0","6mfmY","People","","799","","","","75","","","","3","21","38","1","-1","91","74","jessica-felicio-_cvwXhGqG-o-unsplash.jpg","petr-sevcovic-HzDF-rxlSeM-unsplash.jpg","1","0","38","21","","","","","","","","","","","","","","","","","","","","","","","","","","","",""
"","choice_confirmation","","html-keyboard-response","70","630799","0.0-59.0-2.0-0.0","0","0","6mfmY","People","","null","","","","null","","","","3","21","38","","","","","","","","","","","","","","","","","","","","","","","","","","","","","","","","","","","","","",""
"","explain_trial","","survey-text","71","639004","0.0-59.0-5.0-0.0","0","0","6mfmY","People","","8204","{""Q0"":""its colors are cool\n""}","","","","","","","3","21","38","","","","","","","","","","","{""Q0"":""its colors are cool\n""}","","","","","","","","","","","","","","","","","","","","","","","","","","",""
"","fixation","","html-keyboard-response","72","640007","0.0-60.0-0.0","0","0","6mfmY","People","","null","","","","null","","","","","","","","","","","","","","","","","","","","","","","","","","","","","","","","","","","","","","","","","","","",""
"","deliberation","","html-keyboard-response","73","640877","0.0-60.0-1.0","0","0","6mfmY","People","","869","","","","75","","","","4","49","29","1","-1","91","93","vicky-hladynets-_gDoyVv5F4c-unsplash.jpg","leilani-angel-K84vnnzxmTQ-unsplash.jpg","1","0","29","49","","","","","","","","","","","","","","","","","","","","","","","","","","","",""
"","choice_confirmation","","html-keyboard-response","74","641378","0.0-60.0-2.0-0.0","0","0","6mfmY","People","","null","","","","null","","","","4","49","29","","","","","","","","","","","","","","","","","","","","","","","","","","","","","","","","","","","","","",""
"","explain_trial","","survey-text","75","646161","0.0-60.0-5.0-0.0","0","0","6mfmY","People","","4782","{""Q0"":""clearer""}","","","","","","","4","49","29","","","","","","","","","","","{""Q0"":""clearer""}","","","","","","","","","","","","","","","","","","","","","","","","","","",""
"","fixation","","html-keyboard-response","76","647167","0.0-61.0-0.0","0","0","6mfmY","People","","null","","","","null","","","","","","","","","","","","","","","","","","","","","","","","","","","","","","","","","","","","","","","","","","","",""
"","deliberation","","html-keyboard-response","77","648279","0.0-61.0-1.0","0","0","6mfmY","People","","1111","","","","75","","","","5","39","9","1","1","92","78","philip-martin-5aGUyCW_PJw-unsplash.jpg","carlos-andres-gomez-vJuk8Y86mRw-unsplash.jpg","1","0","9","39","","","","","","","","","","","","","","","","","","","","","","","","","","","",""
"","choice_confirmation","","html-keyboard-response","78","648782","0.0-61.0-2.0-0.0","0","0","6mfmY","People","","null","","","","null","","","","5","39","9","","","","","","","","","","","","","","","","","","","","","","","","","","","","","","","","","","","","","",""
"","explain_trial","","survey-text","79","652966","0.0-61.0-5.0-0.0","0","0","6mfmY","People","","4183","{""Q0"":""dynamic""}","","","","","","","5","39","9","","","","","","","","","","","{""Q0"":""dynamic""}","","","","","","","","","","","","","","","","","","","","","","","","","","",""
"","fixation","","html-keyboard-response","80","653971","0.0-62.0-0.0","0","0","6mfmY","People","","null","","","","null","","","","","","","","","","","","","","","","","","","","","","","","","","","","","","","","","","","","","","","","","","","",""
"","deliberation","","html-keyboard-response","81","658022","0.0-62.0-1.0","0","0","6mfmY","People","","4049","","","","75","","","","6","8","30","0","1","75","90","bruce-dixon-3M9WJQVHzog-unsplash.jpg","matheus-ferrero-pg_WCHWSdT8-unsplash.jpg","1","0","30","8","","","","","","","","","","","","","","","","","","","","","","","","","","","",""
"","choice_confirmation","","html-keyboard-response","82","658524","0.0-62.0-2.0-0.0","0","0","6mfmY","People","","null","","","","null","","","","6","8","30","","","","","","","","","","","","","","","","","","","","","","","","","","","","","","","","","","","","","",""
"","fixation","","html-keyboard-response","83","659531","0.0-63.0-0.0","0","0","6mfmY","People","","null","","","","null","","","","","","","","","","","","","","","","","","","","","","","","","","","","","","","","","","","","","","","","","","","",""
"","deliberation","","html-keyboard-response","84","662606","0.0-63.0-1.0","0","0","6mfmY","People","","3074","","","","75","","","","7","27","12","0","-1","90","88","jurica-koletic-7YVZYZeITc8-unsplash.jpg","daniel-rigdon-dXmXKPP2L4E-unsplash.jpg","1","0","12","27","","","","","","","","","","","","","","","","","","","","","","","","","","","",""
"","choice_confirmation","","html-keyboard-response","85","663111","0.0-63.0-2.0-0.0","0","0","6mfmY","People","","null","","","","null","","","","7","27","12","","","","","","","","","","","","","","","","","","","","","","","","","","","","","","","","","","","","","",""
"","fixation","","html-keyboard-response","86","664114","0.0-64.0-0.0","0","0","6mfmY","People","","null","","","","null","","","","","","","","","","","","","","","","","","","","","","","","","","","","","","","","","","","","","","","","","","","",""
"","deliberation","","html-keyboard-response","87","665098","0.0-64.0-1.0","0","0","6mfmY","People","","983","","","","75","","","","8","36","33","0","-1","68","80","ospan-ali-mGdA2fzjWLo-unsplash.jpg","olena-sergienko-0TSd6uCKTKc-unsplash.jpg","1","0","33","36","","","","","","","","","","","","","","","","","","","","","","","","","","","",""
"","choice_confirmation","","html-keyboard-response","88","665600","0.0-64.0-2.0-0.0","0","0","6mfmY","People","","null","","","","null","","","","8","36","33","","","","","","","","","","","","","","","","","","","","","","","","","","","","","","","","","","","","","",""
"","fixation","","html-keyboard-response","89","666602","0.0-65.0-0.0","0","0","6mfmY","People","","null","","","","null","","","","","","","","","","","","","","","","","","","","","","","","","","","","","","","","","","","","","","","","","","","",""
"","deliberation","","html-keyboard-response","90","667957","0.0-65.0-1.0","0","0","6mfmY","People","","1353","","","","68","","","","9","43","19","1","1","90","92","raamin-ka-0qJBEzudn5E-unsplash.jpg","ha-nguy-n-OFSQ6bHjFjs-unsplash.jpg","1","1","43","19","","","","","","","","","","","","","","","","","","","","","","","","","","","",""
"","choice_confirmation","","html-keyboard-response","91","668460","0.0-65.0-2.0-0.0","0","0","6mfmY","People","","null","","","","null","","","","9","43","19","","","","","","","","","","","","","","","","","","","","","","","","","","","","","","","","","","","","","",""
"","explain_trial","","survey-text","92","672999","0.0-65.0-5.0-0.0","0","0","6mfmY","People","","4538","{""Q0"":""cooler""}","","","","","","","9","43","19","","","","","","","","","","","{""Q0"":""cooler""}","","","","","","","","","","","","","","","","","","","","","","","","","","",""
"","fixation","","html-keyboard-response","93","674004","0.0-66.0-0.0","0","0","6mfmY","People","","null","","","","null","","","","","","","","","","","","","","","","","","","","","","","","","","","","","","","","","","","","","","","","","","","",""
"","deliberation","","html-keyboard-response","94","677903","0.0-66.0-1.0","0","0","6mfmY","People","","3898","","","","75","","","","10","1","32","0","1","93","71","aiony-haust-jmATI5Q_YgY-unsplash.jpg","nathan-dumlao-ger61_TX6oI-unsplash.jpg","1","0","32","1","","","","","","","","","","","","","","","","","","","","","","","","","","","",""
"","choice_confirmation","","html-keyboard-response","95","678405","0.0-66.0-2.0-0.0","0","0","6mfmY","People","","null","","","","null","","","","10","1","32","","","","","","","","","","","","","","","","","","","","","","","","","","","","","","","","","","","","","",""
"","fixation","","html-keyboard-response","96","679408","0.0-67.0-0.0","0","0","6mfmY","People","","null","","","","null","","","","","","","","","","","","","","","","","","","","","","","","","","","","","","","","","","","","","","","","","","","",""
"","deliberation","","html-keyboard-response","97","683542","0.0-67.0-1.0","0","0","6mfmY","People","","4133","","","","75","","","","11","0","45","1","1","89","88","abstral-official-cyOKLSgkgCE-unsplash.jpg","sarah-noltner-pL5ZzPp1zqg-unsplash.jpg","1","0","45","0","","","","","","","","","","","","","","","","","","","","","","","","","","","",""
"","choice_confirmation","","html-keyboard-response","98","684048","0.0-67.0-2.0-0.0","0","0","6mfmY","People","","null","","","","null","","","","11","0","45","","","","","","","","","","","","","","","","","","","","","","","","","","","","","","","","","","","","","",""
"","explain_trial","","survey-text","99","749268","0.0-67.0-5.0-0.0","0","0","6mfmY","People","","65219","{""Q0"":""its better""}","","","","","","","11","0","45","","","","","","","","","","","{""Q0"":""its better""}","","","","","","","","","","","","","","","","","","","","","","","","","","",""
"","practice_deliberation_again","","html-keyboard-response","100","750662","0.0-67.0-6.0-0.0","0","0","6mfmY","People","","1393","","","","78","","","","","","","","","","","","","","","","","","","","","","","","","","","","","","","","","","","","","","","","","","","",""
"","fixation","","html-keyboard-response","101","751669","0.0-68.0-0.0","0","0","6mfmY","People","","null","","","","null","","","","","","","","","","","","","","","","","","","","","","","","","","","","","","","","","","","","","","","","","","","",""
"","deliberation","","html-keyboard-response","102","752527","0.0-68.0-1.0","0","0","6mfmY","People","","856","","","","75","","","","12","23","48","1","-1","88","93","joanna-nix-walkup-H4fEMshfwTE-unsplash.jpg","velizar-ivanov-7ktP9yZA1g4-unsplash.jpg","2","0","48","23","","","","","","","","","","","","","","","","","","","","","","","","","","","",""
"","choice_confirmation","","html-keyboard-response","103","753029","0.0-68.0-2.0-0.0","0","0","6mfmY","People","","null","","","","null","","","","12","23","48","","","","","","","","","","","","","","","","","","","","","","","","","","","","","","","","","","","","","",""
"","explain_trial","","survey-text","104","756918","0.0-68.0-5.0-0.0","0","0","6mfmY","People","","3887","{""Q0"":""clearer""}","","","","","","","12","23","48","","","","","","","","","","","{""Q0"":""clearer""}","","","","","","","","","","","","","","","","","","","","","","","","","","",""
"","fixation","","html-keyboard-response","105","757921","0.0-69.0-0.0","0","0","6mfmY","People","","null","","","","null","","","","","","","","","","","","","","","","","","","","","","","","","","","","","","","","","","","","","","","","","","","",""
"","deliberation","","html-keyboard-response","106","759053","0.0-69.0-1.0","0","0","6mfmY","People","","1130","","","","75","","","","13","24","15","1","-1","84","88","joel-mott-LaK153ghdig-unsplash.jpg","gabriel-silverio-u3WmDyKGsrY-unsplash.jpg","2","0","15","24","","","","","","","","","","","","","","","","","","","","","","","","","","","",""
"","choice_confirmation","","html-keyboard-response","107","759555","0.0-69.0-2.0-0.0","0","0","6mfmY","People","","null","","","","null","","","","13","24","15","","","","","","","","","","","","","","","","","","","","","","","","","","","","","","","","","","","","","",""
"","explain_trial","","survey-text","108","764795","0.0-69.0-5.0-0.0","0","0","6mfmY","People","","5238","{""Q0"":""colorful""}","","","","","","","13","24","15","","","","","","","","","","","{""Q0"":""colorful""}","","","","","","","","","","","","","","","","","","","","","","","","","","",""
"","fixation","","html-keyboard-response","109","765801","0.0-70.0-0.0","0","0","6mfmY","People","","null","","","","null","","","","","","","","","","","","","","","","","","","","","","","","","","","","","","","","","","","","","","","","","","","",""
"","deliberation","","html-keyboard-response","110","766765","0.0-70.0-1.0","0","0","6mfmY","People","","962","","","","75","","","","14","39","9","0","1","92","78","philip-martin-5aGUyCW_PJw-unsplash.jpg","carlos-andres-gomez-vJuk8Y86mRw-unsplash.jpg","2","0","9","39","","","","","","","","","","","","","","","","","","","","","","","","","","","",""
"","choice_confirmation","","html-keyboard-response","111","767267","0.0-70.0-2.0-0.0","0","0","6mfmY","People","","null","","","","null","","","","14","39","9","","","","","","","","","","","","","","","","","","","","","","","","","","","","","","","","","","","","","",""
"","fixation","","html-keyboard-response","112","768271","0.0-71.0-0.0","0","0","6mfmY","People","","null","","","","null","","","","","","","","","","","","","","","","","","","","","","","","","","","","","","","","","","","","","","","","","","","",""
"","deliberation","","html-keyboard-response","113","768952","0.0-71.0-1.0","0","0","6mfmY","People","","679","","","","68","","","","15","43","19","0","1","90","92","raamin-ka-0qJBEzudn5E-unsplash.jpg","ha-nguy-n-OFSQ6bHjFjs-unsplash.jpg","2","1","43","19","","","","","","","","","","","","","","","","","","","","","","","","","","","",""
"","choice_confirmation","","html-keyboard-response","114","769455","0.0-71.0-2.0-0.0","0","0","6mfmY","People","","null","","","","null","","","","15","43","19","","","","","","","","","","","","","","","","","","","","","","","","","","","","","","","","","","","","","",""
"","fixation","","html-keyboard-response","115","770461","0.0-72.0-0.0","0","0","6mfmY","People","","null","","","","null","","","","","","","","","","","","","","","","","","","","","","","","","","","","","","","","","","","","","","","","","","","",""
"","deliberation","","html-keyboard-response","116","771082","0.0-72.0-1.0","0","0","6mfmY","People","","619","","","","75","","","","16","8","30","1","1","75","90","bruce-dixon-3M9WJQVHzog-unsplash.jpg","matheus-ferrero-pg_WCHWSdT8-unsplash.jpg","2","0","30","8","","","","","","","","","","","","","","","","","","","","","","","","","","","",""
"","choice_confirmation","","html-keyboard-response","117","771587","0.0-72.0-2.0-0.0","0","0","6mfmY","People","","null","","","","null","","","","16","8","30","","","","","","","","","","","","","","","","","","","","","","","","","","","","","","","","","","","","","",""
"","explain_trial","","survey-text","118","774964","0.0-72.0-5.0-0.0","0","0","6mfmY","People","","3376","{""Q0"":""cooler""}","","","","","","","16","8","30","","","","","","","","","","","{""Q0"":""cooler""}","","","","","","","","","","","","","","","","","","","","","","","","","","",""
"","fixation","","html-keyboard-response","119","775969","0.0-73.0-0.0","0","0","6mfmY","People","","null","","","","null","","","","","","","","","","","","","","","","","","","","","","","","","","","","","","","","","","","","","","","","","","","",""
"","deliberation","","html-keyboard-response","120","777977","0.0-73.0-1.0","0","0","6mfmY","People","","2006","","","","75","","","","17","0","45","0","1","89","88","abstral-official-cyOKLSgkgCE-unsplash.jpg","sarah-noltner-pL5ZzPp1zqg-unsplash.jpg","2","0","45","0","","","","","","","","","","","","","","","","","","","","","","","","","","","",""
"","choice_confirmation","","html-keyboard-response","121","778481","0.0-73.0-2.0-0.0","0","0","6mfmY","People","","null","","","","null","","","","17","0","45","","","","","","","","","","","","","","","","","","","","","","","","","","","","","","","","","","","","","",""
"","fixation","","html-keyboard-response","122","779483","0.0-74.0-0.0","0","0","6mfmY","People","","null","","","","null","","","","","","","","","","","","","","","","","","","","","","","","","","","","","","","","","","","","","","","","","","","",""
"","deliberation","","html-keyboard-response","123","780570","0.0-74.0-1.0","0","0","6mfmY","People","","1086","","","","68","","","","18","20","26","0","1","87","87","houcine-ncib-B4TjXnI0Y2c-unsplash.jpg","juri-gianfrancesco-9EZadYaMzk4-unsplash.jpg","2","1","20","26","","","","","","","","","","","","","","","","","","","","","","","","","","","",""
"","choice_confirmation","","html-keyboard-response","124","781071","0.0-74.0-2.0-0.0","0","0","6mfmY","People","","null","","","","null","","","","18","20","26","","","","","","","","","","","","","","","","","","","","","","","","","","","","","","","","","","","","","",""
"","fixation","","html-keyboard-response","125","782075","0.0-75.0-0.0","0","0","6mfmY","People","","null","","","","null","","","","","","","","","","","","","","","","","","","","","","","","","","","","","","","","","","","","","","","","","","","",""
"","deliberation","","html-keyboard-response","126","783183","0.0-75.0-1.0","0","0","6mfmY","People","","1108","","","","75","","","","19","36","33","1","-1","68","80","ospan-ali-mGdA2fzjWLo-unsplash.jpg","olena-sergienko-0TSd6uCKTKc-unsplash.jpg","2","0","33","36","","","","","","","","","","","","","","","","","","","","","","","","","","","",""
"","choice_confirmation","","html-keyboard-response","127","783685","0.0-75.0-2.0-0.0","0","0","6mfmY","People","","null","","","","null","","","","19","36","33","","","","","","","","","","","","","","","","","","","","","","","","","","","","","","","","","","","","","",""
"","explain_trial","","survey-text","128","787153","0.0-75.0-5.0-0.0","0","0","6mfmY","People","","3466","{""Q0"":""cooler""}","","","","","","","19","36","33","","","","","","","","","","","{""Q0"":""cooler""}","","","","","","","","","","","","","","","","","","","","","","","","","","",""
"","fixation","","html-keyboard-response","129","788154","0.0-76.0-0.0","0","0","6mfmY","People","","null","","","","null","","","","","","","","","","","","","","","","","","","","","","","","","","","","","","","","","","","","","","","","","","","",""
"","deliberation","","html-keyboard-response","130","789885","0.0-76.0-1.0","0","0","6mfmY","People","","1729","","","","68","","","","20","1","32","1","1","93","71","aiony-haust-jmATI5Q_YgY-unsplash.jpg","nathan-dumlao-ger61_TX6oI-unsplash.jpg","2","1","1","32","","","","","","","","","","","","","","","","","","","","","","","","","","","",""
"","choice_confirmation","","html-keyboard-response","131","790388","0.0-76.0-2.0-0.0","0","0","6mfmY","People","","null","","","","null","","","","20","1","32","","","","","","","","","","","","","","","","","","","","","","","","","","","","","","","","","","","","","",""
"","explain_trial","","survey-text","132","794888","0.0-76.0-5.0-0.0","0","0","6mfmY","People","","4498","{""Q0"":""smoother""}","","","","","","","20","1","32","","","","","","","","","","","{""Q0"":""smoother""}","","","","","","","","","","","","","","","","","","","","","","","","","","",""
"","fixation","","html-keyboard-response","133","795892","0.0-77.0-0.0","0","0","6mfmY","People","","null","","","","null","","","","","","","","","","","","","","","","","","","","","","","","","","","","","","","","","","","","","","","","","","","",""
"","deliberation","","html-keyboard-response","134","797282","0.0-77.0-1.0","0","0","6mfmY","People","","1389","","","","68","","","","21","27","12","1","-1","90","88","jurica-koletic-7YVZYZeITc8-unsplash.jpg","daniel-rigdon-dXmXKPP2L4E-unsplash.jpg","2","1","27","12","","","","","","","","","","","","","","","","","","","","","","","","","","","",""
"","choice_confirmation","","html-keyboard-response","135","797784","0.0-77.0-2.0-0.0","0","0","6mfmY","People","","null","","","","null","","","","21","27","12","","","","","","","","","","","","","","","","","","","","","","","","","","","","","","","","","","","","","",""
"","explain_trial","","survey-text","136","804141","0.0-77.0-5.0-0.0","0","0","6mfmY","People","","6355","{""Q0"":""cold tone""}","","","","","","","21","27","12","","","","","","","","","","","{""Q0"":""cold tone""}","","","","","","","","","","","","","","","","","","","","","","","","","","",""
"","fixation","","html-keyboard-response","137","805144","0.0-78.0-0.0","0","0","6mfmY","People","","null","","","","null","","","","","","","","","","","","","","","","","","","","","","","","","","","","","","","","","","","","","","","","","","","",""
"","deliberation","","html-keyboard-response","138","808899","0.0-78.0-1.0","0","0","6mfmY","People","","3755","","","","75","","","","22","21","38","0","-1","91","74","jessica-felicio-_cvwXhGqG-o-unsplash.jpg","petr-sevcovic-HzDF-rxlSeM-unsplash.jpg","2","0","38","21","","","","","","","","","","","","","","","","","","","","","","","","","","","",""
"","choice_confirmation","","html-keyboard-response","139","809402","0.0-78.0-2.0-0.0","0","0","6mfmY","People","","null","","","","null","","","","22","21","38","","","","","","","","","","","","","","","","","","","","","","","","","","","","","","","","","","","","","",""
"","fixation","","html-keyboard-response","140","810404","0.0-79.0-0.0","0","0","6mfmY","People","","null","","","","null","","","","","","","","","","","","","","","","","","","","","","","","","","","","","","","","","","","","","","","","","","","",""
"","deliberation","","html-keyboard-response","141","811197","0.0-79.0-1.0","0","0","6mfmY","People","","791","","","","75","","","","23","49","29","0","-1","91","93","vicky-hladynets-_gDoyVv5F4c-unsplash.jpg","leilani-angel-K84vnnzxmTQ-unsplash.jpg","2","0","29","49","","","","","","","","","","","","","","","","","","","","","","","","","","","",""
"","choice_confirmation","","html-keyboard-response","142","811699","0.0-79.0-2.0-0.0","0","0","6mfmY","People","","null","","","","null","","","","23","49","29","","","","","","","","","","","","","","","","","","","","","","","","","","","","","","","","","","","","","",""
"","start_critical_deliberation_block","","html-keyboard-response","143","813405","0.0-79.0-7.0-0.0","0","0","6mfmY","People","","1706","","","","78","","","","","","","","","","","","","","","","","","","","","","","","","","","","","","","","","","","","","","","","","","","",""
"","fixation","","html-keyboard-response","144","814409","0.0-80.0-0.0","0","0","6mfmY","People","","null","","","","null","","","","","","","","","","","","","","","","","","","","","","","","","","","","","","","","","","","","","","","","","","","",""
"","deliberation","","html-keyboard-response","145","815186","0.0-80.0-1.0","0","0","6mfmY","People","","775","","","","75","","","","24","39","9","0","1","92","78","philip-martin-5aGUyCW_PJw-unsplash.jpg","carlos-andres-gomez-vJuk8Y86mRw-unsplash.jpg","3","0","9","39","","","","","","","","","","","","","","","","","","","","","","","","","","","",""
"","choice_confirmation","","html-keyboard-response","146","815688","0.0-80.0-2.0-0.0","0","0","6mfmY","People","","null","","","","null","","","","24","39","9","","","","","","","","","","","","","","","","","","","","","","","","","","","","","","","","","","","","","",""
"","fixation","","html-keyboard-response","147","816691","0.0-81.0-0.0","0","0","6mfmY","People","","null","","","","null","","","","","","","","","","","","","","","","","","","","","","","","","","","","","","","","","","","","","","","","","","","",""
"","deliberation","","html-keyboard-response","148","817373","0.0-81.0-1.0","0","0","6mfmY","People","","681","","","","75","","","","25","8","30","0","1","75","90","bruce-dixon-3M9WJQVHzog-unsplash.jpg","matheus-ferrero-pg_WCHWSdT8-unsplash.jpg","3","0","30","8","","","","","","","","","","","","","","","","","","","","","","","","","","","",""
"","choice_confirmation","","html-keyboard-response","149","817875","0.0-81.0-2.0-0.0","0","0","6mfmY","People","","null","","","","null","","","","25","8","30","","","","","","","","","","","","","","","","","","","","","","","","","","","","","","","","","","","","","",""
"","fixation","","html-keyboard-response","150","818879","0.0-82.0-0.0","0","0","6mfmY","People","","null","","","","null","","","","","","","","","","","","","","","","","","","","","","","","","","","","","","","","","","","","","","","","","","","",""
"","deliberation","","html-keyboard-response","151","819499","0.0-82.0-1.0","0","0","6mfmY","People","","619","","","","75","","","","26","21","38","0","-1","91","74","jessica-felicio-_cvwXhGqG-o-unsplash.jpg","petr-sevcovic-HzDF-rxlSeM-unsplash.jpg","3","0","38","21","","","","","","","","","","","","","","","","","","","","","","","","","","","",""
"","choice_confirmation","","html-keyboard-response","152","820002","0.0-82.0-2.0-0.0","0","0","6mfmY","People","","null","","","","null","","","","26","21","38","","","","","","","","","","","","","","","","","","","","","","","","","","","","","","","","","","","","","",""
"","fixation","","html-keyboard-response","153","821004","0.0-83.0-0.0","0","0","6mfmY","People","","null","","","","null","","","","","","","","","","","","","","","","","","","","","","","","","","","","","","","","","","","","","","","","","","","",""
"","deliberation","","html-keyboard-response","154","821493","0.0-83.0-1.0","0","0","6mfmY","People","","487","","","","75","","","","27","43","19","0","1","90","92","raamin-ka-0qJBEzudn5E-unsplash.jpg","ha-nguy-n-OFSQ6bHjFjs-unsplash.jpg","3","0","19","43","","","","","","","","","","","","","","","","","","","","","","","","","","","",""
"","choice_confirmation","","html-keyboard-response","155","821998","0.0-83.0-2.0-0.0","0","0","6mfmY","People","","null","","","","null","","","","27","43","19","","","","","","","","","","","","","","","","","","","","","","","","","","","","","","","","","","","","","",""
"","fixation","","html-keyboard-response","156","823001","0.0-84.0-0.0","0","0","6mfmY","People","","null","","","","null","","","","","","","","","","","","","","","","","","","","","","","","","","","","","","","","","","","","","","","","","","","",""
"","deliberation","","html-keyboard-response","157","823862","0.0-84.0-1.0","0","0","6mfmY","People","","860","","","","75","","","","28","23","48","0","-1","88","93","joanna-nix-walkup-H4fEMshfwTE-unsplash.jpg","velizar-ivanov-7ktP9yZA1g4-unsplash.jpg","3","0","48","23","","","","","","","","","","","","","","","","","","","","","","","","","","","",""
"","choice_confirmation","","html-keyboard-response","158","824368","0.0-84.0-2.0-0.0","0","0","6mfmY","People","","null","","","","null","","","","28","23","48","","","","","","","","","","","","","","","","","","","","","","","","","","","","","","","","","","","","","",""
"","fixation","","html-keyboard-response","159","825369","0.0-85.0-0.0","0","0","6mfmY","People","","null","","","","null","","","","","","","","","","","","","","","","","","","","","","","","","","","","","","","","","","","","","","","","","","","",""
"","deliberation","","html-keyboard-response","160","826206","0.0-85.0-1.0","0","0","6mfmY","People","","835","","","","75","","","","29","36","33","0","-1","68","80","ospan-ali-mGdA2fzjWLo-unsplash.jpg","olena-sergienko-0TSd6uCKTKc-unsplash.jpg","3","0","33","36","","","","","","","","","","","","","","","","","","","","","","","","","","","",""
"","choice_confirmation","","html-keyboard-response","161","826708","0.0-85.0-2.0-0.0","0","0","6mfmY","People","","null","","","","null","","","","29","36","33","","","","","","","","","","","","","","","","","","","","","","","","","","","","","","","","","","","","","",""
"","fixation","","html-keyboard-response","162","827715","0.0-86.0-0.0","0","0","6mfmY","People","","null","","","","null","","","","","","","","","","","","","","","","","","","","","","","","","","","","","","","","","","","","","","","","","","","",""
"","deliberation","","html-keyboard-response","163","828404","0.0-86.0-1.0","0","0","6mfmY","People","","688","","","","75","","","","30","24","15","0","-1","84","88","joel-mott-LaK153ghdig-unsplash.jpg","gabriel-silverio-u3WmDyKGsrY-unsplash.jpg","3","0","15","24","","","","","","","","","","","","","","","","","","","","","","","","","","","",""
"","choice_confirmation","","html-keyboard-response","164","828907","0.0-86.0-2.0-0.0","0","0","6mfmY","People","","null","","","","null","","","","30","24","15","","","","","","","","","","","","","","","","","","","","","","","","","","","","","","","","","","","","","",""
"","fixation","","html-keyboard-response","165","829909","0.0-87.0-0.0","0","0","6mfmY","People","","null","","","","null","","","","","","","","","","","","","","","","","","","","","","","","","","","","","","","","","","","","","","","","","","","",""
"","deliberation","","html-keyboard-response","166","831044","0.0-87.0-1.0","0","0","6mfmY","People","","1134","","","","68","","","","31","27","12","0","-1","90","88","jurica-koletic-7YVZYZeITc8-unsplash.jpg","daniel-rigdon-dXmXKPP2L4E-unsplash.jpg","3","1","27","12","","","","","","","","","","","","","","","","","","","","","","","","","","","",""
"","choice_confirmation","","html-keyboard-response","167","831546","0.0-87.0-2.0-0.0","0","0","6mfmY","People","","null","","","","null","","","","31","27","12","","","","","","","","","","","","","","","","","","","","","","","","","","","","","","","","","","","","","",""
"","fixation","","html-keyboard-response","168","832550","0.0-88.0-0.0","0","0","6mfmY","People","","null","","","","null","","","","","","","","","","","","","","","","","","","","","","","","","","","","","","","","","","","","","","","","","","","",""
"","deliberation","","html-keyboard-response","169","833257","0.0-88.0-1.0","0","0","6mfmY","People","","706","","","","68","","","","32","20","26","0","1","87","87","houcine-ncib-B4TjXnI0Y2c-unsplash.jpg","juri-gianfrancesco-9EZadYaMzk4-unsplash.jpg","3","1","20","26","","","","","","","","","","","","","","","","","","","","","","","","","","","",""
"","choice_confirmation","","html-keyboard-response","170","833759","0.0-88.0-2.0-0.0","0","0","6mfmY","People","","null","","","","null","","","","32","20","26","","","","","","","","","","","","","","","","","","","","","","","","","","","","","","","","","","","","","",""
"","fixation","","html-keyboard-response","171","834762","0.0-89.0-0.0","0","0","6mfmY","People","","null","","","","null","","","","","","","","","","","","","","","","","","","","","","","","","","","","","","","","","","","","","","","","","","","",""
"","deliberation","","html-keyboard-response","172","835903","0.0-89.0-1.0","0","0","6mfmY","People","","1139","","","","75","","","","33","49","29","0","-1","91","93","vicky-hladynets-_gDoyVv5F4c-unsplash.jpg","leilani-angel-K84vnnzxmTQ-unsplash.jpg","3","0","29","49","","","","","","","","","","","","","","","","","","","","","","","","","","","",""
"","choice_confirmation","","html-keyboard-response","173","836405","0.0-89.0-2.0-0.0","0","0","6mfmY","People","","null","","","","null","","","","33","49","29","","","","","","","","","","","","","","","","","","","","","","","","","","","","","","","","","","","","","",""
"","fixation","","html-keyboard-response","174","837408","0.0-90.0-0.0","0","0","6mfmY","People","","null","","","","null","","","","","","","","","","","","","","","","","","","","","","","","","","","","","","","","","","","","","","","","","","","",""
"","deliberation","","html-keyboard-response","175","838206","0.0-90.0-1.0","0","0","6mfmY","People","","796","","","","68","","","","34","1","32","0","1","93","71","aiony-haust-jmATI5Q_YgY-unsplash.jpg","nathan-dumlao-ger61_TX6oI-unsplash.jpg","3","1","1","32","","","","","","","","","","","","","","","","","","","","","","","","","","","",""
"","choice_confirmation","","html-keyboard-response","176","838708","0.0-90.0-2.0-0.0","0","0","6mfmY","People","","null","","","","null","","","","34","1","32","","","","","","","","","","","","","","","","","","","","","","","","","","","","","","","","","","","","","",""
"","fixation","","html-keyboard-response","177","839712","0.0-91.0-0.0","0","0","6mfmY","People","","null","","","","null","","","","","","","","","","","","","","","","","","","","","","","","","","","","","","","","","","","","","","","","","","","",""
"","deliberation","","html-keyboard-response","178","840594","0.0-91.0-1.0","0","0","6mfmY","People","","881","","","","75","","","","35","0","45","0","1","89","88","abstral-official-cyOKLSgkgCE-unsplash.jpg","sarah-noltner-pL5ZzPp1zqg-unsplash.jpg","3","0","45","0","","","","","","","","","","","","","","","","","","","","","","","","","","","",""
"","choice_confirmation","","html-keyboard-response","179","841103","0.0-91.0-2.0-0.0","0","0","6mfmY","People","","null","","","","null","","","","35","0","45","","","","","","","","","","","","","","","","","","","","","","","","","","","","","","","","","","","","","",""
"","reward_learning_instructions","","instructions","180","859834","0.0-92.0-0.0","0","0","6mfmY","People","[{""page_index"":0,""viewing_time"":7551},{""page_index"":1,""viewing_time"":7573},{""page_index"":2,""viewing_time"":3605}]","18730","","","","","","","","","","","","","","","","","","","","","","","","","","","","","","","","","","","","","","","","","","","","","","","",""
"","","","survey-multi-choice","181","870067","0.0-92.0-1.0","0","0","6mfmY","People","","10228","{""Q0"":""True"",""Q1"":""True"",""Q2"":""Press the space bar to see its outcome"",""Q3"":""Press the relevant key while the outcome is presented""}","reward_comprehension_check","0","","","","","","","","","","","","","","","","","","","","","","","","","","","","","","","","","","","","","","","","","","","","",""
"","start_phase","","html-keyboard-response","182","871373","0.0-93.0","0","0","6mfmY","People","","1304","","","","78","","","","","","","","","","","","","","","","","","","","","","","","","","","","","","","","","","","","","","","","","","","",""
"","fixation","","html-keyboard-response","183","872379","0.0-94.0","0","0","6mfmY","People","","null","","","","null","","","","","","","","","","","","","","","","","","","","","","","","","","","","","","","","","","","","","","","","","","","",""
"","see_reward","","html-keyboard-response","184","872900","0.0-95.0","0","0","6mfmY","People","","520","","","","32","","38","","0","","","","-1","","","","","1","","","","","0","520","","","","","","","","","","","","","","","","","","","","","","","","",""
"","reward_outcome","","html-keyboard-response","185","874902","0.0-96.0","0","0","6mfmY","People","","null","","","","null","","38","","0","","","","","","","","","","","","","","","","NaN","null","","","","","","","","","","","","","","","","","","","","","","",""
"","respond_faster","","html-keyboard-response","186","876407","0.0-97.0-0.0","1","0","6mfmY","People","","null","","","","null","","","","","","","","","","","","","","","","","","","","","","","","","","","","","","","","","","","","","","","","","","","",""
"","fixation","","html-keyboard-response","187","877412","0.0-99.0","0","0","6mfmY","People","","null","","","","null","","","","","","","","","","","","","","","","","","","","","","","","","","","","","","","","","","","","","","","","","","","",""
"","see_reward","","html-keyboard-response","188","877859","0.0-100.0","0","0","6mfmY","People","","445","","","","32","","29","","1","","","","-1","","","","","1","","","","","0","445","","","","","","","","","","","","","","","","","","","","","","","","",""
"","reward_outcome","","html-keyboard-response","189","879861","0.0-101.0","0","0","6mfmY","People","","479","","","","40","","29","","1","","","","","","","","","","","","","","","","-1","479","","","","","","","","","","","","","","","","","","","","","","",""
"","fixation","","html-keyboard-response","190","880864","0.0-104.0","0","0","6mfmY","People","","null","","","","null","","","","","","","","","","","","","","","","","","","","","","","","","","","","","","","","","","","","","","","","","","","",""
"","see_reward","","html-keyboard-response","191","881674","0.0-105.0","0","0","6mfmY","People","","808","","","","32","","9","","2","","","","1","","","","","1","","","","","159","808","","","","","","","","","","","","","","","","","","","","","","","","",""
"","reward_outcome","","html-keyboard-response","192","883676","0.0-106.0","0","0","6mfmY","People","","1109","","","","38","","9","","2","","","","","","","","","","","","","","","","1","1109","","","","","","","","","","","","","","","","","","","","","","",""
"","fixation","","html-keyboard-response","193","884678","0.0-109.0","0","0","6mfmY","People","","null","","","","null","","","","","","","","","","","","","","","","","","","","","","","","","","","","","","","","","","","","","","","","","","","",""
"","see_reward","","html-keyboard-response","194","885354","0.0-110.0","0","0","6mfmY","People","","674","","","","32","","1","","3","","","","1","","","","","1","","","","","146","674","","","","","","","","","","","","","","","","","","","","","","","","",""
"","reward_outcome","","html-keyboard-response","195","887356","0.0-111.0","0","0","6mfmY","People","","887","","","","38","","1","","3","","","","","","","","","","","","","","","","1","887","","","","","","","","","","","","","","","","","","","","","","",""
"","fixation","","html-keyboard-response","196","888360","0.0-114.0","0","0","6mfmY","People","","null","","","","null","","","","","","","","","","","","","","","","","","","","","","","","","","","","","","","","","","","","","","","","","","","",""
"","see_reward","","html-keyboard-response","197","889053","0.0-115.0","0","0","6mfmY","People","","691","","","","32","","30","","4","","","","1","","","","","1","","","","","143","691","","","","","","","","","","","","","","","","","","","","","","","","",""
"","reward_outcome","","html-keyboard-response","198","891059","0.0-116.0","0","0","6mfmY","People","","1740","","","","38","","30","","4","","","","","","","","","","","","","","","","1","1740","","","","","","","","","","","","","","","","","","","","","","",""
"","fixation","","html-keyboard-response","199","892064","0.0-119.0","0","0","6mfmY","People","","null","","","","null","","","","","","","","","","","","","","","","","","","","","","","","","","","","","","","","","","","","","","","","","","","",""
"","see_reward","","html-keyboard-response","200","892768","0.0-120.0","0","0","6mfmY","People","","702","","","","32","","15","","5","","","","-1","","","","","1","","","","","0","702","","","","","","","","","","","","","","","","","","","","","","","","",""
"","reward_outcome","","html-keyboard-response","201","894774","0.0-121.0","0","0","6mfmY","People","","844","","","","40","","15","","5","","","","","","","","","","","","","","","","-1","844","","","","","","","","","","","","","","","","","","","","","","",""
"","fixation","","html-keyboard-response","202","895777","0.0-124.0","0","0","6mfmY","People","","null","","","","null","","","","","","","","","","","","","","","","","","","","","","","","","","","","","","","","","","","","","","","","","","","",""
"","see_reward","","html-keyboard-response","203","896385","0.0-125.0","0","0","6mfmY","People","","607","","","","32","","27","","6","","","","-1","","","","","1","","","","","0","607","","","","","","","","","","","","","","","","","","","","","","","","",""
"","reward_outcome","","html-keyboard-response","204","898388","0.0-126.0","0","0","6mfmY","People","","918","","","","40","","27","","6","","","","","","","","","","","","","","","","-1","918","","","","","","","","","","","","","","","","","","","","","","",""
"","fixation","","html-keyboard-response","205","899390","0.0-129.0","0","0","6mfmY","People","","null","","","","null","","","","","","","","","","","","","","","","","","","","","","","","","","","","","","","","","","","","","","","","","","","",""
"","see_reward","","html-keyboard-response","206","899990","0.0-130.0","0","0","6mfmY","People","","599","","","","32","","9","","7","","","","1","","","","","1","","","","","159","599","","","","","","","","","","","","","","","","","","","","","","","","",""
"","reward_outcome","","html-keyboard-response","207","901992","0.0-131.0","0","0","6mfmY","People","","784","","","","38","","9","","7","","","","","","","","","","","","","","","","1","784","","","","","","","","","","","","","","","","","","","","","","",""
"","fixation","","html-keyboard-response","208","902994","0.0-134.0","0","0","6mfmY","People","","null","","","","null","","","","","","","","","","","","","","","","","","","","","","","","","","","","","","","","","","","","","","","","","","","",""
"","see_reward","","html-keyboard-response","209","903549","0.0-135.0","0","0","6mfmY","People","","554","","","","32","","27","","8","","","","-1","","","","","1","","","","","0","554","","","","","","","","","","","","","","","","","","","","","","","","",""
"","reward_outcome","","html-keyboard-response","210","905551","0.0-136.0","0","0","6mfmY","People","","846","","","","40","","27","","8","","","","","","","","","","","","","","","","-1","846","","","","","","","","","","","","","","","","","","","","","","",""
"","fixation","","html-keyboard-response","211","906553","0.0-139.0","0","0","6mfmY","People","","null","","","","null","","","","","","","","","","","","","","","","","","","","","","","","","","","","","","","","","","","","","","","","","","","",""
"","see_reward","","html-keyboard-response","212","907025","0.0-140.0","0","0","6mfmY","People","","471","","","","32","","38","","9","","","","-1","","","","","1","","","","","0","471","","","","","","","","","","","","","","","","","","","","","","","","",""
"","reward_outcome","","html-keyboard-response","213","909031","0.0-141.0","0","0","6mfmY","People","","677","","","","40","","38","","9","","","","","","","","","","","","","","","","-1","677","","","","","","","","","","","","","","","","","","","","","","",""
"","fixation","","html-keyboard-response","214","910032","0.0-144.0","0","0","6mfmY","People","","null","","","","null","","","","","","","","","","","","","","","","","","","","","","","","","","","","","","","","","","","","","","","","","","","",""
"","see_reward","","html-keyboard-response","215","910592","0.0-145.0","0","0","6mfmY","People","","559","","","","32","","45","","10","","","","1","","","","","1","","","","","149","559","","","","","","","","","","","","","","","","","","","","","","","","",""
"","reward_outcome","","html-keyboard-response","216","912595","0.0-146.0","0","0","6mfmY","People","","644","","","","38","","45","","10","","","","","","","","","","","","","","","","1","644","","","","","","","","","","","","","","","","","","","","","","",""
"","fixation","","html-keyboard-response","217","913597","0.0-149.0","0","0","6mfmY","People","","null","","","","null","","","","","","","","","","","","","","","","","","","","","","","","","","","","","","","","","","","","","","","","","","","",""
"","see_reward","","html-keyboard-response","218","914190","0.0-150.0","0","0","6mfmY","People","","592","","","","32","","19","","11","","","","1","","","","","1","","","","","150","592","","","","","","","","","","","","","","","","","","","","","","","","",""
"","reward_outcome","","html-keyboard-response","219","916194","0.0-151.0","0","0","6mfmY","People","","1993","","","","38","","19","","11","","","","","","","","","","","","","","","","1","1993","","","","","","","","","","","","","","","","","","","","","","",""
"","fixation","","html-keyboard-response","220","917196","0.0-154.0","0","0","6mfmY","People","","null","","","","null","","","","","","","","","","","","","","","","","","","","","","","","","","","","","","","","","","","","","","","","","","","",""
"","see_reward","","html-keyboard-response","221","917683","0.0-155.0","0","0","6mfmY","People","","487","","","","32","","15","","12","","","","-1","","","","","1","","","","","0","487","","","","","","","","","","","","","","","","","","","","","","","","",""
"","reward_outcome","","html-keyboard-response","222","919688","0.0-156.0","0","0","6mfmY","People","","673","","","","40","","15","","12","","","","","","","","","","","","","","","","-1","673","","","","","","","","","","","","","","","","","","","","","","",""
"","fixation","","html-keyboard-response","223","920692","0.0-159.0","0","0","6mfmY","People","","null","","","","null","","","","","","","","","","","","","","","","","","","","","","","","","","","","","","","","","","","","","","","","","","","",""
"","see_reward","","html-keyboard-response","224","921230","0.0-160.0","0","0","6mfmY","People","","537","","","","32","","29","","13","","","","-1","","","","","1","","","","","0","537","","","","","","","","","","","","","","","","","","","","","","","","",""
"","reward_outcome","","html-keyboard-response","225","923232","0.0-161.0","0","0","6mfmY","People","","900","","","","40","","29","","13","","","","","","","","","","","","","","","","-1","900","","","","","","","","","","","","","","","","","","","","","","",""
"","fixation","","html-keyboard-response","226","924234","0.0-164.0","0","0","6mfmY","People","","null","","","","null","","","","","","","","","","","","","","","","","","","","","","","","","","","","","","","","","","","","","","","","","","","",""
"","see_reward","","html-keyboard-response","227","924677","0.0-165.0","0","0","6mfmY","People","","441","","","","32","","33","","14","","","","-1","","","","","1","","","","","0","441","","","","","","","","","","","","","","","","","","","","","","","","",""
"","reward_outcome","","html-keyboard-response","228","926682","0.0-166.0","0","0","6mfmY","People","","586","","","","40","","33","","14","","","","","","","","","","","","","","","","-1","586","","","","","","","","","","","","","","","","","","","","","","",""
"","fixation","","html-keyboard-response","229","927684","0.0-169.0","0","0","6mfmY","People","","null","","","","null","","","","","","","","","","","","","","","","","","","","","","","","","","","","","","","","","","","","","","","","","","","",""
"","see_reward","","html-keyboard-response","230","928249","0.0-170.0","0","0","6mfmY","People","","564","","","","32","","30","","15","","","","1","","","","","1","","","","","143","564","","","","","","","","","","","","","","","","","","","","","","","","",""
"","reward_outcome","","html-keyboard-response","231","930251","0.0-171.0","0","0","6mfmY","People","","710","","","","38","","30","","15","","","","","","","","","","","","","","","","1","710","","","","","","","","","","","","","","","","","","","","","","",""
"","fixation","","html-keyboard-response","232","931252","0.0-174.0","0","0","6mfmY","People","","null","","","","null","","","","","","","","","","","","","","","","","","","","","","","","","","","","","","","","","","","","","","","","","","","",""
"","see_reward","","html-keyboard-response","233","931683","0.0-175.0","0","0","6mfmY","People","","429","","","","32","","48","","16","","","","-1","","","","","1","","","","","0","429","","","","","","","","","","","","","","","","","","","","","","","","",""
"","reward_outcome","","html-keyboard-response","234","933685","0.0-176.0","0","0","6mfmY","People","","545","","","","40","","48","","16","","","","","","","","","","","","","","","","-1","545","","","","","","","","","","","","","","","","","","","","","","",""
"","fixation","","html-keyboard-response","235","934688","0.0-179.0","0","0","6mfmY","People","","null","","","","null","","","","","","","","","","","","","","","","","","","","","","","","","","","","","","","","","","","","","","","","","","","",""
"","see_reward","","html-keyboard-response","236","935215","0.0-180.0","0","0","6mfmY","People","","526","","","","32","","20","","17","","","","1","","","","","1","","","","","160","526","","","","","","","","","","","","","","","","","","","","","","","","",""
"","reward_outcome","","html-keyboard-response","237","937220","0.0-181.0","0","0","6mfmY","People","","580","","","","38","","20","","17","","","","","","","","","","","","","","","","1","580","","","","","","","","","","","","","","","","","","","","","","",""
"","fixation","","html-keyboard-response","238","938223","0.0-184.0","0","0","6mfmY","People","","null","","","","null","","","","","","","","","","","","","","","","","","","","","","","","","","","","","","","","","","","","","","","","","","","",""
"","see_reward","","html-keyboard-response","239","938719","0.0-185.0","0","0","6mfmY","People","","495","","","","32","","45","","18","","","","1","","","","","1","","","","","149","495","","","","","","","","","","","","","","","","","","","","","","","","",""
"","reward_outcome","","html-keyboard-response","240","940725","0.0-186.0","0","0","6mfmY","People","","567","","","","38","","45","","18","","","","","","","","","","","","","","","","1","567","","","","","","","","","","","","","","","","","","","","","","",""
"","fixation","","html-keyboard-response","241","941727","0.0-189.0","0","0","6mfmY","People","","null","","","","null","","","","","","","","","","","","","","","","","","","","","","","","","","","","","","","","","","","","","","","","","","","",""
"","see_reward","","html-keyboard-response","242","942197","0.0-190.0","0","0","6mfmY","People","","469","","","","32","","20","","19","","","","1","","","","","1","","","","","160","469","","","","","","","","","","","","","","","","","","","","","","","","",""
"","reward_outcome","","html-keyboard-response","243","944204","0.0-191.0","0","0","6mfmY","People","","616","","","","38","","20","","19","","","","","","","","","","","","","","","","1","616","","","","","","","","","","","","","","","","","","","","","","",""
"","fixation","","html-keyboard-response","244","945207","0.0-194.0","0","0","6mfmY","People","","null","","","","null","","","","","","","","","","","","","","","","","","","","","","","","","","","","","","","","","","","","","","","","","","","",""
"","see_reward","","html-keyboard-response","245","945573","0.0-195.0","0","0","6mfmY","People","","365","","","","32","","1","","20","","","","1","","","","","1","","","","","146","365","","","","","","","","","","","","","","","","","","","","","","","","",""
"","reward_outcome","","html-keyboard-response","246","947576","0.0-196.0","0","0","6mfmY","People","","683","","","","38","","1","","20","","","","","","","","","","","","","","","","1","683","","","","","","","","","","","","","","","","","","","","","","",""
"","fixation","","html-keyboard-response","247","948582","0.0-199.0","0","0","6mfmY","People","","null","","","","null","","","","","","","","","","","","","","","","","","","","","","","","","","","","","","","","","","","","","","","","","","","",""
"","see_reward","","html-keyboard-response","248","949132","0.0-200.0","0","0","6mfmY","People","","548","","","","32","","48","","21","","","","-1","","","","","1","","","","","0","548","","","","","","","","","","","","","","","","","","","","","","","","",""
"","reward_outcome","","html-keyboard-response","249","951134","0.0-201.0","0","0","6mfmY","People","","603","","","","40","","48","","21","","","","","","","","","","","","","","","","-1","603","","","","","","","","","","","","","","","","","","","","","","",""
"","fixation","","html-keyboard-response","250","952139","0.0-204.0","0","0","6mfmY","People","","null","","","","null","","","","","","","","","","","","","","","","","","","","","","","","","","","","","","","","","","","","","","","","","","","",""
"","see_reward","","html-keyboard-response","251","952642","0.0-205.0","0","0","6mfmY","People","","503","","","","32","","19","","22","","","","1","","","","","1","","","","","150","503","","","","","","","","","","","","","","","","","","","","","","","","",""
"","reward_outcome","","html-keyboard-response","252","954647","0.0-206.0","0","0","6mfmY","People","","587","","","","38","","19","","22","","","","","","","","","","","","","","","","1","587","","","","","","","","","","","","","","","","","","","","","","",""
"","fixation","","html-keyboard-response","253","955653","0.0-209.0","0","0","6mfmY","People","","null","","","","null","","","","","","","","","","","","","","","","","","","","","","","","","","","","","","","","","","","","","","","","","","","",""
"","see_reward","","html-keyboard-response","254","956019","0.0-210.0","0","0","6mfmY","People","","366","","","","32","","33","","23","","","","-1","","","","","1","","","","","0","366","","","","","","","","","","","","","","","","","","","","","","","","",""
"","reward_outcome","","html-keyboard-response","255","958025","0.0-211.0","0","0","6mfmY","People","","536","","","","40","","33","","23","","","","","","","","","","","","","","","","-1","536","","","","","","","","","","","","","","","","","","","","","","",""
"","block_over","","html-keyboard-response","256","959678","0.0-213.0-0.0","0","0","6mfmY","People","","1651","","","","78","","","","","","","","","","","","","","","","","","","","","","","","","","","","","","","","","","","","","","","","","","","",""
"","fixation","","html-keyboard-response","257","960684","0.0-214.0","0","0","6mfmY","People","","null","","","","null","","","","","","","","","","","","","","","","","","","","","","","","","","","","","","","","","","","","","","","","","","","",""
"","see_reward","","html-keyboard-response","258","961367","0.0-215.0","0","0","6mfmY","People","","682","","","","32","","30","","24","","","","1","","","","","2","","","","","143","682","","","","","","","","","","","","","","","","","","","","","","","","",""
"","reward_outcome","","html-keyboard-response","259","963374","0.0-216.0","0","0","6mfmY","People","","596","","","","38","","30","","24","","","","","","","","","","","","","","","","1","596","","","","","","","","","","","","","","","","","","","","","","",""
"","fixation","","html-keyboard-response","260","964376","0.0-219.0","0","0","6mfmY","People","","null","","","","null","","","","","","","","","","","","","","","","","","","","","","","","","","","","","","","","","","","","","","","","","","","",""
"","see_reward","","html-keyboard-response","261","964951","0.0-220.0","0","0","6mfmY","People","","574","","","","32","","33","","25","","","","-1","","","","","2","","","","","0","574","","","","","","","","","","","","","","","","","","","","","","","","",""
"","reward_outcome","","html-keyboard-response","262","966953","0.0-221.0","0","0","6mfmY","People","","653","","","","40","","33","","25","","","","","","","","","","","","","","","","-1","653","","","","","","","","","","","","","","","","","","","","","","",""
"","fixation","","html-keyboard-response","263","967959","0.0-224.0","0","0","6mfmY","People","","null","","","","null","","","","","","","","","","","","","","","","","","","","","","","","","","","","","","","","","","","","","","","","","","","",""
"","see_reward","","html-keyboard-response","264","968478","0.0-225.0","0","0","6mfmY","People","","517","","","","32","","38","","26","","","","-1","","","","","2","","","","","0","517","","","","","","","","","","","","","","","","","","","","","","","","",""
"","reward_outcome","","html-keyboard-response","265","970482","0.0-226.0","0","0","6mfmY","People","","531","","","","40","","38","","26","","","","","","","","","","","","","","","","-1","531","","","","","","","","","","","","","","","","","","","","","","",""
"","fixation","","html-keyboard-response","266","971486","0.0-229.0","0","0","6mfmY","People","","null","","","","null","","","","","","","","","","","","","","","","","","","","","","","","","","","","","","","","","","","","","","","","","","","",""
"","see_reward","","html-keyboard-response","267","972152","0.0-230.0","0","0","6mfmY","People","","666","","","","32","","48","","27","","","","-1","","","","","2","","","","","0","666","","","","","","","","","","","","","","","","","","","","","","","","",""
"","reward_outcome","","html-keyboard-response","268","974159","0.0-231.0","0","0","6mfmY","People","","581","","","","40","","48","","27","","","","","","","","","","","","","","","","-1","581","","","","","","","","","","","","","","","","","","","","","","",""
"","fixation","","html-keyboard-response","269","975162","0.0-234.0","0","0","6mfmY","People","","null","","","","null","","","","","","","","","","","","","","","","","","","","","","","","","","","","","","","","","","","","","","","","","","","",""
"","see_reward","","html-keyboard-response","270","975808","0.0-235.0","0","0","6mfmY","People","","645","","","","32","","1","","28","","","","1","","","","","2","","","","","146","645","","","","","","","","","","","","","","","","","","","","","","","","",""
"","reward_outcome","","html-keyboard-response","271","977814","0.0-236.0","0","0","6mfmY","People","","799","","","","38","","1","","28","","","","","","","","","","","","","","","","1","799","","","","","","","","","","","","","","","","","","","","","","",""
"","fixation","","html-keyboard-response","272","978818","0.0-239.0","0","0","6mfmY","People","","null","","","","null","","","","","","","","","","","","","","","","","","","","","","","","","","","","","","","","","","","","","","","","","","","",""
"","see_reward","","html-keyboard-response","273","979364","0.0-240.0","0","0","6mfmY","People","","544","","","","32","","20","","29","","","","1","","","","","2","","","","","160","544","","","","","","","","","","","","","","","","","","","","","","","","",""
"","reward_outcome","","html-keyboard-response","274","981366","0.0-241.0","0","0","6mfmY","People","","1133","","","","38","","20","","29","","","","","","","","","","","","","","","","1","1133","","","","","","","","","","","","","","","","","","","","","","",""
"","fixation","","html-keyboard-response","275","982371","0.0-244.0","0","0","6mfmY","People","","null","","","","null","","","","","","","","","","","","","","","","","","","","","","","","","","","","","","","","","","","","","","","","","","","",""
"","see_reward","","html-keyboard-response","276","982949","0.0-245.0","0","0","6mfmY","People","","576","","","","32","","27","","30","","","","-1","","","","","2","","","","","0","576","","","","","","","","","","","","","","","","","","","","","","","","",""
"","reward_outcome","","html-keyboard-response","277","984951","0.0-246.0","0","0","6mfmY","People","","760","","","","40","","27","","30","","","","","","","","","","","","","","","","-1","760","","","","","","","","","","","","","","","","","","","","","","",""
"","fixation","","html-keyboard-response","278","985952","0.0-249.0","0","0","6mfmY","People","","null","","","","null","","","","","","","","","","","","","","","","","","","","","","","","","","","","","","","","","","","","","","","","","","","",""
"","see_reward","","html-keyboard-response","279","986588","0.0-250.0","0","0","6mfmY","People","","634","","","","32","","48","","31","","","","-1","","","","","2","","","","","0","634","","","","","","","","","","","","","","","","","","","","","","","","",""
"","reward_outcome","","html-keyboard-response","280","988593","0.0-251.0","0","0","6mfmY","People","","null","","","","null","","48","","31","","","","","","","","","","","","","","","","NaN","null","","","","","","","","","","","","","","","","","","","","","","",""
"","respond_faster","","html-keyboard-response","281","990095","0.0-252.0-0.0","1","0","6mfmY","People","","null","","","","null","","","","","","","","","","","","","","","","","","","","","","","","","","","","","","","","","","","","","","","","","","","",""
"","fixation","","html-keyboard-response","282","991096","0.0-254.0","0","0","6mfmY","People","","null","","","","null","","","","","","","","","","","","","","","","","","","","","","","","","","","","","","","","","","","","","","","","","","","",""
"","see_reward","","html-keyboard-response","283","991517","0.0-255.0","0","0","6mfmY","People","","419","","","","32","","9","","32","","","","1","","","","","2","","","","","159","419","","","","","","","","","","","","","","","","","","","","","","","","",""
"","reward_outcome","","html-keyboard-response","284","993524","0.0-256.0","0","0","6mfmY","People","","553","","","","38","","9","","32","","","","","","","","","","","","","","","","1","553","","","","","","","","","","","","","","","","","","","","","","",""
"","fixation","","html-keyboard-response","285","994527","0.0-259.0","0","0","6mfmY","People","","null","","","","null","","","","","","","","","","","","","","","","","","","","","","","","","","","","","","","","","","","","","","","","","","","",""
"","see_reward","","html-keyboard-response","286","995005","0.0-260.0","0","0","6mfmY","People","","477","","","","32","","9","","33","","","","1","","","","","2","","","","","159","477","","","","","","","","","","","","","","","","","","","","","","","","",""
"","reward_outcome","","html-keyboard-response","287","997012","0.0-261.0","0","0","6mfmY","People","","585","","","","38","","9","","33","","","","","","","","","","","","","","","","1","585","","","","","","","","","","","","","","","","","","","","","","",""
"","fixation","","html-keyboard-response","288","998013","0.0-264.0","0","0","6mfmY","People","","null","","","","null","","","","","","","","","","","","","","","","","","","","","","","","","","","","","","","","","","","","","","","","","","","",""
"","see_reward","","html-keyboard-response","289","998523","0.0-265.0","0","0","6mfmY","People","","509","","","","32","","29","","34","","","","-1","","","","","2","","","","","0","509","","","","","","","","","","","","","","","","","","","","","","","","",""
"","reward_outcome","","html-keyboard-response","290","1000529","0.0-266.0","0","0","6mfmY","People","","695","","","","40","","29","","34","","","","","","","","","","","","","","","","-1","695","","","","","","","","","","","","","","","","","","","","","","",""
"","fixation","","html-keyboard-response","291","1001534","0.0-269.0","0","0","6mfmY","People","","null","","","","null","","","","","","","","","","","","","","","","","","","","","","","","","","","","","","","","","","","","","","","","","","","",""
"","see_reward","","html-keyboard-response","292","1001970","0.0-270.0","0","0","6mfmY","People","","435","","","","32","","15","","35","","","","-1","","","","","2","","","","","0","435","","","","","","","","","","","","","","","","","","","","","","","","",""
"","reward_outcome","","html-keyboard-response","293","1003972","0.0-271.0","0","0","6mfmY","People","","647","","","","40","","15","","35","","","","","","","","","","","","","","","","-1","647","","","","","","","","","","","","","","","","","","","","","","",""
"","fixation","","html-keyboard-response","294","1004977","0.0-274.0","0","0","6mfmY","People","","null","","","","null","","","","","","","","","","","","","","","","","","","","","","","","","","","","","","","","","","","","","","","","","","","",""
"","see_reward","","html-keyboard-response","295","1005540","0.0-275.0","0","0","6mfmY","People","","561","","","","32","","1","","36","","","","1","","","","","2","","","","","146","561","","","","","","","","","","","","","","","","","","","","","","","","",""
"","reward_outcome","","html-keyboard-response","296","1007542","0.0-276.0","0","0","6mfmY","People","","565","","","","38","","1","","36","","","","","","","","","","","","","","","","1","565","","","","","","","","","","","","","","","","","","","","","","",""
"","fixation","","html-keyboard-response","297","1008544","0.0-279.0","0","0","6mfmY","People","","null","","","","null","","","","","","","","","","","","","","","","","","","","","","","","","","","","","","","","","","","","","","","","","","","",""
"","see_reward","","html-keyboard-response","298","1009094","0.0-280.0","0","0","6mfmY","People","","549","","","","32","","30","","37","","","","1","","","","","2","","","","","143","549","","","","","","","","","","","","","","","","","","","","","","","","",""
"","reward_outcome","","html-keyboard-response","299","1011096","0.0-281.0","0","0","6mfmY","People","","616","","","","38","","30","","37","","","","","","","","","","","","","","","","1","616","","","","","","","","","","","","","","","","","","","","","","",""
"","fixation","","html-keyboard-response","300","1012098","0.0-284.0","0","0","6mfmY","People","","null","","","","null","","","","","","","","","","","","","","","","","","","","","","","","","","","","","","","","","","","","","","","","","","","",""
"","see_reward","","html-keyboard-response","301","1012649","0.0-285.0","0","0","6mfmY","People","","550","","","","32","","15","","38","","","","-1","","","","","2","","","","","0","550","","","","","","","","","","","","","","","","","","","","","","","","",""
"","reward_outcome","","html-keyboard-response","302","1014651","0.0-286.0","0","0","6mfmY","People","","524","","","","40","","15","","38","","","","","","","","","","","","","","","","-1","524","","","","","","","","","","","","","","","","","","","","","","",""
"","fixation","","html-keyboard-response","303","1015653","0.0-289.0","0","0","6mfmY","People","","null","","","","null","","","","","","","","","","","","","","","","","","","","","","","","","","","","","","","","","","","","","","","","","","","",""
"","see_reward","","html-keyboard-response","304","1016199","0.0-290.0","0","0","6mfmY","People","","545","","","","32","","38","","39","","","","-1","","","","","2","","","","","0","545","","","","","","","","","","","","","","","","","","","","","","","","",""
"","reward_outcome","","html-keyboard-response","305","1018205","0.0-291.0","0","0","6mfmY","People","","472","","","","40","","38","","39","","","","","","","","","","","","","","","","-1","472","","","","","","","","","","","","","","","","","","","","","","",""
"","fixation","","html-keyboard-response","306","1019209","0.0-294.0","0","0","6mfmY","People","","null","","","","null","","","","","","","","","","","","","","","","","","","","","","","","","","","","","","","","","","","","","","","","","","","",""
"","see_reward","","html-keyboard-response","307","1019660","0.0-295.0","0","0","6mfmY","People","","449","","","","32","","27","","40","","","","-1","","","","","2","","","","","0","449","","","","","","","","","","","","","","","","","","","","","","","","",""
"","reward_outcome","","html-keyboard-response","308","1021662","0.0-296.0","0","0","6mfmY","People","","542","","","","40","","27","","40","","","","","","","","","","","","","","","","-1","542","","","","","","","","","","","","","","","","","","","","","","",""
"","fixation","","html-keyboard-response","309","1022666","0.0-299.0","0","0","6mfmY","People","","null","","","","null","","","","","","","","","","","","","","","","","","","","","","","","","","","","","","","","","","","","","","","","","","","",""
"","see_reward","","html-keyboard-response","310","1023173","0.0-300.0","0","0","6mfmY","People","","505","","","","32","","20","","41","","","","1","","","","","2","","","","","160","505","","","","","","","","","","","","","","","","","","","","","","","","",""
"","reward_outcome","","html-keyboard-response","311","1025177","0.0-301.0","0","0","6mfmY","People","","606","","","","38","","20","","41","","","","","","","","","","","","","","","","1","606","","","","","","","","","","","","","","","","","","","","","","",""
"","fixation","","html-keyboard-response","312","1026180","0.0-304.0","0","0","6mfmY","People","","null","","","","null","","","","","","","","","","","","","","","","","","","","","","","","","","","","","","","","","","","","","","","","","","","",""
"","see_reward","","html-keyboard-response","313","1026690","0.0-305.0","0","0","6mfmY","People","","509","","","","32","","19","","42","","","","1","","","","","2","","","","","150","509","","","","","","","","","","","","","","","","","","","","","","","","",""
"","reward_outcome","","html-keyboard-response","314","1028694","0.0-306.0","0","0","6mfmY","People","","596","","","","38","","19","","42","","","","","","","","","","","","","","","","1","596","","","","","","","","","","","","","","","","","","","","","","",""
"","fixation","","html-keyboard-response","315","1029698","0.0-309.0","0","0","6mfmY","People","","null","","","","null","","","","","","","","","","","","","","","","","","","","","","","","","","","","","","","","","","","","","","","","","","","",""
"","see_reward","","html-keyboard-response","316","1030149","0.0-310.0","0","0","6mfmY","People","","450","","","","32","","29","","43","","","","-1","","","","","2","","","","","0","450","","","","","","","","","","","","","","","","","","","","","","","","",""
"","reward_outcome","","html-keyboard-response","317","1032155","0.0-311.0","0","0","6mfmY","People","","519","","","","40","","29","","43","","","","","","","","","","","","","","","","-1","519","","","","","","","","","","","","","","","","","","","","","","",""
"","fixation","","html-keyboard-response","318","1033157","0.0-314.0","0","0","6mfmY","People","","null","","","","null","","","","","","","","","","","","","","","","","","","","","","","","","","","","","","","","","","","","","","","","","","","",""
"","see_reward","","html-keyboard-response","319","1033535","0.0-315.0","0","0","6mfmY","People","","377","","","","32","","45","","44","","","","1","","","","","2","","","","","149","377","","","","","","","","","","","","","","","","","","","","","","","","",""
"","reward_outcome","","html-keyboard-response","320","1035542","0.0-316.0","0","0","6mfmY","People","","645","","","","38","","45","","44","","","","","","","","","","","","","","","","1","645","","","","","","","","","","","","","","","","","","","","","","",""
"","fixation","","html-keyboard-response","321","1036543","0.0-319.0","0","0","6mfmY","People","","null","","","","null","","","","","","","","","","","","","","","","","","","","","","","","","","","","","","","","","","","","","","","","","","","",""
"","see_reward","","html-keyboard-response","322","1037098","0.0-320.0","0","0","6mfmY","People","","553","","","","32","","33","","45","","","","-1","","","","","2","","","","","0","553","","","","","","","","","","","","","","","","","","","","","","","","",""
"","reward_outcome","","html-keyboard-response","323","1039100","0.0-321.0","0","0","6mfmY","People","","522","","","","40","","33","","45","","","","","","","","","","","","","","","","-1","522","","","","","","","","","","","","","","","","","","","","","","",""
"","fixation","","html-keyboard-response","324","1040103","0.0-324.0","0","0","6mfmY","People","","null","","","","null","","","","","","","","","","","","","","","","","","","","","","","","","","","","","","","","","","","","","","","","","","","",""
"","see_reward","","html-keyboard-response","325","1040466","0.0-325.0","0","0","6mfmY","People","","362","","","","32","","19","","46","","","","1","","","","","2","","","","","150","362","","","","","","","","","","","","","","","","","","","","","","","","",""
"","reward_outcome","","html-keyboard-response","326","1042468","0.0-326.0","0","0","6mfmY","People","","593","","","","38","","19","","46","","","","","","","","","","","","","","","","1","593","","","","","","","","","","","","","","","","","","","","","","",""
"","fixation","","html-keyboard-response","327","1043473","0.0-329.0","0","0","6mfmY","People","","null","","","","null","","","","","","","","","","","","","","","","","","","","","","","","","","","","","","","","","","","","","","","","","","","",""
"","see_reward","","html-keyboard-response","328","1043852","0.0-330.0","0","0","6mfmY","People","","377","","","","32","","45","","47","","","","1","","","","","2","","","","","149","377","","","","","","","","","","","","","","","","","","","","","","","","",""
"","reward_outcome","","html-keyboard-response","329","1045854","0.0-331.0","0","0","6mfmY","People","","499","","","","38","","45","","47","","","","","","","","","","","","","","","","1","499","","","","","","","","","","","","","","","","","","","","","","",""
"","block_over","","html-keyboard-response","330","1047381","0.0-333.0-0.0","0","0","6mfmY","People","","1525","","","","78","","","","","","","","","","","","","","","","","","","","","","","","","","","","","","","","","","","","","","","","","","","",""
"","fixation","","html-keyboard-response","331","1048385","0.0-334.0","0","0","6mfmY","People","","null","","","","null","","","","","","","","","","","","","","","","","","","","","","","","","","","","","","","","","","","","","","","","","","","",""
"","see_reward","","html-keyboard-response","332","1050056","0.0-335.0","0","0","6mfmY","People","","1669","","","","32","","19","","48","","","","1","","","","","3","","","","","150","1669","","","","","","","","","","","","","","","","","","","","","","","","",""
"","reward_outcome","","html-keyboard-response","333","1052061","0.0-336.0","0","0","6mfmY","People","","769","","","","38","","19","","48","","","","","","","","","","","","","","","","1","769","","","","","","","","","","","","","","","","","","","","","","",""
"","fixation","","html-keyboard-response","334","1053065","0.0-339.0","0","0","6mfmY","People","","null","","","","null","","","","","","","","","","","","","","","","","","","","","","","","","","","","","","","","","","","","","","","","","","","",""
"","see_reward","","html-keyboard-response","335","1053892","0.0-340.0","0","0","6mfmY","People","","826","","","","32","","27","","49","","","","-1","","","","","3","","","","","0","826","","","","","","","","","","","","","","","","","","","","","","","","",""
"","reward_outcome","","html-keyboard-response","336","1055894","0.0-341.0","0","0","6mfmY","People","","660","","","","40","","27","","49","","","","","","","","","","","","","","","","-1","660","","","","","","","","","","","","","","","","","","","","","","",""
"","fixation","","html-keyboard-response","337","1056896","0.0-344.0","0","0","6mfmY","People","","null","","","","null","","","","","","","","","","","","","","","","","","","","","","","","","","","","","","","","","","","","","","","","","","","",""
"","see_reward","","html-keyboard-response","338","1057360","0.0-345.0","0","0","6mfmY","People","","462","","","","32","","48","","50","","","","-1","","","","","3","","","","","0","462","","","","","","","","","","","","","","","","","","","","","","","","",""
"","reward_outcome","","html-keyboard-response","339","1059361","0.0-346.0","0","0","6mfmY","People","","744","","","","40","","48","","50","","","","","","","","","","","","","","","","-1","744","","","","","","","","","","","","","","","","","","","","","","",""
"","fixation","","html-keyboard-response","340","1060367","0.0-349.0","0","0","6mfmY","People","","null","","","","null","","","","","","","","","","","","","","","","","","","","","","","","","","","","","","","","","","","","","","","","","","","",""
"","see_reward","","html-keyboard-response","341","1060787","0.0-350.0","0","0","6mfmY","People","","418","","","","32","","9","","51","","","","1","","","","","3","","","","","159","418","","","","","","","","","","","","","","","","","","","","","","","","",""
"","reward_outcome","","html-keyboard-response","342","1062793","0.0-351.0","0","0","6mfmY","People","","613","","","","38","","9","","51","","","","","","","","","","","","","","","","1","613","","","","","","","","","","","","","","","","","","","","","","",""
"","fixation","","html-keyboard-response","343","1063798","0.0-354.0","0","0","6mfmY","People","","null","","","","null","","","","","","","","","","","","","","","","","","","","","","","","","","","","","","","","","","","","","","","","","","","",""
"","see_reward","","html-keyboard-response","344","1064259","0.0-355.0","0","0","6mfmY","People","","459","","","","32","","48","","52","","","","-1","","","","","3","","","","","0","459","","","","","","","","","","","","","","","","","","","","","","","","",""
"","reward_outcome","","html-keyboard-response","345","1066264","0.0-356.0","0","0","6mfmY","People","","584","","","","40","","48","","52","","","","","","","","","","","","","","","","-1","584","","","","","","","","","","","","","","","","","","","","","","",""
"","fixation","","html-keyboard-response","346","1067266","0.0-359.0","0","0","6mfmY","People","","null","","","","null","","","","","","","","","","","","","","","","","","","","","","","","","","","","","","","","","","","","","","","","","","","",""
"","see_reward","","html-keyboard-response","347","1067810","0.0-360.0","0","0","6mfmY","People","","543","","","","32","","27","","53","","","","-1","","","","","3","","","","","0","543","","","","","","","","","","","","","","","","","","","","","","","","",""
"","reward_outcome","","html-keyboard-response","348","1069817","0.0-361.0","0","0","6mfmY","People","","566","","","","40","","27","","53","","","","","","","","","","","","","","","","-1","566","","","","","","","","","","","","","","","","","","","","","","",""
"","fixation","","html-keyboard-response","349","1070819","0.0-364.0","0","0","6mfmY","People","","null","","","","null","","","","","","","","","","","","","","","","","","","","","","","","","","","","","","","","","","","","","","","","","","","",""
"","see_reward","","html-keyboard-response","350","1071203","0.0-365.0","0","0","6mfmY","People","","384","","","","32","","20","","54","","","","1","","","","","3","","","","","160","384","","","","","","","","","","","","","","","","","","","","","","","","",""
"","reward_outcome","","html-keyboard-response","351","1073207","0.0-366.0","0","0","6mfmY","People","","554","","","","38","","20","","54","","","","","","","","","","","","","","","","1","554","","","","","","","","","","","","","","","","","","","","","","",""
"","fixation","","html-keyboard-response","352","1074211","0.0-369.0","0","0","6mfmY","People","","null","","","","null","","","","","","","","","","","","","","","","","","","","","","","","","","","","","","","","","","","","","","","","","","","",""
"","see_reward","","html-keyboard-response","353","1074659","0.0-370.0","0","0","6mfmY","People","","447","","","","32","","45","","55","","","","1","","","","","3","","","","","149","447","","","","","","","","","","","","","","","","","","","","","","","","",""
"","reward_outcome","","html-keyboard-response","354","1076661","0.0-371.0","0","0","6mfmY","People","","658","","","","38","","45","","55","","","","","","","","","","","","","","","","1","658","","","","","","","","","","","","","","","","","","","","","","",""
"","fixation","","html-keyboard-response","355","1077666","0.0-374.0","0","0","6mfmY","People","","null","","","","null","","","","","","","","","","","","","","","","","","","","","","","","","","","","","","","","","","","","","","","","","","","",""
