"success","ttype","start_time","trial_type","trial_index","time_elapsed","internal_node_id","warning","missed_checkup","PID","stim_type","view_history","rt","responses","category","repeat_instructions","key_press","response","stimulus_id","painting","index","stimulus_left","stimulus_right","explain_trial","reward_type","rating_left","rating_right","painting_left","painting_right","block","left_chosen","chosen_obj","unchosen_obj","explain_response","reward_amount","see_reward_rt","register_reward_response","register_reward_rt","deliberation_reward_tally","stimulus_left_deliberation_ind","stimulus_right_deliberation_ind","chosen_trial","gain_left","higher_outcome_chosen","old_pair","chosen_object","rt_pairs","left_object_chosen","rt_object","old_response","new_rating","deliberated_stim","initial_rating","outcome_eval_rt","outcome_eval_response","outcome_eval_gain","outcome_eval_acc","preamble","outcome_eval_confidence","outcome_eval_confidence_rt","total_reward_tally"
"true","full_screen","d01182023hr0853","fullscreen","0","10645","0.0-0.0","0","0","rwXAf","People","","","","","","","","","","","","","","","","","","","","","","","","","","","","","","","","","","","","","","","","","","","","","","","","","",""
"","rating_instructions","","instructions","1","18701","0.0-1.0-0.0","0","0","rwXAf","People","[{""page_index"":0,""viewing_time"":5987},{""page_index"":1,""viewing_time"":2064}]","8052","","","","","","","","","","","","","","","","","","","","","","","","","","","","","","","","","","","","","","","","","","","","","","","",""
"","","","survey-multi-choice","2","23557","0.0-1.0-1.0","0","0","rwXAf","People","","4851","{""Q0"":""True"",""Q1"":""Mouse""}","rating_comprehension_check","0","","","","","","","","","","","","","","","","","","","","","","","","","","","","","","","","","","","","","","","","","","","","",""
"","start_phase","","html-keyboard-response","3","26835","0.0-2.0","0","0","rwXAf","People","","3274","","","","78","","","","","","","","","","","","","","","","","","","","","","","","","","","","","","","","","","","","","","","","","","","",""
"","rating","","html-slider-response","4","30716","0.0-3.0","0","0","rwXAf","People","","3878","","","","","26","43","raamin-ka-0qJBEzudn5E-unsplash.jpg","0","","","","","","","","","","","","","","","","","","","","","","","","","","","","","","","","","","","","","","","",""
"","rating","","html-slider-response","5","32644","0.0-4.0","0","0","rwXAf","People","","1925","","","","","2","42","prince-akachi-l3IHXOdMyHQ-unsplash.jpg","1","","","","","","","","","","","","","","","","","","","","","","","","","","","","","","","","","","","","","","","",""
"","rating","","html-slider-response","6","34468","0.0-5.0","0","0","rwXAf","People","","1821","","","","","30","41","prince-akachi-i2hoD-C2RUA-unsplash.jpg","2","","","","","","","","","","","","","","","","","","","","","","","","","","","","","","","","","","","","","","","",""
"","rating","","html-slider-response","7","37340","0.0-6.0","0","0","rwXAf","People","","2868","","","","","63","46","stefan-stefancik-QXevDflbl8A-unsplash.jpg","3","","","","","","","","","","","","","","","","","","","","","","","","","","","","","","","","","","","","","","","",""
"","rating","","html-slider-response","8","39180","0.0-7.0","0","0","rwXAf","People","","1837","","","","","18","35","oliver-ragfelt-khV4fTy6-D8-unsplash.jpg","4","","","","","","","","","","","","","","","","","","","","","","","","","","","","","","","","","","","","","","","",""
"","rating","","html-slider-response","9","41676","0.0-8.0","0","0","rwXAf","People","","2493","","","","","42","24","joel-mott-LaK153ghdig-unsplash.jpg","5","","","","","","","","","","","","","","","","","","","","","","","","","","","","","","","","","","","","","","","",""
"","rating","","html-slider-response","10","43636","0.0-9.0","0","0","rwXAf","People","","1957","","","","","27","8","bruce-dixon-3M9WJQVHzog-unsplash.jpg","6","","","","","","","","","","","","","","","","","","","","","","","","","","","","","","","","","","","","","","","",""
"","rating","","html-slider-response","11","46156","0.0-10.0","0","0","rwXAf","People","","2517","","","","","28","22","jessica-radanavong-mrYkTuAesKE-unsplash.jpg","7","","","","","","","","","","","","","","","","","","","","","","","","","","","","","","","","","","","","","","","",""
"","rating","","html-slider-response","12","48236","0.0-11.0","0","0","rwXAf","People","","2076","","","","","31","3","art-hauntington-jzY0KRJopEI-unsplash.jpg","8","","","","","","","","","","","","","","","","","","","","","","","","","","","","","","","","","","","","","","","",""
"","rating","","html-slider-response","13","50181","0.0-12.0","0","0","rwXAf","People","","1943","","","","","4","47","tyler-nix-ZGa9d1a_4tA-unsplash.jpg","9","","","","","","","","","","","","","","","","","","","","","","","","","","","","","","","","","","","","","","","",""
"","rating","","html-slider-response","14","51828","0.0-13.0","0","0","rwXAf","People","","1644","","","","","19","27","jurica-koletic-7YVZYZeITc8-unsplash.jpg","10","","","","","","","","","","","","","","","","","","","","","","","","","","","","","","","","","","","","","","","",""
"","rating","","html-slider-response","15","55151","0.0-14.0","0","0","rwXAf","People","","3320","","","","","42","31","mathilda-khoo-vLR0YP_otCo-unsplash.jpg","11","","","","","","","","","","","","","","","","","","","","","","","","","","","","","","","","","","","","","","","",""
"","rating","","html-slider-response","16","57445","0.0-15.0","0","0","rwXAf","People","","2292","","","","","3","21","jessica-felicio-_cvwXhGqG-o-unsplash.jpg","12","","","","","","","","","","","","","","","","","","","","","","","","","","","","","","","","","","","","","","","",""
"","rating","","html-slider-response","17","60203","0.0-16.0","0","0","rwXAf","People","","2755","","","","","32","38","petr-sevcovic-HzDF-rxlSeM-unsplash.jpg","13","","","","","","","","","","","","","","","","","","","","","","","","","","","","","","","","","","","","","","","",""
"","rating","","html-slider-response","18","62244","0.0-17.0","0","0","rwXAf","People","","2038","","","","","33","26","juri-gianfrancesco-9EZadYaMzk4-unsplash.jpg","14","","","","","","","","","","","","","","","","","","","","","","","","","","","","","","","","","","","","","","","",""
"","rating","","html-slider-response","19","64908","0.0-18.0","0","0","rwXAf","People","","2660","","","","","44","48","velizar-ivanov-7ktP9yZA1g4-unsplash.jpg","15","","","","","","","","","","","","","","","","","","","","","","","","","","","","","","","","","","","","","","","",""
"","rating","","html-slider-response","20","67076","0.0-19.0","0","0","rwXAf","People","","2165","","","","","5","29","leilani-angel-K84vnnzxmTQ-unsplash.jpg","16","","","","","","","","","","","","","","","","","","","","","","","","","","","","","","","","","","","","","","","",""
"","rating","","html-slider-response","21","69108","0.0-20.0","0","0","rwXAf","People","","2029","","","","","33","45","sarah-noltner-pL5ZzPp1zqg-unsplash.jpg","17","","","","","","","","","","","","","","","","","","","","","","","","","","","","","","","","","","","","","","","",""
"","rating","","html-slider-response","22","71012","0.0-21.0","0","0","rwXAf","People","","1901","","","","","43","32","nathan-dumlao-ger61_TX6oI-unsplash.jpg","18","","","","","","","","","","","","","","","","","","","","","","","","","","","","","","","","","","","","","","","",""
"","rating","","html-slider-response","23","72972","0.0-22.0","0","0","rwXAf","People","","1957","","","","","11","9","carlos-andres-gomez-vJuk8Y86mRw-unsplash.jpg","19","","","","","","","","","","","","","","","","","","","","","","","","","","","","","","","","","","","","","","","",""
"","rating","","html-slider-response","24","78220","0.0-23.0","0","0","rwXAf","People","","5245","","","","","41","20","houcine-ncib-B4TjXnI0Y2c-unsplash.jpg","20","","","","","","","","","","","","","","","","","","","","","","","","","","","","","","","","","","","","","","","",""
"","rating","","html-slider-response","25","80382","0.0-24.0","0","0","rwXAf","People","","2159","","","","","12","19","ha-nguy-n-OFSQ6bHjFjs-unsplash.jpg","21","","","","","","","","","","","","","","","","","","","","","","","","","","","","","","","","","","","","","","","",""
"","rating","","html-slider-response","26","84876","0.0-25.0","0","0","rwXAf","People","","4485","","","","","45","11","christian-ferrer-8vT-DgHZDG4-unsplash.jpg","22","","","","","","","","","","","","","","","","","","","","","","","","","","","","","","","","","","","","","","","",""
"","rating","","html-slider-response","27","86892","0.0-26.0","0","0","rwXAf","People","","2013","","","","","8","40","prince-akachi-4Yv84VgQkRM-unsplash.jpg","23","","","","","","","","","","","","","","","","","","","","","","","","","","","","","","","","","","","","","","","",""
"","rating","","html-slider-response","28","89412","0.0-27.0","0","0","rwXAf","People","","2517","","","","","23","17","gleb-lukomets-paBzWCPN23k-unsplash.jpg","24","","","","","","","","","","","","","","","","","","","","","","","","","","","","","","","","","","","","","","","",""
"","rating","","html-slider-response","29","91812","0.0-28.0","0","0","rwXAf","People","","2397","","","","","7","2","arjunsyah-TBUA5KHJn6k-unsplash.jpg","25","","","","","","","","","","","","","","","","","","","","","","","","","","","","","","","","","","","","","","","",""
"","rating","","html-slider-response","30","93573","0.0-29.0","0","0","rwXAf","People","","1758","","","","","6","23","joanna-nix-walkup-H4fEMshfwTE-unsplash.jpg","26","","","","","","","","","","","","","","","","","","","","","","","","","","","","","","","","","","","","","","","",""
"","rating","","html-slider-response","31","95572","0.0-30.0","0","0","rwXAf","People","","1995","","","","","16","36","ospan-ali-mGdA2fzjWLo-unsplash.jpg","27","","","","","","","","","","","","","","","","","","","","","","","","","","","","","","","","","","","","","","","",""
"","rating","","html-slider-response","32","97396","0.0-31.0","0","0","rwXAf","People","","1822","","","","","0","10","charles-etoroma-95UF6LXe-Lo-unsplash.jpg","28","","","","","","","","","","","","","","","","","","","","","","","","","","","","","","","","","","","","","","","",""
"","rating","","html-slider-response","33","99364","0.0-32.0","0","0","rwXAf","People","","1965","","","","","15","15","gabriel-silverio-u3WmDyKGsrY-unsplash.jpg","29","","","","","","","","","","","","","","","","","","","","","","","","","","","","","","","","","","","","","","","",""
"","rating","","html-slider-response","34","101220","0.0-33.0","0","0","rwXAf","People","","1853","","","","","0","14","freddy-kearney-o-ioeoATbIM-unsplash.jpg","30","","","","","","","","","","","","","","","","","","","","","","","","","","","","","","","","","","","","","","","",""
"","rating","","html-slider-response","35","102972","0.0-34.0","0","0","rwXAf","People","","1749","","","","","1","5","batel-studio-ttSRjiYG_WM-unsplash.jpg","31","","","","","","","","","","","","","","","","","","","","","","","","","","","","","","","","","","","","","","","",""
"","rating","","html-slider-response","36","104948","0.0-35.0","0","0","rwXAf","People","","1973","","","","","0","39","philip-martin-5aGUyCW_PJw-unsplash.jpg","32","","","","","","","","","","","","","","","","","","","","","","","","","","","","","","","","","","","","","","","",""
"","rating","","html-slider-response","37","106908","0.0-36.0","0","0","rwXAf","People","","1956","","","","","12","49","vicky-hladynets-_gDoyVv5F4c-unsplash.jpg","33","","","","","","","","","","","","","","","","","","","","","","","","","","","","","","","","","","","","","","","",""
"","rating","","html-slider-response","38","109076","0.0-37.0","0","0","rwXAf","People","","2163","","","","","28","1","aiony-haust-jmATI5Q_YgY-unsplash.jpg","34","","","","","","","","","","","","","","","","","","","","","","","","","","","","","","","","","","","","","","","",""
"","rating","","html-slider-response","39","111252","0.0-38.0","0","0","rwXAf","People","","2173","","","","","22","34","oliver-johnson-1TUIcKob7Zs-unsplash.jpg","35","","","","","","","","","","","","","","","","","","","","","","","","","","","","","","","","","","","","","","","",""
"","rating","","html-slider-response","40","113683","0.0-39.0","0","0","rwXAf","People","","2428","","","","","11","12","daniel-rigdon-dXmXKPP2L4E-unsplash.jpg","36","","","","","","","","","","","","","","","","","","","","","","","","","","","","","","","","","","","","","","","",""
"","rating","","html-slider-response","41","115540","0.0-40.0","0","0","rwXAf","People","","1854","","","","","12","33","olena-sergienko-0TSd6uCKTKc-unsplash.jpg","37","","","","","","","","","","","","","","","","","","","","","","","","","","","","","","","","","","","","","","","",""
"","rating","","html-slider-response","42","117860","0.0-41.0","0","0","rwXAf","People","","2317","","","","","1","13","erik-lucatero-d2MSDujJl2g-unsplash.jpg","38","","","","","","","","","","","","","","","","","","","","","","","","","","","","","","","","","","","","","","","",""
"","rating","","html-slider-response","43","119667","0.0-42.0","0","0","rwXAf","People","","1806","","","","","13","28","justin-chen-J7Cf1Gch49E-unsplash.jpg","39","","","","","","","","","","","","","","","","","","","","","","","","","","","","","","","","","","","","","","","",""
"","rating","","html-slider-response","44","121348","0.0-43.0","0","0","rwXAf","People","","1678","","","","","17","0","abstral-official-cyOKLSgkgCE-unsplash.jpg","40","","","","","","","","","","","","","","","","","","","","","","","","","","","","","","","","","","","","","","","",""
"","rating","","html-slider-response","45","122812","0.0-44.0","0","0","rwXAf","People","","1461","","","","","7","25","joseph-gonzalez-iFgRcqHznqg-unsplash.jpg","41","","","","","","","","","","","","","","","","","","","","","","","","","","","","","","","","","","","","","","","",""
"","rating","","html-slider-response","46","124604","0.0-45.0","0","0","rwXAf","People","","1789","","","","","9","6","ben-o-bro-C5XyLljkMrY-unsplash.jpg","42","","","","","","","","","","","","","","","","","","","","","","","","","","","","","","","","","","","","","","","",""
"","rating","","html-slider-response","47","126764","0.0-46.0","0","0","rwXAf","People","","2156","","","","","8","7","brooke-cagle-HRZUzoX1e6w-unsplash.jpg","43","","","","","","","","","","","","","","","","","","","","","","","","","","","","","","","","","","","","","","","",""
"","rating","","html-slider-response","48","128324","0.0-47.0","0","0","rwXAf","People","","1556","","","","","6","18","good-faces-xmSWVeGEnJw-unsplash.jpg","44","","","","","","","","","","","","","","","","","","","","","","","","","","","","","","","","","","","","","","","",""
"","rating","","html-slider-response","49","130204","0.0-48.0","0","0","rwXAf","People","","1877","","","","","5","16","giano-currie-5-9YOsmf8IQ-unsplash.jpg","45","","","","","","","","","","","","","","","","","","","","","","","","","","","","","","","","","","","","","","","",""
"","rating","","html-slider-response","50","132100","0.0-49.0","0","0","rwXAf","People","","1893","","","","","5","37","pavel-anoshin-d0peGya6R5Y-unsplash.jpg","46","","","","","","","","","","","","","","","","","","","","","","","","","","","","","","","","","","","","","","","",""
"","rating","","html-slider-response","51","133908","0.0-50.0","0","0","rwXAf","People","","1805","","","","","5","4","barna-bartis-2x3vfVxwR7o-unsplash.jpg","47","","","","","","","","","","","","","","","","","","","","","","","","","","","","","","","","","","","","","","","",""
"","rating","","html-slider-response","52","135708","0.0-51.0","0","0","rwXAf","People","","1797","","","","","7","44","rikonavt-HQjfrvdTfak-unsplash.jpg","48","","","","","","","","","","","","","","","","","","","","","","","","","","","","","","","","","","","","","","","",""
"","rating","","html-slider-response","53","137315","0.0-52.0","0","0","rwXAf","People","","1605","","","","","13","30","matheus-ferrero-pg_WCHWSdT8-unsplash.jpg","49","","","","","","","","","","","","","","","","","","","","","","","","","","","","","","","","","","","","","","","",""
"","deliberation_instructions","","instructions","54","185348","0.0-53.0-0.0","0","0","rwXAf","People","[{""page_index"":0,""viewing_time"":11261},{""page_index"":1,""viewing_time"":9319},{""page_index"":2,""viewing_time"":12280},{""page_index"":3,""viewing_time"":13401},{""page_index"":4,""viewing_time"":1767}]","48029","","","","","","","","","","","","","","","","","","","","","","","","","","","","","","","","","","","","","","","","","","","","","","","",""
"","","","survey-multi-choice","55","220668","0.0-53.0-1.0","0","0","rwXAf","People","","35313","{""Q0"":""True"",""Q1"":""True"",""Q2"":""Consider carefully and take your time (up to 10 seconds)"",""Q3"":""True"",""Q4"":""D""}","deliberation_comprehension_check","0","","","","","","","","","","","","","","","","","","","","","","","","","","","","","","","","","","","","","","","","","","","","",""
"","start_phase","","html-keyboard-response","56","223106","0.0-54.0","0","0","rwXAf","People","","2434","","","","78","","","","","","","","","","","","","","","","","","","","","","","","","","","","","","","","","","","","","","","","","","","",""
"","first_deliberation_block","","html-keyboard-response","57","225926","0.0-55.0","0","0","rwXAf","People","","2818","","","","78","","","","","","","","","","","","","","","","","","","","","","","","","","","","","","","","","","","","","","","","","","","",""
"","fixation","","html-keyboard-response","58","226928","0.0-56.0-0.0","0","0","rwXAf","People","","null","","","","null","","","","","","","","","","","","","","","","","","","","","","","","","","","","","","","","","","","","","","","","","","","",""
"","deliberation","","html-keyboard-response","59","227762","0.0-56.0-1.0","0","0","rwXAf","People","","831","","","","68","","","","0","12","9","1","1","11","11","daniel-rigdon-dXmXKPP2L4E-unsplash.jpg","carlos-andres-gomez-vJuk8Y86mRw-unsplash.jpg","1","1","12","9","","","","","","","","","","","","","","","","","","","","","","","","","","","",""
"","choice_confirmation","","html-keyboard-response","60","228265","0.0-56.0-2.0-0.0","0","0","rwXAf","People","","null","","","","null","","","","0","12","9","","","","","","","","","","","","","","","","","","","","","","","","","","","","","","","","","","","","","",""
"","explain_trial","","survey-text","61","234662","0.0-56.0-5.0-0.0","0","0","rwXAf","People","","6393","{""Q0"":""woman""}","","","","","","","0","12","9","","","","","","","","","","","{""Q0"":""woman""}","","","","","","","","","","","","","","","","","","","","","","","","","","",""
"","fixation","","html-keyboard-response","62","235665","0.0-57.0-0.0","0","0","rwXAf","People","","null","","","","null","","","","","","","","","","","","","","","","","","","","","","","","","","","","","","","","","","","","","","","","","","","",""
"","deliberation","","html-keyboard-response","63","237186","0.0-57.0-1.0","0","0","rwXAf","People","","1519","","","","75","","","","1","2","15","0","1","7","15","arjunsyah-TBUA5KHJn6k-unsplash.jpg","gabriel-silverio-u3WmDyKGsrY-unsplash.jpg","1","0","15","2","","","","","","","","","","","","","","","","","","","","","","","","","","","",""
"","choice_confirmation","","html-keyboard-response","64","237688","0.0-57.0-2.0-0.0","0","0","rwXAf","People","","null","","","","null","","","","1","2","15","","","","","","","","","","","","","","","","","","","","","","","","","","","","","","","","","","","","","",""
"","fixation","","html-keyboard-response","65","238690","0.0-58.0-0.0","0","0","rwXAf","People","","null","","","","null","","","","","","","","","","","","","","","","","","","","","","","","","","","","","","","","","","","","","","","","","","","",""
"","deliberation","","html-keyboard-response","66","240530","0.0-58.0-1.0","0","0","rwXAf","People","","1837","","","","75","","","","2","18","27","1","-1","6","19","good-faces-xmSWVeGEnJw-unsplash.jpg","jurica-koletic-7YVZYZeITc8-unsplash.jpg","1","0","27","18","","","","","","","","","","","","","","","","","","","","","","","","","","","",""
"","choice_confirmation","","html-keyboard-response","67","241033","0.0-58.0-2.0-0.0","0","0","rwXAf","People","","null","","","","null","","","","2","18","27","","","","","","","","","","","","","","","","","","","","","","","","","","","","","","","","","","","","","",""
"","explain_trial","","survey-text","68","250012","0.0-58.0-5.0-0.0","0","0","rwXAf","People","","8976","{""Q0"":""white not black""}","","","","","","","2","18","27","","","","","","","","","","","{""Q0"":""white not black""}","","","","","","","","","","","","","","","","","","","","","","","","","","",""
"","fixation","","html-keyboard-response","69","251014","0.0-59.0-0.0","0","0","rwXAf","People","","null","","","","null","","","","","","","","","","","","","","","","","","","","","","","","","","","","","","","","","","","","","","","","","","","",""
"","deliberation","","html-keyboard-response","70","251890","0.0-59.0-1.0","0","0","rwXAf","People","","873","","","","68","","","","3","33","40","0","1","12","8","olena-sergienko-0TSd6uCKTKc-unsplash.jpg","prince-akachi-4Yv84VgQkRM-unsplash.jpg","1","1","33","40","","","","","","","","","","","","","","","","","","","","","","","","","","","",""
"","choice_confirmation","","html-keyboard-response","71","252392","0.0-59.0-2.0-0.0","0","0","rwXAf","People","","null","","","","null","","","","3","33","40","","","","","","","","","","","","","","","","","","","","","","","","","","","","","","","","","","","","","",""
"","fixation","","html-keyboard-response","72","253395","0.0-60.0-0.0","0","0","rwXAf","People","","null","","","","null","","","","","","","","","","","","","","","","","","","","","","","","","","","","","","","","","","","","","","","","","","","",""
"","deliberation","","html-keyboard-response","73","254242","0.0-60.0-1.0","0","0","rwXAf","People","","844","","","","68","","","","4","43","44","0","1","26","7","raamin-ka-0qJBEzudn5E-unsplash.jpg","rikonavt-HQjfrvdTfak-unsplash.jpg","1","1","43","44","","","","","","","","","","","","","","","","","","","","","","","","","","","",""
"","choice_confirmation","","html-keyboard-response","74","254744","0.0-60.0-2.0-0.0","0","0","rwXAf","People","","null","","","","null","","","","4","43","44","","","","","","","","","","","","","","","","","","","","","","","","","","","","","","","","","","","","","",""
"","fixation","","html-keyboard-response","75","255746","0.0-61.0-0.0","0","0","rwXAf","People","","null","","","","null","","","","","","","","","","","","","","","","","","","","","","","","","","","","","","","","","","","","","","","","","","","",""
"","deliberation","","html-keyboard-response","76","256738","0.0-61.0-1.0","0","0","rwXAf","People","","990","","","","75","","","","5","8","36","0","1","27","16","bruce-dixon-3M9WJQVHzog-unsplash.jpg","ospan-ali-mGdA2fzjWLo-unsplash.jpg","1","0","36","8","","","","","","","","","","","","","","","","","","","","","","","","","","","",""
"","choice_confirmation","","html-keyboard-response","77","257240","0.0-61.0-2.0-0.0","0","0","rwXAf","People","","null","","","","null","","","","5","8","36","","","","","","","","","","","","","","","","","","","","","","","","","","","","","","","","","","","","","",""
"","fixation","","html-keyboard-response","78","258243","0.0-62.0-0.0","0","0","rwXAf","People","","null","","","","null","","","","","","","","","","","","","","","","","","","","","","","","","","","","","","","","","","","","","","","","","","","",""
"","deliberation","","html-keyboard-response","79","260162","0.0-62.0-1.0","0","0","rwXAf","People","","1917","","","","75","","","","6","0","17","1","-1","17","23","abstral-official-cyOKLSgkgCE-unsplash.jpg","gleb-lukomets-paBzWCPN23k-unsplash.jpg","1","0","17","0","","","","","","","","","","","","","","","","","","","","","","","","","","","",""
"","choice_confirmation","","html-keyboard-response","80","260664","0.0-62.0-2.0-0.0","0","0","rwXAf","People","","null","","","","null","","","","6","0","17","","","","","","","","","","","","","","","","","","","","","","","","","","","","","","","","","","","","","",""
"","explain_trial","","survey-text","81","272468","0.0-62.0-5.0-0.0","0","0","rwXAf","People","","11800","{""Q0"":""female not male""}","","","","","","","6","0","17","","","","","","","","","","","{""Q0"":""female not male""}","","","","","","","","","","","","","","","","","","","","","","","","","","",""
"","fixation","","html-keyboard-response","82","273470","0.0-63.0-0.0","0","0","rwXAf","People","","null","","","","null","","","","","","","","","","","","","","","","","","","","","","","","","","","","","","","","","","","","","","","","","","","",""
"","deliberation","","html-keyboard-response","83","274258","0.0-63.0-1.0","0","0","rwXAf","People","","786","","","","68","","","","7","7","35","0","1","8","18","brooke-cagle-HRZUzoX1e6w-unsplash.jpg","oliver-ragfelt-khV4fTy6-D8-unsplash.jpg","1","1","7","35","","","","","","","","","","","","","","","","","","","","","","","","","","","",""
"","choice_confirmation","","html-keyboard-response","84","274761","0.0-63.0-2.0-0.0","0","0","rwXAf","People","","null","","","","null","","","","7","7","35","","","","","","","","","","","","","","","","","","","","","","","","","","","","","","","","","","","","","",""
"","fixation","","html-keyboard-response","85","275763","0.0-64.0-0.0","0","0","rwXAf","People","","null","","","","null","","","","","","","","","","","","","","","","","","","","","","","","","","","","","","","","","","","","","","","","","","","",""
"","deliberation","","html-keyboard-response","86","277041","0.0-64.0-1.0","0","0","rwXAf","People","","1276","","","","68","","","","8","30","34","1","-1","13","22","matheus-ferrero-pg_WCHWSdT8-unsplash.jpg","oliver-johnson-1TUIcKob7Zs-unsplash.jpg","1","1","30","34","","","","","","","","","","","","","","","","","","","","","","","","","","","",""
"","choice_confirmation","","html-keyboard-response","87","277544","0.0-64.0-2.0-0.0","0","0","rwXAf","People","","null","","","","null","","","","8","30","34","","","","","","","","","","","","","","","","","","","","","","","","","","","","","","","","","","","","","",""
"","explain_trial","","survey-text","88","286804","0.0-64.0-5.0-0.0","0","0","rwXAf","People","","9257","{""Q0"":""that hat looks cool""}","","","","","","","8","30","34","","","","","","","","","","","{""Q0"":""that hat looks cool""}","","","","","","","","","","","","","","","","","","","","","","","","","","",""
"","fixation","","html-keyboard-response","89","287807","0.0-65.0-0.0","0","0","rwXAf","People","","null","","","","null","","","","","","","","","","","","","","","","","","","","","","","","","","","","","","","","","","","","","","","","","","","",""
"","deliberation","","html-keyboard-response","90","289122","0.0-65.0-1.0","0","0","rwXAf","People","","1312","","","","68","","","","9","28","49","1","-1","13","12","justin-chen-J7Cf1Gch49E-unsplash.jpg","vicky-hladynets-_gDoyVv5F4c-unsplash.jpg","1","1","28","49","","","","","","","","","","","","","","","","","","","","","","","","","","","",""
"","choice_confirmation","","html-keyboard-response","91","289625","0.0-65.0-2.0-0.0","0","0","rwXAf","People","","null","","","","null","","","","9","28","49","","","","","","","","","","","","","","","","","","","","","","","","","","","","","","","","","","","","","",""
"","explain_trial","","survey-text","92","299380","0.0-65.0-5.0-0.0","0","0","rwXAf","People","","9752","{""Q0"":""i want to punch him""}","","","","","","","9","28","49","","","","","","","","","","","{""Q0"":""i want to punch him""}","","","","","","","","","","","","","","","","","","","","","","","","","","",""
"","fixation","","html-keyboard-response","93","300383","0.0-66.0-0.0","0","0","rwXAf","People","","null","","","","null","","","","","","","","","","","","","","","","","","","","","","","","","","","","","","","","","","","","","","","","","","","",""
"","deliberation","","html-keyboard-response","94","301458","0.0-66.0-1.0","0","0","rwXAf","People","","1072","","","","75","","","","10","19","6","1","-1","12","9","ha-nguy-n-OFSQ6bHjFjs-unsplash.jpg","ben-o-bro-C5XyLljkMrY-unsplash.jpg","1","0","6","19","","","","","","","","","","","","","","","","","","","","","","","","","","","",""
"","choice_confirmation","","html-keyboard-response","95","301961","0.0-66.0-2.0-0.0","0","0","rwXAf","People","","null","","","","null","","","","10","19","6","","","","","","","","","","","","","","","","","","","","","","","","","","","","","","","","","","","","","",""
"","explain_trial","","survey-text","96","311044","0.0-66.0-5.0-0.0","0","0","rwXAf","People","","9080","{""Q0"":""people like black people""}","","","","","","","10","19","6","","","","","","","","","","","{""Q0"":""people like black people""}","","","","","","","","","","","","","","","","","","","","","","","","","","",""
"","fixation","","html-keyboard-response","97","312046","0.0-67.0-0.0","0","0","rwXAf","People","","null","","","","null","","","","","","","","","","","","","","","","","","","","","","","","","","","","","","","","","","","","","","","","","","","",""
"","deliberation","","html-keyboard-response","98","313330","0.0-67.0-1.0","0","0","rwXAf","People","","1281","","","","68","","","","11","25","22","0","-1","7","28","joseph-gonzalez-iFgRcqHznqg-unsplash.jpg","jessica-radanavong-mrYkTuAesKE-unsplash.jpg","1","1","25","22","","","","","","","","","","","","","","","","","","","","","","","","","","","",""
"","choice_confirmation","","html-keyboard-response","99","313832","0.0-67.0-2.0-0.0","0","0","rwXAf","People","","null","","","","null","","","","11","25","22","","","","","","","","","","","","","","","","","","","","","","","","","","","","","","","","","","","","","",""
"","practice_deliberation_again","","html-keyboard-response","100","317681","0.0-67.0-6.0-0.0","0","0","rwXAf","People","","3847","","","","78","","","","","","","","","","","","","","","","","","","","","","","","","","","","","","","","","","","","","","","","","","","",""
"","fixation","","html-keyboard-response","101","318683","0.0-68.0-0.0","0","0","rwXAf","People","","null","","","","null","","","","","","","","","","","","","","","","","","","","","","","","","","","","","","","","","","","","","","","","","","","",""
"","deliberation","","html-keyboard-response","102","320770","0.0-68.0-1.0","0","0","rwXAf","People","","2084","","","","68","","","","12","12","9","0","1","11","11","daniel-rigdon-dXmXKPP2L4E-unsplash.jpg","carlos-andres-gomez-vJuk8Y86mRw-unsplash.jpg","2","1","12","9","","","","","","","","","","","","","","","","","","","","","","","","","","","",""
"","choice_confirmation","","html-keyboard-response","103","321272","0.0-68.0-2.0-0.0","0","0","rwXAf","People","","null","","","","null","","","","12","12","9","","","","","","","","","","","","","","","","","","","","","","","","","","","","","","","","","","","","","",""
"","fixation","","html-keyboard-response","104","322274","0.0-69.0-0.0","0","0","rwXAf","People","","null","","","","null","","","","","","","","","","","","","","","","","","","","","","","","","","","","","","","","","","","","","","","","","","","",""
"","deliberation","","html-keyboard-response","105","324290","0.0-69.0-1.0","0","0","rwXAf","People","","2014","","","","68","","","","13","28","49","0","-1","13","12","justin-chen-J7Cf1Gch49E-unsplash.jpg","vicky-hladynets-_gDoyVv5F4c-unsplash.jpg","2","1","28","49","","","","","","","","","","","","","","","","","","","","","","","","","","","",""
"","choice_confirmation","","html-keyboard-response","106","324792","0.0-69.0-2.0-0.0","0","0","rwXAf","People","","null","","","","null","","","","13","28","49","","","","","","","","","","","","","","","","","","","","","","","","","","","","","","","","","","","","","",""
"","fixation","","html-keyboard-response","107","325795","0.0-70.0-0.0","0","0","rwXAf","People","","null","","","","null","","","","","","","","","","","","","","","","","","","","","","","","","","","","","","","","","","","","","","","","","","","",""
"","deliberation","","html-keyboard-response","108","327010","0.0-70.0-1.0","0","0","rwXAf","People","","1212","","","","75","","","","14","19","6","0","-1","12","9","ha-nguy-n-OFSQ6bHjFjs-unsplash.jpg","ben-o-bro-C5XyLljkMrY-unsplash.jpg","2","0","6","19","","","","","","","","","","","","","","","","","","","","","","","","","","","",""
"","choice_confirmation","","html-keyboard-response","109","327512","0.0-70.0-2.0-0.0","0","0","rwXAf","People","","null","","","","null","","","","14","19","6","","","","","","","","","","","","","","","","","","","","","","","","","","","","","","","","","","","","","",""
"","fixation","","html-keyboard-response","110","328514","0.0-71.0-0.0","0","0","rwXAf","People","","null","","","","null","","","","","","","","","","","","","","","","","","","","","","","","","","","","","","","","","","","","","","","","","","","",""
"","deliberation","","html-keyboard-response","111","330274","0.0-71.0-1.0","0","0","rwXAf","People","","1757","","","","75","","","","15","18","27","0","-1","6","19","good-faces-xmSWVeGEnJw-unsplash.jpg","jurica-koletic-7YVZYZeITc8-unsplash.jpg","2","0","27","18","","","","","","","","","","","","","","","","","","","","","","","","","","","",""
"","choice_confirmation","","html-keyboard-response","112","330776","0.0-71.0-2.0-0.0","0","0","rwXAf","People","","null","","","","null","","","","15","18","27","","","","","","","","","","","","","","","","","","","","","","","","","","","","","","","","","","","","","",""
"","fixation","","html-keyboard-response","113","331779","0.0-72.0-0.0","0","0","rwXAf","People","","null","","","","null","","","","","","","","","","","","","","","","","","","","","","","","","","","","","","","","","","","","","","","","","","","",""
"","deliberation","","html-keyboard-response","114","332994","0.0-72.0-1.0","0","0","rwXAf","People","","1213","","","","68","","","","16","7","35","1","1","8","18","brooke-cagle-HRZUzoX1e6w-unsplash.jpg","oliver-ragfelt-khV4fTy6-D8-unsplash.jpg","2","1","7","35","","","","","","","","","","","","","","","","","","","","","","","","","","","",""
"","choice_confirmation","","html-keyboard-response","115","333496","0.0-72.0-2.0-0.0","0","0","rwXAf","People","","null","","","","null","","","","16","7","35","","","","","","","","","","","","","","","","","","","","","","","","","","","","","","","","","","","","","",""
"","explain_trial","","survey-text","116","340859","0.0-72.0-5.0-0.0","0","0","rwXAf","People","","7361","{""Q0"":""womanz""}","","","","","","","16","7","35","","","","","","","","","","","{""Q0"":""womanz""}","","","","","","","","","","","","","","","","","","","","","","","","","","",""
"","fixation","","html-keyboard-response","117","341862","0.0-73.0-0.0","0","0","rwXAf","People","","null","","","","null","","","","","","","","","","","","","","","","","","","","","","","","","","","","","","","","","","","","","","","","","","","",""
"","deliberation","","html-keyboard-response","118","344226","0.0-73.0-1.0","0","0","rwXAf","People","","2361","","","","75","","","","17","0","17","0","-1","17","23","abstral-official-cyOKLSgkgCE-unsplash.jpg","gleb-lukomets-paBzWCPN23k-unsplash.jpg","2","0","17","0","","","","","","","","","","","","","","","","","","","","","","","","","","","",""
"","choice_confirmation","","html-keyboard-response","119","344728","0.0-73.0-2.0-0.0","0","0","rwXAf","People","","null","","","","null","","","","17","0","17","","","","","","","","","","","","","","","","","","","","","","","","","","","","","","","","","","","","","",""
"","fixation","","html-keyboard-response","120","345731","0.0-74.0-0.0","0","0","rwXAf","People","","null","","","","null","","","","","","","","","","","","","","","","","","","","","","","","","","","","","","","","","","","","","","","","","","","",""
"","deliberation","","html-keyboard-response","121","349014","0.0-74.0-1.0","0","0","rwXAf","People","","3280","","","","68","","","","18","25","22","1","-1","7","28","joseph-gonzalez-iFgRcqHznqg-unsplash.jpg","jessica-radanavong-mrYkTuAesKE-unsplash.jpg","2","1","25","22","","","","","","","","","","","","","","","","","","","","","","","","","","","",""
"","choice_confirmation","","html-keyboard-response","122","349517","0.0-74.0-2.0-0.0","0","0","rwXAf","People","","null","","","","null","","","","18","25","22","","","","","","","","","","","","","","","","","","","","","","","","","","","","","","","","","","","","","",""
"","explain_trial","","survey-text","123","364612","0.0-74.0-5.0-0.0","0","0","rwXAf","People","","15092","{""Q0"":""the other person looks crazy maybe yakuza""}","","","","","","","18","25","22","","","","","","","","","","","{""Q0"":""the other person looks crazy maybe yakuza""}","","","","","","","","","","","","","","","","","","","","","","","","","","",""
"","fixation","","html-keyboard-response","124","365614","0.0-75.0-0.0","0","0","rwXAf","People","","null","","","","null","","","","","","","","","","","","","","","","","","","","","","","","","","","","","","","","","","","","","","","","","","","",""
"","deliberation","","html-keyboard-response","125","368161","0.0-75.0-1.0","0","0","rwXAf","People","","2545","","","","68","","","","19","43","44","1","1","26","7","raamin-ka-0qJBEzudn5E-unsplash.jpg","rikonavt-HQjfrvdTfak-unsplash.jpg","2","1","43","44","","","","","","","","","","","","","","","","","","","","","","","","","","","",""
"","choice_confirmation","","html-keyboard-response","126","368664","0.0-75.0-2.0-0.0","0","0","rwXAf","People","","null","","","","null","","","","19","43","44","","","","","","","","","","","","","","","","","","","","","","","","","","","","","","","","","","","","","",""
"","explain_trial","","survey-text","127","373900","0.0-75.0-5.0-0.0","0","0","rwXAf","People","","5232","{""Q0"":""white not black""}","","","","","","","19","43","44","","","","","","","","","","","{""Q0"":""white not black""}","","","","","","","","","","","","","","","","","","","","","","","","","","",""
"","fixation","","html-keyboard-response","128","374902","0.0-76.0-0.0","0","0","rwXAf","People","","null","","","","null","","","","","","","","","","","","","","","","","","","","","","","","","","","","","","","","","","","","","","","","","","","",""
"","deliberation","","html-keyboard-response","129","377041","0.0-76.0-1.0","0","0","rwXAf","People","","2138","","","","68","","","","20","30","34","0","-1","13","22","matheus-ferrero-pg_WCHWSdT8-unsplash.jpg","oliver-johnson-1TUIcKob7Zs-unsplash.jpg","2","1","30","34","","","","","","","","","","","","","","","","","","","","","","","","","","","",""
"","choice_confirmation","","html-keyboard-response","130","377544","0.0-76.0-2.0-0.0","0","0","rwXAf","People","","null","","","","null","","","","20","30","34","","","","","","","","","","","","","","","","","","","","","","","","","","","","","","","","","","","","","",""
"","fixation","","html-keyboard-response","131","378546","0.0-77.0-0.0","0","0","rwXAf","People","","null","","","","null","","","","","","","","","","","","","","","","","","","","","","","","","","","","","","","","","","","","","","","","","","","",""
"","deliberation","","html-keyboard-response","132","380194","0.0-77.0-1.0","0","0","rwXAf","People","","1645","","","","75","","","","21","2","15","1","1","7","15","arjunsyah-TBUA5KHJn6k-unsplash.jpg","gabriel-silverio-u3WmDyKGsrY-unsplash.jpg","2","0","15","2","","","","","","","","","","","","","","","","","","","","","","","","","","","",""
"","choice_confirmation","","html-keyboard-response","133","380697","0.0-77.0-2.0-0.0","0","0","rwXAf","People","","null","","","","null","","","","21","2","15","","","","","","","","","","","","","","","","","","","","","","","","","","","","","","","","","","","","","",""
"","explain_trial","","survey-text","134","385156","0.0-77.0-5.0-0.0","0","0","rwXAf","People","","4455","{""Q0"":""female""}","","","","","","","21","2","15","","","","","","","","","","","{""Q0"":""female""}","","","","","","","","","","","","","","","","","","","","","","","","","","",""
"","fixation","","html-keyboard-response","135","386158","0.0-78.0-0.0","0","0","rwXAf","People","","null","","","","null","","","","","","","","","","","","","","","","","","","","","","","","","","","","","","","","","","","","","","","","","","","",""
"","deliberation","","html-keyboard-response","136","388386","0.0-78.0-1.0","0","0","rwXAf","People","","2225","","","","68","","","","22","33","40","1","1","12","8","olena-sergienko-0TSd6uCKTKc-unsplash.jpg","prince-akachi-4Yv84VgQkRM-unsplash.jpg","2","1","33","40","","","","","","","","","","","","","","","","","","","","","","","","","","","",""
"","choice_confirmation","","html-keyboard-response","137","388888","0.0-78.0-2.0-0.0","0","0","rwXAf","People","","null","","","","null","","","","22","33","40","","","","","","","","","","","","","","","","","","","","","","","","","","","","","","","","","","","","","",""
"","explain_trial","","survey-text","138","392340","0.0-78.0-5.0-0.0","0","0","rwXAf","People","","3448","{""Q0"":""female""}","","","","","","","22","33","40","","","","","","","","","","","{""Q0"":""female""}","","","","","","","","","","","","","","","","","","","","","","","","","","",""
"","fixation","","html-keyboard-response","139","393343","0.0-79.0-0.0","0","0","rwXAf","People","","null","","","","null","","","","","","","","","","","","","","","","","","","","","","","","","","","","","","","","","","","","","","","","","","","",""
"","deliberation","","html-keyboard-response","140","396118","0.0-79.0-1.0","0","0","rwXAf","People","","2773","","","","75","","","","23","8","36","1","1","27","16","bruce-dixon-3M9WJQVHzog-unsplash.jpg","ospan-ali-mGdA2fzjWLo-unsplash.jpg","2","0","36","8","","","","","","","","","","","","","","","","","","","","","","","","","","","",""
"","choice_confirmation","","html-keyboard-response","141","396621","0.0-79.0-2.0-0.0","0","0","rwXAf","People","","null","","","","null","","","","23","8","36","","","","","","","","","","","","","","","","","","","","","","","","","","","","","","","","","","","","","",""
"","explain_trial","","survey-text","142","400828","0.0-79.0-5.0-0.0","0","0","rwXAf","People","","4203","{""Q0"":""female""}","","","","","","","23","8","36","","","","","","","","","","","{""Q0"":""female""}","","","","","","","","","","","","","","","","","","","","","","","","","","",""
"","start_critical_deliberation_block","","html-keyboard-response","143","403890","0.0-79.0-7.0-0.0","0","0","rwXAf","People","","3059","","","","78","","","","","","","","","","","","","","","","","","","","","","","","","","","","","","","","","","","","","","","","","","","",""
"","fixation","","html-keyboard-response","144","404892","0.0-80.0-0.0","0","0","rwXAf","People","","null","","","","null","","","","","","","","","","","","","","","","","","","","","","","","","","","","","","","","","","","","","","","","","","","",""
"","deliberation","","html-keyboard-response","145","406934","0.0-80.0-1.0","0","0","rwXAf","People","","2040","","","","68","","","","24","43","44","0","1","26","7","raamin-ka-0qJBEzudn5E-unsplash.jpg","rikonavt-HQjfrvdTfak-unsplash.jpg","3","1","43","44","","","","","","","","","","","","","","","","","","","","","","","","","","","",""
"","choice_confirmation","","html-keyboard-response","146","407437","0.0-80.0-2.0-0.0","0","0","rwXAf","People","","null","","","","null","","","","24","43","44","","","","","","","","","","","","","","","","","","","","","","","","","","","","","","","","","","","","","",""
"","fixation","","html-keyboard-response","147","408440","0.0-81.0-0.0","0","0","rwXAf","People","","null","","","","null","","","","","","","","","","","","","","","","","","","","","","","","","","","","","","","","","","","","","","","","","","","",""
"","deliberation","","html-keyboard-response","148","410002","0.0-81.0-1.0","0","0","rwXAf","People","","1559","","","","68","","","","25","7","35","0","1","8","18","brooke-cagle-HRZUzoX1e6w-unsplash.jpg","oliver-ragfelt-khV4fTy6-D8-unsplash.jpg","3","1","7","35","","","","","","","","","","","","","","","","","","","","","","","","","","","",""
"","choice_confirmation","","html-keyboard-response","149","410505","0.0-81.0-2.0-0.0","0","0","rwXAf","People","","null","","","","null","","","","25","7","35","","","","","","","","","","","","","","","","","","","","","","","","","","","","","","","","","","","","","",""
"","fixation","","html-keyboard-response","150","411507","0.0-82.0-0.0","0","0","rwXAf","People","","null","","","","null","","","","","","","","","","","","","","","","","","","","","","","","","","","","","","","","","","","","","","","","","","","",""
"","deliberation","","html-keyboard-response","151","412770","0.0-82.0-1.0","0","0","rwXAf","People","","1260","","","","75","","","","26","2","15","0","1","7","15","arjunsyah-TBUA5KHJn6k-unsplash.jpg","gabriel-silverio-u3WmDyKGsrY-unsplash.jpg","3","0","15","2","","","","","","","","","","","","","","","","","","","","","","","","","","","",""
"","choice_confirmation","","html-keyboard-response","152","413272","0.0-82.0-2.0-0.0","0","0","rwXAf","People","","null","","","","null","","","","26","2","15","","","","","","","","","","","","","","","","","","","","","","","","","","","","","","","","","","","","","",""
"","fixation","","html-keyboard-response","153","414275","0.0-83.0-0.0","0","0","rwXAf","People","","null","","","","null","","","","","","","","","","","","","","","","","","","","","","","","","","","","","","","","","","","","","","","","","","","",""
"","deliberation","","html-keyboard-response","154","415282","0.0-83.0-1.0","0","0","rwXAf","People","","1003","","","","75","","","","27","0","17","0","-1","17","23","abstral-official-cyOKLSgkgCE-unsplash.jpg","gleb-lukomets-paBzWCPN23k-unsplash.jpg","3","0","17","0","","","","","","","","","","","","","","","","","","","","","","","","","","","",""
"","choice_confirmation","","html-keyboard-response","155","415784","0.0-83.0-2.0-0.0","0","0","rwXAf","People","","null","","","","null","","","","27","0","17","","","","","","","","","","","","","","","","","","","","","","","","","","","","","","","","","","","","","",""
"","fixation","","html-keyboard-response","156","416787","0.0-84.0-0.0","0","0","rwXAf","People","","null","","","","null","","","","","","","","","","","","","","","","","","","","","","","","","","","","","","","","","","","","","","","","","","","",""
"","deliberation","","html-keyboard-response","157","417586","0.0-84.0-1.0","0","0","rwXAf","People","","796","","","","68","","","","28","28","49","0","-1","13","12","justin-chen-J7Cf1Gch49E-unsplash.jpg","vicky-hladynets-_gDoyVv5F4c-unsplash.jpg","3","1","28","49","","","","","","","","","","","","","","","","","","","","","","","","","","","",""
"","choice_confirmation","","html-keyboard-response","158","418088","0.0-84.0-2.0-0.0","0","0","rwXAf","People","","null","","","","null","","","","28","28","49","","","","","","","","","","","","","","","","","","","","","","","","","","","","","","","","","","","","","",""
"","fixation","","html-keyboard-response","159","419091","0.0-85.0-0.0","0","0","rwXAf","People","","null","","","","null","","","","","","","","","","","","","","","","","","","","","","","","","","","","","","","","","","","","","","","","","","","",""
"","deliberation","","html-keyboard-response","160","419906","0.0-85.0-1.0","0","0","rwXAf","People","","812","","","","75","","","","29","19","6","0","-1","12","9","ha-nguy-n-OFSQ6bHjFjs-unsplash.jpg","ben-o-bro-C5XyLljkMrY-unsplash.jpg","3","0","6","19","","","","","","","","","","","","","","","","","","","","","","","","","","","",""
"","choice_confirmation","","html-keyboard-response","161","420409","0.0-85.0-2.0-0.0","0","0","rwXAf","People","","null","","","","null","","","","29","19","6","","","","","","","","","","","","","","","","","","","","","","","","","","","","","","","","","","","","","",""
"","fixation","","html-keyboard-response","162","421411","0.0-86.0-0.0","0","0","rwXAf","People","","null","","","","null","","","","","","","","","","","","","","","","","","","","","","","","","","","","","","","","","","","","","","","","","","","",""
"","deliberation","","html-keyboard-response","163","422337","0.0-86.0-1.0","0","0","rwXAf","People","","924","","","","68","","","","30","33","40","0","1","12","8","olena-sergienko-0TSd6uCKTKc-unsplash.jpg","prince-akachi-4Yv84VgQkRM-unsplash.jpg","3","1","33","40","","","","","","","","","","","","","","","","","","","","","","","","","","","",""
"","choice_confirmation","","html-keyboard-response","164","422840","0.0-86.0-2.0-0.0","0","0","rwXAf","People","","null","","","","null","","","","30","33","40","","","","","","","","","","","","","","","","","","","","","","","","","","","","","","","","","","","","","",""
"","fixation","","html-keyboard-response","165","423843","0.0-87.0-0.0","0","0","rwXAf","People","","null","","","","null","","","","","","","","","","","","","","","","","","","","","","","","","","","","","","","","","","","","","","","","","","","",""
"","deliberation","","html-keyboard-response","166","424674","0.0-87.0-1.0","0","0","rwXAf","People","","829","","","","68","","","","31","12","9","0","1","11","11","daniel-rigdon-dXmXKPP2L4E-unsplash.jpg","carlos-andres-gomez-vJuk8Y86mRw-unsplash.jpg","3","1","12","9","","","","","","","","","","","","","","","","","","","","","","","","","","","",""
"","choice_confirmation","","html-keyboard-response","167","425176","0.0-87.0-2.0-0.0","0","0","rwXAf","People","","null","","","","null","","","","31","12","9","","","","","","","","","","","","","","","","","","","","","","","","","","","","","","","","","","","","","",""
"","fixation","","html-keyboard-response","168","426179","0.0-88.0-0.0","0","0","rwXAf","People","","null","","","","null","","","","","","","","","","","","","","","","","","","","","","","","","","","","","","","","","","","","","","","","","","","",""
"","deliberation","","html-keyboard-response","169","427105","0.0-88.0-1.0","0","0","rwXAf","People","","925","","","","68","","","","32","25","22","0","-1","7","28","joseph-gonzalez-iFgRcqHznqg-unsplash.jpg","jessica-radanavong-mrYkTuAesKE-unsplash.jpg","3","1","25","22","","","","","","","","","","","","","","","","","","","","","","","","","","","",""
"","choice_confirmation","","html-keyboard-response","170","427608","0.0-88.0-2.0-0.0","0","0","rwXAf","People","","null","","","","null","","","","32","25","22","","","","","","","","","","","","","","","","","","","","","","","","","","","","","","","","","","","","","",""
"","fixation","","html-keyboard-response","171","428611","0.0-89.0-0.0","0","0","rwXAf","People","","null","","","","null","","","","","","","","","","","","","","","","","","","","","","","","","","","","","","","","","","","","","","","","","","","",""
"","deliberation","","html-keyboard-response","172","429586","0.0-89.0-1.0","0","0","rwXAf","People","","972","","","","75","","","","33","8","36","0","1","27","16","bruce-dixon-3M9WJQVHzog-unsplash.jpg","ospan-ali-mGdA2fzjWLo-unsplash.jpg","3","0","36","8","","","","","","","","","","","","","","","","","","","","","","","","","","","",""
"","choice_confirmation","","html-keyboard-response","173","430088","0.0-89.0-2.0-0.0","0","0","rwXAf","People","","null","","","","null","","","","33","8","36","","","","","","","","","","","","","","","","","","","","","","","","","","","","","","","","","","","","","",""
"","fixation","","html-keyboard-response","174","431091","0.0-90.0-0.0","0","0","rwXAf","People","","null","","","","null","","","","","","","","","","","","","","","","","","","","","","","","","","","","","","","","","","","","","","","","","","","",""
"","deliberation","","html-keyboard-response","175","431858","0.0-90.0-1.0","0","0","rwXAf","People","","765","","","","68","","","","34","30","34","0","-1","13","22","matheus-ferrero-pg_WCHWSdT8-unsplash.jpg","oliver-johnson-1TUIcKob7Zs-unsplash.jpg","3","1","30","34","","","","","","","","","","","","","","","","","","","","","","","","","","","",""
"","choice_confirmation","","html-keyboard-response","176","432360","0.0-90.0-2.0-0.0","0","0","rwXAf","People","","null","","","","null","","","","34","30","34","","","","","","","","","","","","","","","","","","","","","","","","","","","","","","","","","","","","","",""
"","fixation","","html-keyboard-response","177","433363","0.0-91.0-0.0","0","0","rwXAf","People","","null","","","","null","","","","","","","","","","","","","","","","","","","","","","","","","","","","","","","","","","","","","","","","","","","",""
"","deliberation","","html-keyboard-response","178","434129","0.0-91.0-1.0","0","0","rwXAf","People","","764","","","","75","","","","35","18","27","0","-1","6","19","good-faces-xmSWVeGEnJw-unsplash.jpg","jurica-koletic-7YVZYZeITc8-unsplash.jpg","3","0","27","18","","","","","","","","","","","","","","","","","","","","","","","","","","","",""
"","choice_confirmation","","html-keyboard-response","179","434645","0.0-91.0-2.0-0.0","0","0","rwXAf","People","","null","","","","null","","","","35","18","27","","","","","","","","","","","","","","","","","","","","","","","","","","","","","","","","","","","","","",""
"","reward_learning_instructions","","instructions","180","501060","0.0-92.0-0.0","0","0","rwXAf","People","[{""page_index"":0,""viewing_time"":13852},{""page_index"":1,""viewing_time"":49448},{""page_index"":2,""viewing_time"":3112}]","66413","","","","","","","","","","","","","","","","","","","","","","","","","","","","","","","","","","","","","","","","","","","","","","","",""
"","","","survey-multi-choice","181","520092","0.0-92.0-1.0","0","0","rwXAf","People","","19027","{""Q0"":""True"",""Q1"":""True"",""Q2"":""Press the space bar to see its outcome"",""Q3"":""Press the relevant key while the outcome is presented""}","reward_comprehension_check","0","","","","","","","","","","","","","","","","","","","","","","","","","","","","","","","","","","","","","","","","","","","","",""
"","start_phase","","html-keyboard-response","182","525490","0.0-93.0","0","0","rwXAf","People","","5394","","","","78","","","","","","","","","","","","","","","","","","","","","","","","","","","","","","","","","","","","","","","","","","","",""
"","fixation","","html-keyboard-response","183","526492","0.0-94.0","0","0","rwXAf","People","","null","","","","null","","","","","","","","","","","","","","","","","","","","","","","","","","","","","","","","","","","","","","","","","","","",""
"","see_reward","","html-keyboard-response","184","527298","0.0-95.0","0","0","rwXAf","People","","803","","","","32","","7","","0","","","","1","","","","","1","","","","","149","803","","","","","","","","","","","","","","","","","","","","","","","","",""
"","reward_outcome","","html-keyboard-response","185","529301","0.0-96.0","0","0","rwXAf","People","","749","","","","38","","7","","0","","","","","","","","","","","","","","","","1","749","","","","","","","","","","","","","","","","","","","","","","",""
"","fixation","","html-keyboard-response","186","530304","0.0-99.0","0","0","rwXAf","People","","null","","","","null","","","","","","","","","","","","","","","","","","","","","","","","","","","","","","","","","","","","","","","","","","","",""
"","see_reward","","html-keyboard-response","187","531346","0.0-100.0","0","0","rwXAf","People","","1040","","","","32","","27","","1","","","","-1","","","","","1","","","","","0","1040","","","","","","","","","","","","","","","","","","","","","","","","",""
"","reward_outcome","","html-keyboard-response","188","533348","0.0-101.0","0","0","rwXAf","People","","749","","","","40","","27","","1","","","","","","","","","","","","","","","","-1","749","","","","","","","","","","","","","","","","","","","","","","",""
"","fixation","","html-keyboard-response","189","534351","0.0-104.0","0","0","rwXAf","People","","null","","","","null","","","","","","","","","","","","","","","","","","","","","","","","","","","","","","","","","","","","","","","","","","","",""
"","see_reward","","html-keyboard-response","190","535298","0.0-105.0","0","0","rwXAf","People","","944","","","","32","","30","","2","","","","-1","","","","","1","","","","","0","944","","","","","","","","","","","","","","","","","","","","","","","","",""
"","reward_outcome","","html-keyboard-response","191","537300","0.0-106.0","0","0","rwXAf","People","","797","","","","40","","30","","2","","","","","","","","","","","","","","","","-1","797","","","","","","","","","","","","","","","","","","","","","","",""
"","fixation","","html-keyboard-response","192","538303","0.0-109.0","0","0","rwXAf","People","","null","","","","null","","","","","","","","","","","","","","","","","","","","","","","","","","","","","","","","","","","","","","","","","","","",""
"","see_reward","","html-keyboard-response","193","538850","0.0-110.0","0","0","rwXAf","People","","545","","","","32","","43","","3","","","","1","","","","","1","","","","","150","545","","","","","","","","","","","","","","","","","","","","","","","","",""
"","reward_outcome","","html-keyboard-response","194","540853","0.0-111.0","0","0","rwXAf","People","","589","","","","38","","43","","3","","","","","","","","","","","","","","","","1","589","","","","","","","","","","","","","","","","","","","","","","",""
"","fixation","","html-keyboard-response","195","541855","0.0-114.0","0","0","rwXAf","People","","null","","","","null","","","","","","","","","","","","","","","","","","","","","","","","","","","","","","","","","","","","","","","","","","","",""
"","see_reward","","html-keyboard-response","196","542706","0.0-115.0","0","0","rwXAf","People","","848","","","","32","","6","","4","","","","-1","","","","","1","","","","","0","848","","","","","","","","","","","","","","","","","","","","","","","","",""
"","reward_outcome","","html-keyboard-response","197","544710","0.0-116.0","0","0","rwXAf","People","","556","","","","40","","6","","4","","","","","","","","","","","","","","","","-1","556","","","","","","","","","","","","","","","","","","","","","","",""
"","fixation","","html-keyboard-response","198","545712","0.0-119.0","0","0","rwXAf","People","","null","","","","null","","","","","","","","","","","","","","","","","","","","","","","","","","","","","","","","","","","","","","","","","","","",""
"","see_reward","","html-keyboard-response","199","546194","0.0-120.0","0","0","rwXAf","People","","479","","","","32","","12","","5","","","","1","","","","","1","","","","","152","479","","","","","","","","","","","","","","","","","","","","","","","","",""
"","reward_outcome","","html-keyboard-response","200","548196","0.0-121.0","0","0","rwXAf","People","","909","","","","38","","12","","5","","","","","","","","","","","","","","","","1","909","","","","","","","","","","","","","","","","","","","","","","",""
"","fixation","","html-keyboard-response","201","549199","0.0-124.0","0","0","rwXAf","People","","null","","","","null","","","","","","","","","","","","","","","","","","","","","","","","","","","","","","","","","","","","","","","","","","","",""
"","see_reward","","html-keyboard-response","202","549746","0.0-125.0","0","0","rwXAf","People","","544","","","","32","","28","","6","","","","-1","","","","","1","","","","","0","544","","","","","","","","","","","","","","","","","","","","","","","","",""
"","reward_outcome","","html-keyboard-response","203","551748","0.0-126.0","0","0","rwXAf","People","","414","","","","40","","28","","6","","","","","","","","","","","","","","","","-1","414","","","","","","","","","","","","","","","","","","","","","","",""
"","fixation","","html-keyboard-response","204","552750","0.0-129.0","0","0","rwXAf","People","","null","","","","null","","","","","","","","","","","","","","","","","","","","","","","","","","","","","","","","","","","","","","","","","","","",""
"","see_reward","","html-keyboard-response","205","553234","0.0-130.0","0","0","rwXAf","People","","481","","","","32","","12","","7","","","","1","","","","","1","","","","","152","481","","","","","","","","","","","","","","","","","","","","","","","","",""
"","reward_outcome","","html-keyboard-response","206","555236","0.0-131.0","0","0","rwXAf","People","","509","","","","38","","12","","7","","","","","","","","","","","","","","","","1","509","","","","","","","","","","","","","","","","","","","","","","",""
"","fixation","","html-keyboard-response","207","556239","0.0-134.0","0","0","rwXAf","People","","null","","","","null","","","","","","","","","","","","","","","","","","","","","","","","","","","","","","","","","","","","","","","","","","","",""
"","see_reward","","html-keyboard-response","208","557090","0.0-135.0","0","0","rwXAf","People","","849","","","","32","","15","","8","","","","1","","","","","1","","","","","156","849","","","","","","","","","","","","","","","","","","","","","","","","",""
"","reward_outcome","","html-keyboard-response","209","559093","0.0-136.0","0","0","rwXAf","People","","861","","","","38","","15","","8","","","","","","","","","","","","","","","","1","861","","","","","","","","","","","","","","","","","","","","","","",""
"","fixation","","html-keyboard-response","210","560097","0.0-139.0","0","0","rwXAf","People","","null","","","","null","","","","","","","","","","","","","","","","","","","","","","","","","","","","","","","","","","","","","","","","","","","",""
"","see_reward","","html-keyboard-response","211","560626","0.0-140.0","0","0","rwXAf","People","","526","","","","32","","27","","9","","","","-1","","","","","1","","","","","0","526","","","","","","","","","","","","","","","","","","","","","","","","",""
"","reward_outcome","","html-keyboard-response","212","562628","0.0-141.0","0","0","rwXAf","People","","653","","","","40","","27","","9","","","","","","","","","","","","","","","","-1","653","","","","","","","","","","","","","","","","","","","","","","",""
"","fixation","","html-keyboard-response","213","563631","0.0-144.0","0","0","rwXAf","People","","null","","","","null","","","","","","","","","","","","","","","","","","","","","","","","","","","","","","","","","","","","","","","","","","","",""
"","see_reward","","html-keyboard-response","214","564066","0.0-145.0","0","0","rwXAf","People","","434","","","","32","","17","","10","","","","-1","","","","","1","","","","","0","434","","","","","","","","","","","","","","","","","","","","","","","","",""
"","reward_outcome","","html-keyboard-response","215","566068","0.0-146.0","0","0","rwXAf","People","","621","","","","40","","17","","10","","","","","","","","","","","","","","","","-1","621","","","","","","","","","","","","","","","","","","","","","","",""
"","fixation","","html-keyboard-response","216","567071","0.0-149.0","0","0","rwXAf","People","","null","","","","null","","","","","","","","","","","","","","","","","","","","","","","","","","","","","","","","","","","","","","","","","","","",""
"","see_reward","","html-keyboard-response","217","567426","0.0-150.0","0","0","rwXAf","People","","352","","","","32","","43","","11","","","","1","","","","","1","","","","","150","352","","","","","","","","","","","","","","","","","","","","","","","","",""
"","reward_outcome","","html-keyboard-response","218","569428","0.0-151.0","0","0","rwXAf","People","","749","","","","38","","43","","11","","","","","","","","","","","","","","","","1","749","","","","","","","","","","","","","","","","","","","","","","",""
"","fixation","","html-keyboard-response","219","570431","0.0-154.0","0","0","rwXAf","People","","null","","","","null","","","","","","","","","","","","","","","","","","","","","","","","","","","","","","","","","","","","","","","","","","","",""
"","see_reward","","html-keyboard-response","220","570786","0.0-155.0","0","0","rwXAf","People","","352","","","","32","","36","","12","","","","1","","","","","1","","","","","142","352","","","","","","","","","","","","","","","","","","","","","","","","",""
"","reward_outcome","","html-keyboard-response","221","572788","0.0-156.0","0","0","rwXAf","People","","989","","","","38","","36","","12","","","","","","","","","","","","","","","","1","989","","","","","","","","","","","","","","","","","","","","","","",""
"","fixation","","html-keyboard-response","222","573791","0.0-159.0","0","0","rwXAf","People","","null","","","","null","","","","","","","","","","","","","","","","","","","","","","","","","","","","","","","","","","","","","","","","","","","",""
"","see_reward","","html-keyboard-response","223","574226","0.0-160.0","0","0","rwXAf","People","","434","","","","32","","28","","13","","","","-1","","","","","1","","","","","0","434","","","","","","","","","","","","","","","","","","","","","","","","",""
"","reward_outcome","","html-keyboard-response","224","576229","0.0-161.0","0","0","rwXAf","People","","509","","","","40","","28","","13","","","","","","","","","","","","","","","","-1","509","","","","","","","","","","","","","","","","","","","","","","",""
"","fixation","","html-keyboard-response","225","577232","0.0-164.0","0","0","rwXAf","People","","null","","","","null","","","","","","","","","","","","","","","","","","","","","","","","","","","","","","","","","","","","","","","","","","","",""
"","see_reward","","html-keyboard-response","226","577586","0.0-165.0","0","0","rwXAf","People","","351","","","","32","","36","","14","","","","1","","","","","1","","","","","142","351","","","","","","","","","","","","","","","","","","","","","","","","",""
"","reward_outcome","","html-keyboard-response","227","579588","0.0-166.0","0","0","rwXAf","People","","509","","","","38","","36","","14","","","","","","","","","","","","","","","","1","509","","","","","","","","","","","","","","","","","","","","","","",""
"","fixation","","html-keyboard-response","228","580591","0.0-169.0","0","0","rwXAf","People","","null","","","","null","","","","","","","","","","","","","","","","","","","","","","","","","","","","","","","","","","","","","","","","","","","",""
"","see_reward","","html-keyboard-response","229","580914","0.0-170.0","0","0","rwXAf","People","","320","","","","32","","17","","15","","","","-1","","","","","1","","","","","0","320","","","","","","","","","","","","","","","","","","","","","","","","",""
"","reward_outcome","","html-keyboard-response","230","582916","0.0-171.0","0","0","rwXAf","People","","605","","","","40","","17","","15","","","","","","","","","","","","","","","","-1","605","","","","","","","","","","","","","","","","","","","","","","",""
"","fixation","","html-keyboard-response","231","583919","0.0-174.0","0","0","rwXAf","People","","null","","","","null","","","","","","","","","","","","","","","","","","","","","","","","","","","","","","","","","","","","","","","","","","","",""
"","see_reward","","html-keyboard-response","232","584178","0.0-175.0","0","0","rwXAf","People","","256","","","","32","","25","","16","","","","-1","","","","","1","","","","","0","256","","","","","","","","","","","","","","","","","","","","","","","","",""
"","reward_outcome","","html-keyboard-response","233","586180","0.0-176.0","0","0","rwXAf","People","","653","","","","40","","25","","16","","","","","","","","","","","","","","","","-1","653","","","","","","","","","","","","","","","","","","","","","","",""
"","fixation","","html-keyboard-response","234","587182","0.0-179.0","0","0","rwXAf","People","","null","","","","null","","","","","","","","","","","","","","","","","","","","","","","","","","","","","","","","","","","","","","","","","","","",""
"","see_reward","","html-keyboard-response","235","587570","0.0-180.0","0","0","rwXAf","People","","385","","","","32","","6","","17","","","","-1","","","","","1","","","","","0","385","","","","","","","","","","","","","","","","","","","","","","","","",""
"","reward_outcome","","html-keyboard-response","236","589572","0.0-181.0","0","0","rwXAf","People","","589","","","","40","","6","","17","","","","","","","","","","","","","","","","-1","589","","","","","","","","","","","","","","","","","","","","","","",""
"","fixation","","html-keyboard-response","237","590575","0.0-184.0","0","0","rwXAf","People","","null","","","","null","","","","","","","","","","","","","","","","","","","","","","","","","","","","","","","","","","","","","","","","","","","",""
"","see_reward","","html-keyboard-response","238","590866","0.0-185.0","0","0","rwXAf","People","","288","","","","32","","7","","18","","","","1","","","","","1","","","","","149","288","","","","","","","","","","","","","","","","","","","","","","","","",""
"","reward_outcome","","html-keyboard-response","239","592868","0.0-186.0","0","0","rwXAf","People","","558","","","","38","","7","","18","","","","","","","","","","","","","","","","1","558","","","","","","","","","","","","","","","","","","","","","","",""
"","fixation","","html-keyboard-response","240","593872","0.0-189.0","0","0","rwXAf","People","","null","","","","null","","","","","","","","","","","","","","","","","","","","","","","","","","","","","","","","","","","","","","","","","","","",""
"","see_reward","","html-keyboard-response","241","594290","0.0-190.0","0","0","rwXAf","People","","416","","","","32","","15","","19","","","","1","","","","","1","","","","","156","416","","","","","","","","","","","","","","","","","","","","","","","","",""
"","reward_outcome","","html-keyboard-response","242","596292","0.0-191.0","0","0","rwXAf","People","","589","","","","38","","15","","19","","","","","","","","","","","","","","","","1","589","","","","","","","","","","","","","","","","","","","","","","",""
"","fixation","","html-keyboard-response","243","597295","0.0-194.0","0","0","rwXAf","People","","null","","","","null","","","","","","","","","","","","","","","","","","","","","","","","","","","","","","","","","","","","","","","","","","","",""
"","see_reward","","html-keyboard-response","244","597794","0.0-195.0","0","0","rwXAf","People","","496","","","","32","","33","","20","","","","1","","","","","1","","","","","143","496","","","","","","","","","","","","","","","","","","","","","","","","",""
"","reward_outcome","","html-keyboard-response","245","599796","0.0-196.0","0","0","rwXAf","People","","477","","","","38","","33","","20","","","","","","","","","","","","","","","","1","477","","","","","","","","","","","","","","","","","","","","","","",""
"","fixation","","html-keyboard-response","246","600799","0.0-199.0","0","0","rwXAf","People","","null","","","","null","","","","","","","","","","","","","","","","","","","","","","","","","","","","","","","","","","","","","","","","","","","",""
"","see_reward","","html-keyboard-response","247","601042","0.0-200.0","0","0","rwXAf","People","","240","","","","32","","30","","21","","","","-1","","","","","1","","","","","0","240","","","","","","","","","","","","","","","","","","","","","","","","",""
"","reward_outcome","","html-keyboard-response","248","603044","0.0-201.0","0","0","rwXAf","People","","525","","","","40","","30","","21","","","","","","","","","","","","","","","","-1","525","","","","","","","","","","","","","","","","","","","","","","",""
"","fixation","","html-keyboard-response","249","604047","0.0-204.0","0","0","rwXAf","People","","null","","","","null","","","","","","","","","","","","","","","","","","","","","","","","","","","","","","","","","","","","","","","","","","","",""
"","see_reward","","html-keyboard-response","250","604482","0.0-205.0","0","0","rwXAf","People","","432","","","","32","","25","","22","","","","-1","","","","","1","","","","","0","432","","","","","","","","","","","","","","","","","","","","","","","","",""
"","reward_outcome","","html-keyboard-response","251","606484","0.0-206.0","0","0","rwXAf","People","","397","","","","40","","25","","22","","","","","","","","","","","","","","","","-1","397","","","","","","","","","","","","","","","","","","","","","","",""
"","fixation","","html-keyboard-response","252","607486","0.0-209.0","0","0","rwXAf","People","","null","","","","null","","","","","","","","","","","","","","","","","","","","","","","","","","","","","","","","","","","","","","","","","","","",""
"","see_reward","","html-keyboard-response","253","607842","0.0-210.0","0","0","rwXAf","People","","353","","","","32","","33","","23","","","","1","","","","","1","","","","","143","353","","","","","","","","","","","","","","","","","","","","","","","","",""
"","reward_outcome","","html-keyboard-response","254","609844","0.0-211.0","0","0","rwXAf","People","","621","","","","38","","33","","23","","","","","","","","","","","","","","","","1","621","","","","","","","","","","","","","","","","","","","","","","",""
"","block_over","","html-keyboard-response","255","612690","0.0-213.0-0.0","0","0","rwXAf","People","","2843","","","","78","","","","","","","","","","","","","","","","","","","","","","","","","","","","","","","","","","","","","","","","","","","",""
"","fixation","","html-keyboard-response","256","613692","0.0-214.0","0","0","rwXAf","People","","null","","","","null","","","","","","","","","","","","","","","","","","","","","","","","","","","","","","","","","","","","","","","","","","","",""
"","see_reward","","html-keyboard-response","257","614242","0.0-215.0","0","0","rwXAf","People","","547","","","","32","","27","","24","","","","-1","","","","","2","","","","","0","547","","","","","","","","","","","","","","","","","","","","","","","","",""
"","reward_outcome","","html-keyboard-response","258","616244","0.0-216.0","0","0","rwXAf","People","","493","","","","40","","27","","24","","","","","","","","","","","","","","","","-1","493","","","","","","","","","","","","","","","","","","","","","","",""
"","fixation","","html-keyboard-response","259","617247","0.0-219.0","0","0","rwXAf","People","","null","","","","null","","","","","","","","","","","","","","","","","","","","","","","","","","","","","","","","","","","","","","","","","","","",""
"","see_reward","","html-keyboard-response","260","617586","0.0-220.0","0","0","rwXAf","People","","336","","","","32","","17","","25","","","","-1","","","","","2","","","","","0","336","","","","","","","","","","","","","","","","","","","","","","","","",""
"","reward_outcome","","html-keyboard-response","261","619588","0.0-221.0","0","0","rwXAf","People","","461","","","","40","","17","","25","","","","","","","","","","","","","","","","-1","461","","","","","","","","","","","","","","","","","","","","","","",""
"","fixation","","html-keyboard-response","262","620590","0.0-224.0","0","0","rwXAf","People","","null","","","","null","","","","","","","","","","","","","","","","","","","","","","","","","","","","","","","","","","","","","","","","","","","",""
"","see_reward","","html-keyboard-response","263","620898","0.0-225.0","0","0","rwXAf","People","","305","","","","32","","12","","26","","","","1","","","","","2","","","","","152","305","","","","","","","","","","","","","","","","","","","","","","","","",""
"","reward_outcome","","html-keyboard-response","264","622901","0.0-226.0","0","0","rwXAf","People","","445","","","","38","","12","","26","","","","","","","","","","","","","","","","1","445","","","","","","","","","","","","","","","","","","","","","","",""
"","fixation","","html-keyboard-response","265","623903","0.0-229.0","0","0","rwXAf","People","","null","","","","null","","","","","","","","","","","","","","","","","","","","","","","","","","","","","","","","","","","","","","","","","","","",""
"","see_reward","","html-keyboard-response","266","624194","0.0-230.0","0","0","rwXAf","People","","288","","","","32","","17","","27","","","","-1","","","","","2","","","","","0","288","","","","","","","","","","","","","","","","","","","","","","","","",""
"","reward_outcome","","html-keyboard-response","267","626196","0.0-231.0","0","0","rwXAf","People","","461","","","","40","","17","","27","","","","","","","","","","","","","","","","-1","461","","","","","","","","","","","","","","","","","","","","","","",""
"","fixation","","html-keyboard-response","268","627199","0.0-234.0","0","0","rwXAf","People","","null","","","","null","","","","","","","","","","","","","","","","","","","","","","","","","","","","","","","","","","","","","","","","","","","",""
"","see_reward","","html-keyboard-response","269","627522","0.0-235.0","0","0","rwXAf","People","","320","","","","32","","30","","28","","","","-1","","","","","2","","","","","0","320","","","","","","","","","","","","","","","","","","","","","","","","",""
"","reward_outcome","","html-keyboard-response","270","629524","0.0-236.0","0","0","rwXAf","People","","461","","","","40","","30","","28","","","","","","","","","","","","","","","","-1","461","","","","","","","","","","","","","","","","","","","","","","",""
"","fixation","","html-keyboard-response","271","630529","0.0-239.0","0","0","rwXAf","People","","null","","","","null","","","","","","","","","","","","","","","","","","","","","","","","","","","","","","","","","","","","","","","","","","","",""
"","see_reward","","html-keyboard-response","272","630818","0.0-240.0","0","0","rwXAf","People","","286","","","","32","","27","","29","","","","-1","","","","","2","","","","","0","286","","","","","","","","","","","","","","","","","","","","","","","","",""
"","reward_outcome","","html-keyboard-response","273","632820","0.0-241.0","0","0","rwXAf","People","","494","","","","40","","27","","29","","","","","","","","","","","","","","","","-1","494","","","","","","","","","","","","","","","","","","","","","","",""
"","fixation","","html-keyboard-response","274","633823","0.0-244.0","0","0","rwXAf","People","","null","","","","null","","","","","","","","","","","","","","","","","","","","","","","","","","","","","","","","","","","","","","","","","","","",""
"","see_reward","","html-keyboard-response","275","634162","0.0-245.0","0","0","rwXAf","People","","336","","","","32","","28","","30","","","","-1","","","","","2","","","","","0","336","","","","","","","","","","","","","","","","","","","","","","","","",""
"","reward_outcome","","html-keyboard-response","276","636164","0.0-246.0","0","0","rwXAf","People","","462","","","","40","","28","","30","","","","","","","","","","","","","","","","-1","462","","","","","","","","","","","","","","","","","","","","","","",""
"","fixation","","html-keyboard-response","277","637167","0.0-249.0","0","0","rwXAf","People","","null","","","","null","","","","","","","","","","","","","","","","","","","","","","","","","","","","","","","","","","","","","","","","","","","",""
"","see_reward","","html-keyboard-response","278","637506","0.0-250.0","0","0","rwXAf","People","","336","","","","32","","30","","31","","","","-1","","","","","2","","","","","0","336","","","","","","","","","","","","","","","","","","","","","","","","",""
"","reward_outcome","","html-keyboard-response","279","639509","0.0-251.0","0","0","rwXAf","People","","573","","","","40","","30","","31","","","","","","","","","","","","","","","","-1","573","","","","","","","","","","","","","","","","","","","","","","",""
"","fixation","","html-keyboard-response","280","640512","0.0-254.0","0","0","rwXAf","People","","null","","","","null","","","","","","","","","","","","","","","","","","","","","","","","","","","","","","","","","","","","","","","","","","","",""
"","see_reward","","html-keyboard-response","281","640802","0.0-255.0","0","0","rwXAf","People","","287","","","","32","","33","","32","","","","1","","","","","2","","","","","143","287","","","","","","","","","","","","","","","","","","","","","","","","",""
"","reward_outcome","","html-keyboard-response","282","642804","0.0-256.0","0","0","rwXAf","People","","461","","","","38","","33","","32","","","","","","","","","","","","","","","","1","461","","","","","","","","","","","","","","","","","","","","","","",""
"","fixation","","html-keyboard-response","283","643806","0.0-259.0","0","0","rwXAf","People","","null","","","","null","","","","","","","","","","","","","","","","","","","","","","","","","","","","","","","","","","","","","","","","","","","",""
"","see_reward","","html-keyboard-response","284","644162","0.0-260.0","0","0","rwXAf","People","","353","","","","32","","43","","33","","","","1","","","","","2","","","","","150","353","","","","","","","","","","","","","","","","","","","","","","","","",""
"","reward_outcome","","html-keyboard-response","285","646164","0.0-261.0","0","0","rwXAf","People","","420","","","","38","","43","","33","","","","","","","","","","","","","","","","1","420","","","","","","","","","","","","","","","","","","","","","","",""
"","fixation","","html-keyboard-response","286","647167","0.0-264.0","0","0","rwXAf","People","","null","","","","null","","","","","","","","","","","","","","","","","","","","","","","","","","","","","","","","","","","","","","","","","","","",""
"","see_reward","","html-keyboard-response","287","647666","0.0-265.0","0","0","rwXAf","People","","496","","","","32","","15","","34","","","","1","","","","","2","","","","","156","496","","","","","","","","","","","","","","","","","","","","","","","","",""
"","reward_outcome","","html-keyboard-response","288","649668","0.0-266.0","0","0","rwXAf","People","","414","","","","38","","15","","34","","","","","","","","","","","","","","","","1","414","","","","","","","","","","","","","","","","","","","","","","",""
"","fixation","","html-keyboard-response","289","650670","0.0-269.0","0","0","rwXAf","People","","null","","","","null","","","","","","","","","","","","","","","","","","","","","","","","","","","","","","","","","","","","","","","","","","","",""
"","see_reward","","html-keyboard-response","290","651138","0.0-270.0","0","0","rwXAf","People","","465","","","","32","","25","","35","","","","-1","","","","","2","","","","","0","465","","","","","","","","","","","","","","","","","","","","","","","","",""
"","reward_outcome","","html-keyboard-response","291","653140","0.0-271.0","0","0","rwXAf","People","","333","","","","40","","25","","35","","","","","","","","","","","","","","","","-1","333","","","","","","","","","","","","","","","","","","","","","","",""
"","fixation","","html-keyboard-response","292","654143","0.0-274.0","0","0","rwXAf","People","","null","","","","null","","","","","","","","","","","","","","","","","","","","","","","","","","","","","","","","","","","","","","","","","","","",""
"","see_reward","","html-keyboard-response","293","654562","0.0-275.0","0","0","rwXAf","People","","417","","","","32","","33","","36","","","","1","","","","","2","","","","","143","417","","","","","","","","","","","","","","","","","","","","","","","","",""
"","reward_outcome","","html-keyboard-response","294","656564","0.0-276.0","0","0","rwXAf","People","","558","","","","38","","33","","36","","","","","","","","","","","","","","","","1","558","","","","","","","","","","","","","","","","","","","","","","",""
"","fixation","","html-keyboard-response","295","657566","0.0-279.0","0","0","rwXAf","People","","null","","","","null","","","","","","","","","","","","","","","","","","","","","","","","","","","","","","","","","","","","","","","","","","","",""
"","see_reward","","html-keyboard-response","296","658162","0.0-280.0","0","0","rwXAf","People","","593","","","","32","","36","","37","","","","1","","","","","2","","","","","142","593","","","","","","","","","","","","","","","","","","","","","","","","",""
"","reward_outcome","","html-keyboard-response","297","660164","0.0-281.0","0","0","rwXAf","People","","1101","","","","38","","36","","37","","","","","","","","","","","","","","","","1","1101","","","","","","","","","","","","","","","","","","","","","","",""
"","fixation","","html-keyboard-response","298","661166","0.0-284.0","0","0","rwXAf","People","","null","","","","null","","","","","","","","","","","","","","","","","","","","","","","","","","","","","","","","","","","","","","","","","","","",""
"","see_reward","","html-keyboard-response","299","661554","0.0-285.0","0","0","rwXAf","People","","386","","","","32","","7","","38","","","","1","","","","","2","","","","","149","386","","","","","","","","","","","","","","","","","","","","","","","","",""
"","reward_outcome","","html-keyboard-response","300","663556","0.0-286.0","0","0","rwXAf","People","","493","","","","38","","7","","38","","","","","","","","","","","","","","","","1","493","","","","","","","","","","","","","","","","","","","","","","",""
"","fixation","","html-keyboard-response","301","664558","0.0-289.0","0","0","rwXAf","People","","null","","","","null","","","","","","","","","","","","","","","","","","","","","","","","","","","","","","","","","","","","","","","","","","","",""
"","see_reward","","html-keyboard-response","302","664850","0.0-290.0","0","0","rwXAf","People","","289","","","","32","","6","","39","","","","-1","","","","","2","","","","","0","289","","","","","","","","","","","","","","","","","","","","","","","","",""
"","reward_outcome","","html-keyboard-response","303","666852","0.0-291.0","0","0","rwXAf","People","","541","","","","40","","6","","39","","","","","","","","","","","","","","","","-1","541","","","","","","","","","","","","","","","","","","","","","","",""
"","fixation","","html-keyboard-response","304","667854","0.0-294.0","0","0","rwXAf","People","","null","","","","null","","","","","","","","","","","","","","","","","","","","","","","","","","","","","","","","","","","","","","","","","","","",""
"","see_reward","","html-keyboard-response","305","668130","0.0-295.0","0","0","rwXAf","People","","273","","","","32","","43","","40","","","","1","","","","","2","","","","","150","273","","","","","","","","","","","","","","","","","","","","","","","","",""
"","reward_outcome","","html-keyboard-response","306","670132","0.0-296.0","0","0","rwXAf","People","","446","","","","38","","43","","40","","","","","","","","","","","","","","","","1","446","","","","","","","","","","","","","","","","","","","","","","",""
"","fixation","","html-keyboard-response","307","671134","0.0-299.0","0","0","rwXAf","People","","null","","","","null","","","","","","","","","","","","","","","","","","","","","","","","","","","","","","","","","","","","","","","","","","","",""
"","see_reward","","html-keyboard-response","308","671474","0.0-300.0","0","0","rwXAf","People","","337","","","","32","","28","","41","","","","-1","","","","","2","","","","","0","337","","","","","","","","","","","","","","","","","","","","","","","","",""
"","reward_outcome","","html-keyboard-response","309","673476","0.0-301.0","0","0","rwXAf","People","","382","","","","40","","28","","41","","","","","","","","","","","","","","","","-1","382","","","","","","","","","","","","","","","","","","","","","","",""
"","fixation","","html-keyboard-response","310","674478","0.0-304.0","0","0","rwXAf","People","","null","","","","null","","","","","","","","","","","","","","","","","","","","","","","","","","","","","","","","","","","","","","","","","","","",""
"","see_reward","","html-keyboard-response","311","674834","0.0-305.0","0","0","rwXAf","People","","353","","","","32","","6","","42","","","","-1","","","","","2","","","","","0","353","","","","","","","","","","","","","","","","","","","","","","","","",""
"","reward_outcome","","html-keyboard-response","312","676836","0.0-306.0","0","0","rwXAf","People","","381","","","","40","","6","","42","","","","","","","","","","","","","","","","-1","381","","","","","","","","","","","","","","","","","","","","","","",""
"","fixation","","html-keyboard-response","313","677838","0.0-309.0","0","0","rwXAf","People","","null","","","","null","","","","","","","","","","","","","","","","","","","","","","","","","","","","","","","","","","","","","","","","","","","",""
"","see_reward","","html-keyboard-response","314","678162","0.0-310.0","0","0","rwXAf","People","","321","","","","32","","25","","43","","","","-1","","","","","2","","","","","0","321","","","","","","","","","","","","","","","","","","","","","","","","",""
"","reward_outcome","","html-keyboard-response","315","680164","0.0-311.0","0","0","rwXAf","People","","445","","","","40","","25","","43","","","","","","","","","","","","","","","","-1","445","","","","","","","","","","","","","","","","","","","","","","",""
"","fixation","","html-keyboard-response","316","681166","0.0-314.0","0","0","rwXAf","People","","null","","","","null","","","","","","","","","","","","","","","","","","","","","","","","","","","","","","","","","","","","","","","","","","","",""
"","see_reward","","html-keyboard-response","317","681538","0.0-315.0","0","0","rwXAf","People","","369","","","","32","","15","","44","","","","1","","","","","2","","","","","156","369","","","","","","","","","","","","","","","","","","","","","","","","",""
"","reward_outcome","","html-keyboard-response","318","683540","0.0-316.0","0","0","rwXAf","People","","621","","","","38","","15","","44","","","","","","","","","","","","","","","","1","621","","","","","","","","","","","","","","","","","","","","","","",""
"","fixation","","html-keyboard-response","319","684542","0.0-319.0","0","0","rwXAf","People","","null","","","","null","","","","","","","","","","","","","","","","","","","","","","","","","","","","","","","","","","","","","","","","","","","",""
"","see_reward","","html-keyboard-response","320","684834","0.0-320.0","0","0","rwXAf","People","","290","","","","32","","36","","45","","","","1","","","","","2","","","","","142","290","","","","","","","","","","","","","","","","","","","","","","","","",""
"","reward_outcome","","html-keyboard-response","321","686836","0.0-321.0","0","0","rwXAf","People","","398","","","","38","","36","","45","","","","","","","","","","","","","","","","1","398","","","","","","","","","","","","","","","","","","","","","","",""
"","fixation","","html-keyboard-response","322","687838","0.0-324.0","0","0","rwXAf","People","","null","","","","null","","","","","","","","","","","","","","","","","","","","","","","","","","","","","","","","","","","","","","","","","","","",""
"","see_reward","","html-keyboard-response","323","688210","0.0-325.0","0","0","rwXAf","People","","369","","","","32","","7","","46","","","","1","","","","","2","","","","","149","369","","","","","","","","","","","","","","","","","","","","","","","","",""
"","reward_outcome","","html-keyboard-response","324","690212","0.0-326.0","0","0","rwXAf","People","","413","","","","38","","7","","46","","","","","","","","","","","","","","","","1","413","","","","","","","","","","","","","","","","","","","","","","",""
"","fixation","","html-keyboard-response","325","691214","0.0-329.0","0","0","rwXAf","People","","null","","","","null","","","","","","","","","","","","","","","","","","","","","","","","","","","","","","","","","","","","","","","","","","","",""
"","see_reward","","html-keyboard-response","326","691474","0.0-330.0","0","0","rwXAf","People","","257","","","","32","","12","","47","","","","1","","","","","2","","","","","152","257","","","","","","","","","","","","","","","","","","","","","","","","",""
"","reward_outcome","","html-keyboard-response","327","693476","0.0-331.0","0","0","rwXAf","People","","366","","","","38","","12","","47","","","","","","","","","","","","","","","","1","366","","","","","","","","","","","","","","","","","","","","","","",""
"","block_over","","html-keyboard-response","328","695778","0.0-333.0-0.0","0","0","rwXAf","People","","2300","","","","78","","","","","","","","","","","","","","","","","","","","","","","","","","","","","","","","","","","","","","","","","","","",""
"","fixation","","html-keyboard-response","329","696780","0.0-334.0","0","0","rwXAf","People","","null","","","","null","","","","","","","","","","","","","","","","","","","","","","","","","","","","","","","","","","","","","","","","","","","",""
"","see_reward","","html-keyboard-response","330","697202","0.0-335.0","0","0","rwXAf","People","","418","","","","32","","17","","48","","","","-1","","","","","3","","","","","0","418","","","","","","","","","","","","","","","","","","","","","","","","",""
"","reward_outcome","","html-keyboard-response","331","699205","0.0-336.0","0","0","rwXAf","People","","413","","","","40","","17","","48","","","","","","","","","","","","","","","","-1","413","","","","","","","","","","","","","","","","","","","","","","",""
"","fixation","","html-keyboard-response","332","700207","0.0-339.0","0","0","rwXAf","People","","null","","","","null","","","","","","","","","","","","","","","","","","","","","","","","","","","","","","","","","","","","","","","","","","","",""
"","see_reward","","html-keyboard-response","333","700642","0.0-340.0","0","0","rwXAf","People","","433","","","","32","","30","","49","","","","-1","","","","","3","","","","","0","433","","","","","","","","","","","","","","","","","","","","","","","","",""
"","reward_outcome","","html-keyboard-response","334","702644","0.0-341.0","0","0","rwXAf","People","","349","","","","40","","30","","49","","","","","","","","","","","","","","","","-1","349","","","","","","","","","","","","","","","","","","","","","","",""
"","fixation","","html-keyboard-response","335","703646","0.0-344.0","0","0","rwXAf","People","","null","","","","null","","","","","","","","","","","","","","","","","","","","","","","","","","","","","","","","","","","","","","","","","","","",""
"","see_reward","","html-keyboard-response","336","703954","0.0-345.0","0","0","rwXAf","People","","305","","","","32","","6","","50","","","","-1","","","","","3","","","","","0","305","","","","","","","","","","","","","","","","","","","","","","","","",""
"","reward_outcome","","html-keyboard-response","337","705956","0.0-346.0","0","0","rwXAf","People","","573","","","","40","","6","","50","","","","","","","","","","","","","","","","-1","573","","","","","","","","","","","","","","","","","","","","","","",""
"","fixation","","html-keyboard-response","338","706959","0.0-349.0","0","0","rwXAf","People","","null","","","","null","","","","","","","","","","","","","","","","","","","","","","","","","","","","","","","","","","","","","","","","","","","",""
"","see_reward","","html-keyboard-response","339","707234","0.0-350.0","0","0","rwXAf","People","","274","","","","32","","28","","51","","","","-1","","","","","3","","","","","0","274","","","","","","","","","","","","","","","","","","","","","","","","",""
"","reward_outcome","","html-keyboard-response","340","709236","0.0-351.0","0","0","rwXAf","People","","365","","","","40","","28","","51","","","","","","","","","","","","","","","","-1","365","","","","","","","","","","","","","","","","","","","","","","",""
"","fixation","","html-keyboard-response","341","710238","0.0-354.0","0","0","rwXAf","People","","null","","","","null","","","","","","","","","","","","","","","","","","","","","","","","","","","","","","","","","","","","","","","","","","","",""
"","see_reward","","html-keyboard-response","342","710562","0.0-355.0","0","0","rwXAf","People","","320","","","","32","","12","","52","","","","1","","","","","3","","","","","152","320","","","","","","","","","","","","","","","","","","","","","","","","",""
"","reward_outcome","","html-keyboard-response","343","712564","0.0-356.0","0","0","rwXAf","People","","367","","","","38","","12","","52","","","","","","","","","","","","","","","","1","367","","","","","","","","","","","","","","","","","","","","","","",""
"","fixation","","html-keyboard-response","344","713566","0.0-359.0","0","0","rwXAf","People","","null","","","","null","","","","","","","","","","","","","","","","","","","","","","","","","","","","","","","","","","","","","","","","","","","",""
"","see_reward","","html-keyboard-response","345","713842","0.0-360.0","0","0","rwXAf","People","","273","","","","32","","7","","53","","","","1","","","","","3","","","","","149","273","","","","","","","","","","","","","","","","","","","","","","","","",""
"","reward_outcome","","html-keyboard-response","346","715844","0.0-361.0","0","0","rwXAf","People","","333","","","","38","","7","","53","","","","","","","","","","","","","","","","1","333","","","","","","","","","","","","","","","","","","","","","","",""
"","fixation","","html-keyboard-response","347","716847","0.0-364.0","0","0","rwXAf","People","","null","","","","null","","","","","","","","","","","","","","","","","","","","","","","","","","","","","","","","","","","","","","","","","","","",""
"","see_reward","","html-keyboard-response","348","717202","0.0-365.0","0","0","rwXAf","People","","353","","","","32","","7","","54","","","","1","","","","","3","","","","","149","353","","","","","","","","","","","","","","","","","","","","","","","","",""
"","reward_outcome","","html-keyboard-response","349","719205","0.0-366.0","0","0","rwXAf","People","","381","","","","38","","7","","54","","","","","","","","","","","","","","","","1","381","","","","","","","","","","","","","","","","","","","","","","",""
"","fixation","","html-keyboard-response","350","720207","0.0-369.0","0","0","rwXAf","People","","null","","","","null","","","","","","","","","","","","","","","","","","","","","","","","","","","","","","","","","","","","","","","","","","","",""
"","see_reward","","html-keyboard-response","351","720466","0.0-370.0","0","0","rwXAf","People","","257","","","","32","","28","","55","","","","-1","","","","","3","","","","","0","257","","","","","","","","","","","","","","","","","","","","","","","","",""
"","reward_outcome","","html-keyboard-response","352","722468","0.0-371.0","0","0","rwXAf","People","","397","","","","40","","28","","55","","","","","","","","","","","","","","","","-1","397","","","","","","","","","","","","","","","","","","","","","","",""
"","fixation","","html-keyboard-response","353","723470","0.0-374.0","0","0","rwXAf","People","","null","","","","null","","","","","","","","","","","","","","","","","","","","","","","","","","","","","","","","","","","","","","","","","","","",""
"","see_reward","","html-keyboard-response","354","723794","0.0-375.0","0","0","rwXAf","People","","320","","","","32","","30","","56","","","","-1","","","","","3","","","","","0","320","","","","","","","","","","","","","","","","","","","","","","","","",""
"","reward_outcome","","html-keyboard-response","355","725796","0.0-376.0","0","0","rwXAf","People","","301","","","","38","","30","","56","","","","","","","","","","","","","","","","1","301","","","","","","","","","","","","","","","","","","","","","","",""
