"success","ttype","start_time","trial_type","trial_index","time_elapsed","internal_node_id","warning","missed_checkup","PID","stim_type","view_history","rt","responses","repeat_instructions","key_press","response","stimulus_id","painting","index","stimulus_left","stimulus_right","explain_trial","reward_type","rating_left","rating_right","painting_left","painting_right","block","left_chosen","chosen_obj","unchosen_obj","explain_response","reward_amount","see_reward_rt","register_reward_response","register_reward_rt","deliberation_reward_tally","stimulus_left_deliberation_ind","stimulus_right_deliberation_ind","chosen_trial","gain_left","higher_outcome_chosen","old_pair","chosen_object","rt_pairs","left_object_chosen","rt_object","old_response","new_rating","deliberated_stim","initial_rating","outcome_eval_rt","outcome_eval_response","outcome_eval_gain","outcome_eval_acc","preamble","outcome_eval_confidence","outcome_eval_confidence_rt","total_reward_tally"
"true","full_screen","d01192023hr2059","fullscreen","0","5537","0.0-0.0","0","0","atBkS","Scenes","","","","","","","","","","","","","","","","","","","","","","","","","","","","","","","","","","","","","","","","","","","","","","","","",""
"","rating_instructions","","instructions","1","26528","0.0-1.0-0.0","0","0","atBkS","Scenes","[{""page_index"":0,""viewing_time"":18802},{""page_index"":1,""viewing_time"":2185}]","20988","","","","","","","","","","","","","","","","","","","","","","","","","","","","","","","","","","","","","","","","","","","","","","",""
"","rating_comprehension_check","","survey-multi-choice","2","179532","0.0-1.0-1.0","0","0","atBkS","Scenes","","153000","{""Q0"":""True"",""Q1"":""Mouse""}","0","","","","","","","","","","","","","","","","","","","","","","","","","","","","","","","","","","","","","","","","","","","","",""
"","start_phase","","html-keyboard-response","3","181672","0.0-2.0","0","0","atBkS","Scenes","","2134","","","78","","","","","","","","","","","","","","","","","","","","","","","","","","","","","","","","","","","","","","","","","","","",""
"","rating","","html-slider-response","4","184907","0.0-3.0","0","0","atBkS","Scenes","","3230","","","","100","118","henry-be-NLF6hTe4PAg-unsplash.jpg","0","","","","","","","","","","","","","","","","","","","","","","","","","","","","","","","","","","","","","","","",""
"","rating","","html-slider-response","5","189363","0.0-4.0","0","0","atBkS","Scenes","","4454","","","","100","108","benjamin-voros-phIFdC6lA4E-unsplash.jpg","1","","","","","","","","","","","","","","","","","","","","","","","","","","","","","","","","","","","","","","","",""
"","rating","","html-slider-response","6","192235","0.0-5.0","0","0","atBkS","Scenes","","2869","","","","100","132","meng-ji-8BH_M-53CyA-unsplash.jpg","2","","","","","","","","","","","","","","","","","","","","","","","","","","","","","","","","","","","","","","","",""
"","rating","","html-slider-response","7","194312","0.0-6.0","0","0","atBkS","Scenes","","2075","","","","100","106","ashim-d-silva-WeYamle9fDM-unsplash.jpg","3","","","","","","","","","","","","","","","","","","","","","","","","","","","","","","","","","","","","","","","",""
"","rating","","html-slider-response","8","197232","0.0-7.0","0","0","atBkS","Scenes","","2918","","","","100","146","thomas-morse-cuKKa0vWZSY-unsplash.jpg","4","","","","","","","","","","","","","","","","","","","","","","","","","","","","","","","","","","","","","","","",""
"","rating","","html-slider-response","9","201054","0.0-8.0","0","0","atBkS","Scenes","","3820","","","","100","116","david-marcu-W5MhJ6cy1So-unsplash.jpg","5","","","","","","","","","","","","","","","","","","","","","","","","","","","","","","","","","","","","","","","",""
"","rating","","html-slider-response","10","204770","0.0-9.0","0","0","atBkS","Scenes","","3714","","","","100","105","ashim-d-silva-S2Q5mdOrrVc-unsplash.jpg","6","","","","","","","","","","","","","","","","","","","","","","","","","","","","","","","","","","","","","","","",""
"","rating","","html-slider-response","11","207230","0.0-10.0","0","0","atBkS","Scenes","","2458","","","","100","124","johannes-plenio-sPt5RIjKfpk-unsplash.jpg","7","","","","","","","","","","","","","","","","","","","","","","","","","","","","","","","","","","","","","","","",""
"","rating","","html-slider-response","12","210274","0.0-11.0","0","0","atBkS","Scenes","","3042","","","","100","113","damian-denis-D8R_txR_0PE-unsplash.jpg","8","","","","","","","","","","","","","","","","","","","","","","","","","","","","","","","","","","","","","","","",""
"","rating","","html-slider-response","13","213680","0.0-12.0","0","0","atBkS","Scenes","","3404","","","","100","117","frank-mckenna-OD9EOzfSOh0-unsplash.jpg","9","","","","","","","","","","","","","","","","","","","","","","","","","","","","","","","","","","","","","","","",""
"","rating","","html-slider-response","14","216780","0.0-13.0","0","0","atBkS","Scenes","","3098","","","","100","112","cosmic-timetraveler-pYyOZ8q7AII-unsplash.jpg","10","","","","","","","","","","","","","","","","","","","","","","","","","","","","","","","","","","","","","","","",""
"","rating","","html-slider-response","15","219544","0.0-14.0","0","0","atBkS","Scenes","","2762","","","","100","142","sergey-pesterev-y-b_FOmJXdg-unsplash.jpg","11","","","","","","","","","","","","","","","","","","","","","","","","","","","","","","","","","","","","","","","",""
"","rating","","html-slider-response","16","222412","0.0-15.0","0","0","atBkS","Scenes","","2866","","","","100","120","jarrett-kow-1ZOyYPOBn7I-unsplash.jpg","12","","","","","","","","","","","","","","","","","","","","","","","","","","","","","","","","","","","","","","","",""
"","rating","","html-slider-response","17","224854","0.0-16.0","0","0","atBkS","Scenes","","2440","","","","100","107","benjamin-davies-Zm2n2O7Fph4-unsplash.jpg","13","","","","","","","","","","","","","","","","","","","","","","","","","","","","","","","","","","","","","","","",""
"","rating","","html-slider-response","18","227234","0.0-17.0","0","0","atBkS","Scenes","","2378","","","","100","147","tobias-keller-73F4pKoUkM0-unsplash.jpg","14","","","","","","","","","","","","","","","","","","","","","","","","","","","","","","","","","","","","","","","",""
"","rating","","html-slider-response","19","229702","0.0-18.0","0","0","atBkS","Scenes","","2467","","","","100","148","tom-gainor-ZqLeQDjY6fY-unsplash.jpg","15","","","","","","","","","","","","","","","","","","","","","","","","","","","","","","","","","","","","","","","",""
"","rating","","html-slider-response","20","231784","0.0-19.0","0","0","atBkS","Scenes","","2080","","","","100","141","sebastian-unrau-v4e3JI7DDHI-unsplash.jpg","16","","","","","","","","","","","","","","","","","","","","","","","","","","","","","","","","","","","","","","","",""
"","rating","","html-slider-response","21","234012","0.0-20.0","0","0","atBkS","Scenes","","2227","","","","100","136","nicolas-jehly-LzVB84KkZOE-unsplash.jpg","17","","","","","","","","","","","","","","","","","","","","","","","","","","","","","","","","","","","","","","","",""
"","rating","","html-slider-response","22","236191","0.0-21.0","0","0","atBkS","Scenes","","2177","","","","100","101","aniket-deole-T-tOgjWZ0fQ-unsplash.jpg","18","","","","","","","","","","","","","","","","","","","","","","","","","","","","","","","","","","","","","","","",""
"","rating","","html-slider-response","23","239041","0.0-22.0","0","0","atBkS","Scenes","","2848","","","","100","102","anisur-rahman-K2b7UDed6uQ-unsplash.jpg","19","","","","","","","","","","","","","","","","","","","","","","","","","","","","","","","","","","","","","","","",""
"","rating","","html-slider-response","24","240981","0.0-23.0","0","0","atBkS","Scenes","","1938","","","","100","137","olga-stalska-QaWRyEdlffY-unsplash.jpg","20","","","","","","","","","","","","","","","","","","","","","","","","","","","","","","","","","","","","","","","",""
"","rating","","html-slider-response","25","242883","0.0-24.0","0","0","atBkS","Scenes","","1900","","","","100","114","daniel-sessler-z_9VmsxR8hs-unsplash.jpg","21","","","","","","","","","","","","","","","","","","","","","","","","","","","","","","","","","","","","","","","",""
"","rating","","html-slider-response","26","244689","0.0-25.0","0","0","atBkS","Scenes","","1804","","","","100","123","joel-jasmin-forestbird-efuwb5eBDrI-unsplash.jpg","22","","","","","","","","","","","","","","","","","","","","","","","","","","","","","","","","","","","","","","","",""
"","rating","","html-slider-response","27","246435","0.0-26.0","0","0","atBkS","Scenes","","1744","","","","100","140","samuele-errico-piccarini-JEBqFu2AOOA-unsplash.jpg","23","","","","","","","","","","","","","","","","","","","","","","","","","","","","","","","","","","","","","","","",""
"","rating","","html-slider-response","28","248339","0.0-27.0","0","0","atBkS","Scenes","","1902","","","","100","138","petr-vysohlid-9fqwGqGLUxc-unsplash.jpg","24","","","","","","","","","","","","","","","","","","","","","","","","","","","","","","","","","","","","","","","",""
"","rating","","html-slider-response","29","250281","0.0-28.0","0","0","atBkS","Scenes","","1940","","","","100","111","claudio-testa-U3F2o6vz3bs-unsplash.jpg","25","","","","","","","","","","","","","","","","","","","","","","","","","","","","","","","","","","","","","","","",""
"","rating","","html-slider-response","30","251875","0.0-29.0","0","0","atBkS","Scenes","","1592","","","","100","126","jordan-mcqueen-PJCZOWuOxbU-unsplash.jpg","26","","","","","","","","","","","","","","","","","","","","","","","","","","","","","","","","","","","","","","","",""
"","rating","","html-slider-response","31","253501","0.0-30.0","0","0","atBkS","Scenes","","1624","","","","100","143","sigurdur-fjalar-jonsson-1KxBabIntpE-unsplash.jpg","27","","","","","","","","","","","","","","","","","","","","","","","","","","","","","","","","","","","","","","","",""
"","rating","","html-slider-response","32","255337","0.0-31.0","0","0","atBkS","Scenes","","1835","","","","100","129","kurt-cotoaga-cqbLg3lZEpk-unsplash.jpg","28","","","","","","","","","","","","","","","","","","","","","","","","","","","","","","","","","","","","","","","",""
"","rating","","html-slider-response","33","257135","0.0-32.0","0","0","atBkS","Scenes","","1797","","","","100","125","john-lee-oMneOBYhJxY-unsplash.jpg","29","","","","","","","","","","","","","","","","","","","","","","","","","","","","","","","","","","","","","","","",""
"","rating","","html-slider-response","34","259009","0.0-33.0","0","0","atBkS","Scenes","","1873","","","","100","130","lina-loos-04-C1NZk1hE-unsplash.jpg","30","","","","","","","","","","","","","","","","","","","","","","","","","","","","","","","","","","","","","","","",""
"","rating","","html-slider-response","35","260883","0.0-34.0","0","0","atBkS","Scenes","","1872","","","","100","139","samsommer-vddccTqwal8-unsplash.jpg","31","","","","","","","","","","","","","","","","","","","","","","","","","","","","","","","","","","","","","","","",""
"","rating","","html-slider-response","36","262939","0.0-35.0","0","0","atBkS","Scenes","","2054","","","","100","115","darrell-cassell-hoCXpPUMCoE-unsplash.jpg","32","","","","","","","","","","","","","","","","","","","","","","","","","","","","","","","","","","","","","","","",""
"","rating","","html-slider-response","37","265967","0.0-36.0","0","0","atBkS","Scenes","","3026","","","","100","135","mohammad-alizade-4wzRuAb-KWs-unsplash.jpg","33","","","","","","","","","","","","","","","","","","","","","","","","","","","","","","","","","","","","","","","",""
"","rating","","html-slider-response","38","268065","0.0-37.0","0","0","atBkS","Scenes","","2096","","","","100","121","jean-pierre-brungs-qxCqkbF7tUc-unsplash.jpg","34","","","","","","","","","","","","","","","","","","","","","","","","","","","","","","","","","","","","","","","",""
"","rating","","html-slider-response","39","269996","0.0-38.0","0","0","atBkS","Scenes","","1929","","","","100","127","kace-rodriguez-p3OzJuT_Dks-unsplash.jpg","35","","","","","","","","","","","","","","","","","","","","","","","","","","","","","","","","","","","","","","","",""
"","rating","","html-slider-response","40","272103","0.0-39.0","0","0","atBkS","Scenes","","2105","","","","100","128","karsten-wurth-jS0zC2PJ17A-unsplash.jpg","36","","","","","","","","","","","","","","","","","","","","","","","","","","","","","","","","","","","","","","","",""
"","rating","","html-slider-response","41","274076","0.0-40.0","0","0","atBkS","Scenes","","1969","","","","100","103","anton-darius-FBJugtbHsWU-unsplash.jpg","37","","","","","","","","","","","","","","","","","","","","","","","","","","","","","","","","","","","","","","","",""
"","rating","","html-slider-response","42","276044","0.0-41.0","0","0","atBkS","Scenes","","1966","","","","100","100","aleksandra-boguslawska-MS7KD9Ti7FQ-unsplash.jpg","38","","","","","","","","","","","","","","","","","","","","","","","","","","","","","","","","","","","","","","","",""
"","rating","","html-slider-response","43","277894","0.0-42.0","0","0","atBkS","Scenes","","1848","","","","100","104","artem-sapegin-XGDBdSQ70O0-unsplash.jpg","39","","","","","","","","","","","","","","","","","","","","","","","","","","","","","","","","","","","","","","","",""
"","rating","","html-slider-response","44","279946","0.0-43.0","0","0","atBkS","Scenes","","2050","","","","100","149","yuriy-bogdanov-W51VK3Obcj0-unsplash.jpg","40","","","","","","","","","","","","","","","","","","","","","","","","","","","","","","","","","","","","","","","",""
"","rating","","html-slider-response","45","281660","0.0-44.0","0","0","atBkS","Scenes","","1712","","","","100","134","milada-vigerova-pQMM63GE7fo-unsplash.jpg","41","","","","","","","","","","","","","","","","","","","","","","","","","","","","","","","","","","","","","","","",""
"","rating","","html-slider-response","46","283566","0.0-45.0","0","0","atBkS","Scenes","","1904","","","","100","131","luca-bravo-hFzIoD0F_i8-unsplash.jpg","42","","","","","","","","","","","","","","","","","","","","","","","","","","","","","","","","","","","","","","","",""
"","rating","","html-slider-response","47","285378","0.0-46.0","0","0","atBkS","Scenes","","1810","","","","100","122","jeff-king-bJHWJeiHfHc-unsplash.jpg","43","","","","","","","","","","","","","","","","","","","","","","","","","","","","","","","","","","","","","","","",""
"","rating","","html-slider-response","48","287152","0.0-47.0","0","0","atBkS","Scenes","","1772","","","","100","110","bruno-van-der-kraan-qez8mNJ3ilU-unsplash.jpg","44","","","","","","","","","","","","","","","","","","","","","","","","","","","","","","","","","","","","","","","",""
"","rating","","html-slider-response","49","289038","0.0-48.0","0","0","atBkS","Scenes","","1884","","","","100","145","stephen-leonardi-gyIRjKPXupE-unsplash.jpg","45","","","","","","","","","","","","","","","","","","","","","","","","","","","","","","","","","","","","","","","",""
"","rating","","html-slider-response","50","291354","0.0-49.0","0","0","atBkS","Scenes","","2314","","","","100","144","solotravelgoals-7kLufxYoqWk-unsplash.jpg","46","","","","","","","","","","","","","","","","","","","","","","","","","","","","","","","","","","","","","","","",""
"","rating","","html-slider-response","51","293548","0.0-50.0","0","0","atBkS","Scenes","","2192","","","","100","119","james-wheeler-AFC0XvICMgs-unsplash.jpg","47","","","","","","","","","","","","","","","","","","","","","","","","","","","","","","","","","","","","","","","",""
"","rating","","html-slider-response","52","295704","0.0-51.0","0","0","atBkS","Scenes","","2154","","","","100","133","mickey-o-neil-xL66l--msXU-unsplash.jpg","48","","","","","","","","","","","","","","","","","","","","","","","","","","","","","","","","","","","","","","","",""
"","rating","","html-slider-response","53","297314","0.0-52.0","0","0","atBkS","Scenes","","1608","","","","100","109","brigitta-schneiter-hXXRLtTxXCU-unsplash.jpg","49","","","","","","","","","","","","","","","","","","","","","","","","","","","","","","","","","","","","","","","",""
"","deliberation_instructions","","instructions","54","339056","0.0-53.0-0.0","0","0","atBkS","Scenes","[{""page_index"":0,""viewing_time"":18247},{""page_index"":1,""viewing_time"":15518},{""page_index"":2,""viewing_time"":3104},{""page_index"":3,""viewing_time"":3572},{""page_index"":4,""viewing_time"":1298}]","41739","","","","","","","","","","","","","","","","","","","","","","","","","","","","","","","","","","","","","","","","","","","","","","",""
"","deliberation_comprehension_check","","survey-multi-choice","55","367888","0.0-53.0-1.0","0","0","atBkS","Scenes","","28822","{""Q0"":""True"",""Q1"":""False"",""Q2"":""Consider carefully and take your time (up to 10 seconds)"",""Q3"":""True"",""Q4"":""D""}","1","","","","","","","","","","","","","","","","","","","","","","","","","","","","","","","","","","","","","","","","","","","","",""
"","missed_instruction_checkup","","html-keyboard-response","56","370184","0.0-53.0-2.0-0.0","0","1","atBkS","Scenes","","2293","","","78","","","","","","","","","","","","","","","","","","","","","","","","","","","","","","","","","","","","","","","","","","","",""
"","deliberation_instructions","","instructions","57","412588","0.0-53.1-0.1","0","0","atBkS","Scenes","[{""page_index"":0,""viewing_time"":5106},{""page_index"":1,""viewing_time"":4178},{""page_index"":2,""viewing_time"":2444},{""page_index"":1,""viewing_time"":7333},{""page_index"":2,""viewing_time"":12245},{""page_index"":3,""viewing_time"":9871},{""page_index"":4,""viewing_time"":1224}]","42402","","","","","","","","","","","","","","","","","","","","","","","","","","","","","","","","","","","","","","","","","","","","","","",""
"","deliberation_comprehension_check","","survey-multi-choice","58","433338","0.0-53.1-1.1","0","0","atBkS","Scenes","","20745","{""Q0"":""True"",""Q1"":""True"",""Q2"":""Consider carefully and take your time (up to 10 seconds)"",""Q3"":""True"",""Q4"":""D""}","0","","","","","","","","","","","","","","","","","","","","","","","","","","","","","","","","","","","","","","","","","","","","",""
"","start_phase","","html-keyboard-response","59","436091","0.0-54.0","0","0","atBkS","Scenes","","2750","","","78","","","","","","","","","","","","","","","","","","","","","","","","","","","","","","","","","","","","","","","","","","","",""
"","first_deliberation_block","","html-keyboard-response","60","437720","0.0-55.0","0","0","atBkS","Scenes","","1625","","","78","","","","","","","","","","","","","","","","","","","","","","","","","","","","","","","","","","","","","","","","","","","",""
"","fixation","","html-keyboard-response","61","438725","0.0-56.0-0.0","0","0","atBkS","Scenes","","null","","","null","","","","","","","","","","","","","","","","","","","","","","","","","","","","","","","","","","","","","","","","","","","",""
"","deliberation","","html-keyboard-response","62","441218","0.0-56.0-1.0","0","0","atBkS","Scenes","","2488","","","75","","","","0","128","141","0","1","100","100","karsten-wurth-jS0zC2PJ17A-unsplash.jpg","sebastian-unrau-v4e3JI7DDHI-unsplash.jpg","1","0","141","128","","","","","","","","","","","","","","","","","","","","","","","","","","","",""
"","choice_confirmation","","html-keyboard-response","63","441733","0.0-56.0-2.0-0.0","0","0","atBkS","Scenes","","null","","","null","","","","0","128","141","","","","","","","","","","","","","","","","","","","","","","","","","","","","","","","","","","","","","",""
"","fixation","","html-keyboard-response","64","442754","0.0-57.0-0.0","0","0","atBkS","Scenes","","null","","","null","","","","","","","","","","","","","","","","","","","","","","","","","","","","","","","","","","","","","","","","","","","",""
"","deliberation","","html-keyboard-response","65","443921","0.0-57.0-1.0","0","0","atBkS","Scenes","","1163","","","75","","","","1","130","123","0","-1","100","100","lina-loos-04-C1NZk1hE-unsplash.jpg","joel-jasmin-forestbird-efuwb5eBDrI-unsplash.jpg","1","0","123","130","","","","","","","","","","","","","","","","","","","","","","","","","","","",""
"","choice_confirmation","","html-keyboard-response","66","444427","0.0-57.0-2.0-0.0","0","0","atBkS","Scenes","","null","","","null","","","","1","130","123","","","","","","","","","","","","","","","","","","","","","","","","","","","","","","","","","","","","","",""
"","fixation","","html-keyboard-response","67","445445","0.0-58.0-0.0","0","0","atBkS","Scenes","","null","","","null","","","","","","","","","","","","","","","","","","","","","","","","","","","","","","","","","","","","","","","","","","","",""
"","deliberation","","html-keyboard-response","68","447791","0.0-58.0-1.0","0","0","atBkS","Scenes","","2341","","","68","","","","2","140","102","1","1","100","100","samuele-errico-piccarini-JEBqFu2AOOA-unsplash.jpg","anisur-rahman-K2b7UDed6uQ-unsplash.jpg","1","1","140","102","","","","","","","","","","","","","","","","","","","","","","","","","","","",""
"","choice_confirmation","","html-keyboard-response","69","448309","0.0-58.0-2.0-0.0","0","0","atBkS","Scenes","","null","","","null","","","","2","140","102","","","","","","","","","","","","","","","","","","","","","","","","","","","","","","","","","","","","","",""
"","explain_trial","","survey-text","70","458608","0.0-58.0-5.0-0.0","0","0","atBkS","Scenes","","10294","{""Q0"":""The water and scenery""}","","","","","","2","140","102","","","","","","","","","","","{""Q0"":""The water and scenery""}","","","","","","","","","","","","","","","","","","","","","","","","","","",""
"","fixation","","html-keyboard-response","71","459633","0.0-59.0-0.0","0","0","atBkS","Scenes","","null","","","null","","","","","","","","","","","","","","","","","","","","","","","","","","","","","","","","","","","","","","","","","","","",""
"","deliberation","","html-keyboard-response","72","461514","0.0-59.0-1.0","0","0","atBkS","Scenes","","1878","","","75","","","","3","143","114","0","-1","100","100","sigurdur-fjalar-jonsson-1KxBabIntpE-unsplash.jpg","daniel-sessler-z_9VmsxR8hs-unsplash.jpg","1","0","114","143","","","","","","","","","","","","","","","","","","","","","","","","","","","",""
"","choice_confirmation","","html-keyboard-response","73","462031","0.0-59.0-2.0-0.0","0","0","atBkS","Scenes","","null","","","null","","","","3","143","114","","","","","","","","","","","","","","","","","","","","","","","","","","","","","","","","","","","","","",""
"","fixation","","html-keyboard-response","74","463063","0.0-60.0-0.0","0","0","atBkS","Scenes","","null","","","null","","","","","","","","","","","","","","","","","","","","","","","","","","","","","","","","","","","","","","","","","","","",""
"","deliberation","","html-keyboard-response","75","464687","0.0-60.0-1.0","0","0","atBkS","Scenes","","1619","","","75","","","","4","135","126","1","1","100","100","mohammad-alizade-4wzRuAb-KWs-unsplash.jpg","jordan-mcqueen-PJCZOWuOxbU-unsplash.jpg","1","0","126","135","","","","","","","","","","","","","","","","","","","","","","","","","","","",""
"","choice_confirmation","","html-keyboard-response","76","465206","0.0-60.0-2.0-0.0","0","0","atBkS","Scenes","","null","","","null","","","","4","135","126","","","","","","","","","","","","","","","","","","","","","","","","","","","","","","","","","","","","","",""
"","explain_trial","","survey-text","77","475137","0.0-60.0-5.0-0.0","0","0","atBkS","Scenes","","9928","{""Q0"":""The sunset is gorgeous""}","","","","","","4","135","126","","","","","","","","","","","{""Q0"":""The sunset is gorgeous""}","","","","","","","","","","","","","","","","","","","","","","","","","","",""
"","fixation","","html-keyboard-response","78","476145","0.0-61.0-0.0","0","0","atBkS","Scenes","","null","","","null","","","","","","","","","","","","","","","","","","","","","","","","","","","","","","","","","","","","","","","","","","","",""
"","deliberation","","html-keyboard-response","79","479061","0.0-61.0-1.0","0","0","atBkS","Scenes","","2912","","","68","","","","5","125","147","1","-1","100","100","john-lee-oMneOBYhJxY-unsplash.jpg","tobias-keller-73F4pKoUkM0-unsplash.jpg","1","1","125","147","","","","","","","","","","","","","","","","","","","","","","","","","","","",""
"","choice_confirmation","","html-keyboard-response","80","479568","0.0-61.0-2.0-0.0","0","0","atBkS","Scenes","","null","","","null","","","","5","125","147","","","","","","","","","","","","","","","","","","","","","","","","","","","","","","","","","","","","","",""
"","explain_trial","","survey-text","81","490719","0.0-61.0-5.0-0.0","0","0","atBkS","Scenes","","11148","{""Q0"":""the water is gorgeous ""}","","","","","","5","125","147","","","","","","","","","","","{""Q0"":""the water is gorgeous ""}","","","","","","","","","","","","","","","","","","","","","","","","","","",""
"","fixation","","html-keyboard-response","82","491733","0.0-62.0-0.0","0","0","atBkS","Scenes","","null","","","null","","","","","","","","","","","","","","","","","","","","","","","","","","","","","","","","","","","","","","","","","","","",""
"","deliberation","","html-keyboard-response","83","494003","0.0-62.0-1.0","0","0","atBkS","Scenes","","2265","","","68","","","","6","138","101","1","-1","100","100","petr-vysohlid-9fqwGqGLUxc-unsplash.jpg","aniket-deole-T-tOgjWZ0fQ-unsplash.jpg","1","1","138","101","","","","","","","","","","","","","","","","","","","","","","","","","","","",""
"","choice_confirmation","","html-keyboard-response","84","494512","0.0-62.0-2.0-0.0","0","0","atBkS","Scenes","","null","","","null","","","","6","138","101","","","","","","","","","","","","","","","","","","","","","","","","","","","","","","","","","","","","","",""
"","explain_trial","","survey-text","85","506609","0.0-62.0-5.0-0.0","0","0","atBkS","Scenes","","12094","{""Q0"":""beautiful sand ""}","","","","","","6","138","101","","","","","","","","","","","{""Q0"":""beautiful sand ""}","","","","","","","","","","","","","","","","","","","","","","","","","","",""
"","fixation","","html-keyboard-response","86","507626","0.0-63.0-0.0","0","0","atBkS","Scenes","","null","","","null","","","","","","","","","","","","","","","","","","","","","","","","","","","","","","","","","","","","","","","","","","","",""
"","deliberation","","html-keyboard-response","87","508896","0.0-63.0-1.0","0","0","atBkS","Scenes","","1266","","","75","","","","7","107","127","1","1","100","100","benjamin-davies-Zm2n2O7Fph4-unsplash.jpg","kace-rodriguez-p3OzJuT_Dks-unsplash.jpg","1","0","127","107","","","","","","","","","","","","","","","","","","","","","","","","","","","",""
"","choice_confirmation","","html-keyboard-response","88","509402","0.0-63.0-2.0-0.0","0","0","atBkS","Scenes","","null","","","null","","","","7","107","127","","","","","","","","","","","","","","","","","","","","","","","","","","","","","","","","","","","","","",""
"","explain_trial","","survey-text","89","514943","0.0-63.0-5.0-0.0","0","0","atBkS","Scenes","","5538","{""Q0"":""beautiful water""}","","","","","","7","107","127","","","","","","","","","","","{""Q0"":""beautiful water""}","","","","","","","","","","","","","","","","","","","","","","","","","","",""
"","fixation","","html-keyboard-response","90","515965","0.0-64.0-0.0","0","0","atBkS","Scenes","","null","","","null","","","","","","","","","","","","","","","","","","","","","","","","","","","","","","","","","","","","","","","","","","","",""
"","deliberation","","html-keyboard-response","91","517135","0.0-64.0-1.0","0","0","atBkS","Scenes","","1165","","","68","","","","8","148","129","0","1","100","100","tom-gainor-ZqLeQDjY6fY-unsplash.jpg","kurt-cotoaga-cqbLg3lZEpk-unsplash.jpg","1","1","148","129","","","","","","","","","","","","","","","","","","","","","","","","","","","",""
"","choice_confirmation","","html-keyboard-response","92","517640","0.0-64.0-2.0-0.0","0","0","atBkS","Scenes","","null","","","null","","","","8","148","129","","","","","","","","","","","","","","","","","","","","","","","","","","","","","","","","","","","","","",""
"","fixation","","html-keyboard-response","93","518659","0.0-65.0-0.0","0","0","atBkS","Scenes","","null","","","null","","","","","","","","","","","","","","","","","","","","","","","","","","","","","","","","","","","","","","","","","","","",""
"","deliberation","","html-keyboard-response","94","519723","0.0-65.0-1.0","0","0","atBkS","Scenes","","1059","","","75","","","","9","136","139","0","-1","100","100","nicolas-jehly-LzVB84KkZOE-unsplash.jpg","samsommer-vddccTqwal8-unsplash.jpg","1","0","139","136","","","","","","","","","","","","","","","","","","","","","","","","","","","",""
"","choice_confirmation","","html-keyboard-response","95","520249","0.0-65.0-2.0-0.0","0","0","atBkS","Scenes","","null","","","null","","","","9","136","139","","","","","","","","","","","","","","","","","","","","","","","","","","","","","","","","","","","","","",""
"","fixation","","html-keyboard-response","96","521267","0.0-66.0-0.0","0","0","atBkS","Scenes","","null","","","null","","","","","","","","","","","","","","","","","","","","","","","","","","","","","","","","","","","","","","","","","","","",""
"","deliberation","","html-keyboard-response","97","522818","0.0-66.0-1.0","0","0","atBkS","Scenes","","1533","","","68","","","","10","111","121","0","1","100","100","claudio-testa-U3F2o6vz3bs-unsplash.jpg","jean-pierre-brungs-qxCqkbF7tUc-unsplash.jpg","1","1","111","121","","","","","","","","","","","","","","","","","","","","","","","","","","","",""
"","choice_confirmation","","html-keyboard-response","98","523335","0.0-66.0-2.0-0.0","0","0","atBkS","Scenes","","null","","","null","","","","10","111","121","","","","","","","","","","","","","","","","","","","","","","","","","","","","","","","","","","","","","",""
"","fixation","","html-keyboard-response","99","524361","0.0-67.0-0.0","0","0","atBkS","Scenes","","null","","","null","","","","","","","","","","","","","","","","","","","","","","","","","","","","","","","","","","","","","","","","","","","",""
"","deliberation","","html-keyboard-response","100","525597","0.0-67.0-1.0","0","0","atBkS","Scenes","","1231","","","75","","","","11","137","115","1","-1","100","100","olga-stalska-QaWRyEdlffY-unsplash.jpg","darrell-cassell-hoCXpPUMCoE-unsplash.jpg","1","0","115","137","","","","","","","","","","","","","","","","","","","","","","","","","","","",""
"","choice_confirmation","","html-keyboard-response","101","526113","0.0-67.0-2.0-0.0","0","0","atBkS","Scenes","","null","","","null","","","","11","137","115","","","","","","","","","","","","","","","","","","","","","","","","","","","","","","","","","","","","","",""
"","explain_trial","","survey-text","102","535166","0.0-67.0-5.0-0.0","0","0","atBkS","Scenes","","9052","{""Q0"":""beautiful oceans and skys""}","","","","","","11","137","115","","","","","","","","","","","{""Q0"":""beautiful oceans and skys""}","","","","","","","","","","","","","","","","","","","","","","","","","","",""
"","practice_deliberation_again","","html-keyboard-response","103","536654","0.0-67.0-6.0-0.0","0","0","atBkS","Scenes","","1484","","","78","","","","","","","","","","","","","","","","","","","","","","","","","","","","","","","","","","","","","","","","","","","",""
"","fixation","","html-keyboard-response","104","537674","0.0-68.0-0.0","0","0","atBkS","Scenes","","null","","","null","","","","","","","","","","","","","","","","","","","","","","","","","","","","","","","","","","","","","","","","","","","",""
"","deliberation","","html-keyboard-response","105","538703","0.0-68.0-1.0","0","0","atBkS","Scenes","","1022","","","68","","","","12","125","147","0","-1","100","100","john-lee-oMneOBYhJxY-unsplash.jpg","tobias-keller-73F4pKoUkM0-unsplash.jpg","2","1","125","147","","","","","","","","","","","","","","","","","","","","","","","","","","","",""
"","choice_confirmation","","html-keyboard-response","106","539219","0.0-68.0-2.0-0.0","0","0","atBkS","Scenes","","null","","","null","","","","12","125","147","","","","","","","","","","","","","","","","","","","","","","","","","","","","","","","","","","","","","",""
"","fixation","","html-keyboard-response","107","540223","0.0-69.0-0.0","0","0","atBkS","Scenes","","null","","","null","","","","","","","","","","","","","","","","","","","","","","","","","","","","","","","","","","","","","","","","","","","",""
"","deliberation","","html-keyboard-response","108","541234","0.0-69.0-1.0","0","0","atBkS","Scenes","","1007","","","75","","","","13","135","126","0","1","100","100","mohammad-alizade-4wzRuAb-KWs-unsplash.jpg","jordan-mcqueen-PJCZOWuOxbU-unsplash.jpg","2","0","126","135","","","","","","","","","","","","","","","","","","","","","","","","","","","",""
"","choice_confirmation","","html-keyboard-response","109","541744","0.0-69.0-2.0-0.0","0","0","atBkS","Scenes","","null","","","null","","","","13","135","126","","","","","","","","","","","","","","","","","","","","","","","","","","","","","","","","","","","","","",""
"","fixation","","html-keyboard-response","110","542762","0.0-70.0-0.0","0","0","atBkS","Scenes","","null","","","null","","","","","","","","","","","","","","","","","","","","","","","","","","","","","","","","","","","","","","","","","","","",""
"","deliberation","","html-keyboard-response","111","543799","0.0-70.0-1.0","0","0","atBkS","Scenes","","1032","","","75","","","","14","136","139","1","-1","100","100","nicolas-jehly-LzVB84KkZOE-unsplash.jpg","samsommer-vddccTqwal8-unsplash.jpg","2","0","139","136","","","","","","","","","","","","","","","","","","","","","","","","","","","",""
"","choice_confirmation","","html-keyboard-response","112","544320","0.0-70.0-2.0-0.0","0","0","atBkS","Scenes","","null","","","null","","","","14","136","139","","","","","","","","","","","","","","","","","","","","","","","","","","","","","","","","","","","","","",""
"","explain_trial","","survey-text","113","551881","0.0-70.0-5.0-0.0","0","0","atBkS","Scenes","","7558","{""Q0"":""beaautiful mountains""}","","","","","","14","136","139","","","","","","","","","","","{""Q0"":""beaautiful mountains""}","","","","","","","","","","","","","","","","","","","","","","","","","","",""
"","fixation","","html-keyboard-response","114","552891","0.0-71.0-0.0","0","0","atBkS","Scenes","","null","","","null","","","","","","","","","","","","","","","","","","","","","","","","","","","","","","","","","","","","","","","","","","","",""
"","deliberation","","html-keyboard-response","115","554088","0.0-71.0-1.0","0","0","atBkS","Scenes","","1192","","","68","","","","15","140","102","0","1","100","100","samuele-errico-piccarini-JEBqFu2AOOA-unsplash.jpg","anisur-rahman-K2b7UDed6uQ-unsplash.jpg","2","1","140","102","","","","","","","","","","","","","","","","","","","","","","","","","","","",""
"","choice_confirmation","","html-keyboard-response","116","554604","0.0-71.0-2.0-0.0","0","0","atBkS","Scenes","","null","","","null","","","","15","140","102","","","","","","","","","","","","","","","","","","","","","","","","","","","","","","","","","","","","","",""
"","fixation","","html-keyboard-response","117","555622","0.0-72.0-0.0","0","0","atBkS","Scenes","","null","","","null","","","","","","","","","","","","","","","","","","","","","","","","","","","","","","","","","","","","","","","","","","","",""
"","deliberation","","html-keyboard-response","118","556941","0.0-72.0-1.0","0","0","atBkS","Scenes","","1314","","","68","","","","16","148","129","1","1","100","100","tom-gainor-ZqLeQDjY6fY-unsplash.jpg","kurt-cotoaga-cqbLg3lZEpk-unsplash.jpg","2","1","148","129","","","","","","","","","","","","","","","","","","","","","","","","","","","",""
"","choice_confirmation","","html-keyboard-response","119","557456","0.0-72.0-2.0-0.0","0","0","atBkS","Scenes","","null","","","null","","","","16","148","129","","","","","","","","","","","","","","","","","","","","","","","","","","","","","","","","","","","","","",""
"","explain_trial","","survey-text","120","565991","0.0-72.0-5.0-0.0","0","0","atBkS","Scenes","","8532","{""Q0"":""beautiful bodies of water""}","","","","","","16","148","129","","","","","","","","","","","{""Q0"":""beautiful bodies of water""}","","","","","","","","","","","","","","","","","","","","","","","","","","",""
"","fixation","","html-keyboard-response","121","567013","0.0-73.0-0.0","0","0","atBkS","Scenes","","null","","","null","","","","","","","","","","","","","","","","","","","","","","","","","","","","","","","","","","","","","","","","","","","",""
"","deliberation","","html-keyboard-response","122","568310","0.0-73.0-1.0","0","0","atBkS","Scenes","","1293","","","75","","","","17","128","141","1","1","100","100","karsten-wurth-jS0zC2PJ17A-unsplash.jpg","sebastian-unrau-v4e3JI7DDHI-unsplash.jpg","2","0","141","128","","","","","","","","","","","","","","","","","","","","","","","","","","","",""
"","choice_confirmation","","html-keyboard-response","123","568822","0.0-73.0-2.0-0.0","0","0","atBkS","Scenes","","null","","","null","","","","17","128","141","","","","","","","","","","","","","","","","","","","","","","","","","","","","","","","","","","","","","",""
"","explain_trial","","survey-text","124","579084","0.0-73.0-5.0-0.0","0","0","atBkS","Scenes","","10259","{""Q0"":""beautiful trees and grass""}","","","","","","17","128","141","","","","","","","","","","","{""Q0"":""beautiful trees and grass""}","","","","","","","","","","","","","","","","","","","","","","","","","","",""
"","fixation","","html-keyboard-response","125","580104","0.0-74.0-0.0","0","0","atBkS","Scenes","","null","","","null","","","","","","","","","","","","","","","","","","","","","","","","","","","","","","","","","","","","","","","","","","","",""
"","deliberation","","html-keyboard-response","126","581287","0.0-74.0-1.0","0","0","atBkS","Scenes","","1177","","","75","","","","18","137","115","0","-1","100","100","olga-stalska-QaWRyEdlffY-unsplash.jpg","darrell-cassell-hoCXpPUMCoE-unsplash.jpg","2","0","115","137","","","","","","","","","","","","","","","","","","","","","","","","","","","",""
"","choice_confirmation","","html-keyboard-response","127","581795","0.0-74.0-2.0-0.0","0","0","atBkS","Scenes","","null","","","null","","","","18","137","115","","","","","","","","","","","","","","","","","","","","","","","","","","","","","","","","","","","","","",""
"","fixation","","html-keyboard-response","128","582830","0.0-75.0-0.0","0","0","atBkS","Scenes","","null","","","null","","","","","","","","","","","","","","","","","","","","","","","","","","","","","","","","","","","","","","","","","","","",""
"","deliberation","","html-keyboard-response","129","584098","0.0-75.0-1.0","0","0","atBkS","Scenes","","1263","","","68","","","","19","111","121","1","1","100","100","claudio-testa-U3F2o6vz3bs-unsplash.jpg","jean-pierre-brungs-qxCqkbF7tUc-unsplash.jpg","2","1","111","121","","","","","","","","","","","","","","","","","","","","","","","","","","","",""
"","choice_confirmation","","html-keyboard-response","130","584603","0.0-75.0-2.0-0.0","0","0","atBkS","Scenes","","null","","","null","","","","19","111","121","","","","","","","","","","","","","","","","","","","","","","","","","","","","","","","","","","","","","",""
"","explain_trial","","survey-text","131","594026","0.0-75.0-5.0-0.0","0","0","atBkS","Scenes","","9420","{""Q0"":""beautiful grass greenery ""}","","","","","","19","111","121","","","","","","","","","","","{""Q0"":""beautiful grass greenery ""}","","","","","","","","","","","","","","","","","","","","","","","","","","",""
"","fixation","","html-keyboard-response","132","595052","0.0-76.0-0.0","0","0","atBkS","Scenes","","null","","","null","","","","","","","","","","","","","","","","","","","","","","","","","","","","","","","","","","","","","","","","","","","",""
"","deliberation","","html-keyboard-response","133","596089","0.0-76.0-1.0","0","0","atBkS","Scenes","","1033","","","75","","","","20","107","127","0","1","100","100","benjamin-davies-Zm2n2O7Fph4-unsplash.jpg","kace-rodriguez-p3OzJuT_Dks-unsplash.jpg","2","0","127","107","","","","","","","","","","","","","","","","","","","","","","","","","","","",""
"","choice_confirmation","","html-keyboard-response","134","596603","0.0-76.0-2.0-0.0","0","0","atBkS","Scenes","","null","","","null","","","","20","107","127","","","","","","","","","","","","","","","","","","","","","","","","","","","","","","","","","","","","","",""
"","fixation","","html-keyboard-response","135","597629","0.0-77.0-0.0","0","0","atBkS","Scenes","","null","","","null","","","","","","","","","","","","","","","","","","","","","","","","","","","","","","","","","","","","","","","","","","","",""
"","deliberation","","html-keyboard-response","136","598499","0.0-77.0-1.0","0","0","atBkS","Scenes","","866","","","75","","","","21","138","101","0","-1","100","100","petr-vysohlid-9fqwGqGLUxc-unsplash.jpg","aniket-deole-T-tOgjWZ0fQ-unsplash.jpg","2","0","101","138","","","","","","","","","","","","","","","","","","","","","","","","","","","",""
"","choice_confirmation","","html-keyboard-response","137","599013","0.0-77.0-2.0-0.0","0","0","atBkS","Scenes","","null","","","null","","","","21","138","101","","","","","","","","","","","","","","","","","","","","","","","","","","","","","","","","","","","","","",""
"","fixation","","html-keyboard-response","138","600035","0.0-78.0-0.0","0","0","atBkS","Scenes","","null","","","null","","","","","","","","","","","","","","","","","","","","","","","","","","","","","","","","","","","","","","","","","","","",""
"","deliberation","","html-keyboard-response","139","601516","0.0-78.0-1.0","0","0","atBkS","Scenes","","1476","","","68","","","","22","143","114","1","-1","100","100","sigurdur-fjalar-jonsson-1KxBabIntpE-unsplash.jpg","daniel-sessler-z_9VmsxR8hs-unsplash.jpg","2","1","143","114","","","","","","","","","","","","","","","","","","","","","","","","","","","",""
"","choice_confirmation","","html-keyboard-response","140","602022","0.0-78.0-2.0-0.0","0","0","atBkS","Scenes","","null","","","null","","","","22","143","114","","","","","","","","","","","","","","","","","","","","","","","","","","","","","","","","","","","","","",""
"","explain_trial","","survey-text","141","613814","0.0-78.0-5.0-0.0","0","0","atBkS","Scenes","","11788","{""Q0"":""gorgeous scenery ""}","","","","","","22","143","114","","","","","","","","","","","{""Q0"":""gorgeous scenery ""}","","","","","","","","","","","","","","","","","","","","","","","","","","",""
"","fixation","","html-keyboard-response","142","614821","0.0-79.0-0.0","0","0","atBkS","Scenes","","null","","","null","","","","","","","","","","","","","","","","","","","","","","","","","","","","","","","","","","","","","","","","","","","",""
"","deliberation","","html-keyboard-response","143","616931","0.0-79.0-1.0","0","0","atBkS","Scenes","","2107","","","75","","","","23","130","123","1","-1","100","100","lina-loos-04-C1NZk1hE-unsplash.jpg","joel-jasmin-forestbird-efuwb5eBDrI-unsplash.jpg","2","0","123","130","","","","","","","","","","","","","","","","","","","","","","","","","","","",""
"","choice_confirmation","","html-keyboard-response","144","617445","0.0-79.0-2.0-0.0","0","0","atBkS","Scenes","","null","","","null","","","","23","130","123","","","","","","","","","","","","","","","","","","","","","","","","","","","","","","","","","","","","","",""
"","explain_trial","","survey-text","145","627034","0.0-79.0-5.0-0.0","0","0","atBkS","Scenes","","9586","{""Q0"":""gorgeous scenery ""}","","","","","","23","130","123","","","","","","","","","","","{""Q0"":""gorgeous scenery ""}","","","","","","","","","","","","","","","","","","","","","","","","","","",""
"","start_critical_deliberation_block","","html-keyboard-response","146","628404","0.0-79.0-7.0-0.0","0","0","atBkS","Scenes","","1367","","","78","","","","","","","","","","","","","","","","","","","","","","","","","","","","","","","","","","","","","","","","","","","",""
"","fixation","","html-keyboard-response","147","629411","0.0-80.0-0.0","0","0","atBkS","Scenes","","null","","","null","","","","","","","","","","","","","","","","","","","","","","","","","","","","","","","","","","","","","","","","","","","",""
"","deliberation","","html-keyboard-response","148","630655","0.0-80.0-1.0","0","0","atBkS","Scenes","","1240","","","68","","","","24","140","102","0","1","100","100","samuele-errico-piccarini-JEBqFu2AOOA-unsplash.jpg","anisur-rahman-K2b7UDed6uQ-unsplash.jpg","3","1","140","102","","","","","","","","","","","","","","","","","","","","","","","","","","","",""
"","choice_confirmation","","html-keyboard-response","149","631170","0.0-80.0-2.0-0.0","0","0","atBkS","Scenes","","null","","","null","","","","24","140","102","","","","","","","","","","","","","","","","","","","","","","","","","","","","","","","","","","","","","",""
"","fixation","","html-keyboard-response","150","632187","0.0-81.0-0.0","0","0","atBkS","Scenes","","null","","","null","","","","","","","","","","","","","","","","","","","","","","","","","","","","","","","","","","","","","","","","","","","",""
"","deliberation","","html-keyboard-response","151","633083","0.0-81.0-1.0","0","0","atBkS","Scenes","","893","","","75","","","","25","128","141","0","1","100","100","karsten-wurth-jS0zC2PJ17A-unsplash.jpg","sebastian-unrau-v4e3JI7DDHI-unsplash.jpg","3","0","141","128","","","","","","","","","","","","","","","","","","","","","","","","","","","",""
"","choice_confirmation","","html-keyboard-response","152","633593","0.0-81.0-2.0-0.0","0","0","atBkS","Scenes","","null","","","null","","","","25","128","141","","","","","","","","","","","","","","","","","","","","","","","","","","","","","","","","","","","","","",""
"","fixation","","html-keyboard-response","153","634612","0.0-82.0-0.0","0","0","atBkS","Scenes","","null","","","null","","","","","","","","","","","","","","","","","","","","","","","","","","","","","","","","","","","","","","","","","","","",""
"","deliberation","","html-keyboard-response","154","636416","0.0-82.0-1.0","0","0","atBkS","Scenes","","1801","","","75","","","","26","138","101","0","-1","100","100","petr-vysohlid-9fqwGqGLUxc-unsplash.jpg","aniket-deole-T-tOgjWZ0fQ-unsplash.jpg","3","0","101","138","","","","","","","","","","","","","","","","","","","","","","","","","","","",""
"","choice_confirmation","","html-keyboard-response","155","636936","0.0-82.0-2.0-0.0","0","0","atBkS","Scenes","","null","","","null","","","","26","138","101","","","","","","","","","","","","","","","","","","","","","","","","","","","","","","","","","","","","","",""
"","fixation","","html-keyboard-response","156","637954","0.0-83.0-0.0","0","0","atBkS","Scenes","","null","","","null","","","","","","","","","","","","","","","","","","","","","","","","","","","","","","","","","","","","","","","","","","","",""
"","deliberation","","html-keyboard-response","157","638826","0.0-83.0-1.0","0","0","atBkS","Scenes","","868","","","68","","","","27","148","129","0","1","100","100","tom-gainor-ZqLeQDjY6fY-unsplash.jpg","kurt-cotoaga-cqbLg3lZEpk-unsplash.jpg","3","1","148","129","","","","","","","","","","","","","","","","","","","","","","","","","","","",""
"","choice_confirmation","","html-keyboard-response","158","639342","0.0-83.0-2.0-0.0","0","0","atBkS","Scenes","","null","","","null","","","","27","148","129","","","","","","","","","","","","","","","","","","","","","","","","","","","","","","","","","","","","","",""
"","fixation","","html-keyboard-response","159","640363","0.0-84.0-0.0","0","0","atBkS","Scenes","","null","","","null","","","","","","","","","","","","","","","","","","","","","","","","","","","","","","","","","","","","","","","","","","","",""
"","deliberation","","html-keyboard-response","160","641589","0.0-84.0-1.0","0","0","atBkS","Scenes","","1220","","","68","","","","28","111","121","0","1","100","100","claudio-testa-U3F2o6vz3bs-unsplash.jpg","jean-pierre-brungs-qxCqkbF7tUc-unsplash.jpg","3","1","111","121","","","","","","","","","","","","","","","","","","","","","","","","","","","",""
"","choice_confirmation","","html-keyboard-response","161","642103","0.0-84.0-2.0-0.0","0","0","atBkS","Scenes","","null","","","null","","","","28","111","121","","","","","","","","","","","","","","","","","","","","","","","","","","","","","","","","","","","","","",""
"","fixation","","html-keyboard-response","162","643122","0.0-85.0-0.0","0","0","atBkS","Scenes","","null","","","null","","","","","","","","","","","","","","","","","","","","","","","","","","","","","","","","","","","","","","","","","","","",""
"","deliberation","","html-keyboard-response","163","644383","0.0-85.0-1.0","0","0","atBkS","Scenes","","1256","","","68","","","","29","143","114","0","-1","100","100","sigurdur-fjalar-jonsson-1KxBabIntpE-unsplash.jpg","daniel-sessler-z_9VmsxR8hs-unsplash.jpg","3","1","143","114","","","","","","","","","","","","","","","","","","","","","","","","","","","",""
"","choice_confirmation","","html-keyboard-response","164","644897","0.0-85.0-2.0-0.0","0","0","atBkS","Scenes","","null","","","null","","","","29","143","114","","","","","","","","","","","","","","","","","","","","","","","","","","","","","","","","","","","","","",""
"","fixation","","html-keyboard-response","165","645917","0.0-86.0-0.0","0","0","atBkS","Scenes","","null","","","null","","","","","","","","","","","","","","","","","","","","","","","","","","","","","","","","","","","","","","","","","","","",""
"","deliberation","","html-keyboard-response","166","647102","0.0-86.0-1.0","0","0","atBkS","Scenes","","1182","","","68","","","","30","125","147","0","-1","100","100","john-lee-oMneOBYhJxY-unsplash.jpg","tobias-keller-73F4pKoUkM0-unsplash.jpg","3","1","125","147","","","","","","","","","","","","","","","","","","","","","","","","","","","",""
"","choice_confirmation","","html-keyboard-response","167","647621","0.0-86.0-2.0-0.0","0","0","atBkS","Scenes","","null","","","null","","","","30","125","147","","","","","","","","","","","","","","","","","","","","","","","","","","","","","","","","","","","","","",""
"","fixation","","html-keyboard-response","168","648644","0.0-87.0-0.0","0","0","atBkS","Scenes","","null","","","null","","","","","","","","","","","","","","","","","","","","","","","","","","","","","","","","","","","","","","","","","","","",""
"","deliberation","","html-keyboard-response","169","649894","0.0-87.0-1.0","0","0","atBkS","Scenes","","1247","","","75","","","","31","135","126","0","1","100","100","mohammad-alizade-4wzRuAb-KWs-unsplash.jpg","jordan-mcqueen-PJCZOWuOxbU-unsplash.jpg","3","0","126","135","","","","","","","","","","","","","","","","","","","","","","","","","","","",""
"","choice_confirmation","","html-keyboard-response","170","650415","0.0-87.0-2.0-0.0","0","0","atBkS","Scenes","","null","","","null","","","","31","135","126","","","","","","","","","","","","","","","","","","","","","","","","","","","","","","","","","","","","","",""
"","fixation","","html-keyboard-response","171","651432","0.0-88.0-0.0","0","0","atBkS","Scenes","","null","","","null","","","","","","","","","","","","","","","","","","","","","","","","","","","","","","","","","","","","","","","","","","","",""
"","deliberation","","html-keyboard-response","172","652550","0.0-88.0-1.0","0","0","atBkS","Scenes","","1114","","","75","","","","32","137","115","0","-1","100","100","olga-stalska-QaWRyEdlffY-unsplash.jpg","darrell-cassell-hoCXpPUMCoE-unsplash.jpg","3","0","115","137","","","","","","","","","","","","","","","","","","","","","","","","","","","",""
"","choice_confirmation","","html-keyboard-response","173","653069","0.0-88.0-2.0-0.0","0","0","atBkS","Scenes","","null","","","null","","","","32","137","115","","","","","","","","","","","","","","","","","","","","","","","","","","","","","","","","","","","","","",""
"","fixation","","html-keyboard-response","174","654087","0.0-89.0-0.0","0","0","atBkS","Scenes","","null","","","null","","","","","","","","","","","","","","","","","","","","","","","","","","","","","","","","","","","","","","","","","","","",""
"","deliberation","","html-keyboard-response","175","654956","0.0-89.0-1.0","0","0","atBkS","Scenes","","866","","","75","","","","33","130","123","0","-1","100","100","lina-loos-04-C1NZk1hE-unsplash.jpg","joel-jasmin-forestbird-efuwb5eBDrI-unsplash.jpg","3","0","123","130","","","","","","","","","","","","","","","","","","","","","","","","","","","",""
"","choice_confirmation","","html-keyboard-response","176","655461","0.0-89.0-2.0-0.0","0","0","atBkS","Scenes","","null","","","null","","","","33","130","123","","","","","","","","","","","","","","","","","","","","","","","","","","","","","","","","","","","","","",""
"","fixation","","html-keyboard-response","177","656480","0.0-90.0-0.0","0","0","atBkS","Scenes","","null","","","null","","","","","","","","","","","","","","","","","","","","","","","","","","","","","","","","","","","","","","","","","","","",""
"","deliberation","","html-keyboard-response","178","657951","0.0-90.0-1.0","0","0","atBkS","Scenes","","1468","","","75","","","","34","107","127","0","1","100","100","benjamin-davies-Zm2n2O7Fph4-unsplash.jpg","kace-rodriguez-p3OzJuT_Dks-unsplash.jpg","3","0","127","107","","","","","","","","","","","","","","","","","","","","","","","","","","","",""
"","choice_confirmation","","html-keyboard-response","179","658471","0.0-90.0-2.0-0.0","0","0","atBkS","Scenes","","null","","","null","","","","34","107","127","","","","","","","","","","","","","","","","","","","","","","","","","","","","","","","","","","","","","",""
"","fixation","","html-keyboard-response","180","659474","0.0-91.0-0.0","0","0","atBkS","Scenes","","null","","","null","","","","","","","","","","","","","","","","","","","","","","","","","","","","","","","","","","","","","","","","","","","",""
"","deliberation","","html-keyboard-response","181","660354","0.0-91.0-1.0","0","0","atBkS","Scenes","","877","","","75","","","","35","136","139","0","-1","100","100","nicolas-jehly-LzVB84KkZOE-unsplash.jpg","samsommer-vddccTqwal8-unsplash.jpg","3","0","139","136","","","","","","","","","","","","","","","","","","","","","","","","","","","",""
"","choice_confirmation","","html-keyboard-response","182","660894","0.0-91.0-2.0-0.0","0","0","atBkS","Scenes","","null","","","null","","","","35","136","139","","","","","","","","","","","","","","","","","","","","","","","","","","","","","","","","","","","","","",""
"","reward_learning_instructions","","instructions","183","708370","0.0-92.0-0.0","0","0","atBkS","Scenes","[{""page_index"":0,""viewing_time"":25844},{""page_index"":1,""viewing_time"":20179},{""page_index"":2,""viewing_time"":1450}]","47474","","","","","","","","","","","","","","","","","","","","","","","","","","","","","","","","","","","","","","","","","","","","","","",""
"","reward_comprehension_check","","survey-multi-choice","184","720198","0.0-92.0-1.0","0","0","atBkS","Scenes","","11822","{""Q0"":""True"",""Q1"":""True"",""Q2"":""Press the space bar to see its outcome"",""Q3"":""Press the relevant key while the outcome is presented""}","0","","","","","","","","","","","","","","","","","","","","","","","","","","","","","","","","","","","","","","","","","","","","",""
"","start_phase","","html-keyboard-response","185","722121","0.0-93.0","0","0","atBkS","Scenes","","1920","","","78","","","","","","","","","","","","","","","","","","","","","","","","","","","","","","","","","","","","","","","","","","","",""
"","fixation","","html-keyboard-response","186","723138","0.0-94.0","0","0","atBkS","Scenes","","null","","","null","","","","","","","","","","","","","","","","","","","","","","","","","","","","","","","","","","","","","","","","","","","",""
"","see_reward","","html-keyboard-response","187","724572","0.0-95.0","0","0","atBkS","Scenes","","1431","","","32","","139","","0","","","","-1","","","","","1","","","","","0","1431","","","","","","","","","","","","","","","","","","","","","","","","",""
"","reward_outcome","","html-keyboard-response","188","726589","0.0-96.0","0","0","atBkS","Scenes","","1135","","","40","","139","","0","","","","","","","","","","","","","","","","-1","1135","","","","","","","","","","","","","","","","","","","","","","",""
"","fixation","","html-keyboard-response","189","727609","0.0-99.0","0","0","atBkS","Scenes","","null","","","null","","","","","","","","","","","","","","","","","","","","","","","","","","","","","","","","","","","","","","","","","","","",""
"","see_reward","","html-keyboard-response","190","728465","0.0-100.0","0","0","atBkS","Scenes","","852","","","32","","111","","1","","","","1","","","","","1","","","","","147","852","","","","","","","","","","","","","","","","","","","","","","","","",""
"","reward_outcome","","html-keyboard-response","191","730485","0.0-101.0","0","0","atBkS","Scenes","","1021","","","38","","111","","1","","","","","","","","","","","","","","","","1","1021","","","","","","","","","","","","","","","","","","","","","","",""
"","fixation","","html-keyboard-response","192","731504","0.0-104.0","0","0","atBkS","Scenes","","null","","","null","","","","","","","","","","","","","","","","","","","","","","","","","","","","","","","","","","","","","","","","","","","",""
"","see_reward","","html-keyboard-response","193","732268","0.0-105.0","0","0","atBkS","Scenes","","760","","","32","","148","","2","","","","1","","","","","1","","","","","160","760","","","","","","","","","","","","","","","","","","","","","","","","",""
"","reward_outcome","","html-keyboard-response","194","734272","0.0-106.0","0","0","atBkS","Scenes","","1313","","","40","","148","","2","","","","","","","","","","","","","","","","-1","1313","","","","","","","","","","","","","","","","","","","","","","",""
"","fixation","","html-keyboard-response","195","735280","0.0-109.0","0","0","atBkS","Scenes","","null","","","null","","","","","","","","","","","","","","","","","","","","","","","","","","","","","","","","","","","","","","","","","","","",""
"","see_reward","","html-keyboard-response","196","736260","0.0-110.0","0","0","atBkS","Scenes","","977","","","32","","127","","3","","","","1","","","","","1","","","","","151","977","","","","","","","","","","","","","","","","","","","","","","","","",""
"","reward_outcome","","html-keyboard-response","197","738272","0.0-111.0","0","0","atBkS","Scenes","","1868","","","38","","127","","3","","","","","","","","","","","","","","","","1","1868","","","","","","","","","","","","","","","","","","","","","","",""
"","fixation","","html-keyboard-response","198","739282","0.0-114.0","0","0","atBkS","Scenes","","null","","","null","","","","","","","","","","","","","","","","","","","","","","","","","","","","","","","","","","","","","","","","","","","",""
"","see_reward","","html-keyboard-response","199","740200","0.0-115.0","0","0","atBkS","Scenes","","914","","","32","","101","","4","","","","-1","","","","","1","","","","","0","914","","","","","","","","","","","","","","","","","","","","","","","","",""
"","reward_outcome","","html-keyboard-response","200","742221","0.0-116.0","0","0","atBkS","Scenes","","854","","","40","","101","","4","","","","","","","","","","","","","","","","-1","854","","","","","","","","","","","","","","","","","","","","","","",""
"","fixation","","html-keyboard-response","201","743225","0.0-119.0","0","0","atBkS","Scenes","","null","","","null","","","","","","","","","","","","","","","","","","","","","","","","","","","","","","","","","","","","","","","","","","","",""
"","see_reward","","html-keyboard-response","202","743858","0.0-120.0","0","0","atBkS","Scenes","","631","","","32","","139","","5","","","","-1","","","","","1","","","","","0","631","","","","","","","","","","","","","","","","","","","","","","","","",""
"","reward_outcome","","html-keyboard-response","203","745877","0.0-121.0","0","0","atBkS","Scenes","","883","","","40","","139","","5","","","","","","","","","","","","","","","","-1","883","","","","","","","","","","","","","","","","","","","","","","",""
"","fixation","","html-keyboard-response","204","746891","0.0-124.0","0","0","atBkS","Scenes","","null","","","null","","","","","","","","","","","","","","","","","","","","","","","","","","","","","","","","","","","","","","","","","","","",""
"","see_reward","","html-keyboard-response","205","747391","0.0-125.0","0","0","atBkS","Scenes","","497","","","32","","123","","6","","","","-1","","","","","1","","","","","0","497","","","","","","","","","","","","","","","","","","","","","","","","",""
"","reward_outcome","","html-keyboard-response","206","749417","0.0-126.0","0","0","atBkS","Scenes","","724","","","40","","123","","6","","","","","","","","","","","","","","","","-1","724","","","","","","","","","","","","","","","","","","","","","","",""
"","fixation","","html-keyboard-response","207","750436","0.0-129.0","0","0","atBkS","Scenes","","null","","","null","","","","","","","","","","","","","","","","","","","","","","","","","","","","","","","","","","","","","","","","","","","",""
"","see_reward","","html-keyboard-response","208","750854","0.0-130.0","0","0","atBkS","Scenes","","414","","","32","","111","","7","","","","1","","","","","1","","","","","147","414","","","","","","","","","","","","","","","","","","","","","","","","",""
"","reward_outcome","","html-keyboard-response","209","752878","0.0-131.0","0","0","atBkS","Scenes","","775","","","38","","111","","7","","","","","","","","","","","","","","","","1","775","","","","","","","","","","","","","","","","","","","","","","",""
"","fixation","","html-keyboard-response","210","753881","0.0-134.0","0","0","atBkS","Scenes","","null","","","null","","","","","","","","","","","","","","","","","","","","","","","","","","","","","","","","","","","","","","","","","","","",""
"","see_reward","","html-keyboard-response","211","754616","0.0-135.0","0","0","atBkS","Scenes","","729","","","32","","143","","8","","","","-1","","","","","1","","","","","0","729","","","","","","","","","","","","","","","","","","","","","","","","",""
"","reward_outcome","","html-keyboard-response","212","756638","0.0-136.0","0","0","atBkS","Scenes","","1152","","","40","","143","","8","","","","","","","","","","","","","","","","-1","1152","","","","","","","","","","","","","","","","","","","","","","",""
"","fixation","","html-keyboard-response","213","757646","0.0-139.0","0","0","atBkS","Scenes","","null","","","null","","","","","","","","","","","","","","","","","","","","","","","","","","","","","","","","","","","","","","","","","","","",""
"","see_reward","","html-keyboard-response","214","758348","0.0-140.0","0","0","atBkS","Scenes","","699","","","32","","127","","9","","","","1","","","","","1","","","","","151","699","","","","","","","","","","","","","","","","","","","","","","","","",""
"","reward_outcome","","html-keyboard-response","215","760366","0.0-141.0","0","0","atBkS","Scenes","","571","","","38","","127","","9","","","","","","","","","","","","","","","","1","571","","","","","","","","","","","","","","","","","","","","","","",""
"","fixation","","html-keyboard-response","216","761385","0.0-144.0","0","0","atBkS","Scenes","","null","","","null","","","","","","","","","","","","","","","","","","","","","","","","","","","","","","","","","","","","","","","","","","","",""
"","see_reward","","html-keyboard-response","217","761813","0.0-145.0","0","0","atBkS","Scenes","","425","","","32","","123","","10","","","","-1","","","","","1","","","","","0","425","","","","","","","","","","","","","","","","","","","","","","","","",""
"","reward_outcome","","html-keyboard-response","218","763831","0.0-146.0","0","0","atBkS","Scenes","","748","","","40","","123","","10","","","","","","","","","","","","","","","","-1","748","","","","","","","","","","","","","","","","","","","","","","",""
"","fixation","","html-keyboard-response","219","764849","0.0-149.0","0","0","atBkS","Scenes","","null","","","null","","","","","","","","","","","","","","","","","","","","","","","","","","","","","","","","","","","","","","","","","","","",""
"","see_reward","","html-keyboard-response","220","765415","0.0-150.0","0","0","atBkS","Scenes","","562","","","32","","126","","11","","","","1","","","","","1","","","","","154","562","","","","","","","","","","","","","","","","","","","","","","","","",""
"","reward_outcome","","html-keyboard-response","221","767426","0.0-151.0","0","0","atBkS","Scenes","","680","","","38","","126","","11","","","","","","","","","","","","","","","","1","680","","","","","","","","","","","","","","","","","","","","","","",""
"","fixation","","html-keyboard-response","222","768445","0.0-154.0","0","0","atBkS","Scenes","","null","","","null","","","","","","","","","","","","","","","","","","","","","","","","","","","","","","","","","","","","","","","","","","","",""
"","see_reward","","html-keyboard-response","223","769171","0.0-155.0","0","0","atBkS","Scenes","","723","","","32","","143","","12","","","","-1","","","","","1","","","","","0","723","","","","","","","","","","","","","","","","","","","","","","","","",""
"","reward_outcome","","html-keyboard-response","224","771186","0.0-156.0","0","0","atBkS","Scenes","","640","","","40","","143","","12","","","","","","","","","","","","","","","","-1","640","","","","","","","","","","","","","","","","","","","","","","",""
"","fixation","","html-keyboard-response","225","772206","0.0-159.0","0","0","atBkS","Scenes","","null","","","null","","","","","","","","","","","","","","","","","","","","","","","","","","","","","","","","","","","","","","","","","","","",""
"","see_reward","","html-keyboard-response","226","772816","0.0-160.0","0","0","atBkS","Scenes","","608","","","32","","140","","13","","","","1","","","","","1","","","","","150","608","","","","","","","","","","","","","","","","","","","","","","","","",""
"","reward_outcome","","html-keyboard-response","227","774826","0.0-161.0","0","0","atBkS","Scenes","","705","","","38","","140","","13","","","","","","","","","","","","","","","","1","705","","","","","","","","","","","","","","","","","","","","","","",""
"","fixation","","html-keyboard-response","228","775852","0.0-164.0","0","0","atBkS","Scenes","","null","","","null","","","","","","","","","","","","","","","","","","","","","","","","","","","","","","","","","","","","","","","","","","","",""
"","see_reward","","html-keyboard-response","229","776347","0.0-165.0","0","0","atBkS","Scenes","","493","","","32","","125","","14","","","","-1","","","","","1","","","","","0","493","","","","","","","","","","","","","","","","","","","","","","","","",""
"","reward_outcome","","html-keyboard-response","230","778360","0.0-166.0","0","0","atBkS","Scenes","","618","","","40","","125","","14","","","","","","","","","","","","","","","","-1","618","","","","","","","","","","","","","","","","","","","","","","",""
"","fixation","","html-keyboard-response","231","779379","0.0-169.0","0","0","atBkS","Scenes","","null","","","null","","","","","","","","","","","","","","","","","","","","","","","","","","","","","","","","","","","","","","","","","","","",""
"","see_reward","","html-keyboard-response","232","779787","0.0-170.0","0","0","atBkS","Scenes","","405","","","32","","140","","15","","","","1","","","","","1","","","","","150","405","","","","","","","","","","","","","","","","","","","","","","","","",""
"","reward_outcome","","html-keyboard-response","233","781798","0.0-171.0","0","0","atBkS","Scenes","","590","","","38","","140","","15","","","","","","","","","","","","","","","","1","590","","","","","","","","","","","","","","","","","","","","","","",""
"","fixation","","html-keyboard-response","234","782816","0.0-174.0","0","0","atBkS","Scenes","","null","","","null","","","","","","","","","","","","","","","","","","","","","","","","","","","","","","","","","","","","","","","","","","","",""
"","see_reward","","html-keyboard-response","235","783365","0.0-175.0","0","0","atBkS","Scenes","","545","","","32","","148","","16","","","","1","","","","","1","","","","","160","545","","","","","","","","","","","","","","","","","","","","","","","","",""
"","reward_outcome","","html-keyboard-response","236","785377","0.0-176.0","0","0","atBkS","Scenes","","726","","","38","","148","","16","","","","","","","","","","","","","","","","1","726","","","","","","","","","","","","","","","","","","","","","","",""
"","fixation","","html-keyboard-response","237","786382","0.0-179.0","0","0","atBkS","Scenes","","null","","","null","","","","","","","","","","","","","","","","","","","","","","","","","","","","","","","","","","","","","","","","","","","",""
"","see_reward","","html-keyboard-response","238","787278","0.0-180.0","0","0","atBkS","Scenes","","893","","","32","","115","","17","","","","-1","","","","","1","","","","","0","893","","","","","","","","","","","","","","","","","","","","","","","","",""
"","reward_outcome","","html-keyboard-response","239","789290","0.0-181.0","0","0","atBkS","Scenes","","592","","","40","","115","","17","","","","","","","","","","","","","","","","-1","592","","","","","","","","","","","","","","","","","","","","","","",""
"","fixation","","html-keyboard-response","240","790309","0.0-184.0","0","0","atBkS","Scenes","","null","","","null","","","","","","","","","","","","","","","","","","","","","","","","","","","","","","","","","","","","","","","","","","","",""
"","see_reward","","html-keyboard-response","241","791511","0.0-185.0","0","0","atBkS","Scenes","","1198","","","32","","101","","18","","","","-1","","","","","1","","","","","0","1198","","","","","","","","","","","","","","","","","","","","","","","","",""
"","reward_outcome","","html-keyboard-response","242","793535","0.0-186.0","0","0","atBkS","Scenes","","1062","","","40","","101","","18","","","","","","","","","","","","","","","","-1","1062","","","","","","","","","","","","","","","","","","","","","","",""
"","fixation","","html-keyboard-response","243","794553","0.0-189.0","0","0","atBkS","Scenes","","null","","","null","","","","","","","","","","","","","","","","","","","","","","","","","","","","","","","","","","","","","","","","","","","",""
"","see_reward","","html-keyboard-response","244","796371","0.0-190.0","0","0","atBkS","Scenes","","1814","","","32","","115","","19","","","","-1","","","","","1","","","","","0","1814","","","","","","","","","","","","","","","","","","","","","","","","",""
"","reward_outcome","","html-keyboard-response","245","798383","0.0-191.0","0","0","atBkS","Scenes","","null","","","null","","115","","19","","","","","","","","","","","","","","","","NaN","null","","","","","","","","","","","","","","","","","","","","","","",""
"","respond_faster","","html-keyboard-response","246","799903","0.0-192.0-0.0","1","0","atBkS","Scenes","","null","","","null","","","","","","","","","","","","","","","","","","","","","","","","","","","","","","","","","","","","","","","","","","","",""
"","fixation","","html-keyboard-response","247","800928","0.0-194.0","0","0","atBkS","Scenes","","null","","","null","","","","","","","","","","","","","","","","","","","","","","","","","","","","","","","","","","","","","","","","","","","",""
"","see_reward","","html-keyboard-response","248","801995","0.0-195.0","0","0","atBkS","Scenes","","1064","","","32","","141","","20","","","","1","","","","","1","","","","","143","1064","","","","","","","","","","","","","","","","","","","","","","","","",""
"","reward_outcome","","html-keyboard-response","249","804017","0.0-196.0","0","0","atBkS","Scenes","","614","","","38","","141","","20","","","","","","","","","","","","","","","","1","614","","","","","","","","","","","","","","","","","","","","","","",""
"","fixation","","html-keyboard-response","250","805043","0.0-199.0","0","0","atBkS","Scenes","","null","","","null","","","","","","","","","","","","","","","","","","","","","","","","","","","","","","","","","","","","","","","","","","","",""
"","see_reward","","html-keyboard-response","251","805618","0.0-200.0","0","0","atBkS","Scenes","","572","","","32","","126","","21","","","","1","","","","","1","","","","","154","572","","","","","","","","","","","","","","","","","","","","","","","","",""
"","reward_outcome","","html-keyboard-response","252","807630","0.0-201.0","0","0","atBkS","Scenes","","657","","","38","","126","","21","","","","","","","","","","","","","","","","1","657","","","","","","","","","","","","","","","","","","","","","","",""
"","fixation","","html-keyboard-response","253","808655","0.0-204.0","0","0","atBkS","Scenes","","null","","","null","","","","","","","","","","","","","","","","","","","","","","","","","","","","","","","","","","","","","","","","","","","",""
"","see_reward","","html-keyboard-response","254","809262","0.0-205.0","0","0","atBkS","Scenes","","604","","","32","","141","","22","","","","1","","","","","1","","","","","143","604","","","","","","","","","","","","","","","","","","","","","","","","",""
"","reward_outcome","","html-keyboard-response","255","811279","0.0-206.0","0","0","atBkS","Scenes","","594","","","38","","141","","22","","","","","","","","","","","","","","","","1","594","","","","","","","","","","","","","","","","","","","","","","",""
"","fixation","","html-keyboard-response","256","812297","0.0-209.0","0","0","atBkS","Scenes","","null","","","null","","","","","","","","","","","","","","","","","","","","","","","","","","","","","","","","","","","","","","","","","","","",""
"","see_reward","","html-keyboard-response","257","812884","0.0-210.0","0","0","atBkS","Scenes","","582","","","32","","125","","23","","","","-1","","","","","1","","","","","0","582","","","","","","","","","","","","","","","","","","","","","","","","",""
"","reward_outcome","","html-keyboard-response","258","814904","0.0-211.0","0","0","atBkS","Scenes","","550","","","40","","125","","23","","","","","","","","","","","","","","","","-1","550","","","","","","","","","","","","","","","","","","","","","","",""
"","block_over","","html-keyboard-response","259","817729","0.0-213.0-0.0","0","0","atBkS","Scenes","","2821","","","78","","","","","","","","","","","","","","","","","","","","","","","","","","","","","","","","","","","","","","","","","","","",""
"","fixation","","html-keyboard-response","260","818750","0.0-214.0","0","0","atBkS","Scenes","","null","","","null","","","","","","","","","","","","","","","","","","","","","","","","","","","","","","","","","","","","","","","","","","","",""
"","see_reward","","html-keyboard-response","261","819491","0.0-215.0","0","0","atBkS","Scenes","","735","","","32","","123","","24","","","","-1","","","","","2","","","","","0","735","","","","","","","","","","","","","","","","","","","","","","","","",""
"","reward_outcome","","html-keyboard-response","262","821512","0.0-216.0","0","0","atBkS","Scenes","","759","","","40","","123","","24","","","","","","","","","","","","","","","","-1","759","","","","","","","","","","","","","","","","","","","","","","",""
"","fixation","","html-keyboard-response","263","822533","0.0-219.0","0","0","atBkS","Scenes","","null","","","null","","","","","","","","","","","","","","","","","","","","","","","","","","","","","","","","","","","","","","","","","","","",""
"","see_reward","","html-keyboard-response","264","822607","0.0-220.0","0","0","atBkS","Scenes","","70","","","32","","123","","25","","","","-1","","","","","2","","","","","0","70","","","","","","","","","","","","","","","","","","","","","","","","",""
"","reward_outcome","","html-keyboard-response","265","824623","0.0-221.0","0","0","atBkS","Scenes","","816","","","40","","123","","25","","","","","","","","","","","","","","","","-1","816","","","","","","","","","","","","","","","","","","","","","","",""
"","fixation","","html-keyboard-response","266","825641","0.0-224.0","0","0","atBkS","Scenes","","null","","","null","","","","","","","","","","","","","","","","","","","","","","","","","","","","","","","","","","","","","","","","","","","",""
"","see_reward","","html-keyboard-response","267","826048","0.0-225.0","0","0","atBkS","Scenes","","404","","","32","","127","","26","","","","1","","","","","2","","","","","151","404","","","","","","","","","","","","","","","","","","","","","","","","",""
"","reward_outcome","","html-keyboard-response","268","828071","0.0-226.0","0","0","atBkS","Scenes","","479","","","38","","127","","26","","","","","","","","","","","","","","","","1","479","","","","","","","","","","","","","","","","","","","","","","",""
"","fixation","","html-keyboard-response","269","829082","0.0-229.0","0","0","atBkS","Scenes","","null","","","null","","","","","","","","","","","","","","","","","","","","","","","","","","","","","","","","","","","","","","","","","","","",""
"","see_reward","","html-keyboard-response","270","829652","0.0-230.0","0","0","atBkS","Scenes","","567","","","32","","143","","27","","","","-1","","","","","2","","","","","0","567","","","","","","","","","","","","","","","","","","","","","","","","",""
"","reward_outcome","","html-keyboard-response","271","831676","0.0-231.0","0","0","atBkS","Scenes","","701","","","40","","143","","27","","","","","","","","","","","","","","","","-1","701","","","","","","","","","","","","","","","","","","","","","","",""
"","fixation","","html-keyboard-response","272","832695","0.0-234.0","0","0","atBkS","Scenes","","null","","","null","","","","","","","","","","","","","","","","","","","","","","","","","","","","","","","","","","","","","","","","","","","",""
"","see_reward","","html-keyboard-response","273","833188","0.0-235.0","0","0","atBkS","Scenes","","489","","","32","","141","","28","","","","1","","","","","2","","","","","143","489","","","","","","","","","","","","","","","","","","","","","","","","",""
"","reward_outcome","","html-keyboard-response","274","835202","0.0-236.0","0","0","atBkS","Scenes","","585","","","38","","141","","28","","","","","","","","","","","","","","","","1","585","","","","","","","","","","","","","","","","","","","","","","",""
"","fixation","","html-keyboard-response","275","836221","0.0-239.0","0","0","atBkS","Scenes","","null","","","null","","","","","","","","","","","","","","","","","","","","","","","","","","","","","","","","","","","","","","","","","","","",""
"","see_reward","","html-keyboard-response","276","836805","0.0-240.0","0","0","atBkS","Scenes","","580","","","32","","111","","29","","","","1","","","","","2","","","","","147","580","","","","","","","","","","","","","","","","","","","","","","","","",""
"","reward_outcome","","html-keyboard-response","277","838815","0.0-241.0","0","0","atBkS","Scenes","","523","","","38","","111","","29","","","","","","","","","","","","","","","","1","523","","","","","","","","","","","","","","","","","","","","","","",""
"","fixation","","html-keyboard-response","278","839838","0.0-244.0","0","0","atBkS","Scenes","","null","","","null","","","","","","","","","","","","","","","","","","","","","","","","","","","","","","","","","","","","","","","","","","","",""
"","see_reward","","html-keyboard-response","279","840455","0.0-245.0","0","0","atBkS","Scenes","","614","","","32","","148","","30","","","","1","","","","","2","","","","","160","614","","","","","","","","","","","","","","","","","","","","","","","","",""
"","reward_outcome","","html-keyboard-response","280","842469","0.0-246.0","0","0","atBkS","Scenes","","500","","","38","","148","","30","","","","","","","","","","","","","","","","1","500","","","","","","","","","","","","","","","","","","","","","","",""
"","fixation","","html-keyboard-response","281","843488","0.0-249.0","0","0","atBkS","Scenes","","null","","","null","","","","","","","","","","","","","","","","","","","","","","","","","","","","","","","","","","","","","","","","","","","",""
"","see_reward","","html-keyboard-response","282","844033","0.0-250.0","0","0","atBkS","Scenes","","542","","","32","","111","","31","","","","1","","","","","2","","","","","147","542","","","","","","","","","","","","","","","","","","","","","","","","",""
"","reward_outcome","","html-keyboard-response","283","846043","0.0-251.0","0","0","atBkS","Scenes","","502","","","38","","111","","31","","","","","","","","","","","","","","","","1","502","","","","","","","","","","","","","","","","","","","","","","",""
"","fixation","","html-keyboard-response","284","847062","0.0-254.0","0","0","atBkS","Scenes","","null","","","null","","","","","","","","","","","","","","","","","","","","","","","","","","","","","","","","","","","","","","","","","","","",""
"","see_reward","","html-keyboard-response","285","847659","0.0-255.0","0","0","atBkS","Scenes","","593","","","32","","148","","32","","","","1","","","","","2","","","","","160","593","","","","","","","","","","","","","","","","","","","","","","","","",""
"","reward_outcome","","html-keyboard-response","286","849673","0.0-256.0","0","0","atBkS","Scenes","","475","","","38","","148","","32","","","","","","","","","","","","","","","","1","475","","","","","","","","","","","","","","","","","","","","","","",""
"","fixation","","html-keyboard-response","287","850697","0.0-259.0","0","0","atBkS","Scenes","","null","","","null","","","","","","","","","","","","","","","","","","","","","","","","","","","","","","","","","","","","","","","","","","","",""
"","see_reward","","html-keyboard-response","288","851097","0.0-260.0","0","0","atBkS","Scenes","","396","","","32","","115","","33","","","","-1","","","","","2","","","","","0","396","","","","","","","","","","","","","","","","","","","","","","","","",""
"","reward_outcome","","html-keyboard-response","289","853120","0.0-261.0","0","0","atBkS","Scenes","","570","","","40","","115","","33","","","","","","","","","","","","","","","","-1","570","","","","","","","","","","","","","","","","","","","","","","",""
"","fixation","","html-keyboard-response","290","854140","0.0-264.0","0","0","atBkS","Scenes","","null","","","null","","","","","","","","","","","","","","","","","","","","","","","","","","","","","","","","","","","","","","","","","","","",""
"","see_reward","","html-keyboard-response","291","854656","0.0-265.0","0","0","atBkS","Scenes","","511","","","32","","140","","34","","","","1","","","","","2","","","","","150","511","","","","","","","","","","","","","","","","","","","","","","","","",""
"","reward_outcome","","html-keyboard-response","292","856673","0.0-266.0","0","0","atBkS","Scenes","","609","","","38","","140","","34","","","","","","","","","","","","","","","","1","609","","","","","","","","","","","","","","","","","","","","","","",""
"","fixation","","html-keyboard-response","293","857680","0.0-269.0","0","0","atBkS","Scenes","","null","","","null","","","","","","","","","","","","","","","","","","","","","","","","","","","","","","","","","","","","","","","","","","","",""
"","see_reward","","html-keyboard-response","294","858096","0.0-270.0","0","0","atBkS","Scenes","","412","","","32","","139","","35","","","","-1","","","","","2","","","","","0","412","","","","","","","","","","","","","","","","","","","","","","","","",""
"","reward_outcome","","html-keyboard-response","295","860125","0.0-271.0","0","0","atBkS","Scenes","","1514","","","40","","139","","35","","","","","","","","","","","","","","","","-1","1514","","","","","","","","","","","","","","","","","","","","","","",""
"","fixation","","html-keyboard-response","296","861145","0.0-274.0","0","0","atBkS","Scenes","","null","","","null","","","","","","","","","","","","","","","","","","","","","","","","","","","","","","","","","","","","","","","","","","","",""
"","see_reward","","html-keyboard-response","297","861731","0.0-275.0","0","0","atBkS","Scenes","","581","","","32","","127","","36","","","","1","","","","","2","","","","","151","581","","","","","","","","","","","","","","","","","","","","","","","","",""
"","reward_outcome","","html-keyboard-response","298","863753","0.0-276.0","0","0","atBkS","Scenes","","601","","","38","","127","","36","","","","","","","","","","","","","","","","1","601","","","","","","","","","","","","","","","","","","","","","","",""
"","fixation","","html-keyboard-response","299","864771","0.0-279.0","0","0","atBkS","Scenes","","null","","","null","","","","","","","","","","","","","","","","","","","","","","","","","","","","","","","","","","","","","","","","","","","",""
"","see_reward","","html-keyboard-response","300","865501","0.0-280.0","0","0","atBkS","Scenes","","725","","","32","","143","","37","","","","-1","","","","","2","","","","","0","725","","","","","","","","","","","","","","","","","","","","","","","","",""
"","reward_outcome","","html-keyboard-response","301","867513","0.0-281.0","0","0","atBkS","Scenes","","633","","","40","","143","","37","","","","","","","","","","","","","","","","-1","633","","","","","","","","","","","","","","","","","","","","","","",""
"","fixation","","html-keyboard-response","302","868531","0.0-284.0","0","0","atBkS","Scenes","","null","","","null","","","","","","","","","","","","","","","","","","","","","","","","","","","","","","","","","","","","","","","","","","","",""
"","see_reward","","html-keyboard-response","303","869009","0.0-285.0","0","0","atBkS","Scenes","","474","","","32","","115","","38","","","","-1","","","","","2","","","","","0","474","","","","","","","","","","","","","","","","","","","","","","","","",""
"","reward_outcome","","html-keyboard-response","304","871022","0.0-286.0","0","0","atBkS","Scenes","","704","","","40","","115","","38","","","","","","","","","","","","","","","","-1","704","","","","","","","","","","","","","","","","","","","","","","",""
"","fixation","","html-keyboard-response","305","872040","0.0-289.0","0","0","atBkS","Scenes","","null","","","null","","","","","","","","","","","","","","","","","","","","","","","","","","","","","","","","","","","","","","","","","","","",""
"","see_reward","","html-keyboard-response","306","872386","0.0-290.0","0","0","atBkS","Scenes","","341","","","32","","101","","39","","","","-1","","","","","2","","","","","0","341","","","","","","","","","","","","","","","","","","","","","","","","",""
"","reward_outcome","","html-keyboard-response","307","874401","0.0-291.0","0","0","atBkS","Scenes","","589","","","40","","101","","39","","","","","","","","","","","","","","","","-1","589","","","","","","","","","","","","","","","","","","","","","","",""
"","fixation","","html-keyboard-response","308","875418","0.0-294.0","0","0","atBkS","Scenes","","null","","","null","","","","","","","","","","","","","","","","","","","","","","","","","","","","","","","","","","","","","","","","","","","",""
"","see_reward","","html-keyboard-response","309","875803","0.0-295.0","0","0","atBkS","Scenes","","383","","","32","","125","","40","","","","-1","","","","","2","","","","","0","383","","","","","","","","","","","","","","","","","","","","","","","","",""
"","reward_outcome","","html-keyboard-response","310","877811","0.0-296.0","0","0","atBkS","Scenes","","726","","","40","","125","","40","","","","","","","","","","","","","","","","-1","726","","","","","","","","","","","","","","","","","","","","","","",""
"","fixation","","html-keyboard-response","311","878830","0.0-299.0","0","0","atBkS","Scenes","","null","","","null","","","","","","","","","","","","","","","","","","","","","","","","","","","","","","","","","","","","","","","","","","","",""
"","see_reward","","html-keyboard-response","312","879499","0.0-300.0","0","0","atBkS","Scenes","","665","","","32","","126","","41","","","","1","","","","","2","","","","","154","665","","","","","","","","","","","","","","","","","","","","","","","","",""
"","reward_outcome","","html-keyboard-response","313","881508","0.0-301.0","0","0","atBkS","Scenes","","720","","","38","","126","","41","","","","","","","","","","","","","","","","1","720","","","","","","","","","","","","","","","","","","","","","","",""
"","fixation","","html-keyboard-response","314","882526","0.0-304.0","0","0","atBkS","Scenes","","null","","","null","","","","","","","","","","","","","","","","","","","","","","","","","","","","","","","","","","","","","","","","","","","",""
"","see_reward","","html-keyboard-response","315","883116","0.0-305.0","0","0","atBkS","Scenes","","586","","","32","","140","","42","","","","1","","","","","2","","","","","150","586","","","","","","","","","","","","","","","","","","","","","","","","",""
"","reward_outcome","","html-keyboard-response","316","885131","0.0-306.0","0","0","atBkS","Scenes","","796","","","38","","140","","42","","","","","","","","","","","","","","","","1","796","","","","","","","","","","","","","","","","","","","","","","",""
"","fixation","","html-keyboard-response","317","886151","0.0-309.0","0","0","atBkS","Scenes","","null","","","null","","","","","","","","","","","","","","","","","","","","","","","","","","","","","","","","","","","","","","","","","","","",""
"","see_reward","","html-keyboard-response","318","886852","0.0-310.0","0","0","atBkS","Scenes","","697","","","32","","139","","43","","","","-1","","","","","2","","","","","0","697","","","","","","","","","","","","","","","","","","","","","","","","",""
"","reward_outcome","","html-keyboard-response","319","888859","0.0-311.0","0","0","atBkS","Scenes","","884","","","40","","139","","43","","","","","","","","","","","","","","","","-1","884","","","","","","","","","","","","","","","","","","","","","","",""
"","fixation","","html-keyboard-response","320","889877","0.0-314.0","0","0","atBkS","Scenes","","null","","","null","","","","","","","","","","","","","","","","","","","","","","","","","","","","","","","","","","","","","","","","","","","",""
"","see_reward","","html-keyboard-response","321","890699","0.0-315.0","0","0","atBkS","Scenes","","820","","","32","","125","","44","","","","-1","","","","","2","","","","","0","820","","","","","","","","","","","","","","","","","","","","","","","","",""
"","reward_outcome","","html-keyboard-response","322","892724","0.0-316.0","0","0","atBkS","Scenes","","751","","","40","","125","","44","","","","","","","","","","","","","","","","-1","751","","","","","","","","","","","","","","","","","","","","","","",""
"","fixation","","html-keyboard-response","323","893729","0.0-319.0","0","0","atBkS","Scenes","","null","","","null","","","","","","","","","","","","","","","","","","","","","","","","","","","","","","","","","","","","","","","","","","","",""
"","see_reward","","html-keyboard-response","324","894547","0.0-320.0","0","0","atBkS","Scenes","","814","","","32","","141","","45","","","","1","","","","","2","","","","","143","814","","","","","","","","","","","","","","","","","","","","","","","","",""
"","reward_outcome","","html-keyboard-response","325","896570","0.0-321.0","0","0","atBkS","Scenes","","841","","","38","","141","","45","","","","","","","","","","","","","","","","1","841","","","","","","","","","","","","","","","","","","","","","","",""
"","fixation","","html-keyboard-response","326","897593","0.0-324.0","0","0","atBkS","Scenes","","null","","","null","","","","","","","","","","","","","","","","","","","","","","","","","","","","","","","","","","","","","","","","","","","",""
"","see_reward","","html-keyboard-response","327","898260","0.0-325.0","0","0","atBkS","Scenes","","664","","","32","","101","","46","","","","-1","","","","","2","","","","","0","664","","","","","","","","","","","","","","","","","","","","","","","","",""
"","reward_outcome","","html-keyboard-response","328","900269","0.0-326.0","0","0","atBkS","Scenes","","726","","","40","","101","","46","","","","","","","","","","","","","","","","-1","726","","","","","","","","","","","","","","","","","","","","","","",""
"","fixation","","html-keyboard-response","329","901288","0.0-329.0","0","0","atBkS","Scenes","","null","","","null","","","","","","","","","","","","","","","","","","","","","","","","","","","","","","","","","","","","","","","","","","","",""
"","see_reward","","html-keyboard-response","330","902040","0.0-330.0","0","0","atBkS","Scenes","","750","","","32","","126","","47","","","","1","","","","","2","","","","","154","750","","","","","","","","","","","","","","","","","","","","","","","","",""
"","reward_outcome","","html-keyboard-response","331","904053","0.0-331.0","0","0","atBkS","Scenes","","614","","","38","","126","","47","","","","","","","","","","","","","","","","1","614","","","","","","","","","","","","","","","","","","","","","","",""
"","block_over","","html-keyboard-response","332","906002","0.0-333.0-0.0","0","0","atBkS","Scenes","","1945","","","78","","","","","","","","","","","","","","","","","","","","","","","","","","","","","","","","","","","","","","","","","","","",""
"","fixation","","html-keyboard-response","333","907026","0.0-334.0","0","0","atBkS","Scenes","","null","","","null","","","","","","","","","","","","","","","","","","","","","","","","","","","","","","","","","","","","","","","","","","","",""
"","see_reward","","html-keyboard-response","334","907631","0.0-335.0","0","0","atBkS","Scenes","","601","","","32","","115","","48","","","","-1","","","","","3","","","","","0","601","","","","","","","","","","","","","","","","","","","","","","","","",""
"","reward_outcome","","html-keyboard-response","335","909653","0.0-336.0","0","0","atBkS","Scenes","","648","","","40","","115","","48","","","","","","","","","","","","","","","","-1","648","","","","","","","","","","","","","","","","","","","","","","",""
"","fixation","","html-keyboard-response","336","910676","0.0-339.0","0","0","atBkS","Scenes","","null","","","null","","","","","","","","","","","","","","","","","","","","","","","","","","","","","","","","","","","","","","","","","","","",""
"","see_reward","","html-keyboard-response","337","911226","0.0-340.0","0","0","atBkS","Scenes","","544","","","32","","140","","49","","","","1","","","","","3","","","","","150","544","","","","","","","","","","","","","","","","","","","","","","","","",""
"","reward_outcome","","html-keyboard-response","338","913245","0.0-341.0","0","0","atBkS","Scenes","","812","","","38","","140","","49","","","","","","","","","","","","","","","","1","812","","","","","","","","","","","","","","","","","","","","","","",""
"","fixation","","html-keyboard-response","339","914264","0.0-344.0","0","0","atBkS","Scenes","","null","","","null","","","","","","","","","","","","","","","","","","","","","","","","","","","","","","","","","","","","","","","","","","","",""
"","see_reward","","html-keyboard-response","340","914666","0.0-345.0","0","0","atBkS","Scenes","","397","","","32","","140","","50","","","","1","","","","","3","","","","","150","397","","","","","","","","","","","","","","","","","","","","","","","","",""
"","reward_outcome","","html-keyboard-response","341","916673","0.0-346.0","0","0","atBkS","Scenes","","703","","","38","","140","","50","","","","","","","","","","","","","","","","1","703","","","","","","","","","","","","","","","","","","","","","","",""
"","fixation","","html-keyboard-response","342","917697","0.0-349.0","0","0","atBkS","Scenes","","null","","","null","","","","","","","","","","","","","","","","","","","","","","","","","","","","","","","","","","","","","","","","","","","",""
"","see_reward","","html-keyboard-response","343","918377","0.0-350.0","0","0","atBkS","Scenes","","676","","","32","","148","","51","","","","1","","","","","3","","","","","160","676","","","","","","","","","","","","","","","","","","","","","","","","",""
"","reward_outcome","","html-keyboard-response","344","920383","0.0-351.0","0","0","atBkS","Scenes","","1200","","","38","","148","","51","","","","","","","","","","","","","","","","1","1200","","","","","","","","","","","","","","","","","","","","","","",""
"","fixation","","html-keyboard-response","345","921410","0.0-354.0","0","0","atBkS","Scenes","","null","","","null","","","","","","","","","","","","","","","","","","","","","","","","","","","","","","","","","","","","","","","","","","","",""
"","see_reward","","html-keyboard-response","346","921843","0.0-355.0","0","0","atBkS","Scenes","","431","","","32","","139","","52","","","","-1","","","","","3","","","","","0","431","","","","","","","","","","","","","","","","","","","","","","","","",""
"","reward_outcome","","html-keyboard-response","347","923864","0.0-356.0","0","0","atBkS","Scenes","","726","","","40","","139","","52","","","","","","","","","","","","","","","","-1","726","","","","","","","","","","","","","","","","","","","","","","",""
"","fixation","","html-keyboard-response","348","924883","0.0-359.0","0","0","atBkS","Scenes","","null","","","null","","","","","","","","","","","","","","","","","","","","","","","","","","","","","","","","","","","","","","","","","","","",""
"","see_reward","","html-keyboard-response","349","925423","0.0-360.0","0","0","atBkS","Scenes","","536","","","32","","143","","53","","","","-1","","","","","3","","","","","0","536","","","","","","","","","","","","","","","","","","","","","","","","",""
"","reward_outcome","","html-keyboard-response","350","927442","0.0-361.0","0","0","atBkS","Scenes","","700","","","40","","143","","53","","","","","","","","","","","","","","","","-1","700","","","","","","","","","","","","","","","","","","","","","","",""
"","fixation","","html-keyboard-response","351","928464","0.0-364.0","0","0","atBkS","Scenes","","null","","","null","","","","","","","","","","","","","","","","","","","","","","","","","","","","","","","","","","","","","","","","","","","",""
"","see_reward","","html-keyboard-response","352","928842","0.0-365.0","0","0","atBkS","Scenes","","373","","","32","","101","","54","","","","-1","","","","","3","","","","","0","373","","","","","","","","","","","","","","","","","","","","","","","","",""
"","reward_outcome","","html-keyboard-response","353","930855","0.0-366.0","0","0","atBkS","Scenes","","634","","","40","","101","","54","","","","","","","","","","","","","","","","-1","634","","","","","","","","","","","","","","","","","","","","","","",""
"","fixation","","html-keyboard-response","354","931879","0.0-369.0","0","0","atBkS","Scenes","","null","","","null","","","","","","","","","","","","","","","","","","","","","","","","","","","","","","","","","","","","","","","","","","","",""
