"success","ttype","start_time","trial_type","trial_index","time_elapsed","internal_node_id","warning","missed_checkup","PID","stim_type","view_history","rt","responses","repeat_instructions","key_press","response","stimulus_id","painting","index","stimulus_left","stimulus_right","explain_trial","reward_type","rating_left","rating_right","painting_left","painting_right","block","left_chosen","chosen_obj","unchosen_obj","explain_response","reward_amount","see_reward_rt","register_reward_response","register_reward_rt","deliberation_reward_tally","stimulus_left_deliberation_ind","stimulus_right_deliberation_ind","chosen_trial","gain_left","higher_outcome_chosen","old_pair","chosen_object","rt_pairs","left_object_chosen","rt_object","old_response","new_rating","deliberated_stim","initial_rating","outcome_eval_rt","outcome_eval_response","outcome_eval_gain","outcome_eval_acc","preamble","outcome_eval_confidence","outcome_eval_confidence_rt","total_reward_tally"
"true","full_screen","d01192023hr2035","fullscreen","0","26223","0.0-0.0","0","0","nYHH2","Scenes","","","","","","","","","","","","","","","","","","","","","","","","","","","","","","","","","","","","","","","","","","","","","","","","",""
"","rating_instructions","","instructions","1","32927","0.0-1.0-0.0","0","0","nYHH2","Scenes","[{""page_index"":0,""viewing_time"":5222},{""page_index"":1,""viewing_time"":1480}]","6702","","","","","","","","","","","","","","","","","","","","","","","","","","","","","","","","","","","","","","","","","","","","","","",""
"","rating_comprehension_check","","survey-multi-choice","2","37744","0.0-1.0-1.0","0","0","nYHH2","Scenes","","4814","{""Q0"":""True"",""Q1"":""Mouse""}","0","","","","","","","","","","","","","","","","","","","","","","","","","","","","","","","","","","","","","","","","","","","","",""
"","start_phase","","html-keyboard-response","3","39396","0.0-2.0","0","0","nYHH2","Scenes","","1650","","","78","","","","","","","","","","","","","","","","","","","","","","","","","","","","","","","","","","","","","","","","","","","",""
"","rating","","html-slider-response","4","41791","0.0-3.0","0","0","nYHH2","Scenes","","2393","","","","69","141","sebastian-unrau-v4e3JI7DDHI-unsplash.jpg","0","","","","","","","","","","","","","","","","","","","","","","","","","","","","","","","","","","","","","","","",""
"","rating","","html-slider-response","5","43864","0.0-4.0","0","0","nYHH2","Scenes","","2071","","","","85","144","solotravelgoals-7kLufxYoqWk-unsplash.jpg","1","","","","","","","","","","","","","","","","","","","","","","","","","","","","","","","","","","","","","","","",""
"","rating","","html-slider-response","6","46134","0.0-5.0","0","0","nYHH2","Scenes","","2268","","","","66","142","sergey-pesterev-y-b_FOmJXdg-unsplash.jpg","2","","","","","","","","","","","","","","","","","","","","","","","","","","","","","","","","","","","","","","","",""
"","rating","","html-slider-response","7","48095","0.0-6.0","0","0","nYHH2","Scenes","","1960","","","","73","122","jeff-king-bJHWJeiHfHc-unsplash.jpg","3","","","","","","","","","","","","","","","","","","","","","","","","","","","","","","","","","","","","","","","",""
"","rating","","html-slider-response","8","50835","0.0-7.0","0","0","nYHH2","Scenes","","2738","","","","82","143","sigurdur-fjalar-jonsson-1KxBabIntpE-unsplash.jpg","4","","","","","","","","","","","","","","","","","","","","","","","","","","","","","","","","","","","","","","","",""
"","rating","","html-slider-response","9","53462","0.0-8.0","0","0","nYHH2","Scenes","","2626","","","","81","112","cosmic-timetraveler-pYyOZ8q7AII-unsplash.jpg","5","","","","","","","","","","","","","","","","","","","","","","","","","","","","","","","","","","","","","","","",""
"","rating","","html-slider-response","10","63348","0.0-9.0","0","0","nYHH2","Scenes","","9884","","","","78","111","claudio-testa-U3F2o6vz3bs-unsplash.jpg","6","","","","","","","","","","","","","","","","","","","","","","","","","","","","","","","","","","","","","","","",""
"","rating","","html-slider-response","11","66119","0.0-10.0","0","0","nYHH2","Scenes","","2770","","","","58","100","aleksandra-boguslawska-MS7KD9Ti7FQ-unsplash.jpg","7","","","","","","","","","","","","","","","","","","","","","","","","","","","","","","","","","","","","","","","",""
"","rating","","html-slider-response","12","69418","0.0-11.0","0","0","nYHH2","Scenes","","3297","","","","40","135","mohammad-alizade-4wzRuAb-KWs-unsplash.jpg","8","","","","","","","","","","","","","","","","","","","","","","","","","","","","","","","","","","","","","","","",""
"","rating","","html-slider-response","13","72292","0.0-12.0","0","0","nYHH2","Scenes","","2872","","","","91","110","bruno-van-der-kraan-qez8mNJ3ilU-unsplash.jpg","9","","","","","","","","","","","","","","","","","","","","","","","","","","","","","","","","","","","","","","","",""
"","rating","","html-slider-response","14","75108","0.0-13.0","0","0","nYHH2","Scenes","","2814","","","","88","138","petr-vysohlid-9fqwGqGLUxc-unsplash.jpg","10","","","","","","","","","","","","","","","","","","","","","","","","","","","","","","","","","","","","","","","",""
"","rating","","html-slider-response","15","77574","0.0-14.0","0","0","nYHH2","Scenes","","2465","","","","66","136","nicolas-jehly-LzVB84KkZOE-unsplash.jpg","11","","","","","","","","","","","","","","","","","","","","","","","","","","","","","","","","","","","","","","","",""
"","rating","","html-slider-response","16","80310","0.0-15.0","0","0","nYHH2","Scenes","","2734","","","","89","134","milada-vigerova-pQMM63GE7fo-unsplash.jpg","12","","","","","","","","","","","","","","","","","","","","","","","","","","","","","","","","","","","","","","","",""
"","rating","","html-slider-response","17","84934","0.0-16.0","0","0","nYHH2","Scenes","","4623","","","","60","104","artem-sapegin-XGDBdSQ70O0-unsplash.jpg","13","","","","","","","","","","","","","","","","","","","","","","","","","","","","","","","","","","","","","","","",""
"","rating","","html-slider-response","18","88219","0.0-17.0","0","0","nYHH2","Scenes","","3283","","","","76","126","jordan-mcqueen-PJCZOWuOxbU-unsplash.jpg","14","","","","","","","","","","","","","","","","","","","","","","","","","","","","","","","","","","","","","","","",""
"","rating","","html-slider-response","19","92904","0.0-18.0","0","0","nYHH2","Scenes","","4683","","","","78","147","tobias-keller-73F4pKoUkM0-unsplash.jpg","15","","","","","","","","","","","","","","","","","","","","","","","","","","","","","","","","","","","","","","","",""
"","rating","","html-slider-response","20","96754","0.0-19.0","0","0","nYHH2","Scenes","","3848","","","","77","103","anton-darius-FBJugtbHsWU-unsplash.jpg","16","","","","","","","","","","","","","","","","","","","","","","","","","","","","","","","","","","","","","","","",""
"","rating","","html-slider-response","21","100440","0.0-20.0","0","0","nYHH2","Scenes","","3684","","","","86","109","brigitta-schneiter-hXXRLtTxXCU-unsplash.jpg","17","","","","","","","","","","","","","","","","","","","","","","","","","","","","","","","","","","","","","","","",""
"","rating","","html-slider-response","22","103199","0.0-21.0","0","0","nYHH2","Scenes","","2757","","","","76","106","ashim-d-silva-WeYamle9fDM-unsplash.jpg","18","","","","","","","","","","","","","","","","","","","","","","","","","","","","","","","","","","","","","","","",""
"","rating","","html-slider-response","23","107796","0.0-22.0","0","0","nYHH2","Scenes","","4595","","","","86","118","henry-be-NLF6hTe4PAg-unsplash.jpg","19","","","","","","","","","","","","","","","","","","","","","","","","","","","","","","","","","","","","","","","",""
"","rating","","html-slider-response","24","110455","0.0-23.0","0","0","nYHH2","Scenes","","2658","","","","80","145","stephen-leonardi-gyIRjKPXupE-unsplash.jpg","20","","","","","","","","","","","","","","","","","","","","","","","","","","","","","","","","","","","","","","","",""
"","rating","","html-slider-response","25","112810","0.0-24.0","0","0","nYHH2","Scenes","","2353","","","","77","149","yuriy-bogdanov-W51VK3Obcj0-unsplash.jpg","21","","","","","","","","","","","","","","","","","","","","","","","","","","","","","","","","","","","","","","","",""
"","rating","","html-slider-response","26","114851","0.0-25.0","0","0","nYHH2","Scenes","","2039","","","","87","146","thomas-morse-cuKKa0vWZSY-unsplash.jpg","22","","","","","","","","","","","","","","","","","","","","","","","","","","","","","","","","","","","","","","","",""
"","rating","","html-slider-response","27","121692","0.0-26.0","0","0","nYHH2","Scenes","","6840","","","","90","108","benjamin-voros-phIFdC6lA4E-unsplash.jpg","23","","","","","","","","","","","","","","","","","","","","","","","","","","","","","","","","","","","","","","","",""
"","rating","","html-slider-response","28","128924","0.0-27.0","0","0","nYHH2","Scenes","","7230","","","","88","130","lina-loos-04-C1NZk1hE-unsplash.jpg","24","","","","","","","","","","","","","","","","","","","","","","","","","","","","","","","","","","","","","","","",""
"","rating","","html-slider-response","29","130966","0.0-28.0","0","0","nYHH2","Scenes","","2040","","","","71","131","luca-bravo-hFzIoD0F_i8-unsplash.jpg","25","","","","","","","","","","","","","","","","","","","","","","","","","","","","","","","","","","","","","","","",""
"","rating","","html-slider-response","30","132581","0.0-29.0","0","0","nYHH2","Scenes","","1615","","","","77","140","samuele-errico-piccarini-JEBqFu2AOOA-unsplash.jpg","26","","","","","","","","","","","","","","","","","","","","","","","","","","","","","","","","","","","","","","","",""
"","rating","","html-slider-response","31","134479","0.0-30.0","0","0","nYHH2","Scenes","","1896","","","","73","115","darrell-cassell-hoCXpPUMCoE-unsplash.jpg","27","","","","","","","","","","","","","","","","","","","","","","","","","","","","","","","","","","","","","","","",""
"","rating","","html-slider-response","32","136721","0.0-31.0","0","0","nYHH2","Scenes","","2241","","","","84","137","olga-stalska-QaWRyEdlffY-unsplash.jpg","28","","","","","","","","","","","","","","","","","","","","","","","","","","","","","","","","","","","","","","","",""
"","rating","","html-slider-response","33","139251","0.0-32.0","0","0","nYHH2","Scenes","","2528","","","","88","148","tom-gainor-ZqLeQDjY6fY-unsplash.jpg","29","","","","","","","","","","","","","","","","","","","","","","","","","","","","","","","","","","","","","","","",""
"","rating","","html-slider-response","34","141350","0.0-33.0","0","0","nYHH2","Scenes","","2097","","","","89","125","john-lee-oMneOBYhJxY-unsplash.jpg","30","","","","","","","","","","","","","","","","","","","","","","","","","","","","","","","","","","","","","","","",""
"","rating","","html-slider-response","35","145135","0.0-34.0","0","0","nYHH2","Scenes","","3782","","","","97","139","samsommer-vddccTqwal8-unsplash.jpg","31","","","","","","","","","","","","","","","","","","","","","","","","","","","","","","","","","","","","","","","",""
"","rating","","html-slider-response","36","147068","0.0-35.0","0","0","nYHH2","Scenes","","1932","","","","65","102","anisur-rahman-K2b7UDed6uQ-unsplash.jpg","32","","","","","","","","","","","","","","","","","","","","","","","","","","","","","","","","","","","","","","","",""
"","rating","","html-slider-response","37","150919","0.0-36.0","0","0","nYHH2","Scenes","","3849","","","","71","123","joel-jasmin-forestbird-efuwb5eBDrI-unsplash.jpg","33","","","","","","","","","","","","","","","","","","","","","","","","","","","","","","","","","","","","","","","",""
"","rating","","html-slider-response","38","157894","0.0-37.0","0","0","nYHH2","Scenes","","6973","","","","73","121","jean-pierre-brungs-qxCqkbF7tUc-unsplash.jpg","34","","","","","","","","","","","","","","","","","","","","","","","","","","","","","","","","","","","","","","","",""
"","rating","","html-slider-response","39","160276","0.0-38.0","0","0","nYHH2","Scenes","","2381","","","","74","129","kurt-cotoaga-cqbLg3lZEpk-unsplash.jpg","35","","","","","","","","","","","","","","","","","","","","","","","","","","","","","","","","","","","","","","","",""
"","rating","","html-slider-response","40","163044","0.0-39.0","0","0","nYHH2","Scenes","","2766","","","","83","127","kace-rodriguez-p3OzJuT_Dks-unsplash.jpg","36","","","","","","","","","","","","","","","","","","","","","","","","","","","","","","","","","","","","","","","",""
"","rating","","html-slider-response","41","168282","0.0-40.0","0","0","nYHH2","Scenes","","5237","","","","80","128","karsten-wurth-jS0zC2PJ17A-unsplash.jpg","37","","","","","","","","","","","","","","","","","","","","","","","","","","","","","","","","","","","","","","","",""
"","rating","","html-slider-response","42","170503","0.0-41.0","0","0","nYHH2","Scenes","","2219","","","","85","120","jarrett-kow-1ZOyYPOBn7I-unsplash.jpg","38","","","","","","","","","","","","","","","","","","","","","","","","","","","","","","","","","","","","","","","",""
"","rating","","html-slider-response","43","172830","0.0-42.0","0","0","nYHH2","Scenes","","2325","","","","74","124","johannes-plenio-sPt5RIjKfpk-unsplash.jpg","39","","","","","","","","","","","","","","","","","","","","","","","","","","","","","","","","","","","","","","","",""
"","rating","","html-slider-response","44","177402","0.0-43.0","0","0","nYHH2","Scenes","","4571","","","","87","117","frank-mckenna-OD9EOzfSOh0-unsplash.jpg","40","","","","","","","","","","","","","","","","","","","","","","","","","","","","","","","","","","","","","","","",""
"","rating","","html-slider-response","45","180098","0.0-44.0","0","0","nYHH2","Scenes","","2694","","","","78","113","damian-denis-D8R_txR_0PE-unsplash.jpg","41","","","","","","","","","","","","","","","","","","","","","","","","","","","","","","","","","","","","","","","",""
"","rating","","html-slider-response","46","187325","0.0-45.0","0","0","nYHH2","Scenes","","7225","","","","89","101","aniket-deole-T-tOgjWZ0fQ-unsplash.jpg","42","","","","","","","","","","","","","","","","","","","","","","","","","","","","","","","","","","","","","","","",""
"","rating","","html-slider-response","47","191754","0.0-46.0","0","0","nYHH2","Scenes","","4428","","","","68","114","daniel-sessler-z_9VmsxR8hs-unsplash.jpg","43","","","","","","","","","","","","","","","","","","","","","","","","","","","","","","","","","","","","","","","",""
"","rating","","html-slider-response","48","194216","0.0-47.0","0","0","nYHH2","Scenes","","2460","","","","74","132","meng-ji-8BH_M-53CyA-unsplash.jpg","44","","","","","","","","","","","","","","","","","","","","","","","","","","","","","","","","","","","","","","","",""
"","rating","","html-slider-response","49","197845","0.0-48.0","0","0","nYHH2","Scenes","","3628","","","","71","107","benjamin-davies-Zm2n2O7Fph4-unsplash.jpg","45","","","","","","","","","","","","","","","","","","","","","","","","","","","","","","","","","","","","","","","",""
"","rating","","html-slider-response","50","221593","0.0-49.0","0","0","nYHH2","Scenes","","23746","","","","72","116","david-marcu-W5MhJ6cy1So-unsplash.jpg","46","","","","","","","","","","","","","","","","","","","","","","","","","","","","","","","","","","","","","","","",""
"","rating","","html-slider-response","51","230585","0.0-50.0","0","0","nYHH2","Scenes","","8990","","","","31","105","ashim-d-silva-S2Q5mdOrrVc-unsplash.jpg","47","","","","","","","","","","","","","","","","","","","","","","","","","","","","","","","","","","","","","","","",""
"","rating","","html-slider-response","52","232547","0.0-51.0","0","0","nYHH2","Scenes","","1960","","","","79","119","james-wheeler-AFC0XvICMgs-unsplash.jpg","48","","","","","","","","","","","","","","","","","","","","","","","","","","","","","","","","","","","","","","","",""
"","rating","","html-slider-response","53","235519","0.0-52.0","0","0","nYHH2","Scenes","","2970","","","","42","133","mickey-o-neil-xL66l--msXU-unsplash.jpg","49","","","","","","","","","","","","","","","","","","","","","","","","","","","","","","","","","","","","","","","",""
"","deliberation_instructions","","instructions","54","277453","0.0-53.0-0.0","0","0","nYHH2","Scenes","[{""page_index"":0,""viewing_time"":9165},{""page_index"":1,""viewing_time"":6249},{""page_index"":2,""viewing_time"":13457},{""page_index"":3,""viewing_time"":11470},{""page_index"":4,""viewing_time"":1589}]","41931","","","","","","","","","","","","","","","","","","","","","","","","","","","","","","","","","","","","","","","","","","","","","","",""
"","deliberation_comprehension_check","","survey-multi-choice","55","290831","0.0-53.0-1.0","0","0","nYHH2","Scenes","","13371","{""Q0"":""True"",""Q1"":""True"",""Q2"":""Consider carefully and take your time (up to 10 seconds)"",""Q3"":""True"",""Q4"":""D""}","0","","","","","","","","","","","","","","","","","","","","","","","","","","","","","","","","","","","","","","","","","","","","",""
"","start_phase","","html-keyboard-response","56","292427","0.0-54.0","0","0","nYHH2","Scenes","","1593","","","78","","","","","","","","","","","","","","","","","","","","","","","","","","","","","","","","","","","","","","","","","","","",""
"","first_deliberation_block","","html-keyboard-response","57","294211","0.0-55.0","0","0","nYHH2","Scenes","","1782","","","78","","","","","","","","","","","","","","","","","","","","","","","","","","","","","","","","","","","","","","","","","","","",""
"","fixation","","html-keyboard-response","58","295226","0.0-56.0-0.0","0","0","nYHH2","Scenes","","null","","","null","","","","","","","","","","","","","","","","","","","","","","","","","","","","","","","","","","","","","","","","","","","",""
"","deliberation","","html-keyboard-response","59","297196","0.0-56.0-1.0","0","0","nYHH2","Scenes","","1968","","","75","","","","0","122","103","1","1","73","77","jeff-king-bJHWJeiHfHc-unsplash.jpg","anton-darius-FBJugtbHsWU-unsplash.jpg","1","0","103","122","","","","","","","","","","","","","","","","","","","","","","","","","","","",""
"","choice_confirmation","","html-keyboard-response","60","297713","0.0-56.0-2.0-0.0","0","0","nYHH2","Scenes","","null","","","null","","","","0","122","103","","","","","","","","","","","","","","","","","","","","","","","","","","","","","","","","","","","","","",""
"","explain_trial","","survey-text","61","319384","0.0-56.0-5.0-0.0","0","0","nYHH2","Scenes","","21669","{""Q0"":""I like this photo over the other one.""}","","","","","","0","122","103","","","","","","","","","","","{""Q0"":""I like this photo over the other one.""}","","","","","","","","","","","","","","","","","","","","","","","","","","",""
"","fixation","","html-keyboard-response","62","320395","0.0-57.0-0.0","0","0","nYHH2","Scenes","","null","","","null","","","","","","","","","","","","","","","","","","","","","","","","","","","","","","","","","","","","","","","","","","","",""
"","deliberation","","html-keyboard-response","63","322623","0.0-57.0-1.0","0","0","nYHH2","Scenes","","2226","","","75","","","","1","111","121","1","1","78","73","claudio-testa-U3F2o6vz3bs-unsplash.jpg","jean-pierre-brungs-qxCqkbF7tUc-unsplash.jpg","1","0","121","111","","","","","","","","","","","","","","","","","","","","","","","","","","","",""
"","choice_confirmation","","html-keyboard-response","64","323136","0.0-57.0-2.0-0.0","0","0","nYHH2","Scenes","","null","","","null","","","","1","111","121","","","","","","","","","","","","","","","","","","","","","","","","","","","","","","","","","","","","","",""
"","explain_trial","","survey-text","65","349946","0.0-57.0-5.0-0.0","0","0","nYHH2","Scenes","","26810","{""Q0"":""This photo is a more impressive photo than the other.""}","","","","","","1","111","121","","","","","","","","","","","{""Q0"":""This photo is a more impressive photo than the other.""}","","","","","","","","","","","","","","","","","","","","","","","","","","",""
"","fixation","","html-keyboard-response","66","350951","0.0-58.0-0.0","0","0","nYHH2","Scenes","","null","","","null","","","","","","","","","","","","","","","","","","","","","","","","","","","","","","","","","","","","","","","","","","","",""
"","deliberation","","html-keyboard-response","67","353459","0.0-58.0-1.0","0","0","nYHH2","Scenes","","2507","","","75","","","","2","120","145","1","-1","85","80","jarrett-kow-1ZOyYPOBn7I-unsplash.jpg","stephen-leonardi-gyIRjKPXupE-unsplash.jpg","1","0","145","120","","","","","","","","","","","","","","","","","","","","","","","","","","","",""
"","choice_confirmation","","html-keyboard-response","68","353975","0.0-58.0-2.0-0.0","0","0","nYHH2","Scenes","","null","","","null","","","","2","120","145","","","","","","","","","","","","","","","","","","","","","","","","","","","","","","","","","","","","","",""
"","explain_trial","","survey-text","69","371084","0.0-58.0-5.0-0.0","0","0","nYHH2","Scenes","","17107","{""Q0"":""This photo looks better overall.""}","","","","","","2","120","145","","","","","","","","","","","{""Q0"":""This photo looks better overall.""}","","","","","","","","","","","","","","","","","","","","","","","","","","",""
"","fixation","","html-keyboard-response","70","372095","0.0-59.0-0.0","0","0","nYHH2","Scenes","","null","","","null","","","","","","","","","","","","","","","","","","","","","","","","","","","","","","","","","","","","","","","","","","","",""
"","deliberation","","html-keyboard-response","71","374438","0.0-59.0-1.0","0","0","nYHH2","Scenes","","2341","","","75","","","","3","149","143","1","-1","77","82","yuriy-bogdanov-W51VK3Obcj0-unsplash.jpg","sigurdur-fjalar-jonsson-1KxBabIntpE-unsplash.jpg","1","0","143","149","","","","","","","","","","","","","","","","","","","","","","","","","","","",""
"","choice_confirmation","","html-keyboard-response","72","374948","0.0-59.0-2.0-0.0","0","0","nYHH2","Scenes","","null","","","null","","","","3","149","143","","","","","","","","","","","","","","","","","","","","","","","","","","","","","","","","","","","","","",""
"","explain_trial","","survey-text","73","391301","0.0-59.0-5.0-0.0","0","0","nYHH2","Scenes","","16351","{""Q0"":""This photo is more scenic and more attractive.""}","","","","","","3","149","143","","","","","","","","","","","{""Q0"":""This photo is more scenic and more attractive.""}","","","","","","","","","","","","","","","","","","","","","","","","","","",""
"","fixation","","html-keyboard-response","74","392320","0.0-60.0-0.0","0","0","nYHH2","Scenes","","null","","","null","","","","","","","","","","","","","","","","","","","","","","","","","","","","","","","","","","","","","","","","","","","",""
"","deliberation","","html-keyboard-response","75","395905","0.0-60.0-1.0","0","0","nYHH2","Scenes","","3583","","","75","","","","4","126","129","0","-1","76","74","jordan-mcqueen-PJCZOWuOxbU-unsplash.jpg","kurt-cotoaga-cqbLg3lZEpk-unsplash.jpg","1","0","129","126","","","","","","","","","","","","","","","","","","","","","","","","","","","",""
"","choice_confirmation","","html-keyboard-response","76","396417","0.0-60.0-2.0-0.0","0","0","nYHH2","Scenes","","null","","","null","","","","4","126","129","","","","","","","","","","","","","","","","","","","","","","","","","","","","","","","","","","","","","",""
"","fixation","","html-keyboard-response","77","397422","0.0-61.0-0.0","0","0","nYHH2","Scenes","","null","","","null","","","","","","","","","","","","","","","","","","","","","","","","","","","","","","","","","","","","","","","","","","","",""
"","deliberation","","html-keyboard-response","78","399233","0.0-61.0-1.0","0","0","nYHH2","Scenes","","1809","","","75","","","","5","119","116","1","1","79","72","james-wheeler-AFC0XvICMgs-unsplash.jpg","david-marcu-W5MhJ6cy1So-unsplash.jpg","1","0","116","119","","","","","","","","","","","","","","","","","","","","","","","","","","","",""
"","choice_confirmation","","html-keyboard-response","79","399744","0.0-61.0-2.0-0.0","0","0","nYHH2","Scenes","","null","","","null","","","","5","119","116","","","","","","","","","","","","","","","","","","","","","","","","","","","","","","","","","","","","","",""
"","explain_trial","","survey-text","80","436231","0.0-61.0-5.0-0.0","0","0","nYHH2","Scenes","","36485","{""Q0"":""While both photos are impressive, I slightly like this one over the other.""}","","","","","","5","119","116","","","","","","","","","","","{""Q0"":""While both photos are impressive, I slightly like this one over the other.""}","","","","","","","","","","","","","","","","","","","","","","","","","","",""
"","fixation","","html-keyboard-response","81","437244","0.0-62.0-0.0","0","0","nYHH2","Scenes","","null","","","null","","","","","","","","","","","","","","","","","","","","","","","","","","","","","","","","","","","","","","","","","","","",""
"","deliberation","","html-keyboard-response","82","441038","0.0-62.0-1.0","0","0","nYHH2","Scenes","","3792","","","75","","","","6","127","137","1","-1","83","84","kace-rodriguez-p3OzJuT_Dks-unsplash.jpg","olga-stalska-QaWRyEdlffY-unsplash.jpg","1","0","137","127","","","","","","","","","","","","","","","","","","","","","","","","","","","",""
"","choice_confirmation","","html-keyboard-response","83","441548","0.0-62.0-2.0-0.0","0","0","nYHH2","Scenes","","null","","","null","","","","6","127","137","","","","","","","","","","","","","","","","","","","","","","","","","","","","","","","","","","","","","",""
"","explain_trial","","survey-text","84","463146","0.0-62.0-5.0-0.0","0","0","nYHH2","Scenes","","21597","{""Q0"":""This photo is brighter in tone and slightly more appealing.""}","","","","","","6","127","137","","","","","","","","","","","{""Q0"":""This photo is brighter in tone and slightly more appealing.""}","","","","","","","","","","","","","","","","","","","","","","","","","","",""
"","fixation","","html-keyboard-response","85","464152","0.0-63.0-0.0","0","0","nYHH2","Scenes","","null","","","null","","","","","","","","","","","","","","","","","","","","","","","","","","","","","","","","","","","","","","","","","","","",""
"","deliberation","","html-keyboard-response","86","465986","0.0-63.0-1.0","0","0","nYHH2","Scenes","","1833","","","68","","","","7","144","115","0","-1","85","73","solotravelgoals-7kLufxYoqWk-unsplash.jpg","darrell-cassell-hoCXpPUMCoE-unsplash.jpg","1","1","144","115","","","","","","","","","","","","","","","","","","","","","","","","","","","",""
"","choice_confirmation","","html-keyboard-response","87","466500","0.0-63.0-2.0-0.0","0","0","nYHH2","Scenes","","null","","","null","","","","7","144","115","","","","","","","","","","","","","","","","","","","","","","","","","","","","","","","","","","","","","",""
"","fixation","","html-keyboard-response","88","467507","0.0-64.0-0.0","0","0","nYHH2","Scenes","","null","","","null","","","","","","","","","","","","","","","","","","","","","","","","","","","","","","","","","","","","","","","","","","","",""
"","deliberation","","html-keyboard-response","89","469658","0.0-64.0-1.0","0","0","nYHH2","Scenes","","2150","","","68","","","","8","147","140","0","1","78","77","tobias-keller-73F4pKoUkM0-unsplash.jpg","samuele-errico-piccarini-JEBqFu2AOOA-unsplash.jpg","1","1","147","140","","","","","","","","","","","","","","","","","","","","","","","","","","","",""
"","choice_confirmation","","html-keyboard-response","90","470179","0.0-64.0-2.0-0.0","0","0","nYHH2","Scenes","","null","","","null","","","","8","147","140","","","","","","","","","","","","","","","","","","","","","","","","","","","","","","","","","","","","","",""
"","fixation","","html-keyboard-response","91","471190","0.0-65.0-0.0","0","0","nYHH2","Scenes","","null","","","null","","","","","","","","","","","","","","","","","","","","","","","","","","","","","","","","","","","","","","","","","","","",""
"","deliberation","","html-keyboard-response","92","472347","0.0-65.0-1.0","0","0","nYHH2","Scenes","","1155","","","75","","","","9","132","112","0","1","74","81","meng-ji-8BH_M-53CyA-unsplash.jpg","cosmic-timetraveler-pYyOZ8q7AII-unsplash.jpg","1","0","112","132","","","","","","","","","","","","","","","","","","","","","","","","","","","",""
"","choice_confirmation","","html-keyboard-response","93","472857","0.0-65.0-2.0-0.0","0","0","nYHH2","Scenes","","null","","","null","","","","9","132","112","","","","","","","","","","","","","","","","","","","","","","","","","","","","","","","","","","","","","",""
"","fixation","","html-keyboard-response","94","473872","0.0-66.0-0.0","0","0","nYHH2","Scenes","","null","","","null","","","","","","","","","","","","","","","","","","","","","","","","","","","","","","","","","","","","","","","","","","","",""
"","deliberation","","html-keyboard-response","95","475154","0.0-66.0-1.0","0","0","nYHH2","Scenes","","1281","","","68","","","","10","124","128","0","-1","74","80","johannes-plenio-sPt5RIjKfpk-unsplash.jpg","karsten-wurth-jS0zC2PJ17A-unsplash.jpg","1","1","124","128","","","","","","","","","","","","","","","","","","","","","","","","","","","",""
"","choice_confirmation","","html-keyboard-response","96","475671","0.0-66.0-2.0-0.0","0","0","nYHH2","Scenes","","null","","","null","","","","10","124","128","","","","","","","","","","","","","","","","","","","","","","","","","","","","","","","","","","","","","",""
"","fixation","","html-keyboard-response","97","476678","0.0-67.0-0.0","0","0","nYHH2","Scenes","","null","","","null","","","","","","","","","","","","","","","","","","","","","","","","","","","","","","","","","","","","","","","","","","","",""
"","deliberation","","html-keyboard-response","98","478947","0.0-67.0-1.0","0","0","nYHH2","Scenes","","2267","","","75","","","","11","106","113","0","1","76","78","ashim-d-silva-WeYamle9fDM-unsplash.jpg","damian-denis-D8R_txR_0PE-unsplash.jpg","1","0","113","106","","","","","","","","","","","","","","","","","","","","","","","","","","","",""
"","choice_confirmation","","html-keyboard-response","99","479466","0.0-67.0-2.0-0.0","0","0","nYHH2","Scenes","","null","","","null","","","","11","106","113","","","","","","","","","","","","","","","","","","","","","","","","","","","","","","","","","","","","","",""
"","practice_deliberation_again","","html-keyboard-response","100","482539","0.0-67.0-6.0-0.0","0","0","nYHH2","Scenes","","3072","","","78","","","","","","","","","","","","","","","","","","","","","","","","","","","","","","","","","","","","","","","","","","","",""
"","fixation","","html-keyboard-response","101","483546","0.0-68.0-0.0","0","0","nYHH2","Scenes","","null","","","null","","","","","","","","","","","","","","","","","","","","","","","","","","","","","","","","","","","","","","","","","","","",""
"","deliberation","","html-keyboard-response","102","484588","0.0-68.0-1.0","0","0","nYHH2","Scenes","","1040","","","75","","","","12","149","143","0","-1","77","82","yuriy-bogdanov-W51VK3Obcj0-unsplash.jpg","sigurdur-fjalar-jonsson-1KxBabIntpE-unsplash.jpg","2","0","143","149","","","","","","","","","","","","","","","","","","","","","","","","","","","",""
"","choice_confirmation","","html-keyboard-response","103","485100","0.0-68.0-2.0-0.0","0","0","nYHH2","Scenes","","null","","","null","","","","12","149","143","","","","","","","","","","","","","","","","","","","","","","","","","","","","","","","","","","","","","",""
"","fixation","","html-keyboard-response","104","486102","0.0-69.0-0.0","0","0","nYHH2","Scenes","","null","","","null","","","","","","","","","","","","","","","","","","","","","","","","","","","","","","","","","","","","","","","","","","","",""
"","deliberation","","html-keyboard-response","105","486948","0.0-69.0-1.0","0","0","nYHH2","Scenes","","844","","","68","","","","13","144","115","1","-1","85","73","solotravelgoals-7kLufxYoqWk-unsplash.jpg","darrell-cassell-hoCXpPUMCoE-unsplash.jpg","2","1","144","115","","","","","","","","","","","","","","","","","","","","","","","","","","","",""
"","choice_confirmation","","html-keyboard-response","106","487460","0.0-69.0-2.0-0.0","0","0","nYHH2","Scenes","","null","","","null","","","","13","144","115","","","","","","","","","","","","","","","","","","","","","","","","","","","","","","","","","","","","","",""
"","explain_trial","","survey-text","107","510582","0.0-69.0-5.0-0.0","0","0","nYHH2","Scenes","","23120","{""Q0"":""This photo is more remarkable and overall slightly better in quality.""}","","","","","","13","144","115","","","","","","","","","","","{""Q0"":""This photo is more remarkable and overall slightly better in quality.""}","","","","","","","","","","","","","","","","","","","","","","","","","","",""
"","fixation","","html-keyboard-response","108","511599","0.0-70.0-0.0","0","0","nYHH2","Scenes","","null","","","null","","","","","","","","","","","","","","","","","","","","","","","","","","","","","","","","","","","","","","","","","","","",""
"","deliberation","","html-keyboard-response","109","513063","0.0-70.0-1.0","0","0","nYHH2","Scenes","","1462","","","75","","","","14","132","112","1","1","74","81","meng-ji-8BH_M-53CyA-unsplash.jpg","cosmic-timetraveler-pYyOZ8q7AII-unsplash.jpg","2","0","112","132","","","","","","","","","","","","","","","","","","","","","","","","","","","",""
"","choice_confirmation","","html-keyboard-response","110","513577","0.0-70.0-2.0-0.0","0","0","nYHH2","Scenes","","null","","","null","","","","14","132","112","","","","","","","","","","","","","","","","","","","","","","","","","","","","","","","","","","","","","",""
"","explain_trial","","survey-text","111","558716","0.0-70.0-5.0-0.0","0","0","nYHH2","Scenes","","45137","{""Q0"":""The scene here is unique and more alluring.""}","","","","","","14","132","112","","","","","","","","","","","{""Q0"":""The scene here is unique and more alluring.""}","","","","","","","","","","","","","","","","","","","","","","","","","","",""
"","fixation","","html-keyboard-response","112","559733","0.0-71.0-0.0","0","0","nYHH2","Scenes","","null","","","null","","","","","","","","","","","","","","","","","","","","","","","","","","","","","","","","","","","","","","","","","","","",""
"","deliberation","","html-keyboard-response","113","563686","0.0-71.0-1.0","0","0","nYHH2","Scenes","","3953","","","75","","","","15","147","140","1","1","78","77","tobias-keller-73F4pKoUkM0-unsplash.jpg","samuele-errico-piccarini-JEBqFu2AOOA-unsplash.jpg","2","0","140","147","","","","","","","","","","","","","","","","","","","","","","","","","","","",""
"","choice_confirmation","","html-keyboard-response","114","564205","0.0-71.0-2.0-0.0","0","0","nYHH2","Scenes","","null","","","null","","","","15","147","140","","","","","","","","","","","","","","","","","","","","","","","","","","","","","","","","","","","","","",""
"","explain_trial","","survey-text","115","591372","0.0-71.0-5.0-0.0","0","0","nYHH2","Scenes","","27165","{""Q0"":""This photo is a notch above the other in term of visuals.""}","","","","","","15","147","140","","","","","","","","","","","{""Q0"":""This photo is a notch above the other in term of visuals.""}","","","","","","","","","","","","","","","","","","","","","","","","","","",""
"","fixation","","html-keyboard-response","116","592382","0.0-72.0-0.0","0","0","nYHH2","Scenes","","null","","","null","","","","","","","","","","","","","","","","","","","","","","","","","","","","","","","","","","","","","","","","","","","",""
"","deliberation","","html-keyboard-response","117","597387","0.0-72.0-1.0","0","0","nYHH2","Scenes","","5003","","","75","","","","16","127","137","0","-1","83","84","kace-rodriguez-p3OzJuT_Dks-unsplash.jpg","olga-stalska-QaWRyEdlffY-unsplash.jpg","2","0","137","127","","","","","","","","","","","","","","","","","","","","","","","","","","","",""
"","choice_confirmation","","html-keyboard-response","118","597905","0.0-72.0-2.0-0.0","0","0","nYHH2","Scenes","","null","","","null","","","","16","127","137","","","","","","","","","","","","","","","","","","","","","","","","","","","","","","","","","","","","","",""
"","fixation","","html-keyboard-response","119","598912","0.0-73.0-0.0","0","0","nYHH2","Scenes","","null","","","null","","","","","","","","","","","","","","","","","","","","","","","","","","","","","","","","","","","","","","","","","","","",""
"","deliberation","","html-keyboard-response","120","600059","0.0-73.0-1.0","0","0","nYHH2","Scenes","","1145","","","75","","","","17","120","145","0","-1","85","80","jarrett-kow-1ZOyYPOBn7I-unsplash.jpg","stephen-leonardi-gyIRjKPXupE-unsplash.jpg","2","0","145","120","","","","","","","","","","","","","","","","","","","","","","","","","","","",""
"","choice_confirmation","","html-keyboard-response","121","600579","0.0-73.0-2.0-0.0","0","0","nYHH2","Scenes","","null","","","null","","","","17","120","145","","","","","","","","","","","","","","","","","","","","","","","","","","","","","","","","","","","","","",""
"","fixation","","html-keyboard-response","122","601584","0.0-74.0-0.0","0","0","nYHH2","Scenes","","null","","","null","","","","","","","","","","","","","","","","","","","","","","","","","","","","","","","","","","","","","","","","","","","",""
"","deliberation","","html-keyboard-response","123","602915","0.0-74.0-1.0","0","0","nYHH2","Scenes","","1329","","","75","","","","18","119","116","0","1","79","72","james-wheeler-AFC0XvICMgs-unsplash.jpg","david-marcu-W5MhJ6cy1So-unsplash.jpg","2","0","116","119","","","","","","","","","","","","","","","","","","","","","","","","","","","",""
"","choice_confirmation","","html-keyboard-response","124","603432","0.0-74.0-2.0-0.0","0","0","nYHH2","Scenes","","null","","","null","","","","18","119","116","","","","","","","","","","","","","","","","","","","","","","","","","","","","","","","","","","","","","",""
"","fixation","","html-keyboard-response","125","604435","0.0-75.0-0.0","0","0","nYHH2","Scenes","","null","","","null","","","","","","","","","","","","","","","","","","","","","","","","","","","","","","","","","","","","","","","","","","","",""
"","deliberation","","html-keyboard-response","126","605699","0.0-75.0-1.0","0","0","nYHH2","Scenes","","1263","","","75","","","","19","106","113","1","1","76","78","ashim-d-silva-WeYamle9fDM-unsplash.jpg","damian-denis-D8R_txR_0PE-unsplash.jpg","2","0","113","106","","","","","","","","","","","","","","","","","","","","","","","","","","","",""
"","choice_confirmation","","html-keyboard-response","127","606220","0.0-75.0-2.0-0.0","0","0","nYHH2","Scenes","","null","","","null","","","","19","106","113","","","","","","","","","","","","","","","","","","","","","","","","","","","","","","","","","","","","","",""
"","explain_trial","","survey-text","128","635526","0.0-75.0-5.0-0.0","0","0","nYHH2","Scenes","","29304","{""Q0"":""There is more to this photo than the other in term of composure and charm.""}","","","","","","19","106","113","","","","","","","","","","","{""Q0"":""There is more to this photo than the other in term of composure and charm.""}","","","","","","","","","","","","","","","","","","","","","","","","","","",""
"","fixation","","html-keyboard-response","129","636534","0.0-76.0-0.0","0","0","nYHH2","Scenes","","null","","","null","","","","","","","","","","","","","","","","","","","","","","","","","","","","","","","","","","","","","","","","","","","",""
"","deliberation","","html-keyboard-response","130","639767","0.0-76.0-1.0","0","0","nYHH2","Scenes","","3232","","","68","","","","20","124","128","1","-1","74","80","johannes-plenio-sPt5RIjKfpk-unsplash.jpg","karsten-wurth-jS0zC2PJ17A-unsplash.jpg","2","1","124","128","","","","","","","","","","","","","","","","","","","","","","","","","","","",""
"","choice_confirmation","","html-keyboard-response","131","640271","0.0-76.0-2.0-0.0","0","0","nYHH2","Scenes","","null","","","null","","","","20","124","128","","","","","","","","","","","","","","","","","","","","","","","","","","","","","","","","","","","","","",""
"","explain_trial","","survey-text","132","681674","0.0-76.0-5.0-0.0","0","0","nYHH2","Scenes","","41401","{""Q0"":""The colors in this photo makes it stands out from the other.""}","","","","","","20","124","128","","","","","","","","","","","{""Q0"":""The colors in this photo makes it stands out from the other.""}","","","","","","","","","","","","","","","","","","","","","","","","","","",""
"","fixation","","html-keyboard-response","133","682690","0.0-77.0-0.0","0","0","nYHH2","Scenes","","null","","","null","","","","","","","","","","","","","","","","","","","","","","","","","","","","","","","","","","","","","","","","","","","",""
"","deliberation","","html-keyboard-response","134","685301","0.0-77.0-1.0","0","0","nYHH2","Scenes","","2609","","","75","","","","21","111","121","0","1","78","73","claudio-testa-U3F2o6vz3bs-unsplash.jpg","jean-pierre-brungs-qxCqkbF7tUc-unsplash.jpg","2","0","121","111","","","","","","","","","","","","","","","","","","","","","","","","","","","",""
"","choice_confirmation","","html-keyboard-response","135","685819","0.0-77.0-2.0-0.0","0","0","nYHH2","Scenes","","null","","","null","","","","21","111","121","","","","","","","","","","","","","","","","","","","","","","","","","","","","","","","","","","","","","",""
"","fixation","","html-keyboard-response","136","686824","0.0-78.0-0.0","0","0","nYHH2","Scenes","","null","","","null","","","","","","","","","","","","","","","","","","","","","","","","","","","","","","","","","","","","","","","","","","","",""
"","deliberation","","html-keyboard-response","137","688774","0.0-78.0-1.0","0","0","nYHH2","Scenes","","1949","","","75","","","","22","122","103","0","1","73","77","jeff-king-bJHWJeiHfHc-unsplash.jpg","anton-darius-FBJugtbHsWU-unsplash.jpg","2","0","103","122","","","","","","","","","","","","","","","","","","","","","","","","","","","",""
"","choice_confirmation","","html-keyboard-response","138","689292","0.0-78.0-2.0-0.0","0","0","nYHH2","Scenes","","null","","","null","","","","22","122","103","","","","","","","","","","","","","","","","","","","","","","","","","","","","","","","","","","","","","",""
"","fixation","","html-keyboard-response","139","690301","0.0-79.0-0.0","0","0","nYHH2","Scenes","","null","","","null","","","","","","","","","","","","","","","","","","","","","","","","","","","","","","","","","","","","","","","","","","","",""
"","deliberation","","html-keyboard-response","140","692190","0.0-79.0-1.0","0","0","nYHH2","Scenes","","1888","","","75","","","","23","126","129","1","-1","76","74","jordan-mcqueen-PJCZOWuOxbU-unsplash.jpg","kurt-cotoaga-cqbLg3lZEpk-unsplash.jpg","2","0","129","126","","","","","","","","","","","","","","","","","","","","","","","","","","","",""
"","choice_confirmation","","html-keyboard-response","141","692701","0.0-79.0-2.0-0.0","0","0","nYHH2","Scenes","","null","","","null","","","","23","126","129","","","","","","","","","","","","","","","","","","","","","","","","","","","","","","","","","","","","","",""
"","explain_trial","","survey-text","142","727413","0.0-79.0-5.0-0.0","0","0","nYHH2","Scenes","","34710","{""Q0"":""The landscape here is remarkable and captures one's attention more. ""}","","","","","","23","126","129","","","","","","","","","","","{""Q0"":""The landscape here is remarkable and captures one's attention more. ""}","","","","","","","","","","","","","","","","","","","","","","","","","","",""
"","start_critical_deliberation_block","","html-keyboard-response","143","731715","0.0-79.0-7.0-0.0","0","0","nYHH2","Scenes","","4301","","","78","","","","","","","","","","","","","","","","","","","","","","","","","","","","","","","","","","","","","","","","","","","",""
"","fixation","","html-keyboard-response","144","732727","0.0-80.0-0.0","0","0","nYHH2","Scenes","","null","","","null","","","","","","","","","","","","","","","","","","","","","","","","","","","","","","","","","","","","","","","","","","","",""
"","deliberation","","html-keyboard-response","145","735700","0.0-80.0-1.0","0","0","nYHH2","Scenes","","2971","","","75","","","","24","127","137","0","-1","83","84","kace-rodriguez-p3OzJuT_Dks-unsplash.jpg","olga-stalska-QaWRyEdlffY-unsplash.jpg","3","0","137","127","","","","","","","","","","","","","","","","","","","","","","","","","","","",""
"","choice_confirmation","","html-keyboard-response","146","736216","0.0-80.0-2.0-0.0","0","0","nYHH2","Scenes","","null","","","null","","","","24","127","137","","","","","","","","","","","","","","","","","","","","","","","","","","","","","","","","","","","","","",""
"","fixation","","html-keyboard-response","147","737225","0.0-81.0-0.0","0","0","nYHH2","Scenes","","null","","","null","","","","","","","","","","","","","","","","","","","","","","","","","","","","","","","","","","","","","","","","","","","",""
"","deliberation","","html-keyboard-response","148","738052","0.0-81.0-1.0","0","0","nYHH2","Scenes","","825","","","75","","","","25","106","113","0","1","76","78","ashim-d-silva-WeYamle9fDM-unsplash.jpg","damian-denis-D8R_txR_0PE-unsplash.jpg","3","0","113","106","","","","","","","","","","","","","","","","","","","","","","","","","","","",""
"","choice_confirmation","","html-keyboard-response","149","738566","0.0-81.0-2.0-0.0","0","0","nYHH2","Scenes","","null","","","null","","","","25","106","113","","","","","","","","","","","","","","","","","","","","","","","","","","","","","","","","","","","","","",""
"","fixation","","html-keyboard-response","150","739587","0.0-82.0-0.0","0","0","nYHH2","Scenes","","null","","","null","","","","","","","","","","","","","","","","","","","","","","","","","","","","","","","","","","","","","","","","","","","",""
"","deliberation","","html-keyboard-response","151","740573","0.0-82.0-1.0","0","0","nYHH2","Scenes","","984","","","75","","","","26","119","116","0","1","79","72","james-wheeler-AFC0XvICMgs-unsplash.jpg","david-marcu-W5MhJ6cy1So-unsplash.jpg","3","0","116","119","","","","","","","","","","","","","","","","","","","","","","","","","","","",""
"","choice_confirmation","","html-keyboard-response","152","741083","0.0-82.0-2.0-0.0","0","0","nYHH2","Scenes","","null","","","null","","","","26","119","116","","","","","","","","","","","","","","","","","","","","","","","","","","","","","","","","","","","","","",""
"","fixation","","html-keyboard-response","153","742089","0.0-83.0-0.0","0","0","nYHH2","Scenes","","null","","","null","","","","","","","","","","","","","","","","","","","","","","","","","","","","","","","","","","","","","","","","","","","",""
"","deliberation","","html-keyboard-response","154","743749","0.0-83.0-1.0","0","0","nYHH2","Scenes","","1658","","","68","","","","27","144","115","0","-1","85","73","solotravelgoals-7kLufxYoqWk-unsplash.jpg","darrell-cassell-hoCXpPUMCoE-unsplash.jpg","3","1","144","115","","","","","","","","","","","","","","","","","","","","","","","","","","","",""
"","choice_confirmation","","html-keyboard-response","155","744263","0.0-83.0-2.0-0.0","0","0","nYHH2","Scenes","","null","","","null","","","","27","144","115","","","","","","","","","","","","","","","","","","","","","","","","","","","","","","","","","","","","","",""
"","fixation","","html-keyboard-response","156","745283","0.0-84.0-0.0","0","0","nYHH2","Scenes","","null","","","null","","","","","","","","","","","","","","","","","","","","","","","","","","","","","","","","","","","","","","","","","","","",""
"","deliberation","","html-keyboard-response","157","746197","0.0-84.0-1.0","0","0","nYHH2","Scenes","","913","","","75","","","","28","149","143","0","-1","77","82","yuriy-bogdanov-W51VK3Obcj0-unsplash.jpg","sigurdur-fjalar-jonsson-1KxBabIntpE-unsplash.jpg","3","0","143","149","","","","","","","","","","","","","","","","","","","","","","","","","","","",""
"","choice_confirmation","","html-keyboard-response","158","746713","0.0-84.0-2.0-0.0","0","0","nYHH2","Scenes","","null","","","null","","","","28","149","143","","","","","","","","","","","","","","","","","","","","","","","","","","","","","","","","","","","","","",""
"","fixation","","html-keyboard-response","159","747730","0.0-85.0-0.0","0","0","nYHH2","Scenes","","null","","","null","","","","","","","","","","","","","","","","","","","","","","","","","","","","","","","","","","","","","","","","","","","",""
"","deliberation","","html-keyboard-response","160","748702","0.0-85.0-1.0","0","0","nYHH2","Scenes","","970","","","75","","","","29","120","145","0","-1","85","80","jarrett-kow-1ZOyYPOBn7I-unsplash.jpg","stephen-leonardi-gyIRjKPXupE-unsplash.jpg","3","0","145","120","","","","","","","","","","","","","","","","","","","","","","","","","","","",""
"","choice_confirmation","","html-keyboard-response","161","749210","0.0-85.0-2.0-0.0","0","0","nYHH2","Scenes","","null","","","null","","","","29","120","145","","","","","","","","","","","","","","","","","","","","","","","","","","","","","","","","","","","","","",""
"","fixation","","html-keyboard-response","162","750227","0.0-86.0-0.0","0","0","nYHH2","Scenes","","null","","","null","","","","","","","","","","","","","","","","","","","","","","","","","","","","","","","","","","","","","","","","","","","",""
"","deliberation","","html-keyboard-response","163","751462","0.0-86.0-1.0","0","0","nYHH2","Scenes","","1233","","","75","","","","30","111","121","0","1","78","73","claudio-testa-U3F2o6vz3bs-unsplash.jpg","jean-pierre-brungs-qxCqkbF7tUc-unsplash.jpg","3","0","121","111","","","","","","","","","","","","","","","","","","","","","","","","","","","",""
"","choice_confirmation","","html-keyboard-response","164","751968","0.0-86.0-2.0-0.0","0","0","nYHH2","Scenes","","null","","","null","","","","30","111","121","","","","","","","","","","","","","","","","","","","","","","","","","","","","","","","","","","","","","",""
"","fixation","","html-keyboard-response","165","752977","0.0-87.0-0.0","0","0","nYHH2","Scenes","","null","","","null","","","","","","","","","","","","","","","","","","","","","","","","","","","","","","","","","","","","","","","","","","","",""
"","deliberation","","html-keyboard-response","166","754206","0.0-87.0-1.0","0","0","nYHH2","Scenes","","1228","","","75","","","","31","147","140","0","1","78","77","tobias-keller-73F4pKoUkM0-unsplash.jpg","samuele-errico-piccarini-JEBqFu2AOOA-unsplash.jpg","3","0","140","147","","","","","","","","","","","","","","","","","","","","","","","","","","","",""
"","choice_confirmation","","html-keyboard-response","167","754720","0.0-87.0-2.0-0.0","0","0","nYHH2","Scenes","","null","","","null","","","","31","147","140","","","","","","","","","","","","","","","","","","","","","","","","","","","","","","","","","","","","","",""
"","fixation","","html-keyboard-response","168","755739","0.0-88.0-0.0","0","0","nYHH2","Scenes","","null","","","null","","","","","","","","","","","","","","","","","","","","","","","","","","","","","","","","","","","","","","","","","","","",""
"","deliberation","","html-keyboard-response","169","756568","0.0-88.0-1.0","0","0","nYHH2","Scenes","","826","","","75","","","","32","126","129","0","-1","76","74","jordan-mcqueen-PJCZOWuOxbU-unsplash.jpg","kurt-cotoaga-cqbLg3lZEpk-unsplash.jpg","3","0","129","126","","","","","","","","","","","","","","","","","","","","","","","","","","","",""
"","choice_confirmation","","html-keyboard-response","170","757077","0.0-88.0-2.0-0.0","0","0","nYHH2","Scenes","","null","","","null","","","","32","126","129","","","","","","","","","","","","","","","","","","","","","","","","","","","","","","","","","","","","","",""
"","fixation","","html-keyboard-response","171","758083","0.0-89.0-0.0","0","0","nYHH2","Scenes","","null","","","null","","","","","","","","","","","","","","","","","","","","","","","","","","","","","","","","","","","","","","","","","","","",""
"","deliberation","","html-keyboard-response","172","759112","0.0-89.0-1.0","0","0","nYHH2","Scenes","","1026","","","75","","","","33","122","103","0","1","73","77","jeff-king-bJHWJeiHfHc-unsplash.jpg","anton-darius-FBJugtbHsWU-unsplash.jpg","3","0","103","122","","","","","","","","","","","","","","","","","","","","","","","","","","","",""
"","choice_confirmation","","html-keyboard-response","173","759619","0.0-89.0-2.0-0.0","0","0","nYHH2","Scenes","","null","","","null","","","","33","122","103","","","","","","","","","","","","","","","","","","","","","","","","","","","","","","","","","","","","","",""
"","fixation","","html-keyboard-response","174","760626","0.0-90.0-0.0","0","0","nYHH2","Scenes","","null","","","null","","","","","","","","","","","","","","","","","","","","","","","","","","","","","","","","","","","","","","","","","","","",""
"","deliberation","","html-keyboard-response","175","761471","0.0-90.0-1.0","0","0","nYHH2","Scenes","","844","","","75","","","","34","132","112","0","1","74","81","meng-ji-8BH_M-53CyA-unsplash.jpg","cosmic-timetraveler-pYyOZ8q7AII-unsplash.jpg","3","0","112","132","","","","","","","","","","","","","","","","","","","","","","","","","","","",""
"","choice_confirmation","","html-keyboard-response","176","761979","0.0-90.0-2.0-0.0","0","0","nYHH2","Scenes","","null","","","null","","","","34","132","112","","","","","","","","","","","","","","","","","","","","","","","","","","","","","","","","","","","","","",""
"","fixation","","html-keyboard-response","177","762984","0.0-91.0-0.0","0","0","nYHH2","Scenes","","null","","","null","","","","","","","","","","","","","","","","","","","","","","","","","","","","","","","","","","","","","","","","","","","",""
"","deliberation","","html-keyboard-response","178","764328","0.0-91.0-1.0","0","0","nYHH2","Scenes","","1343","","","68","","","","35","124","128","0","-1","74","80","johannes-plenio-sPt5RIjKfpk-unsplash.jpg","karsten-wurth-jS0zC2PJ17A-unsplash.jpg","3","1","124","128","","","","","","","","","","","","","","","","","","","","","","","","","","","",""
"","choice_confirmation","","html-keyboard-response","179","764835","0.0-91.0-2.0-0.0","0","0","nYHH2","Scenes","","null","","","null","","","","35","124","128","","","","","","","","","","","","","","","","","","","","","","","","","","","","","","","","","","","","","",""
"","reward_learning_instructions","","instructions","180","786689","0.0-92.0-0.0","0","0","nYHH2","Scenes","[{""page_index"":0,""viewing_time"":9872},{""page_index"":1,""viewing_time"":10933},{""page_index"":2,""viewing_time"":1047}]","21852","","","","","","","","","","","","","","","","","","","","","","","","","","","","","","","","","","","","","","","","","","","","","","",""
"","reward_comprehension_check","","survey-multi-choice","181","793319","0.0-92.0-1.0","0","0","nYHH2","Scenes","","6627","{""Q0"":""True"",""Q1"":""True"",""Q2"":""Press the space bar to see its outcome"",""Q3"":""Press the relevant key while the outcome is presented""}","0","","","","","","","","","","","","","","","","","","","","","","","","","","","","","","","","","","","","","","","","","","","","",""
"","start_phase","","html-keyboard-response","182","797396","0.0-93.0","0","0","nYHH2","Scenes","","4076","","","78","","","","","","","","","","","","","","","","","","","","","","","","","","","","","","","","","","","","","","","","","","","",""
"","fixation","","html-keyboard-response","183","798414","0.0-94.0","0","0","nYHH2","Scenes","","null","","","null","","","","","","","","","","","","","","","","","","","","","","","","","","","","","","","","","","","","","","","","","","","",""
"","see_reward","","html-keyboard-response","184","799012","0.0-95.0","0","0","nYHH2","Scenes","","597","","","32","","103","","0","","","","1","","","","","1","","","","","156","597","","","","","","","","","","","","","","","","","","","","","","","","",""
"","reward_outcome","","html-keyboard-response","185","801021","0.0-96.0","0","0","nYHH2","Scenes","","null","","","null","","103","","0","","","","","","","","","","","","","","","","NaN","null","","","","","","","","","","","","","","","","","","","","","","",""
"","respond_faster","","html-keyboard-response","186","802538","0.0-97.0-0.0","1","0","nYHH2","Scenes","","null","","","null","","","","","","","","","","","","","","","","","","","","","","","","","","","","","","","","","","","","","","","","","","","",""
"","fixation","","html-keyboard-response","187","803555","0.0-99.0","0","0","nYHH2","Scenes","","null","","","null","","","","","","","","","","","","","","","","","","","","","","","","","","","","","","","","","","","","","","","","","","","",""
"","see_reward","","html-keyboard-response","188","803941","0.0-100.0","0","0","nYHH2","Scenes","","384","","","32","","140","","1","","","","1","","","","","1","","","","","158","384","","","","","","","","","","","","","","","","","","","","","","","","",""
"","reward_outcome","","html-keyboard-response","189","805958","0.0-101.0","0","0","nYHH2","Scenes","","838","","","38","","140","","1","","","","","","","","","","","","","","","","1","838","","","","","","","","","","","","","","","","","","","","","","",""
"","fixation","","html-keyboard-response","190","806980","0.0-104.0","0","0","nYHH2","Scenes","","null","","","null","","","","","","","","","","","","","","","","","","","","","","","","","","","","","","","","","","","","","","","","","","","",""
"","see_reward","","html-keyboard-response","191","807270","0.0-105.0","0","0","nYHH2","Scenes","","288","","","32","","121","","2","","","","1","","","","","1","","","","","147","288","","","","","","","","","","","","","","","","","","","","","","","","",""
"","reward_outcome","","html-keyboard-response","192","809280","0.0-106.0","0","0","nYHH2","Scenes","","551","","","38","","121","","2","","","","","","","","","","","","","","","","1","551","","","","","","","","","","","","","","","","","","","","","","",""
"","fixation","","html-keyboard-response","193","810287","0.0-109.0","0","0","nYHH2","Scenes","","null","","","null","","","","","","","","","","","","","","","","","","","","","","","","","","","","","","","","","","","","","","","","","","","",""
"","see_reward","","html-keyboard-response","194","810894","0.0-110.0","0","0","nYHH2","Scenes","","605","","","32","","124","","3","","","","-1","","","","","1","","","","","0","605","","","","","","","","","","","","","","","","","","","","","","","","",""
"","reward_outcome","","html-keyboard-response","195","812905","0.0-111.0","0","0","nYHH2","Scenes","","287","","","38","","124","","3","","","","","","","","","","","","","","","","1","287","","","","","","","","","","","","","","","","","","","","","","",""
"","fixation","","html-keyboard-response","196","813919","0.0-114.0","0","0","nYHH2","Scenes","","null","","","null","","","","","","","","","","","","","","","","","","","","","","","","","","","","","","","","","","","","","","","","","","","",""
"","see_reward","","html-keyboard-response","197","814278","0.0-115.0","0","0","nYHH2","Scenes","","358","","","32","","129","","4","","","","-1","","","","","1","","","","","0","358","","","","","","","","","","","","","","","","","","","","","","","","",""
"","reward_outcome","","html-keyboard-response","198","816286","0.0-116.0","0","0","nYHH2","Scenes","","743","","","40","","129","","4","","","","","","","","","","","","","","","","-1","743","","","","","","","","","","","","","","","","","","","","","","",""
"","fixation","","html-keyboard-response","199","817307","0.0-119.0","0","0","nYHH2","Scenes","","null","","","null","","","","","","","","","","","","","","","","","","","","","","","","","","","","","","","","","","","","","","","","","","","",""
"","see_reward","","html-keyboard-response","200","817807","0.0-120.0","0","0","nYHH2","Scenes","","498","","","32","","112","","5","","","","1","","","","","1","","","","","142","498","","","","","","","","","","","","","","","","","","","","","","","","",""
"","reward_outcome","","html-keyboard-response","201","819829","0.0-121.0","0","0","nYHH2","Scenes","","351","","","38","","112","","5","","","","","","","","","","","","","","","","1","351","","","","","","","","","","","","","","","","","","","","","","",""
"","fixation","","html-keyboard-response","202","820835","0.0-124.0","0","0","nYHH2","Scenes","","null","","","null","","","","","","","","","","","","","","","","","","","","","","","","","","","","","","","","","","","","","","","","","","","",""
"","see_reward","","html-keyboard-response","203","821247","0.0-125.0","0","0","nYHH2","Scenes","","410","","","32","","145","","6","","","","-1","","","","","1","","","","","0","410","","","","","","","","","","","","","","","","","","","","","","","","",""
"","reward_outcome","","html-keyboard-response","204","823264","0.0-126.0","0","0","nYHH2","Scenes","","382","","","38","","145","","6","","","","","","","","","","","","","","","","1","382","","","","","","","","","","","","","","","","","","","","","","",""
"","fixation","","html-keyboard-response","205","824280","0.0-129.0","0","0","nYHH2","Scenes","","null","","","null","","","","","","","","","","","","","","","","","","","","","","","","","","","","","","","","","","","","","","","","","","","",""
"","see_reward","","html-keyboard-response","206","824928","0.0-130.0","0","0","nYHH2","Scenes","","646","","","32","","112","","7","","","","1","","","","","1","","","","","142","646","","","","","","","","","","","","","","","","","","","","","","","","",""
"","reward_outcome","","html-keyboard-response","207","826949","0.0-131.0","0","0","nYHH2","Scenes","","607","","","38","","112","","7","","","","","","","","","","","","","","","","1","607","","","","","","","","","","","","","","","","","","","","","","",""
"","fixation","","html-keyboard-response","208","827956","0.0-134.0","0","0","nYHH2","Scenes","","null","","","null","","","","","","","","","","","","","","","","","","","","","","","","","","","","","","","","","","","","","","","","","","","",""
"","see_reward","","html-keyboard-response","209","828408","0.0-135.0","0","0","nYHH2","Scenes","","451","","","32","","116","","8","","","","1","","","","","1","","","","","141","451","","","","","","","","","","","","","","","","","","","","","","","","",""
"","reward_outcome","","html-keyboard-response","210","830428","0.0-136.0","0","0","nYHH2","Scenes","","366","","","38","","116","","8","","","","","","","","","","","","","","","","1","366","","","","","","","","","","","","","","","","","","","","","","",""
"","fixation","","html-keyboard-response","211","831433","0.0-139.0","0","0","nYHH2","Scenes","","null","","","null","","","","","","","","","","","","","","","","","","","","","","","","","","","","","","","","","","","","","","","","","","","",""
"","see_reward","","html-keyboard-response","212","832169","0.0-140.0","0","0","nYHH2","Scenes","","735","","","32","","137","","9","","","","-1","","","","","1","","","","","0","735","","","","","","","","","","","","","","","","","","","","","","","","",""
"","reward_outcome","","html-keyboard-response","213","834179","0.0-141.0","0","0","nYHH2","Scenes","","903","","","40","","137","","9","","","","","","","","","","","","","","","","-1","903","","","","","","","","","","","","","","","","","","","","","","",""
"","fixation","","html-keyboard-response","214","835184","0.0-144.0","0","0","nYHH2","Scenes","","null","","","null","","","","","","","","","","","","","","","","","","","","","","","","","","","","","","","","","","","","","","","","","","","",""
"","see_reward","","html-keyboard-response","215","835633","0.0-145.0","0","0","nYHH2","Scenes","","447","","","32","","103","","10","","","","1","","","","","1","","","","","156","447","","","","","","","","","","","","","","","","","","","","","","","","",""
"","reward_outcome","","html-keyboard-response","216","837642","0.0-146.0","0","0","nYHH2","Scenes","","590","","","38","","103","","10","","","","","","","","","","","","","","","","1","590","","","","","","","","","","","","","","","","","","","","","","",""
"","fixation","","html-keyboard-response","217","838660","0.0-149.0","0","0","nYHH2","Scenes","","null","","","null","","","","","","","","","","","","","","","","","","","","","","","","","","","","","","","","","","","","","","","","","","","",""
"","see_reward","","html-keyboard-response","218","839186","0.0-150.0","0","0","nYHH2","Scenes","","525","","","32","","116","","11","","","","1","","","","","1","","","","","141","525","","","","","","","","","","","","","","","","","","","","","","","","",""
"","reward_outcome","","html-keyboard-response","219","841194","0.0-151.0","0","0","nYHH2","Scenes","","295","","","38","","116","","11","","","","","","","","","","","","","","","","1","295","","","","","","","","","","","","","","","","","","","","","","",""
"","fixation","","html-keyboard-response","220","842201","0.0-154.0","0","0","nYHH2","Scenes","","null","","","null","","","","","","","","","","","","","","","","","","","","","","","","","","","","","","","","","","","","","","","","","","","",""
"","see_reward","","html-keyboard-response","221","842714","0.0-155.0","0","0","nYHH2","Scenes","","512","","","32","","129","","12","","","","-1","","","","","1","","","","","0","512","","","","","","","","","","","","","","","","","","","","","","","","",""
"","reward_outcome","","html-keyboard-response","222","844727","0.0-156.0","0","0","nYHH2","Scenes","","511","","","40","","129","","12","","","","","","","","","","","","","","","","-1","511","","","","","","","","","","","","","","","","","","","","","","",""
"","fixation","","html-keyboard-response","223","845744","0.0-159.0","0","0","nYHH2","Scenes","","null","","","null","","","","","","","","","","","","","","","","","","","","","","","","","","","","","","","","","","","","","","","","","","","",""
"","see_reward","","html-keyboard-response","224","846298","0.0-160.0","0","0","nYHH2","Scenes","","553","","","32","","143","","13","","","","-1","","","","","1","","","","","0","553","","","","","","","","","","","","","","","","","","","","","","","","",""
"","reward_outcome","","html-keyboard-response","225","848312","0.0-161.0","0","0","nYHH2","Scenes","","607","","","40","","143","","13","","","","","","","","","","","","","","","","-1","607","","","","","","","","","","","","","","","","","","","","","","",""
"","fixation","","html-keyboard-response","226","849330","0.0-164.0","0","0","nYHH2","Scenes","","null","","","null","","","","","","","","","","","","","","","","","","","","","","","","","","","","","","","","","","","","","","","","","","","",""
"","see_reward","","html-keyboard-response","227","849770","0.0-165.0","0","0","nYHH2","Scenes","","438","","","32","","140","","14","","","","1","","","","","1","","","","","158","438","","","","","","","","","","","","","","","","","","","","","","","","",""
"","reward_outcome","","html-keyboard-response","228","851776","0.0-166.0","0","0","nYHH2","Scenes","","670","","","38","","140","","14","","","","","","","","","","","","","","","","1","670","","","","","","","","","","","","","","","","","","","","","","",""
"","fixation","","html-keyboard-response","229","852783","0.0-169.0","0","0","nYHH2","Scenes","","null","","","null","","","","","","","","","","","","","","","","","","","","","","","","","","","","","","","","","","","","","","","","","","","",""
"","see_reward","","html-keyboard-response","230","853106","0.0-170.0","0","0","nYHH2","Scenes","","322","","","32","","144","","15","","","","-1","","","","","1","","","","","0","322","","","","","","","","","","","","","","","","","","","","","","","","",""
"","reward_outcome","","html-keyboard-response","231","855125","0.0-171.0","0","0","nYHH2","Scenes","","615","","","40","","144","","15","","","","","","","","","","","","","","","","-1","615","","","","","","","","","","","","","","","","","","","","","","",""
"","fixation","","html-keyboard-response","232","856144","0.0-174.0","0","0","nYHH2","Scenes","","null","","","null","","","","","","","","","","","","","","","","","","","","","","","","","","","","","","","","","","","","","","","","","","","",""
"","see_reward","","html-keyboard-response","233","856692","0.0-175.0","0","0","nYHH2","Scenes","","546","","","32","","113","","16","","","","1","","","","","1","","","","","150","546","","","","","","","","","","","","","","","","","","","","","","","","",""
"","reward_outcome","","html-keyboard-response","234","858714","0.0-176.0","0","0","nYHH2","Scenes","","749","","","38","","113","","16","","","","","","","","","","","","","","","","1","749","","","","","","","","","","","","","","","","","","","","","","",""
"","fixation","","html-keyboard-response","235","859724","0.0-179.0","0","0","nYHH2","Scenes","","null","","","null","","","","","","","","","","","","","","","","","","","","","","","","","","","","","","","","","","","","","","","","","","","",""
"","see_reward","","html-keyboard-response","236","860412","0.0-180.0","0","0","nYHH2","Scenes","","687","","","32","","121","","17","","","","1","","","","","1","","","","","147","687","","","","","","","","","","","","","","","","","","","","","","","","",""
"","reward_outcome","","html-keyboard-response","237","862432","0.0-181.0","0","0","nYHH2","Scenes","","678","","","38","","121","","17","","","","","","","","","","","","","","","","1","678","","","","","","","","","","","","","","","","","","","","","","",""
"","fixation","","html-keyboard-response","238","863448","0.0-184.0","0","0","nYHH2","Scenes","","null","","","null","","","","","","","","","","","","","","","","","","","","","","","","","","","","","","","","","","","","","","","","","","","",""
"","see_reward","","html-keyboard-response","239","863925","0.0-185.0","0","0","nYHH2","Scenes","","474","","","32","","124","","18","","","","-1","","","","","1","","","","","0","474","","","","","","","","","","","","","","","","","","","","","","","","",""
"","reward_outcome","","html-keyboard-response","240","865941","0.0-186.0","0","0","nYHH2","Scenes","","846","","","40","","124","","18","","","","","","","","","","","","","","","","-1","846","","","","","","","","","","","","","","","","","","","","","","",""
"","fixation","","html-keyboard-response","241","866962","0.0-189.0","0","0","nYHH2","Scenes","","null","","","null","","","","","","","","","","","","","","","","","","","","","","","","","","","","","","","","","","","","","","","","","","","",""
"","see_reward","","html-keyboard-response","242","867492","0.0-190.0","0","0","nYHH2","Scenes","","530","","","32","","145","","19","","","","-1","","","","","1","","","","","0","530","","","","","","","","","","","","","","","","","","","","","","","","",""
"","reward_outcome","","html-keyboard-response","243","869504","0.0-191.0","0","0","nYHH2","Scenes","","647","","","40","","145","","19","","","","","","","","","","","","","","","","-1","647","","","","","","","","","","","","","","","","","","","","","","",""
"","fixation","","html-keyboard-response","244","870517","0.0-194.0","0","0","nYHH2","Scenes","","null","","","null","","","","","","","","","","","","","","","","","","","","","","","","","","","","","","","","","","","","","","","","","","","",""
"","see_reward","","html-keyboard-response","245","870925","0.0-195.0","0","0","nYHH2","Scenes","","406","","","32","","113","","20","","","","1","","","","","1","","","","","150","406","","","","","","","","","","","","","","","","","","","","","","","","",""
"","reward_outcome","","html-keyboard-response","246","872947","0.0-196.0","0","0","nYHH2","Scenes","","574","","","38","","113","","20","","","","","","","","","","","","","","","","1","574","","","","","","","","","","","","","","","","","","","","","","",""
"","fixation","","html-keyboard-response","247","873965","0.0-199.0","0","0","nYHH2","Scenes","","null","","","null","","","","","","","","","","","","","","","","","","","","","","","","","","","","","","","","","","","","","","","","","","","",""
"","see_reward","","html-keyboard-response","248","874485","0.0-200.0","0","0","nYHH2","Scenes","","518","","","32","","143","","21","","","","-1","","","","","1","","","","","0","518","","","","","","","","","","","","","","","","","","","","","","","","",""
"","reward_outcome","","html-keyboard-response","249","876497","0.0-201.0","0","0","nYHH2","Scenes","","1087","","","40","","143","","21","","","","","","","","","","","","","","","","-1","1087","","","","","","","","","","","","","","","","","","","","","","",""
"","fixation","","html-keyboard-response","250","877503","0.0-204.0","0","0","nYHH2","Scenes","","null","","","null","","","","","","","","","","","","","","","","","","","","","","","","","","","","","","","","","","","","","","","","","","","",""
"","see_reward","","html-keyboard-response","251","877982","0.0-205.0","0","0","nYHH2","Scenes","","477","","","32","","144","","22","","","","-1","","","","","1","","","","","0","477","","","","","","","","","","","","","","","","","","","","","","","","",""
"","reward_outcome","","html-keyboard-response","252","879999","0.0-206.0","0","0","nYHH2","Scenes","","727","","","40","","144","","22","","","","","","","","","","","","","","","","-1","727","","","","","","","","","","","","","","","","","","","","","","",""
"","fixation","","html-keyboard-response","253","881016","0.0-209.0","0","0","nYHH2","Scenes","","null","","","null","","","","","","","","","","","","","","","","","","","","","","","","","","","","","","","","","","","","","","","","","","","",""
"","see_reward","","html-keyboard-response","254","881278","0.0-210.0","0","0","nYHH2","Scenes","","261","","","32","","137","","23","","","","-1","","","","","1","","","","","0","261","","","","","","","","","","","","","","","","","","","","","","","","",""
"","reward_outcome","","html-keyboard-response","255","883295","0.0-211.0","0","0","nYHH2","Scenes","","686","","","40","","137","","23","","","","","","","","","","","","","","","","-1","686","","","","","","","","","","","","","","","","","","","","","","",""
"","block_over","","html-keyboard-response","256","885023","0.0-213.0-0.0","0","0","nYHH2","Scenes","","1726","","","78","","","","","","","","","","","","","","","","","","","","","","","","","","","","","","","","","","","","","","","","","","","",""
"","fixation","","html-keyboard-response","257","886035","0.0-214.0","0","0","nYHH2","Scenes","","null","","","null","","","","","","","","","","","","","","","","","","","","","","","","","","","","","","","","","","","","","","","","","","","",""
"","see_reward","","html-keyboard-response","258","886727","0.0-215.0","0","0","nYHH2","Scenes","","691","","","32","","143","","24","","","","-1","","","","","2","","","","","0","691","","","","","","","","","","","","","","","","","","","","","","","","",""
"","reward_outcome","","html-keyboard-response","259","888743","0.0-216.0","0","0","nYHH2","Scenes","","631","","","40","","143","","24","","","","","","","","","","","","","","","","-1","631","","","","","","","","","","","","","","","","","","","","","","",""
"","fixation","","html-keyboard-response","260","889764","0.0-219.0","0","0","nYHH2","Scenes","","null","","","null","","","","","","","","","","","","","","","","","","","","","","","","","","","","","","","","","","","","","","","","","","","",""
"","see_reward","","html-keyboard-response","261","890439","0.0-220.0","0","0","nYHH2","Scenes","","673","","","32","","129","","25","","","","-1","","","","","2","","","","","0","673","","","","","","","","","","","","","","","","","","","","","","","","",""
"","reward_outcome","","html-keyboard-response","262","892453","0.0-221.0","0","0","nYHH2","Scenes","","751","","","40","","129","","25","","","","","","","","","","","","","","","","-1","751","","","","","","","","","","","","","","","","","","","","","","",""
"","fixation","","html-keyboard-response","263","893470","0.0-224.0","0","0","nYHH2","Scenes","","null","","","null","","","","","","","","","","","","","","","","","","","","","","","","","","","","","","","","","","","","","","","","","","","",""
"","see_reward","","html-keyboard-response","264","893872","0.0-225.0","0","0","nYHH2","Scenes","","400","","","32","","112","","26","","","","1","","","","","2","","","","","142","400","","","","","","","","","","","","","","","","","","","","","","","","",""
"","reward_outcome","","html-keyboard-response","265","895888","0.0-226.0","0","0","nYHH2","Scenes","","414","","","38","","112","","26","","","","","","","","","","","","","","","","1","414","","","","","","","","","","","","","","","","","","","","","","",""
"","fixation","","html-keyboard-response","266","896907","0.0-229.0","0","0","nYHH2","Scenes","","null","","","null","","","","","","","","","","","","","","","","","","","","","","","","","","","","","","","","","","","","","","","","","","","",""
"","see_reward","","html-keyboard-response","267","897240","0.0-230.0","0","0","nYHH2","Scenes","","332","","","32","","103","","27","","","","1","","","","","2","","","","","156","332","","","","","","","","","","","","","","","","","","","","","","","","",""
"","reward_outcome","","html-keyboard-response","268","899253","0.0-231.0","0","0","nYHH2","Scenes","","830","","","38","","103","","27","","","","","","","","","","","","","","","","1","830","","","","","","","","","","","","","","","","","","","","","","",""
"","fixation","","html-keyboard-response","269","900269","0.0-234.0","0","0","nYHH2","Scenes","","null","","","null","","","","","","","","","","","","","","","","","","","","","","","","","","","","","","","","","","","","","","","","","","","",""
"","see_reward","","html-keyboard-response","270","900785","0.0-235.0","0","0","nYHH2","Scenes","","514","","","32","","129","","28","","","","-1","","","","","2","","","","","0","514","","","","","","","","","","","","","","","","","","","","","","","","",""
"","reward_outcome","","html-keyboard-response","271","902804","0.0-236.0","0","0","nYHH2","Scenes","","591","","","40","","129","","28","","","","","","","","","","","","","","","","-1","591","","","","","","","","","","","","","","","","","","","","","","",""
"","fixation","","html-keyboard-response","272","903811","0.0-239.0","0","0","nYHH2","Scenes","","null","","","null","","","","","","","","","","","","","","","","","","","","","","","","","","","","","","","","","","","","","","","","","","","",""
"","see_reward","","html-keyboard-response","273","904513","0.0-240.0","0","0","nYHH2","Scenes","","701","","","32","","143","","29","","","","-1","","","","","2","","","","","0","701","","","","","","","","","","","","","","","","","","","","","","","","",""
"","reward_outcome","","html-keyboard-response","274","906529","0.0-241.0","0","0","nYHH2","Scenes","","670","","","40","","143","","29","","","","","","","","","","","","","","","","-1","670","","","","","","","","","","","","","","","","","","","","","","",""
"","fixation","","html-keyboard-response","275","907536","0.0-244.0","0","0","nYHH2","Scenes","","null","","","null","","","","","","","","","","","","","","","","","","","","","","","","","","","","","","","","","","","","","","","","","","","",""
"","see_reward","","html-keyboard-response","276","908130","0.0-245.0","0","0","nYHH2","Scenes","","592","","","32","","145","","30","","","","-1","","","","","2","","","","","0","592","","","","","","","","","","","","","","","","","","","","","","","","",""
"","reward_outcome","","html-keyboard-response","277","910137","0.0-246.0","0","0","nYHH2","Scenes","","519","","","40","","145","","30","","","","","","","","","","","","","","","","-1","519","","","","","","","","","","","","","","","","","","","","","","",""
"","fixation","","html-keyboard-response","278","911155","0.0-249.0","0","0","nYHH2","Scenes","","null","","","null","","","","","","","","","","","","","","","","","","","","","","","","","","","","","","","","","","","","","","","","","","","",""
"","see_reward","","html-keyboard-response","279","911586","0.0-250.0","0","0","nYHH2","Scenes","","429","","","32","","144","","31","","","","-1","","","","","2","","","","","0","429","","","","","","","","","","","","","","","","","","","","","","","","",""
"","reward_outcome","","html-keyboard-response","280","913594","0.0-251.0","0","0","nYHH2","Scenes","","598","","","40","","144","","31","","","","","","","","","","","","","","","","-1","598","","","","","","","","","","","","","","","","","","","","","","",""
"","fixation","","html-keyboard-response","281","914599","0.0-254.0","0","0","nYHH2","Scenes","","null","","","null","","","","","","","","","","","","","","","","","","","","","","","","","","","","","","","","","","","","","","","","","","","",""
"","see_reward","","html-keyboard-response","282","915291","0.0-255.0","0","0","nYHH2","Scenes","","690","","","32","","144","","32","","","","-1","","","","","2","","","","","0","690","","","","","","","","","","","","","","","","","","","","","","","","",""
"","reward_outcome","","html-keyboard-response","283","917296","0.0-256.0","0","0","nYHH2","Scenes","","535","","","40","","144","","32","","","","","","","","","","","","","","","","-1","535","","","","","","","","","","","","","","","","","","","","","","",""
"","fixation","","html-keyboard-response","284","918313","0.0-259.0","0","0","nYHH2","Scenes","","null","","","null","","","","","","","","","","","","","","","","","","","","","","","","","","","","","","","","","","","","","","","","","","","",""
"","see_reward","","html-keyboard-response","285","918787","0.0-260.0","0","0","nYHH2","Scenes","","472","","","32","","103","","33","","","","1","","","","","2","","","","","156","472","","","","","","","","","","","","","","","","","","","","","","","","",""
"","reward_outcome","","html-keyboard-response","286","920805","0.0-261.0","0","0","nYHH2","Scenes","","854","","","38","","103","","33","","","","","","","","","","","","","","","","1","854","","","","","","","","","","","","","","","","","","","","","","",""
"","fixation","","html-keyboard-response","287","921816","0.0-264.0","0","0","nYHH2","Scenes","","null","","","null","","","","","","","","","","","","","","","","","","","","","","","","","","","","","","","","","","","","","","","","","","","",""
"","see_reward","","html-keyboard-response","288","922163","0.0-265.0","0","0","nYHH2","Scenes","","346","","","32","","137","","34","","","","-1","","","","","2","","","","","0","346","","","","","","","","","","","","","","","","","","","","","","","","",""
"","reward_outcome","","html-keyboard-response","289","924168","0.0-266.0","0","0","nYHH2","Scenes","","847","","","40","","137","","34","","","","","","","","","","","","","","","","-1","847","","","","","","","","","","","","","","","","","","","","","","",""
"","fixation","","html-keyboard-response","290","925172","0.0-269.0","0","0","nYHH2","Scenes","","null","","","null","","","","","","","","","","","","","","","","","","","","","","","","","","","","","","","","","","","","","","","","","","","",""
"","see_reward","","html-keyboard-response","291","925756","0.0-270.0","0","0","nYHH2","Scenes","","582","","","32","","124","","35","","","","-1","","","","","2","","","","","0","582","","","","","","","","","","","","","","","","","","","","","","","","",""
"","reward_outcome","","html-keyboard-response","292","927771","0.0-271.0","0","0","nYHH2","Scenes","","814","","","40","","124","","35","","","","","","","","","","","","","","","","-1","814","","","","","","","","","","","","","","","","","","","","","","",""
"","fixation","","html-keyboard-response","293","928778","0.0-274.0","0","0","nYHH2","Scenes","","null","","","null","","","","","","","","","","","","","","","","","","","","","","","","","","","","","","","","","","","","","","","","","","","",""
"","see_reward","","html-keyboard-response","294","929164","0.0-275.0","0","0","nYHH2","Scenes","","385","","","32","","121","","36","","","","1","","","","","2","","","","","147","385","","","","","","","","","","","","","","","","","","","","","","","","",""
"","reward_outcome","","html-keyboard-response","295","931189","0.0-276.0","0","0","nYHH2","Scenes","","711","","","38","","121","","36","","","","","","","","","","","","","","","","1","711","","","","","","","","","","","","","","","","","","","","","","",""
"","fixation","","html-keyboard-response","296","932203","0.0-279.0","0","0","nYHH2","Scenes","","null","","","null","","","","","","","","","","","","","","","","","","","","","","","","","","","","","","","","","","","","","","","","","","","",""
"","see_reward","","html-keyboard-response","297","932501","0.0-280.0","0","0","nYHH2","Scenes","","296","","","32","","112","","37","","","","1","","","","","2","","","","","142","296","","","","","","","","","","","","","","","","","","","","","","","","",""
"","reward_outcome","","html-keyboard-response","298","934516","0.0-281.0","0","0","nYHH2","Scenes","","639","","","38","","112","","37","","","","","","","","","","","","","","","","1","639","","","","","","","","","","","","","","","","","","","","","","",""
"","fixation","","html-keyboard-response","299","935528","0.0-284.0","0","0","nYHH2","Scenes","","null","","","null","","","","","","","","","","","","","","","","","","","","","","","","","","","","","","","","","","","","","","","","","","","",""
"","see_reward","","html-keyboard-response","300","935989","0.0-285.0","0","0","nYHH2","Scenes","","459","","","32","","140","","38","","","","1","","","","","2","","","","","158","459","","","","","","","","","","","","","","","","","","","","","","","","",""
"","reward_outcome","","html-keyboard-response","301","938001","0.0-286.0","0","0","nYHH2","Scenes","","847","","","38","","140","","38","","","","","","","","","","","","","","","","1","847","","","","","","","","","","","","","","","","","","","","","","",""
"","fixation","","html-keyboard-response","302","939008","0.0-289.0","0","0","nYHH2","Scenes","","null","","","null","","","","","","","","","","","","","","","","","","","","","","","","","","","","","","","","","","","","","","","","","","","",""
"","see_reward","","html-keyboard-response","303","939358","0.0-290.0","0","0","nYHH2","Scenes","","349","","","32","","113","","39","","","","1","","","","","2","","","","","150","349","","","","","","","","","","","","","","","","","","","","","","","","",""
"","reward_outcome","","html-keyboard-response","304","941380","0.0-291.0","0","0","nYHH2","Scenes","","615","","","38","","113","","39","","","","","","","","","","","","","","","","1","615","","","","","","","","","","","","","","","","","","","","","","",""
"","fixation","","html-keyboard-response","305","942387","0.0-294.0","0","0","nYHH2","Scenes","","null","","","null","","","","","","","","","","","","","","","","","","","","","","","","","","","","","","","","","","","","","","","","","","","",""
"","see_reward","","html-keyboard-response","306","942678","0.0-295.0","0","0","nYHH2","Scenes","","290","","","32","","145","","40","","","","-1","","","","","2","","","","","0","290","","","","","","","","","","","","","","","","","","","","","","","","",""
"","reward_outcome","","html-keyboard-response","307","944699","0.0-296.0","0","0","nYHH2","Scenes","","622","","","40","","145","","40","","","","","","","","","","","","","","","","-1","622","","","","","","","","","","","","","","","","","","","","","","",""
"","fixation","","html-keyboard-response","308","945707","0.0-299.0","0","0","nYHH2","Scenes","","null","","","null","","","","","","","","","","","","","","","","","","","","","","","","","","","","","","","","","","","","","","","","","","","",""
"","see_reward","","html-keyboard-response","309","946039","0.0-300.0","0","0","nYHH2","Scenes","","330","","","32","","116","","41","","","","1","","","","","2","","","","","141","330","","","","","","","","","","","","","","","","","","","","","","","","",""
"","reward_outcome","","html-keyboard-response","310","948048","0.0-301.0","0","0","nYHH2","Scenes","","559","","","38","","116","","41","","","","","","","","","","","","","","","","1","559","","","","","","","","","","","","","","","","","","","","","","",""
"","fixation","","html-keyboard-response","311","949068","0.0-304.0","0","0","nYHH2","Scenes","","null","","","null","","","","","","","","","","","","","","","","","","","","","","","","","","","","","","","","","","","","","","","","","","","",""
"","see_reward","","html-keyboard-response","312","949407","0.0-305.0","0","0","nYHH2","Scenes","","337","","","32","","116","","42","","","","1","","","","","2","","","","","141","337","","","","","","","","","","","","","","","","","","","","","","","","",""
"","reward_outcome","","html-keyboard-response","313","951419","0.0-306.0","0","0","nYHH2","Scenes","","511","","","38","","116","","42","","","","","","","","","","","","","","","","1","511","","","","","","","","","","","","","","","","","","","","","","",""
"","fixation","","html-keyboard-response","314","952435","0.0-309.0","0","0","nYHH2","Scenes","","null","","","null","","","","","","","","","","","","","","","","","","","","","","","","","","","","","","","","","","","","","","","","","","","",""
"","see_reward","","html-keyboard-response","315","952895","0.0-310.0","0","0","nYHH2","Scenes","","458","","","32","","113","","43","","","","1","","","","","2","","","","","150","458","","","","","","","","","","","","","","","","","","","","","","","","",""
"","reward_outcome","","html-keyboard-response","316","954913","0.0-311.0","0","0","nYHH2","Scenes","","518","","","38","","113","","43","","","","","","","","","","","","","","","","1","518","","","","","","","","","","","","","","","","","","","","","","",""
"","fixation","","html-keyboard-response","317","955932","0.0-314.0","0","0","nYHH2","Scenes","","null","","","null","","","","","","","","","","","","","","","","","","","","","","","","","","","","","","","","","","","","","","","","","","","",""
"","see_reward","","html-keyboard-response","318","956488","0.0-315.0","0","0","nYHH2","Scenes","","554","","","32","","140","","44","","","","1","","","","","2","","","","","158","554","","","","","","","","","","","","","","","","","","","","","","","","",""
"","reward_outcome","","html-keyboard-response","319","958499","0.0-316.0","0","0","nYHH2","Scenes","","647","","","38","","140","","44","","","","","","","","","","","","","","","","1","647","","","","","","","","","","","","","","","","","","","","","","",""
"","fixation","","html-keyboard-response","320","959516","0.0-319.0","0","0","nYHH2","Scenes","","null","","","null","","","","","","","","","","","","","","","","","","","","","","","","","","","","","","","","","","","","","","","","","","","",""
"","see_reward","","html-keyboard-response","321","959960","0.0-320.0","0","0","nYHH2","Scenes","","443","","","32","","124","","45","","","","-1","","","","","2","","","","","0","443","","","","","","","","","","","","","","","","","","","","","","","","",""
"","reward_outcome","","html-keyboard-response","322","961973","0.0-321.0","0","0","nYHH2","Scenes","","735","","","40","","124","","45","","","","","","","","","","","","","","","","-1","735","","","","","","","","","","","","","","","","","","","","","","",""
"","fixation","","html-keyboard-response","323","962992","0.0-324.0","0","0","nYHH2","Scenes","","null","","","null","","","","","","","","","","","","","","","","","","","","","","","","","","","","","","","","","","","","","","","","","","","",""
"","see_reward","","html-keyboard-response","324","963377","0.0-325.0","0","0","nYHH2","Scenes","","384","","","32","","121","","46","","","","1","","","","","2","","","","","147","384","","","","","","","","","","","","","","","","","","","","","","","","",""
"","reward_outcome","","html-keyboard-response","325","965383","0.0-326.0","0","0","nYHH2","Scenes","","678","","","38","","121","","46","","","","","","","","","","","","","","","","1","678","","","","","","","","","","","","","","","","","","","","","","",""
"","fixation","","html-keyboard-response","326","966392","0.0-329.0","0","0","nYHH2","Scenes","","null","","","null","","","","","","","","","","","","","","","","","","","","","","","","","","","","","","","","","","","","","","","","","","","",""
"","see_reward","","html-keyboard-response","327","966898","0.0-330.0","0","0","nYHH2","Scenes","","505","","","32","","137","","47","","","","-1","","","","","2","","","","","0","505","","","","","","","","","","","","","","","","","","","","","","","","",""
"","reward_outcome","","html-keyboard-response","328","968909","0.0-331.0","0","0","nYHH2","Scenes","","710","","","40","","137","","47","","","","","","","","","","","","","","","","-1","710","","","","","","","","","","","","","","","","","","","","","","",""
"","block_over","","html-keyboard-response","329","970482","0.0-333.0-0.0","0","0","nYHH2","Scenes","","1572","","","78","","","","","","","","","","","","","","","","","","","","","","","","","","","","","","","","","","","","","","","","","","","",""
"","fixation","","html-keyboard-response","330","971497","0.0-334.0","0","0","nYHH2","Scenes","","null","","","null","","","","","","","","","","","","","","","","","","","","","","","","","","","","","","","","","","","","","","","","","","","",""
"","see_reward","","html-keyboard-response","331","971819","0.0-335.0","0","0","nYHH2","Scenes","","320","","","32","","144","","48","","","","-1","","","","","3","","","","","0","320","","","","","","","","","","","","","","","","","","","","","","","","",""
"","reward_outcome","","html-keyboard-response","332","973838","0.0-336.0","0","0","nYHH2","Scenes","","703","","","40","","144","","48","","","","","","","","","","","","","","","","-1","703","","","","","","","","","","","","","","","","","","","","","","",""
"","fixation","","html-keyboard-response","333","974856","0.0-339.0","0","0","nYHH2","Scenes","","null","","","null","","","","","","","","","","","","","","","","","","","","","","","","","","","","","","","","","","","","","","","","","","","",""
"","see_reward","","html-keyboard-response","334","975299","0.0-340.0","0","0","nYHH2","Scenes","","441","","","32","","121","","49","","","","1","","","","","3","","","","","147","441","","","","","","","","","","","","","","","","","","","","","","","","",""
"","reward_outcome","","html-keyboard-response","335","977303","0.0-341.0","0","0","nYHH2","Scenes","","679","","","38","","121","","49","","","","","","","","","","","","","","","","1","679","","","","","","","","","","","","","","","","","","","","","","",""
"","fixation","","html-keyboard-response","336","978323","0.0-344.0","0","0","nYHH2","Scenes","","null","","","null","","","","","","","","","","","","","","","","","","","","","","","","","","","","","","","","","","","","","","","","","","","",""
"","see_reward","","html-keyboard-response","337","978700","0.0-345.0","0","0","nYHH2","Scenes","","375","","","32","","116","","50","","","","1","","","","","3","","","","","141","375","","","","","","","","","","","","","","","","","","","","","","","","",""
"","reward_outcome","","html-keyboard-response","338","980712","0.0-346.0","0","0","nYHH2","Scenes","","575","","","38","","116","","50","","","","","","","","","","","","","","","","1","575","","","","","","","","","","","","","","","","","","","","","","",""
"","fixation","","html-keyboard-response","339","981729","0.0-349.0","0","0","nYHH2","Scenes","","null","","","null","","","","","","","","","","","","","","","","","","","","","","","","","","","","","","","","","","","","","","","","","","","",""
"","see_reward","","html-keyboard-response","340","982212","0.0-350.0","0","0","nYHH2","Scenes","","481","","","32","","145","","51","","","","-1","","","","","3","","","","","0","481","","","","","","","","","","","","","","","","","","","","","","","","",""
"","reward_outcome","","html-keyboard-response","341","984228","0.0-351.0","0","0","nYHH2","Scenes","","623","","","40","","145","","51","","","","","","","","","","","","","","","","-1","623","","","","","","","","","","","","","","","","","","","","","","",""
"","fixation","","html-keyboard-response","342","985233","0.0-354.0","0","0","nYHH2","Scenes","","null","","","null","","","","","","","","","","","","","","","","","","","","","","","","","","","","","","","","","","","","","","","","","","","",""
"","see_reward","","html-keyboard-response","343","985780","0.0-355.0","0","0","nYHH2","Scenes","","546","","","32","","137","","52","","","","-1","","","","","3","","","","","0","546","","","","","","","","","","","","","","","","","","","","","","","","",""
"","reward_outcome","","html-keyboard-response","344","987785","0.0-356.0","0","0","nYHH2","Scenes","","655","","","40","","137","","52","","","","","","","","","","","","","","","","-1","655","","","","","","","","","","","","","","","","","","","","","","",""
"","fixation","","html-keyboard-response","345","988806","0.0-359.0","0","0","nYHH2","Scenes","","null","","","null","","","","","","","","","","","","","","","","","","","","","","","","","","","","","","","","","","","","","","","","","","","",""
"","see_reward","","html-keyboard-response","346","989429","0.0-360.0","0","0","nYHH2","Scenes","","622","","","32","","112","","53","","","","1","","","","","3","","","","","142","622","","","","","","","","","","","","","","","","","","","","","","","","",""
"","reward_outcome","","html-keyboard-response","347","991452","0.0-361.0","0","0","nYHH2","Scenes","","382","","","38","","112","","53","","","","","","","","","","","","","","","","1","382","","","","","","","","","","","","","","","","","","","","","","",""
"","fixation","","html-keyboard-response","348","992459","0.0-364.0","0","0","nYHH2","Scenes","","null","","","null","","","","","","","","","","","","","","","","","","","","","","","","","","","","","","","","","","","","","","","","","","","",""
"","see_reward","","html-keyboard-response","349","992965","0.0-365.0","0","0","nYHH2","Scenes","","504","","","32","","145","","54","","","","-1","","","","","3","","","","","0","504","","","","","","","","","","","","","","","","","","","","","","","","",""
"","reward_outcome","","html-keyboard-response","350","994979","0.0-366.0","0","0","nYHH2","Scenes","","934","","","40","","145","","54","","","","","","","","","","","","","","","","-1","934","","","","","","","","","","","","","","","","","","","","","","",""
"","fixation","","html-keyboard-response","351","995996","0.0-369.0","0","0","nYHH2","Scenes","","null","","","null","","","","","","","","","","","","","","","","","","","","","","","","","","","","","","","","","","","","","","","","","","","",""
"","see_reward","","html-keyboard-response","352","996462","0.0-370.0","0","0","nYHH2","Scenes","","464","","","32","","113","","55","","","","1","","","","","3","","","","","150","464","","","","","","","","","","","","","","","","","","","","","","","","",""
"","reward_outcome","","html-keyboard-response","353","998481","0.0-371.0","0","0","nYHH2","Scenes","","622","","","38","","113","","55","","","","","","","","","","","","","","","","1","622","","","","","","","","","","","","","","","","","","","","","","",""
