"success","ttype","start_time","trial_type","trial_index","time_elapsed","internal_node_id","warning","missed_checkup","PID","stim_type","view_history","rt","responses","repeat_instructions","key_press","response","stimulus_id","painting","index","stimulus_left","stimulus_right","explain_trial","reward_type","rating_left","rating_right","painting_left","painting_right","block","left_chosen","chosen_obj","unchosen_obj","explain_response","reward_amount","see_reward_rt","register_reward_response","register_reward_rt","deliberation_reward_tally","stimulus_left_deliberation_ind","stimulus_right_deliberation_ind","chosen_trial","gain_left","higher_outcome_chosen","old_pair","chosen_object","rt_pairs","left_object_chosen","rt_object","old_response","new_rating","deliberated_stim","initial_rating","outcome_eval_rt","outcome_eval_response","outcome_eval_gain","outcome_eval_acc","preamble","outcome_eval_confidence","outcome_eval_confidence_rt","total_reward_tally"
"true","full_screen","d01192023hr2205","fullscreen","0","38622","0.0-0.0","0","0","A616I","Scenes","","","","","","","","","","","","","","","","","","","","","","","","","","","","","","","","","","","","","","","","","","","","","","","","",""
"","rating_instructions","","instructions","1","51299","0.0-1.0-0.0","0","0","A616I","Scenes","[{""page_index"":0,""viewing_time"":10569},{""page_index"":1,""viewing_time"":2092}]","12662","","","","","","","","","","","","","","","","","","","","","","","","","","","","","","","","","","","","","","","","","","","","","","",""
"","rating_comprehension_check","","survey-multi-choice","2","57538","0.0-1.0-1.0","0","0","A616I","Scenes","","6225","{""Q0"":""True"",""Q1"":""Mouse""}","0","","","","","","","","","","","","","","","","","","","","","","","","","","","","","","","","","","","","","","","","","","","","",""
"","start_phase","","html-keyboard-response","3","59222","0.0-2.0","0","0","A616I","Scenes","","1671","","","78","","","","","","","","","","","","","","","","","","","","","","","","","","","","","","","","","","","","","","","","","","","",""
"","rating","","html-slider-response","4","61696","0.0-3.0","0","0","A616I","Scenes","","2460","","","","89","127","kace-rodriguez-p3OzJuT_Dks-unsplash.jpg","0","","","","","","","","","","","","","","","","","","","","","","","","","","","","","","","","","","","","","","","",""
"","rating","","html-slider-response","5","63553","0.0-4.0","0","0","A616I","Scenes","","1846","","","","80","128","karsten-wurth-jS0zC2PJ17A-unsplash.jpg","1","","","","","","","","","","","","","","","","","","","","","","","","","","","","","","","","","","","","","","","",""
"","rating","","html-slider-response","6","66575","0.0-5.0","0","0","A616I","Scenes","","3007","","","","75","143","sigurdur-fjalar-jonsson-1KxBabIntpE-unsplash.jpg","2","","","","","","","","","","","","","","","","","","","","","","","","","","","","","","","","","","","","","","","",""
"","rating","","html-slider-response","7","68512","0.0-6.0","0","0","A616I","Scenes","","1924","","","","18","122","jeff-king-bJHWJeiHfHc-unsplash.jpg","3","","","","","","","","","","","","","","","","","","","","","","","","","","","","","","","","","","","","","","","",""
"","rating","","html-slider-response","8","70266","0.0-7.0","0","0","A616I","Scenes","","1745","","","","71","130","lina-loos-04-C1NZk1hE-unsplash.jpg","4","","","","","","","","","","","","","","","","","","","","","","","","","","","","","","","","","","","","","","","",""
"","rating","","html-slider-response","9","72803","0.0-8.0","0","0","A616I","Scenes","","2526","","","","38","103","anton-darius-FBJugtbHsWU-unsplash.jpg","5","","","","","","","","","","","","","","","","","","","","","","","","","","","","","","","","","","","","","","","",""
"","rating","","html-slider-response","10","74511","0.0-9.0","0","0","A616I","Scenes","","1694","","","","66","132","meng-ji-8BH_M-53CyA-unsplash.jpg","6","","","","","","","","","","","","","","","","","","","","","","","","","","","","","","","","","","","","","","","",""
"","rating","","html-slider-response","11","76477","0.0-10.0","0","0","A616I","Scenes","","1953","","","","62","139","samsommer-vddccTqwal8-unsplash.jpg","7","","","","","","","","","","","","","","","","","","","","","","","","","","","","","","","","","","","","","","","",""
"","rating","","html-slider-response","12","78316","0.0-11.0","0","0","A616I","Scenes","","1828","","","","83","114","daniel-sessler-z_9VmsxR8hs-unsplash.jpg","8","","","","","","","","","","","","","","","","","","","","","","","","","","","","","","","","","","","","","","","",""
"","rating","","html-slider-response","13","81412","0.0-12.0","0","0","A616I","Scenes","","3086","","","","56","101","aniket-deole-T-tOgjWZ0fQ-unsplash.jpg","9","","","","","","","","","","","","","","","","","","","","","","","","","","","","","","","","","","","","","","","",""
"","rating","","html-slider-response","14","85700","0.0-13.0","0","0","A616I","Scenes","","4275","","","","31","136","nicolas-jehly-LzVB84KkZOE-unsplash.jpg","10","","","","","","","","","","","","","","","","","","","","","","","","","","","","","","","","","","","","","","","",""
"","rating","","html-slider-response","15","88642","0.0-14.0","0","0","A616I","Scenes","","2931","","","","51","144","solotravelgoals-7kLufxYoqWk-unsplash.jpg","11","","","","","","","","","","","","","","","","","","","","","","","","","","","","","","","","","","","","","","","",""
"","rating","","html-slider-response","16","90694","0.0-15.0","0","0","A616I","Scenes","","2042","","","","45","146","thomas-morse-cuKKa0vWZSY-unsplash.jpg","12","","","","","","","","","","","","","","","","","","","","","","","","","","","","","","","","","","","","","","","",""
"","rating","","html-slider-response","17","92592","0.0-16.0","0","0","A616I","Scenes","","1887","","","","46","129","kurt-cotoaga-cqbLg3lZEpk-unsplash.jpg","13","","","","","","","","","","","","","","","","","","","","","","","","","","","","","","","","","","","","","","","",""
"","rating","","html-slider-response","18","97590","0.0-17.0","0","0","A616I","Scenes","","4986","","","","38","102","anisur-rahman-K2b7UDed6uQ-unsplash.jpg","14","","","","","","","","","","","","","","","","","","","","","","","","","","","","","","","","","","","","","","","",""
"","rating","","html-slider-response","19","99966","0.0-18.0","0","0","A616I","Scenes","","2365","","","","71","120","jarrett-kow-1ZOyYPOBn7I-unsplash.jpg","15","","","","","","","","","","","","","","","","","","","","","","","","","","","","","","","","","","","","","","","",""
"","rating","","html-slider-response","20","101824","0.0-19.0","0","0","A616I","Scenes","","1849","","","","67","104","artem-sapegin-XGDBdSQ70O0-unsplash.jpg","16","","","","","","","","","","","","","","","","","","","","","","","","","","","","","","","","","","","","","","","",""
"","rating","","html-slider-response","21","103776","0.0-20.0","0","0","A616I","Scenes","","1939","","","","18","113","damian-denis-D8R_txR_0PE-unsplash.jpg","17","","","","","","","","","","","","","","","","","","","","","","","","","","","","","","","","","","","","","","","",""
"","rating","","html-slider-response","22","105846","0.0-21.0","0","0","A616I","Scenes","","2059","","","","23","118","henry-be-NLF6hTe4PAg-unsplash.jpg","18","","","","","","","","","","","","","","","","","","","","","","","","","","","","","","","","","","","","","","","",""
"","rating","","html-slider-response","23","107778","0.0-22.0","0","0","A616I","Scenes","","1921","","","","22","135","mohammad-alizade-4wzRuAb-KWs-unsplash.jpg","19","","","","","","","","","","","","","","","","","","","","","","","","","","","","","","","","","","","","","","","",""
"","rating","","html-slider-response","24","109619","0.0-23.0","0","0","A616I","Scenes","","1828","","","","24","111","claudio-testa-U3F2o6vz3bs-unsplash.jpg","20","","","","","","","","","","","","","","","","","","","","","","","","","","","","","","","","","","","","","","","",""
"","rating","","html-slider-response","25","112132","0.0-24.0","0","0","A616I","Scenes","","2500","","","","78","145","stephen-leonardi-gyIRjKPXupE-unsplash.jpg","21","","","","","","","","","","","","","","","","","","","","","","","","","","","","","","","","","","","","","","","",""
"","rating","","html-slider-response","26","114060","0.0-25.0","0","0","A616I","Scenes","","1916","","","","15","149","yuriy-bogdanov-W51VK3Obcj0-unsplash.jpg","22","","","","","","","","","","","","","","","","","","","","","","","","","","","","","","","","","","","","","","","",""
"","rating","","html-slider-response","27","117378","0.0-26.0","0","0","A616I","Scenes","","3304","","","","100","134","milada-vigerova-pQMM63GE7fo-unsplash.jpg","23","","","","","","","","","","","","","","","","","","","","","","","","","","","","","","","","","","","","","","","",""
"","rating","","html-slider-response","28","119478","0.0-27.0","0","0","A616I","Scenes","","2085","","","","77","125","john-lee-oMneOBYhJxY-unsplash.jpg","24","","","","","","","","","","","","","","","","","","","","","","","","","","","","","","","","","","","","","","","",""
"","rating","","html-slider-response","29","121114","0.0-28.0","0","0","A616I","Scenes","","1625","","","","71","148","tom-gainor-ZqLeQDjY6fY-unsplash.jpg","25","","","","","","","","","","","","","","","","","","","","","","","","","","","","","","","","","","","","","","","",""
"","rating","","html-slider-response","30","122933","0.0-29.0","0","0","A616I","Scenes","","1803","","","","61","147","tobias-keller-73F4pKoUkM0-unsplash.jpg","26","","","","","","","","","","","","","","","","","","","","","","","","","","","","","","","","","","","","","","","",""
"","rating","","html-slider-response","31","125481","0.0-30.0","0","0","A616I","Scenes","","2537","","","","80","112","cosmic-timetraveler-pYyOZ8q7AII-unsplash.jpg","27","","","","","","","","","","","","","","","","","","","","","","","","","","","","","","","","","","","","","","","",""
"","rating","","html-slider-response","32","127183","0.0-31.0","0","0","A616I","Scenes","","1693","","","","55","100","aleksandra-boguslawska-MS7KD9Ti7FQ-unsplash.jpg","28","","","","","","","","","","","","","","","","","","","","","","","","","","","","","","","","","","","","","","","",""
"","rating","","html-slider-response","33","129036","0.0-32.0","0","0","A616I","Scenes","","1840","","","","63","124","johannes-plenio-sPt5RIjKfpk-unsplash.jpg","29","","","","","","","","","","","","","","","","","","","","","","","","","","","","","","","","","","","","","","","",""
"","rating","","html-slider-response","34","130817","0.0-33.0","0","0","A616I","Scenes","","1770","","","","75","140","samuele-errico-piccarini-JEBqFu2AOOA-unsplash.jpg","30","","","","","","","","","","","","","","","","","","","","","","","","","","","","","","","","","","","","","","","",""
"","rating","","html-slider-response","35","132265","0.0-34.0","0","0","A616I","Scenes","","1438","","","","72","121","jean-pierre-brungs-qxCqkbF7tUc-unsplash.jpg","31","","","","","","","","","","","","","","","","","","","","","","","","","","","","","","","","","","","","","","","",""
"","rating","","html-slider-response","36","134220","0.0-35.0","0","0","A616I","Scenes","","1946","","","","68","141","sebastian-unrau-v4e3JI7DDHI-unsplash.jpg","32","","","","","","","","","","","","","","","","","","","","","","","","","","","","","","","","","","","","","","","",""
"","rating","","html-slider-response","37","135895","0.0-36.0","0","0","A616I","Scenes","","1661","","","","18","105","ashim-d-silva-S2Q5mdOrrVc-unsplash.jpg","33","","","","","","","","","","","","","","","","","","","","","","","","","","","","","","","","","","","","","","","",""
"","rating","","html-slider-response","38","137817","0.0-37.0","0","0","A616I","Scenes","","1909","","","","72","115","darrell-cassell-hoCXpPUMCoE-unsplash.jpg","34","","","","","","","","","","","","","","","","","","","","","","","","","","","","","","","","","","","","","","","",""
"","rating","","html-slider-response","39","139870","0.0-38.0","0","0","A616I","Scenes","","2038","","","","85","123","joel-jasmin-forestbird-efuwb5eBDrI-unsplash.jpg","35","","","","","","","","","","","","","","","","","","","","","","","","","","","","","","","","","","","","","","","",""
"","rating","","html-slider-response","40","141747","0.0-39.0","0","0","A616I","Scenes","","1862","","","","60","138","petr-vysohlid-9fqwGqGLUxc-unsplash.jpg","36","","","","","","","","","","","","","","","","","","","","","","","","","","","","","","","","","","","","","","","",""
"","rating","","html-slider-response","41","143934","0.0-40.0","0","0","A616I","Scenes","","2173","","","","20","126","jordan-mcqueen-PJCZOWuOxbU-unsplash.jpg","37","","","","","","","","","","","","","","","","","","","","","","","","","","","","","","","","","","","","","","","",""
"","rating","","html-slider-response","42","145936","0.0-41.0","0","0","A616I","Scenes","","1990","","","","51","131","luca-bravo-hFzIoD0F_i8-unsplash.jpg","38","","","","","","","","","","","","","","","","","","","","","","","","","","","","","","","","","","","","","","","",""
"","rating","","html-slider-response","43","147696","0.0-42.0","0","0","A616I","Scenes","","1748","","","","41","142","sergey-pesterev-y-b_FOmJXdg-unsplash.jpg","39","","","","","","","","","","","","","","","","","","","","","","","","","","","","","","","","","","","","","","","",""
"","rating","","html-slider-response","44","149615","0.0-43.0","0","0","A616I","Scenes","","1905","","","","31","116","david-marcu-W5MhJ6cy1So-unsplash.jpg","40","","","","","","","","","","","","","","","","","","","","","","","","","","","","","","","","","","","","","","","",""
"","rating","","html-slider-response","45","151419","0.0-44.0","0","0","A616I","Scenes","","1791","","","","27","107","benjamin-davies-Zm2n2O7Fph4-unsplash.jpg","41","","","","","","","","","","","","","","","","","","","","","","","","","","","","","","","","","","","","","","","",""
"","rating","","html-slider-response","46","154781","0.0-45.0","0","0","A616I","Scenes","","3349","","","","13","106","ashim-d-silva-WeYamle9fDM-unsplash.jpg","42","","","","","","","","","","","","","","","","","","","","","","","","","","","","","","","","","","","","","","","",""
"","rating","","html-slider-response","47","156398","0.0-46.0","0","0","A616I","Scenes","","1607","","","","50","117","frank-mckenna-OD9EOzfSOh0-unsplash.jpg","43","","","","","","","","","","","","","","","","","","","","","","","","","","","","","","","","","","","","","","","",""
"","rating","","html-slider-response","48","158392","0.0-47.0","0","0","A616I","Scenes","","1981","","","","25","133","mickey-o-neil-xL66l--msXU-unsplash.jpg","44","","","","","","","","","","","","","","","","","","","","","","","","","","","","","","","","","","","","","","","",""
"","rating","","html-slider-response","49","159972","0.0-48.0","0","0","A616I","Scenes","","1569","","","","77","137","olga-stalska-QaWRyEdlffY-unsplash.jpg","45","","","","","","","","","","","","","","","","","","","","","","","","","","","","","","","","","","","","","","","",""
"","rating","","html-slider-response","50","161508","0.0-49.0","0","0","A616I","Scenes","","1523","","","","64","109","brigitta-schneiter-hXXRLtTxXCU-unsplash.jpg","46","","","","","","","","","","","","","","","","","","","","","","","","","","","","","","","","","","","","","","","",""
"","rating","","html-slider-response","51","163590","0.0-50.0","0","0","A616I","Scenes","","2067","","","","56","108","benjamin-voros-phIFdC6lA4E-unsplash.jpg","47","","","","","","","","","","","","","","","","","","","","","","","","","","","","","","","","","","","","","","","",""
"","rating","","html-slider-response","52","165469","0.0-51.0","0","0","A616I","Scenes","","1865","","","","40","110","bruno-van-der-kraan-qez8mNJ3ilU-unsplash.jpg","48","","","","","","","","","","","","","","","","","","","","","","","","","","","","","","","","","","","","","","","",""
"","rating","","html-slider-response","53","166935","0.0-52.0","0","0","A616I","Scenes","","1448","","","","77","119","james-wheeler-AFC0XvICMgs-unsplash.jpg","49","","","","","","","","","","","","","","","","","","","","","","","","","","","","","","","","","","","","","","","",""
"","deliberation_instructions","","instructions","54","251898","0.0-53.0-0.0","0","0","A616I","Scenes","[{""page_index"":0,""viewing_time"":37040},{""page_index"":1,""viewing_time"":14672},{""page_index"":2,""viewing_time"":8736},{""page_index"":3,""viewing_time"":22899},{""page_index"":4,""viewing_time"":1597}]","84948","","","","","","","","","","","","","","","","","","","","","","","","","","","","","","","","","","","","","","","","","","","","","","",""
"","deliberation_comprehension_check","","survey-multi-choice","55","276731","0.0-53.0-1.0","0","0","A616I","Scenes","","24782","{""Q0"":""True"",""Q1"":""True"",""Q2"":""Consider carefully and take your time (up to 10 seconds)"",""Q3"":""True"",""Q4"":""D""}","0","","","","","","","","","","","","","","","","","","","","","","","","","","","","","","","","","","","","","","","","","","","","",""
"","start_phase","","html-keyboard-response","56","279158","0.0-54.0","0","0","A616I","Scenes","","2414","","","78","","","","","","","","","","","","","","","","","","","","","","","","","","","","","","","","","","","","","","","","","","","",""
"","first_deliberation_block","","html-keyboard-response","57","281069","0.0-55.0","0","0","A616I","Scenes","","1904","","","78","","","","","","","","","","","","","","","","","","","","","","","","","","","","","","","","","","","","","","","","","","","",""
"","fixation","","html-keyboard-response","58","282086","0.0-56.0-0.0","0","0","A616I","Scenes","","null","","","null","","","","","","","","","","","","","","","","","","","","","","","","","","","","","","","","","","","","","","","","","","","",""
"","deliberation","","html-keyboard-response","59","283876","0.0-56.0-1.0","0","0","A616I","Scenes","","1778","","","75","","","","0","103","132","1","-1","38","66","anton-darius-FBJugtbHsWU-unsplash.jpg","meng-ji-8BH_M-53CyA-unsplash.jpg","1","0","132","103","","","","","","","","","","","","","","","","","","","","","","","","","","","",""
"","choice_confirmation","","html-keyboard-response","60","284397","0.0-56.0-2.0-0.0","0","0","A616I","Scenes","","null","","","null","","","","0","103","132","","","","","","","","","","","","","","","","","","","","","","","","","","","","","","","","","","","","","",""
"","explain_trial","","survey-text","61","298930","0.0-56.0-5.0-0.0","0","0","A616I","Scenes","","14517","{""Q0"":""I thought it would get the most money""}","","","","","","0","103","132","","","","","","","","","","","{""Q0"":""I thought it would get the most money""}","","","","","","","","","","","","","","","","","","","","","","","","","","",""
"","fixation","","html-keyboard-response","62","299944","0.0-57.0-0.0","0","0","A616I","Scenes","","null","","","null","","","","","","","","","","","","","","","","","","","","","","","","","","","","","","","","","","","","","","","","","","","",""
"","deliberation","","html-keyboard-response","63","301875","0.0-57.0-1.0","0","0","A616I","Scenes","","1920","","","75","","","","1","104","117","0","1","67","50","artem-sapegin-XGDBdSQ70O0-unsplash.jpg","frank-mckenna-OD9EOzfSOh0-unsplash.jpg","1","0","117","104","","","","","","","","","","","","","","","","","","","","","","","","","","","",""
"","choice_confirmation","","html-keyboard-response","64","302388","0.0-57.0-2.0-0.0","0","0","A616I","Scenes","","null","","","null","","","","1","104","117","","","","","","","","","","","","","","","","","","","","","","","","","","","","","","","","","","","","","",""
"","fixation","","html-keyboard-response","65","303404","0.0-58.0-0.0","0","0","A616I","Scenes","","null","","","null","","","","","","","","","","","","","","","","","","","","","","","","","","","","","","","","","","","","","","","","","","","",""
"","deliberation","","html-keyboard-response","66","305408","0.0-58.0-1.0","0","0","A616I","Scenes","","1997","","","75","","","","2","100","147","0","-1","55","61","aleksandra-boguslawska-MS7KD9Ti7FQ-unsplash.jpg","tobias-keller-73F4pKoUkM0-unsplash.jpg","1","0","147","100","","","","","","","","","","","","","","","","","","","","","","","","","","","",""
"","choice_confirmation","","html-keyboard-response","67","305923","0.0-58.0-2.0-0.0","0","0","A616I","Scenes","","null","","","null","","","","2","100","147","","","","","","","","","","","","","","","","","","","","","","","","","","","","","","","","","","","","","",""
"","fixation","","html-keyboard-response","68","306933","0.0-59.0-0.0","0","0","A616I","Scenes","","null","","","null","","","","","","","","","","","","","","","","","","","","","","","","","","","","","","","","","","","","","","","","","","","",""
"","deliberation","","html-keyboard-response","69","310927","0.0-59.0-1.0","0","0","A616I","Scenes","","3982","","","68","","","","3","108","144","1","1","56","51","benjamin-voros-phIFdC6lA4E-unsplash.jpg","solotravelgoals-7kLufxYoqWk-unsplash.jpg","1","1","108","144","","","","","","","","","","","","","","","","","","","","","","","","","","","",""
"","choice_confirmation","","html-keyboard-response","70","311441","0.0-59.0-2.0-0.0","0","0","A616I","Scenes","","null","","","null","","","","3","108","144","","","","","","","","","","","","","","","","","","","","","","","","","","","","","","","","","","","","","",""
"","explain_trial","","survey-text","71","321814","0.0-59.0-5.0-0.0","0","0","A616I","Scenes","","10363","{""Q0"":""I like the sky in this one.""}","","","","","","3","108","144","","","","","","","","","","","{""Q0"":""I like the sky in this one.""}","","","","","","","","","","","","","","","","","","","","","","","","","","",""
"","fixation","","html-keyboard-response","72","322827","0.0-60.0-0.0","0","0","A616I","Scenes","","null","","","null","","","","","","","","","","","","","","","","","","","","","","","","","","","","","","","","","","","","","","","","","","","",""
"","deliberation","","html-keyboard-response","73","326781","0.0-60.0-1.0","0","0","A616I","Scenes","","3946","","","68","","","","4","130","121","0","1","71","72","lina-loos-04-C1NZk1hE-unsplash.jpg","jean-pierre-brungs-qxCqkbF7tUc-unsplash.jpg","1","1","130","121","","","","","","","","","","","","","","","","","","","","","","","","","","","",""
"","choice_confirmation","","html-keyboard-response","74","327288","0.0-60.0-2.0-0.0","0","0","A616I","Scenes","","null","","","null","","","","4","130","121","","","","","","","","","","","","","","","","","","","","","","","","","","","","","","","","","","","","","",""
"","fixation","","html-keyboard-response","75","328299","0.0-61.0-0.0","0","0","A616I","Scenes","","null","","","null","","","","","","","","","","","","","","","","","","","","","","","","","","","","","","","","","","","","","","","","","","","",""
"","deliberation","","html-keyboard-response","76","331088","0.0-61.0-1.0","0","0","A616I","Scenes","","2781","","","68","","","","5","129","101","0","-1","46","56","kurt-cotoaga-cqbLg3lZEpk-unsplash.jpg","aniket-deole-T-tOgjWZ0fQ-unsplash.jpg","1","1","129","101","","","","","","","","","","","","","","","","","","","","","","","","","","","",""
"","choice_confirmation","","html-keyboard-response","77","331604","0.0-61.0-2.0-0.0","0","0","A616I","Scenes","","null","","","null","","","","5","129","101","","","","","","","","","","","","","","","","","","","","","","","","","","","","","","","","","","","","","",""
"","fixation","","html-keyboard-response","78","332617","0.0-62.0-0.0","0","0","A616I","Scenes","","null","","","null","","","","","","","","","","","","","","","","","","","","","","","","","","","","","","","","","","","","","","","","","","","",""
"","deliberation","","html-keyboard-response","79","335026","0.0-62.0-1.0","0","0","A616I","Scenes","","2401","","","75","","","","6","141","109","1","-1","68","64","sebastian-unrau-v4e3JI7DDHI-unsplash.jpg","brigitta-schneiter-hXXRLtTxXCU-unsplash.jpg","1","0","109","141","","","","","","","","","","","","","","","","","","","","","","","","","","","",""
"","choice_confirmation","","html-keyboard-response","80","335540","0.0-62.0-2.0-0.0","0","0","A616I","Scenes","","null","","","null","","","","6","141","109","","","","","","","","","","","","","","","","","","","","","","","","","","","","","","","","","","","","","",""
"","explain_trial","","survey-text","81","341964","0.0-62.0-5.0-0.0","0","0","A616I","Scenes","","6413","{""Q0"":""The colors are really good""}","","","","","","6","141","109","","","","","","","","","","","{""Q0"":""The colors are really good""}","","","","","","","","","","","","","","","","","","","","","","","","","","",""
"","fixation","","html-keyboard-response","82","342980","0.0-63.0-0.0","0","0","A616I","Scenes","","null","","","null","","","","","","","","","","","","","","","","","","","","","","","","","","","","","","","","","","","","","","","","","","","",""
"","deliberation","","html-keyboard-response","83","346735","0.0-63.0-1.0","0","0","A616I","Scenes","","3743","","","68","","","","7","110","138","1","-1","40","60","bruno-van-der-kraan-qez8mNJ3ilU-unsplash.jpg","petr-vysohlid-9fqwGqGLUxc-unsplash.jpg","1","1","110","138","","","","","","","","","","","","","","","","","","","","","","","","","","","",""
"","choice_confirmation","","html-keyboard-response","84","347250","0.0-63.0-2.0-0.0","0","0","A616I","Scenes","","null","","","null","","","","7","110","138","","","","","","","","","","","","","","","","","","","","","","","","","","","","","","","","","","","","","",""
"","explain_trial","","survey-text","85","356396","0.0-63.0-5.0-0.0","0","0","A616I","Scenes","","9137","{""Q0"":""I prefer the colors and background""}","","","","","","7","110","138","","","","","","","","","","","{""Q0"":""I prefer the colors and background""}","","","","","","","","","","","","","","","","","","","","","","","","","","",""
"","fixation","","html-keyboard-response","86","357410","0.0-64.0-0.0","0","0","A616I","Scenes","","null","","","null","","","","","","","","","","","","","","","","","","","","","","","","","","","","","","","","","","","","","","","","","","","",""
"","deliberation","","html-keyboard-response","87","361803","0.0-64.0-1.0","0","0","A616I","Scenes","","4385","","","68","","","","8","148","131","0","1","71","51","tom-gainor-ZqLeQDjY6fY-unsplash.jpg","luca-bravo-hFzIoD0F_i8-unsplash.jpg","1","1","148","131","","","","","","","","","","","","","","","","","","","","","","","","","","","",""
"","choice_confirmation","","html-keyboard-response","88","362316","0.0-64.0-2.0-0.0","0","0","A616I","Scenes","","null","","","null","","","","8","148","131","","","","","","","","","","","","","","","","","","","","","","","","","","","","","","","","","","","","","",""
"","fixation","","html-keyboard-response","89","363332","0.0-65.0-0.0","0","0","A616I","Scenes","","null","","","null","","","","","","","","","","","","","","","","","","","","","","","","","","","","","","","","","","","","","","","","","","","",""
"","deliberation","","html-keyboard-response","90","365679","0.0-65.0-1.0","0","0","A616I","Scenes","","2337","","","75","","","","9","139","124","0","-1","62","63","samsommer-vddccTqwal8-unsplash.jpg","johannes-plenio-sPt5RIjKfpk-unsplash.jpg","1","0","124","139","","","","","","","","","","","","","","","","","","","","","","","","","","","",""
"","choice_confirmation","","html-keyboard-response","91","366192","0.0-65.0-2.0-0.0","0","0","A616I","Scenes","","null","","","null","","","","9","139","124","","","","","","","","","","","","","","","","","","","","","","","","","","","","","","","","","","","","","",""
"","fixation","","html-keyboard-response","92","367208","0.0-66.0-0.0","0","0","A616I","Scenes","","null","","","null","","","","","","","","","","","","","","","","","","","","","","","","","","","","","","","","","","","","","","","","","","","",""
"","deliberation","","html-keyboard-response","93","369039","0.0-66.0-1.0","0","0","A616I","Scenes","","1824","","","68","","","","10","120","146","1","1","71","45","jarrett-kow-1ZOyYPOBn7I-unsplash.jpg","thomas-morse-cuKKa0vWZSY-unsplash.jpg","1","1","120","146","","","","","","","","","","","","","","","","","","","","","","","","","","","",""
"","choice_confirmation","","html-keyboard-response","94","369557","0.0-66.0-2.0-0.0","0","0","A616I","Scenes","","null","","","null","","","","10","120","146","","","","","","","","","","","","","","","","","","","","","","","","","","","","","","","","","","","","","",""
"","explain_trial","","survey-text","95","381306","0.0-66.0-5.0-0.0","0","0","A616I","Scenes","","11738","{""Q0"":""The colors are incredible in this one, plus the look of the water""}","","","","","","10","120","146","","","","","","","","","","","{""Q0"":""The colors are incredible in this one, plus the look of the water""}","","","","","","","","","","","","","","","","","","","","","","","","","","",""
"","fixation","","html-keyboard-response","96","382323","0.0-67.0-0.0","0","0","A616I","Scenes","","null","","","null","","","","","","","","","","","","","","","","","","","","","","","","","","","","","","","","","","","","","","","","","","","",""
"","deliberation","","html-keyboard-response","97","384630","0.0-67.0-1.0","0","0","A616I","Scenes","","2299","","","68","","","","11","142","102","1","1","41","38","sergey-pesterev-y-b_FOmJXdg-unsplash.jpg","anisur-rahman-K2b7UDed6uQ-unsplash.jpg","1","1","142","102","","","","","","","","","","","","","","","","","","","","","","","","","","","",""
"","choice_confirmation","","html-keyboard-response","98","385145","0.0-67.0-2.0-0.0","0","0","A616I","Scenes","","null","","","null","","","","11","142","102","","","","","","","","","","","","","","","","","","","","","","","","","","","","","","","","","","","","","",""
"","explain_trial","","survey-text","99","394031","0.0-67.0-5.0-0.0","0","0","A616I","Scenes","","8875","{""Q0"":""It's unique and different from the others.""}","","","","","","11","142","102","","","","","","","","","","","{""Q0"":""It's unique and different from the others.""}","","","","","","","","","","","","","","","","","","","","","","","","","","",""
"","practice_deliberation_again","","html-keyboard-response","100","398065","0.0-67.0-6.0-0.0","0","0","A616I","Scenes","","4027","","","78","","","","","","","","","","","","","","","","","","","","","","","","","","","","","","","","","","","","","","","","","","","",""
"","fixation","","html-keyboard-response","101","399077","0.0-68.0-0.0","0","0","A616I","Scenes","","null","","","null","","","","","","","","","","","","","","","","","","","","","","","","","","","","","","","","","","","","","","","","","","","",""
"","deliberation","","html-keyboard-response","102","407119","0.0-68.0-1.0","0","0","A616I","Scenes","","8033","","","68","","","","12","141","109","0","-1","68","64","sebastian-unrau-v4e3JI7DDHI-unsplash.jpg","brigitta-schneiter-hXXRLtTxXCU-unsplash.jpg","2","1","141","109","","","","","","","","","","","","","","","","","","","","","","","","","","","",""
"","choice_confirmation","","html-keyboard-response","103","407634","0.0-68.0-2.0-0.0","0","0","A616I","Scenes","","null","","","null","","","","12","141","109","","","","","","","","","","","","","","","","","","","","","","","","","","","","","","","","","","","","","",""
"","fixation","","html-keyboard-response","104","408652","0.0-69.0-0.0","0","0","A616I","Scenes","","null","","","null","","","","","","","","","","","","","","","","","","","","","","","","","","","","","","","","","","","","","","","","","","","",""
"","deliberation","","html-keyboard-response","105","413073","0.0-69.0-1.0","0","0","A616I","Scenes","","4415","","","75","","","","13","104","117","1","1","67","50","artem-sapegin-XGDBdSQ70O0-unsplash.jpg","frank-mckenna-OD9EOzfSOh0-unsplash.jpg","2","0","117","104","","","","","","","","","","","","","","","","","","","","","","","","","","","",""
"","choice_confirmation","","html-keyboard-response","106","413591","0.0-69.0-2.0-0.0","0","0","A616I","Scenes","","null","","","null","","","","13","104","117","","","","","","","","","","","","","","","","","","","","","","","","","","","","","","","","","","","","","",""
"","explain_trial","","survey-text","107","427101","0.0-69.0-5.0-0.0","0","0","A616I","Scenes","","13499","{""Q0"":""I like beach photos and I feel they would do better.""}","","","","","","13","104","117","","","","","","","","","","","{""Q0"":""I like beach photos and I feel they would do better.""}","","","","","","","","","","","","","","","","","","","","","","","","","","",""
"","fixation","","html-keyboard-response","108","428114","0.0-70.0-0.0","0","0","A616I","Scenes","","null","","","null","","","","","","","","","","","","","","","","","","","","","","","","","","","","","","","","","","","","","","","","","","","",""
"","deliberation","","html-keyboard-response","109","431009","0.0-70.0-1.0","0","0","A616I","Scenes","","2886","","","75","","","","14","110","138","0","-1","40","60","bruno-van-der-kraan-qez8mNJ3ilU-unsplash.jpg","petr-vysohlid-9fqwGqGLUxc-unsplash.jpg","2","0","138","110","","","","","","","","","","","","","","","","","","","","","","","","","","","",""
"","choice_confirmation","","html-keyboard-response","110","431525","0.0-70.0-2.0-0.0","0","0","A616I","Scenes","","null","","","null","","","","14","110","138","","","","","","","","","","","","","","","","","","","","","","","","","","","","","","","","","","","","","",""
"","fixation","","html-keyboard-response","111","432537","0.0-71.0-0.0","0","0","A616I","Scenes","","null","","","null","","","","","","","","","","","","","","","","","","","","","","","","","","","","","","","","","","","","","","","","","","","",""
"","deliberation","","html-keyboard-response","112","435536","0.0-71.0-1.0","0","0","A616I","Scenes","","2992","","","68","","","","15","120","146","0","1","71","45","jarrett-kow-1ZOyYPOBn7I-unsplash.jpg","thomas-morse-cuKKa0vWZSY-unsplash.jpg","2","1","120","146","","","","","","","","","","","","","","","","","","","","","","","","","","","",""
"","choice_confirmation","","html-keyboard-response","113","436053","0.0-71.0-2.0-0.0","0","0","A616I","Scenes","","null","","","null","","","","15","120","146","","","","","","","","","","","","","","","","","","","","","","","","","","","","","","","","","","","","","",""
"","fixation","","html-keyboard-response","114","437069","0.0-72.0-0.0","0","0","A616I","Scenes","","null","","","null","","","","","","","","","","","","","","","","","","","","","","","","","","","","","","","","","","","","","","","","","","","",""
"","deliberation","","html-keyboard-response","115","441072","0.0-72.0-1.0","0","0","A616I","Scenes","","3994","","","68","","","","16","129","101","1","-1","46","56","kurt-cotoaga-cqbLg3lZEpk-unsplash.jpg","aniket-deole-T-tOgjWZ0fQ-unsplash.jpg","2","1","129","101","","","","","","","","","","","","","","","","","","","","","","","","","","","",""
"","choice_confirmation","","html-keyboard-response","116","441587","0.0-72.0-2.0-0.0","0","0","A616I","Scenes","","null","","","null","","","","16","129","101","","","","","","","","","","","","","","","","","","","","","","","","","","","","","","","","","","","","","",""
"","explain_trial","","survey-text","117","455493","0.0-72.0-5.0-0.0","0","0","A616I","Scenes","","13891","{""Q0"":""The picture is more interesting to look at""}","","","","","","16","129","101","","","","","","","","","","","{""Q0"":""The picture is more interesting to look at""}","","","","","","","","","","","","","","","","","","","","","","","","","","",""
"","fixation","","html-keyboard-response","118","456504","0.0-73.0-0.0","0","0","A616I","Scenes","","null","","","null","","","","","","","","","","","","","","","","","","","","","","","","","","","","","","","","","","","","","","","","","","","",""
"","deliberation","","html-keyboard-response","119","462410","0.0-73.0-1.0","0","0","A616I","Scenes","","5895","","","68","","","","17","148","131","1","1","71","51","tom-gainor-ZqLeQDjY6fY-unsplash.jpg","luca-bravo-hFzIoD0F_i8-unsplash.jpg","2","1","148","131","","","","","","","","","","","","","","","","","","","","","","","","","","","",""
"","choice_confirmation","","html-keyboard-response","120","462921","0.0-73.0-2.0-0.0","0","0","A616I","Scenes","","null","","","null","","","","17","148","131","","","","","","","","","","","","","","","","","","","","","","","","","","","","","","","","","","","","","",""
"","explain_trial","","survey-text","121","469641","0.0-73.0-5.0-0.0","0","0","A616I","Scenes","","6706","{""Q0"":""The colors in this one are really unique""}","","","","","","17","148","131","","","","","","","","","","","{""Q0"":""The colors in this one are really unique""}","","","","","","","","","","","","","","","","","","","","","","","","","","",""
"","fixation","","html-keyboard-response","122","470655","0.0-74.0-0.0","0","0","A616I","Scenes","","null","","","null","","","","","","","","","","","","","","","","","","","","","","","","","","","","","","","","","","","","","","","","","","","",""
"","deliberation","","html-keyboard-response","123","474078","0.0-74.0-1.0","0","0","A616I","Scenes","","3415","","","68","","","","18","130","121","1","1","71","72","lina-loos-04-C1NZk1hE-unsplash.jpg","jean-pierre-brungs-qxCqkbF7tUc-unsplash.jpg","2","1","130","121","","","","","","","","","","","","","","","","","","","","","","","","","","","",""
"","choice_confirmation","","html-keyboard-response","124","474594","0.0-74.0-2.0-0.0","0","0","A616I","Scenes","","null","","","null","","","","18","130","121","","","","","","","","","","","","","","","","","","","","","","","","","","","","","","","","","","","","","",""
"","explain_trial","","survey-text","125","481902","0.0-74.0-5.0-0.0","0","0","A616I","Scenes","","7295","{""Q0"":""I prefer photos that have water in them.""}","","","","","","18","130","121","","","","","","","","","","","{""Q0"":""I prefer photos that have water in them.""}","","","","","","","","","","","","","","","","","","","","","","","","","","",""
"","fixation","","html-keyboard-response","126","482913","0.0-75.0-0.0","0","0","A616I","Scenes","","null","","","null","","","","","","","","","","","","","","","","","","","","","","","","","","","","","","","","","","","","","","","","","","","",""
"","deliberation","","html-keyboard-response","127","485991","0.0-75.0-1.0","0","0","A616I","Scenes","","3070","","","68","","","","19","108","144","0","1","56","51","benjamin-voros-phIFdC6lA4E-unsplash.jpg","solotravelgoals-7kLufxYoqWk-unsplash.jpg","2","1","108","144","","","","","","","","","","","","","","","","","","","","","","","","","","","",""
"","choice_confirmation","","html-keyboard-response","128","486508","0.0-75.0-2.0-0.0","0","0","A616I","Scenes","","null","","","null","","","","19","108","144","","","","","","","","","","","","","","","","","","","","","","","","","","","","","","","","","","","","","",""
"","fixation","","html-keyboard-response","129","487526","0.0-76.0-0.0","0","0","A616I","Scenes","","null","","","null","","","","","","","","","","","","","","","","","","","","","","","","","","","","","","","","","","","","","","","","","","","",""
"","deliberation","","html-keyboard-response","130","489403","0.0-76.0-1.0","0","0","A616I","Scenes","","1870","","","75","","","","20","103","132","0","-1","38","66","anton-darius-FBJugtbHsWU-unsplash.jpg","meng-ji-8BH_M-53CyA-unsplash.jpg","2","0","132","103","","","","","","","","","","","","","","","","","","","","","","","","","","","",""
"","choice_confirmation","","html-keyboard-response","131","489913","0.0-76.0-2.0-0.0","0","0","A616I","Scenes","","null","","","null","","","","20","103","132","","","","","","","","","","","","","","","","","","","","","","","","","","","","","","","","","","","","","",""
"","fixation","","html-keyboard-response","132","490933","0.0-77.0-0.0","0","0","A616I","Scenes","","null","","","null","","","","","","","","","","","","","","","","","","","","","","","","","","","","","","","","","","","","","","","","","","","",""
"","deliberation","","html-keyboard-response","133","492023","0.0-77.0-1.0","0","0","A616I","Scenes","","1081","","","68","","","","21","142","102","0","1","41","38","sergey-pesterev-y-b_FOmJXdg-unsplash.jpg","anisur-rahman-K2b7UDed6uQ-unsplash.jpg","2","1","142","102","","","","","","","","","","","","","","","","","","","","","","","","","","","",""
"","choice_confirmation","","html-keyboard-response","134","492541","0.0-77.0-2.0-0.0","0","0","A616I","Scenes","","null","","","null","","","","21","142","102","","","","","","","","","","","","","","","","","","","","","","","","","","","","","","","","","","","","","",""
"","fixation","","html-keyboard-response","135","493557","0.0-78.0-0.0","0","0","A616I","Scenes","","null","","","null","","","","","","","","","","","","","","","","","","","","","","","","","","","","","","","","","","","","","","","","","","","",""
"","deliberation","","html-keyboard-response","136","494923","0.0-78.0-1.0","0","0","A616I","Scenes","","1358","","","75","","","","22","100","147","1","-1","55","61","aleksandra-boguslawska-MS7KD9Ti7FQ-unsplash.jpg","tobias-keller-73F4pKoUkM0-unsplash.jpg","2","0","147","100","","","","","","","","","","","","","","","","","","","","","","","","","","","",""
"","choice_confirmation","","html-keyboard-response","137","495438","0.0-78.0-2.0-0.0","0","0","A616I","Scenes","","null","","","null","","","","22","100","147","","","","","","","","","","","","","","","","","","","","","","","","","","","","","","","","","","","","","",""
"","explain_trial","","survey-text","138","503340","0.0-78.0-5.0-0.0","0","0","A616I","Scenes","","7887","{""Q0"":""I like the colors and the water in this photo""}","","","","","","22","100","147","","","","","","","","","","","{""Q0"":""I like the colors and the water in this photo""}","","","","","","","","","","","","","","","","","","","","","","","","","","",""
"","fixation","","html-keyboard-response","139","504356","0.0-79.0-0.0","0","0","A616I","Scenes","","null","","","null","","","","","","","","","","","","","","","","","","","","","","","","","","","","","","","","","","","","","","","","","","","",""
"","deliberation","","html-keyboard-response","140","505594","0.0-79.0-1.0","0","0","A616I","Scenes","","1230","","","75","","","","23","139","124","1","-1","62","63","samsommer-vddccTqwal8-unsplash.jpg","johannes-plenio-sPt5RIjKfpk-unsplash.jpg","2","0","124","139","","","","","","","","","","","","","","","","","","","","","","","","","","","",""
"","choice_confirmation","","html-keyboard-response","141","506106","0.0-79.0-2.0-0.0","0","0","A616I","Scenes","","null","","","null","","","","23","139","124","","","","","","","","","","","","","","","","","","","","","","","","","","","","","","","","","","","","","",""
"","explain_trial","","survey-text","142","518411","0.0-79.0-5.0-0.0","0","0","A616I","Scenes","","12293","{""Q0"":""The effects shown in the photo and the colors are amazing.""}","","","","","","23","139","124","","","","","","","","","","","{""Q0"":""The effects shown in the photo and the colors are amazing.""}","","","","","","","","","","","","","","","","","","","","","","","","","","",""
"","start_critical_deliberation_block","","html-keyboard-response","143","522053","0.0-79.0-7.0-0.0","0","0","A616I","Scenes","","3629","","","78","","","","","","","","","","","","","","","","","","","","","","","","","","","","","","","","","","","","","","","","","","","",""
"","fixation","","html-keyboard-response","144","523069","0.0-80.0-0.0","0","0","A616I","Scenes","","null","","","null","","","","","","","","","","","","","","","","","","","","","","","","","","","","","","","","","","","","","","","","","","","",""
"","deliberation","","html-keyboard-response","145","524974","0.0-80.0-1.0","0","0","A616I","Scenes","","1895","","","75","","","","24","139","124","0","-1","62","63","samsommer-vddccTqwal8-unsplash.jpg","johannes-plenio-sPt5RIjKfpk-unsplash.jpg","3","0","124","139","","","","","","","","","","","","","","","","","","","","","","","","","","","",""
"","choice_confirmation","","html-keyboard-response","146","525487","0.0-80.0-2.0-0.0","0","0","A616I","Scenes","","null","","","null","","","","24","139","124","","","","","","","","","","","","","","","","","","","","","","","","","","","","","","","","","","","","","",""
"","fixation","","html-keyboard-response","147","526503","0.0-81.0-0.0","0","0","A616I","Scenes","","null","","","null","","","","","","","","","","","","","","","","","","","","","","","","","","","","","","","","","","","","","","","","","","","",""
"","deliberation","","html-keyboard-response","148","528672","0.0-81.0-1.0","0","0","A616I","Scenes","","2162","","","68","","","","25","148","131","0","1","71","51","tom-gainor-ZqLeQDjY6fY-unsplash.jpg","luca-bravo-hFzIoD0F_i8-unsplash.jpg","3","1","148","131","","","","","","","","","","","","","","","","","","","","","","","","","","","",""
"","choice_confirmation","","html-keyboard-response","149","529189","0.0-81.0-2.0-0.0","0","0","A616I","Scenes","","null","","","null","","","","25","148","131","","","","","","","","","","","","","","","","","","","","","","","","","","","","","","","","","","","","","",""
"","fixation","","html-keyboard-response","150","530204","0.0-82.0-0.0","0","0","A616I","Scenes","","null","","","null","","","","","","","","","","","","","","","","","","","","","","","","","","","","","","","","","","","","","","","","","","","",""
"","deliberation","","html-keyboard-response","151","531323","0.0-82.0-1.0","0","0","A616I","Scenes","","1109","","","68","","","","26","120","146","0","1","71","45","jarrett-kow-1ZOyYPOBn7I-unsplash.jpg","thomas-morse-cuKKa0vWZSY-unsplash.jpg","3","1","120","146","","","","","","","","","","","","","","","","","","","","","","","","","","","",""
"","choice_confirmation","","html-keyboard-response","152","531833","0.0-82.0-2.0-0.0","0","0","A616I","Scenes","","null","","","null","","","","26","120","146","","","","","","","","","","","","","","","","","","","","","","","","","","","","","","","","","","","","","",""
"","fixation","","html-keyboard-response","153","532841","0.0-83.0-0.0","0","0","A616I","Scenes","","null","","","null","","","","","","","","","","","","","","","","","","","","","","","","","","","","","","","","","","","","","","","","","","","",""
"","deliberation","","html-keyboard-response","154","533724","0.0-83.0-1.0","0","0","A616I","Scenes","","876","","","75","","","","27","100","147","0","-1","55","61","aleksandra-boguslawska-MS7KD9Ti7FQ-unsplash.jpg","tobias-keller-73F4pKoUkM0-unsplash.jpg","3","0","147","100","","","","","","","","","","","","","","","","","","","","","","","","","","","",""
"","choice_confirmation","","html-keyboard-response","155","534233","0.0-83.0-2.0-0.0","0","0","A616I","Scenes","","null","","","null","","","","27","100","147","","","","","","","","","","","","","","","","","","","","","","","","","","","","","","","","","","","","","",""
"","fixation","","html-keyboard-response","156","535252","0.0-84.0-0.0","0","0","A616I","Scenes","","null","","","null","","","","","","","","","","","","","","","","","","","","","","","","","","","","","","","","","","","","","","","","","","","",""
"","deliberation","","html-keyboard-response","157","536464","0.0-84.0-1.0","0","0","A616I","Scenes","","1202","","","68","","","","28","129","101","0","-1","46","56","kurt-cotoaga-cqbLg3lZEpk-unsplash.jpg","aniket-deole-T-tOgjWZ0fQ-unsplash.jpg","3","1","129","101","","","","","","","","","","","","","","","","","","","","","","","","","","","",""
"","choice_confirmation","","html-keyboard-response","158","536977","0.0-84.0-2.0-0.0","0","0","A616I","Scenes","","null","","","null","","","","28","129","101","","","","","","","","","","","","","","","","","","","","","","","","","","","","","","","","","","","","","",""
"","fixation","","html-keyboard-response","159","537996","0.0-85.0-0.0","0","0","A616I","Scenes","","null","","","null","","","","","","","","","","","","","","","","","","","","","","","","","","","","","","","","","","","","","","","","","","","",""
"","deliberation","","html-keyboard-response","160","540109","0.0-85.0-1.0","0","0","A616I","Scenes","","2105","","","75","","","","29","141","109","0","-1","68","64","sebastian-unrau-v4e3JI7DDHI-unsplash.jpg","brigitta-schneiter-hXXRLtTxXCU-unsplash.jpg","3","0","109","141","","","","","","","","","","","","","","","","","","","","","","","","","","","",""
"","choice_confirmation","","html-keyboard-response","161","540622","0.0-85.0-2.0-0.0","0","0","A616I","Scenes","","null","","","null","","","","29","141","109","","","","","","","","","","","","","","","","","","","","","","","","","","","","","","","","","","","","","",""
"","fixation","","html-keyboard-response","162","541637","0.0-86.0-0.0","0","0","A616I","Scenes","","null","","","null","","","","","","","","","","","","","","","","","","","","","","","","","","","","","","","","","","","","","","","","","","","",""
"","deliberation","","html-keyboard-response","163","542530","0.0-86.0-1.0","0","0","A616I","Scenes","","884","","","68","","","","30","142","102","0","1","41","38","sergey-pesterev-y-b_FOmJXdg-unsplash.jpg","anisur-rahman-K2b7UDed6uQ-unsplash.jpg","3","1","142","102","","","","","","","","","","","","","","","","","","","","","","","","","","","",""
"","choice_confirmation","","html-keyboard-response","164","543045","0.0-86.0-2.0-0.0","0","0","A616I","Scenes","","null","","","null","","","","30","142","102","","","","","","","","","","","","","","","","","","","","","","","","","","","","","","","","","","","","","",""
"","fixation","","html-keyboard-response","165","544060","0.0-87.0-0.0","0","0","A616I","Scenes","","null","","","null","","","","","","","","","","","","","","","","","","","","","","","","","","","","","","","","","","","","","","","","","","","",""
"","deliberation","","html-keyboard-response","166","545096","0.0-87.0-1.0","0","0","A616I","Scenes","","1028","","","68","","","","31","108","144","0","1","56","51","benjamin-voros-phIFdC6lA4E-unsplash.jpg","solotravelgoals-7kLufxYoqWk-unsplash.jpg","3","1","108","144","","","","","","","","","","","","","","","","","","","","","","","","","","","",""
"","choice_confirmation","","html-keyboard-response","167","545613","0.0-87.0-2.0-0.0","0","0","A616I","Scenes","","null","","","null","","","","31","108","144","","","","","","","","","","","","","","","","","","","","","","","","","","","","","","","","","","","","","",""
"","fixation","","html-keyboard-response","168","546630","0.0-88.0-0.0","0","0","A616I","Scenes","","null","","","null","","","","","","","","","","","","","","","","","","","","","","","","","","","","","","","","","","","","","","","","","","","",""
"","deliberation","","html-keyboard-response","169","547653","0.0-88.0-1.0","0","0","A616I","Scenes","","1010","","","75","","","","32","103","132","0","-1","38","66","anton-darius-FBJugtbHsWU-unsplash.jpg","meng-ji-8BH_M-53CyA-unsplash.jpg","3","0","132","103","","","","","","","","","","","","","","","","","","","","","","","","","","","",""
"","choice_confirmation","","html-keyboard-response","170","548173","0.0-88.0-2.0-0.0","0","0","A616I","Scenes","","null","","","null","","","","32","103","132","","","","","","","","","","","","","","","","","","","","","","","","","","","","","","","","","","","","","",""
"","fixation","","html-keyboard-response","171","549184","0.0-89.0-0.0","0","0","A616I","Scenes","","null","","","null","","","","","","","","","","","","","","","","","","","","","","","","","","","","","","","","","","","","","","","","","","","",""
"","deliberation","","html-keyboard-response","172","550590","0.0-89.0-1.0","0","0","A616I","Scenes","","1399","","","75","","","","33","104","117","0","1","67","50","artem-sapegin-XGDBdSQ70O0-unsplash.jpg","frank-mckenna-OD9EOzfSOh0-unsplash.jpg","3","0","117","104","","","","","","","","","","","","","","","","","","","","","","","","","","","",""
"","choice_confirmation","","html-keyboard-response","173","551104","0.0-89.0-2.0-0.0","0","0","A616I","Scenes","","null","","","null","","","","33","104","117","","","","","","","","","","","","","","","","","","","","","","","","","","","","","","","","","","","","","",""
"","fixation","","html-keyboard-response","174","552121","0.0-90.0-0.0","0","0","A616I","Scenes","","null","","","null","","","","","","","","","","","","","","","","","","","","","","","","","","","","","","","","","","","","","","","","","","","",""
"","deliberation","","html-keyboard-response","175","553252","0.0-90.0-1.0","0","0","A616I","Scenes","","1124","","","68","","","","34","130","121","0","1","71","72","lina-loos-04-C1NZk1hE-unsplash.jpg","jean-pierre-brungs-qxCqkbF7tUc-unsplash.jpg","3","1","130","121","","","","","","","","","","","","","","","","","","","","","","","","","","","",""
"","choice_confirmation","","html-keyboard-response","176","553765","0.0-90.0-2.0-0.0","0","0","A616I","Scenes","","null","","","null","","","","34","130","121","","","","","","","","","","","","","","","","","","","","","","","","","","","","","","","","","","","","","",""
"","fixation","","html-keyboard-response","177","554776","0.0-91.0-0.0","0","0","A616I","Scenes","","null","","","null","","","","","","","","","","","","","","","","","","","","","","","","","","","","","","","","","","","","","","","","","","","",""
"","deliberation","","html-keyboard-response","178","556871","0.0-91.0-1.0","0","0","A616I","Scenes","","2089","","","68","","","","35","110","138","0","-1","40","60","bruno-van-der-kraan-qez8mNJ3ilU-unsplash.jpg","petr-vysohlid-9fqwGqGLUxc-unsplash.jpg","3","1","110","138","","","","","","","","","","","","","","","","","","","","","","","","","","","",""
"","choice_confirmation","","html-keyboard-response","179","557407","0.0-91.0-2.0-0.0","0","0","A616I","Scenes","","null","","","null","","","","35","110","138","","","","","","","","","","","","","","","","","","","","","","","","","","","","","","","","","","","","","",""
"","reward_learning_instructions","","instructions","180","611082","0.0-92.0-0.0","0","0","A616I","Scenes","[{""page_index"":0,""viewing_time"":12616},{""page_index"":1,""viewing_time"":1766},{""page_index"":0,""viewing_time"":1688},{""page_index"":1,""viewing_time"":35986},{""page_index"":2,""viewing_time"":1610}]","53668","","","","","","","","","","","","","","","","","","","","","","","","","","","","","","","","","","","","","","","","","","","","","","",""
"","reward_comprehension_check","","survey-multi-choice","181","623669","0.0-92.0-1.0","0","0","A616I","Scenes","","12545","{""Q0"":""True"",""Q1"":""True"",""Q2"":""Press the space bar to see its outcome"",""Q3"":""Press the relevant key while the outcome is presented""}","0","","","","","","","","","","","","","","","","","","","","","","","","","","","","","","","","","","","","","","","","","","","","",""
"","start_phase","","html-keyboard-response","182","626577","0.0-93.0","0","0","A616I","Scenes","","2898","","","78","","","","","","","","","","","","","","","","","","","","","","","","","","","","","","","","","","","","","","","","","","","",""
"","fixation","","html-keyboard-response","183","627593","0.0-94.0","0","0","A616I","Scenes","","null","","","null","","","","","","","","","","","","","","","","","","","","","","","","","","","","","","","","","","","","","","","","","","","",""
"","see_reward","","html-keyboard-response","184","629146","0.0-95.0","0","0","A616I","Scenes","","1546","","","32","","130","","0","","","","1","","","","","1","","","","","142","1546","","","","","","","","","","","","","","","","","","","","","","","","",""
"","reward_outcome","","html-keyboard-response","185","631160","0.0-96.0","0","0","A616I","Scenes","","null","","","null","","130","","0","","","","","","","","","","","","","","","","NaN","null","","","","","","","","","","","","","","","","","","","","","","",""
"","respond_faster","","html-keyboard-response","186","632673","0.0-97.0-0.0","1","0","A616I","Scenes","","null","","","null","","","","","","","","","","","","","","","","","","","","","","","","","","","","","","","","","","","","","","","","","","","",""
"","fixation","","html-keyboard-response","187","633691","0.0-99.0","0","0","A616I","Scenes","","null","","","null","","","","","","","","","","","","","","","","","","","","","","","","","","","","","","","","","","","","","","","","","","","",""
"","see_reward","","html-keyboard-response","188","634747","0.0-100.0","0","0","A616I","Scenes","","1044","","","32","","132","","1","","","","-1","","","","","1","","","","","0","1044","","","","","","","","","","","","","","","","","","","","","","","","",""
"","reward_outcome","","html-keyboard-response","189","636761","0.0-101.0","0","0","A616I","Scenes","","655","","","40","","132","","1","","","","","","","","","","","","","","","","-1","655","","","","","","","","","","","","","","","","","","","","","","",""
"","fixation","","html-keyboard-response","190","637781","0.0-104.0","0","0","A616I","Scenes","","null","","","null","","","","","","","","","","","","","","","","","","","","","","","","","","","","","","","","","","","","","","","","","","","",""
"","see_reward","","html-keyboard-response","191","638588","0.0-105.0","0","0","A616I","Scenes","","794","","","32","","129","","2","","","","-1","","","","","1","","","","","0","794","","","","","","","","","","","","","","","","","","","","","","","","",""
"","reward_outcome","","html-keyboard-response","192","640605","0.0-106.0","0","0","A616I","Scenes","","859","","","40","","129","","2","","","","","","","","","","","","","","","","-1","859","","","","","","","","","","","","","","","","","","","","","","",""
"","fixation","","html-keyboard-response","193","641620","0.0-109.0","0","0","A616I","Scenes","","null","","","null","","","","","","","","","","","","","","","","","","","","","","","","","","","","","","","","","","","","","","","","","","","",""
"","see_reward","","html-keyboard-response","194","642572","0.0-110.0","0","0","A616I","Scenes","","943","","","32","","117","","3","","","","1","","","","","1","","","","","142","943","","","","","","","","","","","","","","","","","","","","","","","","",""
"","reward_outcome","","html-keyboard-response","195","644587","0.0-111.0","0","0","A616I","Scenes","","824","","","38","","117","","3","","","","","","","","","","","","","","","","1","824","","","","","","","","","","","","","","","","","","","","","","",""
"","fixation","","html-keyboard-response","196","645602","0.0-114.0","0","0","A616I","Scenes","","null","","","null","","","","","","","","","","","","","","","","","","","","","","","","","","","","","","","","","","","","","","","","","","","",""
"","see_reward","","html-keyboard-response","197","646421","0.0-115.0","0","0","A616I","Scenes","","808","","","32","","109","","4","","","","-1","","","","","1","","","","","0","808","","","","","","","","","","","","","","","","","","","","","","","","",""
"","reward_outcome","","html-keyboard-response","198","648438","0.0-116.0","0","0","A616I","Scenes","","480","","","40","","109","","4","","","","","","","","","","","","","","","","-1","480","","","","","","","","","","","","","","","","","","","","","","",""
"","fixation","","html-keyboard-response","199","649453","0.0-119.0","0","0","A616I","Scenes","","null","","","null","","","","","","","","","","","","","","","","","","","","","","","","","","","","","","","","","","","","","","","","","","","",""
"","see_reward","","html-keyboard-response","200","650379","0.0-120.0","0","0","A616I","Scenes","","914","","","32","","147","","5","","","","-1","","","","","1","","","","","0","914","","","","","","","","","","","","","","","","","","","","","","","","",""
"","reward_outcome","","html-keyboard-response","201","652392","0.0-121.0","0","0","A616I","Scenes","","677","","","40","","147","","5","","","","","","","","","","","","","","","","-1","677","","","","","","","","","","","","","","","","","","","","","","",""
"","fixation","","html-keyboard-response","202","653403","0.0-124.0","0","0","A616I","Scenes","","null","","","null","","","","","","","","","","","","","","","","","","","","","","","","","","","","","","","","","","","","","","","","","","","",""
"","see_reward","","html-keyboard-response","203","654096","0.0-125.0","0","0","A616I","Scenes","","686","","","32","","148","","6","","","","1","","","","","1","","","","","150","686","","","","","","","","","","","","","","","","","","","","","","","","",""
"","reward_outcome","","html-keyboard-response","204","656110","0.0-126.0","0","0","A616I","Scenes","","558","","","38","","148","","6","","","","","","","","","","","","","","","","1","558","","","","","","","","","","","","","","","","","","","","","","",""
"","fixation","","html-keyboard-response","205","657120","0.0-129.0","0","0","A616I","Scenes","","null","","","null","","","","","","","","","","","","","","","","","","","","","","","","","","","","","","","","","","","","","","","","","","","",""
"","see_reward","","html-keyboard-response","206","657675","0.0-130.0","0","0","A616I","Scenes","","549","","","32","","120","","7","","","","1","","","","","1","","","","","157","549","","","","","","","","","","","","","","","","","","","","","","","","",""
"","reward_outcome","","html-keyboard-response","207","659688","0.0-131.0","0","0","A616I","Scenes","","615","","","38","","120","","7","","","","","","","","","","","","","","","","1","615","","","","","","","","","","","","","","","","","","","","","","",""
"","fixation","","html-keyboard-response","208","660697","0.0-134.0","0","0","A616I","Scenes","","null","","","null","","","","","","","","","","","","","","","","","","","","","","","","","","","","","","","","","","","","","","","","","","","",""
"","see_reward","","html-keyboard-response","209","661298","0.0-135.0","0","0","A616I","Scenes","","590","","","32","","120","","8","","","","1","","","","","1","","","","","157","590","","","","","","","","","","","","","","","","","","","","","","","","",""
"","reward_outcome","","html-keyboard-response","210","663312","0.0-136.0","0","0","A616I","Scenes","","680","","","38","","120","","8","","","","","","","","","","","","","","","","1","680","","","","","","","","","","","","","","","","","","","","","","",""
"","fixation","","html-keyboard-response","211","664323","0.0-139.0","0","0","A616I","Scenes","","null","","","null","","","","","","","","","","","","","","","","","","","","","","","","","","","","","","","","","","","","","","","","","","","",""
"","see_reward","","html-keyboard-response","212","665131","0.0-140.0","0","0","A616I","Scenes","","801","","","32","","142","","9","","","","1","","","","","1","","","","","144","801","","","","","","","","","","","","","","","","","","","","","","","","",""
"","reward_outcome","","html-keyboard-response","213","667143","0.0-141.0","0","0","A616I","Scenes","","430","","","38","","142","","9","","","","","","","","","","","","","","","","1","430","","","","","","","","","","","","","","","","","","","","","","",""
"","fixation","","html-keyboard-response","214","668156","0.0-144.0","0","0","A616I","Scenes","","null","","","null","","","","","","","","","","","","","","","","","","","","","","","","","","","","","","","","","","","","","","","","","","","",""
"","see_reward","","html-keyboard-response","215","668881","0.0-145.0","0","0","A616I","Scenes","","718","","","32","","148","","10","","","","1","","","","","1","","","","","150","718","","","","","","","","","","","","","","","","","","","","","","","","",""
"","reward_outcome","","html-keyboard-response","216","670901","0.0-146.0","0","0","A616I","Scenes","","740","","","38","","148","","10","","","","","","","","","","","","","","","","1","740","","","","","","","","","","","","","","","","","","","","","","",""
"","fixation","","html-keyboard-response","217","671916","0.0-149.0","0","0","A616I","Scenes","","null","","","null","","","","","","","","","","","","","","","","","","","","","","","","","","","","","","","","","","","","","","","","","","","",""
"","see_reward","","html-keyboard-response","218","672785","0.0-150.0","0","0","A616I","Scenes","","862","","","32","","130","","11","","","","1","","","","","1","","","","","142","862","","","","","","","","","","","","","","","","","","","","","","","","",""
"","reward_outcome","","html-keyboard-response","219","674801","0.0-151.0","0","0","A616I","Scenes","","458","","","38","","130","","11","","","","","","","","","","","","","","","","1","458","","","","","","","","","","","","","","","","","","","","","","",""
"","fixation","","html-keyboard-response","220","675811","0.0-154.0","0","0","A616I","Scenes","","null","","","null","","","","","","","","","","","","","","","","","","","","","","","","","","","","","","","","","","","","","","","","","","","",""
"","see_reward","","html-keyboard-response","221","676479","0.0-155.0","0","0","A616I","Scenes","","657","","","32","","142","","12","","","","1","","","","","1","","","","","144","657","","","","","","","","","","","","","","","","","","","","","","","","",""
"","reward_outcome","","html-keyboard-response","222","678494","0.0-156.0","0","0","A616I","Scenes","","371","","","38","","142","","12","","","","","","","","","","","","","","","","1","371","","","","","","","","","","","","","","","","","","","","","","",""
"","fixation","","html-keyboard-response","223","679504","0.0-159.0","0","0","A616I","Scenes","","null","","","null","","","","","","","","","","","","","","","","","","","","","","","","","","","","","","","","","","","","","","","","","","","",""
"","see_reward","","html-keyboard-response","224","680131","0.0-160.0","0","0","A616I","Scenes","","621","","","32","","109","","13","","","","-1","","","","","1","","","","","0","621","","","","","","","","","","","","","","","","","","","","","","","","",""
"","reward_outcome","","html-keyboard-response","225","682143","0.0-161.0","0","0","A616I","Scenes","","681","","","40","","109","","13","","","","","","","","","","","","","","","","-1","681","","","","","","","","","","","","","","","","","","","","","","",""
"","fixation","","html-keyboard-response","226","683153","0.0-164.0","0","0","A616I","Scenes","","null","","","null","","","","","","","","","","","","","","","","","","","","","","","","","","","","","","","","","","","","","","","","","","","",""
"","see_reward","","html-keyboard-response","227","683813","0.0-165.0","0","0","A616I","Scenes","","652","","","32","","117","","14","","","","1","","","","","1","","","","","142","652","","","","","","","","","","","","","","","","","","","","","","","","",""
"","reward_outcome","","html-keyboard-response","228","685836","0.0-166.0","0","0","A616I","Scenes","","512","","","38","","117","","14","","","","","","","","","","","","","","","","1","512","","","","","","","","","","","","","","","","","","","","","","",""
"","fixation","","html-keyboard-response","229","686849","0.0-169.0","0","0","A616I","Scenes","","null","","","null","","","","","","","","","","","","","","","","","","","","","","","","","","","","","","","","","","","","","","","","","","","",""
"","see_reward","","html-keyboard-response","230","687648","0.0-170.0","0","0","A616I","Scenes","","787","","","32","","110","","15","","","","-1","","","","","1","","","","","0","787","","","","","","","","","","","","","","","","","","","","","","","","",""
"","reward_outcome","","html-keyboard-response","231","689669","0.0-171.0","0","0","A616I","Scenes","","740","","","40","","110","","15","","","","","","","","","","","","","","","","-1","740","","","","","","","","","","","","","","","","","","","","","","",""
"","fixation","","html-keyboard-response","232","690680","0.0-174.0","0","0","A616I","Scenes","","null","","","null","","","","","","","","","","","","","","","","","","","","","","","","","","","","","","","","","","","","","","","","","","","",""
"","see_reward","","html-keyboard-response","233","691427","0.0-175.0","0","0","A616I","Scenes","","740","","","32","","132","","16","","","","-1","","","","","1","","","","","0","740","","","","","","","","","","","","","","","","","","","","","","","","",""
"","reward_outcome","","html-keyboard-response","234","693446","0.0-176.0","0","0","A616I","Scenes","","650","","","40","","132","","16","","","","","","","","","","","","","","","","-1","650","","","","","","","","","","","","","","","","","","","","","","",""
"","fixation","","html-keyboard-response","235","694461","0.0-179.0","0","0","A616I","Scenes","","null","","","null","","","","","","","","","","","","","","","","","","","","","","","","","","","","","","","","","","","","","","","","","","","",""
"","see_reward","","html-keyboard-response","236","695225","0.0-180.0","0","0","A616I","Scenes","","756","","","32","","129","","17","","","","-1","","","","","1","","","","","0","756","","","","","","","","","","","","","","","","","","","","","","","","",""
"","reward_outcome","","html-keyboard-response","237","697232","0.0-181.0","0","0","A616I","Scenes","","635","","","40","","129","","17","","","","","","","","","","","","","","","","-1","635","","","","","","","","","","","","","","","","","","","","","","",""
"","fixation","","html-keyboard-response","238","698241","0.0-184.0","0","0","A616I","Scenes","","null","","","null","","","","","","","","","","","","","","","","","","","","","","","","","","","","","","","","","","","","","","","","","","","",""
"","see_reward","","html-keyboard-response","239","698920","0.0-185.0","0","0","A616I","Scenes","","673","","","32","","108","","18","","","","1","","","","","1","","","","","141","673","","","","","","","","","","","","","","","","","","","","","","","","",""
"","reward_outcome","","html-keyboard-response","240","700929","0.0-186.0","0","0","A616I","Scenes","","675","","","38","","108","","18","","","","","","","","","","","","","","","","1","675","","","","","","","","","","","","","","","","","","","","","","",""
"","fixation","","html-keyboard-response","241","701940","0.0-189.0","0","0","A616I","Scenes","","null","","","null","","","","","","","","","","","","","","","","","","","","","","","","","","","","","","","","","","","","","","","","","","","",""
"","see_reward","","html-keyboard-response","242","702459","0.0-190.0","0","0","A616I","Scenes","","509","","","32","","110","","19","","","","-1","","","","","1","","","","","0","509","","","","","","","","","","","","","","","","","","","","","","","","",""
"","reward_outcome","","html-keyboard-response","243","704476","0.0-191.0","0","0","A616I","Scenes","","766","","","40","","110","","19","","","","","","","","","","","","","","","","-1","766","","","","","","","","","","","","","","","","","","","","","","",""
"","fixation","","html-keyboard-response","244","705489","0.0-194.0","0","0","A616I","Scenes","","null","","","null","","","","","","","","","","","","","","","","","","","","","","","","","","","","","","","","","","","","","","","","","","","",""
"","see_reward","","html-keyboard-response","245","706188","0.0-195.0","0","0","A616I","Scenes","","689","","","32","","124","","20","","","","-1","","","","","1","","","","","0","689","","","","","","","","","","","","","","","","","","","","","","","","",""
"","reward_outcome","","html-keyboard-response","246","708203","0.0-196.0","0","0","A616I","Scenes","","617","","","40","","124","","20","","","","","","","","","","","","","","","","-1","617","","","","","","","","","","","","","","","","","","","","","","",""
"","fixation","","html-keyboard-response","247","709217","0.0-199.0","0","0","A616I","Scenes","","null","","","null","","","","","","","","","","","","","","","","","","","","","","","","","","","","","","","","","","","","","","","","","","","",""
"","see_reward","","html-keyboard-response","248","709816","0.0-200.0","0","0","A616I","Scenes","","592","","","32","","108","","21","","","","1","","","","","1","","","","","141","592","","","","","","","","","","","","","","","","","","","","","","","","",""
"","reward_outcome","","html-keyboard-response","249","711831","0.0-201.0","0","0","A616I","Scenes","","311","","","38","","108","","21","","","","","","","","","","","","","","","","1","311","","","","","","","","","","","","","","","","","","","","","","",""
"","fixation","","html-keyboard-response","250","712841","0.0-204.0","0","0","A616I","Scenes","","null","","","null","","","","","","","","","","","","","","","","","","","","","","","","","","","","","","","","","","","","","","","","","","","",""
"","see_reward","","html-keyboard-response","251","712963","0.0-205.0","0","0","A616I","Scenes","","112","","","32","","147","","22","","","","-1","","","","","1","","","","","0","112","","","","","","","","","","","","","","","","","","","","","","","","",""
"","reward_outcome","","html-keyboard-response","252","714977","0.0-206.0","0","0","A616I","Scenes","","695","","","40","","147","","22","","","","","","","","","","","","","","","","-1","695","","","","","","","","","","","","","","","","","","","","","","",""
"","fixation","","html-keyboard-response","253","715992","0.0-209.0","0","0","A616I","Scenes","","null","","","null","","","","","","","","","","","","","","","","","","","","","","","","","","","","","","","","","","","","","","","","","","","",""
"","see_reward","","html-keyboard-response","254","716508","0.0-210.0","0","0","A616I","Scenes","","507","","","32","","124","","23","","","","-1","","","","","1","","","","","0","507","","","","","","","","","","","","","","","","","","","","","","","","",""
"","reward_outcome","","html-keyboard-response","255","718521","0.0-211.0","0","0","A616I","Scenes","","495","","","40","","124","","23","","","","","","","","","","","","","","","","-1","495","","","","","","","","","","","","","","","","","","","","","","",""
"","block_over","","html-keyboard-response","256","720657","0.0-213.0-0.0","0","0","A616I","Scenes","","2123","","","78","","","","","","","","","","","","","","","","","","","","","","","","","","","","","","","","","","","","","","","","","","","",""
"","fixation","","html-keyboard-response","257","721669","0.0-214.0","0","0","A616I","Scenes","","null","","","null","","","","","","","","","","","","","","","","","","","","","","","","","","","","","","","","","","","","","","","","","","","",""
"","see_reward","","html-keyboard-response","258","723539","0.0-215.0","0","0","A616I","Scenes","","1858","","","32","","109","","24","","","","-1","","","","","2","","","","","0","1858","","","","","","","","","","","","","","","","","","","","","","","","",""
"","reward_outcome","","html-keyboard-response","259","725559","0.0-216.0","0","0","A616I","Scenes","","592","","","40","","109","","24","","","","","","","","","","","","","","","","-1","592","","","","","","","","","","","","","","","","","","","","","","",""
"","fixation","","html-keyboard-response","260","726572","0.0-219.0","0","0","A616I","Scenes","","null","","","null","","","","","","","","","","","","","","","","","","","","","","","","","","","","","","","","","","","","","","","","","","","",""
"","see_reward","","html-keyboard-response","261","728285","0.0-220.0","0","0","A616I","Scenes","","1705","","","32","","148","","25","","","","1","","","","","2","","","","","150","1705","","","","","","","","","","","","","","","","","","","","","","","","",""
"","reward_outcome","","html-keyboard-response","262","730300","0.0-221.0","0","0","A616I","Scenes","","654","","","38","","148","","25","","","","","","","","","","","","","","","","1","654","","","","","","","","","","","","","","","","","","","","","","",""
"","fixation","","html-keyboard-response","263","731317","0.0-224.0","0","0","A616I","Scenes","","null","","","null","","","","","","","","","","","","","","","","","","","","","","","","","","","","","","","","","","","","","","","","","","","",""
"","see_reward","","html-keyboard-response","264","731829","0.0-225.0","0","0","A616I","Scenes","","501","","","32","","130","","26","","","","1","","","","","2","","","","","142","501","","","","","","","","","","","","","","","","","","","","","","","","",""
"","reward_outcome","","html-keyboard-response","265","733838","0.0-226.0","0","0","A616I","Scenes","","1319","","","38","","130","","26","","","","","","","","","","","","","","","","1","1319","","","","","","","","","","","","","","","","","","","","","","",""
"","fixation","","html-keyboard-response","266","734853","0.0-229.0","0","0","A616I","Scenes","","null","","","null","","","","","","","","","","","","","","","","","","","","","","","","","","","","","","","","","","","","","","","","","","","",""
"","see_reward","","html-keyboard-response","267","735648","0.0-230.0","0","0","A616I","Scenes","","784","","","32","","124","","27","","","","-1","","","","","2","","","","","0","784","","","","","","","","","","","","","","","","","","","","","","","","",""
"","reward_outcome","","html-keyboard-response","268","737661","0.0-231.0","0","0","A616I","Scenes","","442","","","40","","124","","27","","","","","","","","","","","","","","","","-1","442","","","","","","","","","","","","","","","","","","","","","","",""
"","fixation","","html-keyboard-response","269","738676","0.0-234.0","0","0","A616I","Scenes","","null","","","null","","","","","","","","","","","","","","","","","","","","","","","","","","","","","","","","","","","","","","","","","","","",""
"","see_reward","","html-keyboard-response","270","739458","0.0-235.0","0","0","A616I","Scenes","","775","","","32","","117","","28","","","","1","","","","","2","","","","","142","775","","","","","","","","","","","","","","","","","","","","","","","","",""
"","reward_outcome","","html-keyboard-response","271","741477","0.0-236.0","0","0","A616I","Scenes","","449","","","38","","117","","28","","","","","","","","","","","","","","","","1","449","","","","","","","","","","","","","","","","","","","","","","",""
"","fixation","","html-keyboard-response","272","742492","0.0-239.0","0","0","A616I","Scenes","","null","","","null","","","","","","","","","","","","","","","","","","","","","","","","","","","","","","","","","","","","","","","","","","","",""
"","see_reward","","html-keyboard-response","273","743574","0.0-240.0","0","0","A616I","Scenes","","1070","","","32","","148","","29","","","","1","","","","","2","","","","","150","1070","","","","","","","","","","","","","","","","","","","","","","","","",""
"","reward_outcome","","html-keyboard-response","274","745585","0.0-241.0","0","0","A616I","Scenes","","677","","","38","","148","","29","","","","","","","","","","","","","","","","1","677","","","","","","","","","","","","","","","","","","","","","","",""
"","fixation","","html-keyboard-response","275","746593","0.0-244.0","0","0","A616I","Scenes","","null","","","null","","","","","","","","","","","","","","","","","","","","","","","","","","","","","","","","","","","","","","","","","","","",""
"","see_reward","","html-keyboard-response","276","746972","0.0-245.0","0","0","A616I","Scenes","","368","","","32","","147","","30","","","","-1","","","","","2","","","","","0","368","","","","","","","","","","","","","","","","","","","","","","","","",""
"","reward_outcome","","html-keyboard-response","277","748988","0.0-246.0","0","0","A616I","Scenes","","682","","","40","","147","","30","","","","","","","","","","","","","","","","-1","682","","","","","","","","","","","","","","","","","","","","","","",""
"","fixation","","html-keyboard-response","278","750004","0.0-249.0","0","0","A616I","Scenes","","null","","","null","","","","","","","","","","","","","","","","","","","","","","","","","","","","","","","","","","","","","","","","","","","",""
"","see_reward","","html-keyboard-response","279","751508","0.0-250.0","0","0","A616I","Scenes","","1496","","","32","","110","","31","","","","-1","","","","","2","","","","","0","1496","","","","","","","","","","","","","","","","","","","","","","","","",""
"","reward_outcome","","html-keyboard-response","280","753519","0.0-251.0","0","0","A616I","Scenes","","405","","","40","","110","","31","","","","","","","","","","","","","","","","-1","405","","","","","","","","","","","","","","","","","","","","","","",""
"","fixation","","html-keyboard-response","281","754533","0.0-254.0","0","0","A616I","Scenes","","null","","","null","","","","","","","","","","","","","","","","","","","","","","","","","","","","","","","","","","","","","","","","","","","",""
"","see_reward","","html-keyboard-response","282","755259","0.0-255.0","0","0","A616I","Scenes","","718","","","32","","108","","32","","","","1","","","","","2","","","","","141","718","","","","","","","","","","","","","","","","","","","","","","","","",""
"","reward_outcome","","html-keyboard-response","283","757273","0.0-256.0","0","0","A616I","Scenes","","1049","","","38","","108","","32","","","","","","","","","","","","","","","","1","1049","","","","","","","","","","","","","","","","","","","","","","",""
"","fixation","","html-keyboard-response","284","758289","0.0-259.0","0","0","A616I","Scenes","","null","","","null","","","","","","","","","","","","","","","","","","","","","","","","","","","","","","","","","","","","","","","","","","","",""
"","see_reward","","html-keyboard-response","285","758842","0.0-260.0","0","0","A616I","Scenes","","543","","","32","","142","","33","","","","1","","","","","2","","","","","144","543","","","","","","","","","","","","","","","","","","","","","","","","",""
"","reward_outcome","","html-keyboard-response","286","760854","0.0-261.0","0","0","A616I","Scenes","","523","","","38","","142","","33","","","","","","","","","","","","","","","","1","523","","","","","","","","","","","","","","","","","","","","","","",""
"","fixation","","html-keyboard-response","287","761865","0.0-264.0","0","0","A616I","Scenes","","null","","","null","","","","","","","","","","","","","","","","","","","","","","","","","","","","","","","","","","","","","","","","","","","",""
"","see_reward","","html-keyboard-response","288","762721","0.0-265.0","0","0","A616I","Scenes","","845","","","32","","132","","34","","","","-1","","","","","2","","","","","0","845","","","","","","","","","","","","","","","","","","","","","","","","",""
"","reward_outcome","","html-keyboard-response","289","764732","0.0-266.0","0","0","A616I","Scenes","","474","","","40","","132","","34","","","","","","","","","","","","","","","","-1","474","","","","","","","","","","","","","","","","","","","","","","",""
"","fixation","","html-keyboard-response","290","765745","0.0-269.0","0","0","A616I","Scenes","","null","","","null","","","","","","","","","","","","","","","","","","","","","","","","","","","","","","","","","","","","","","","","","","","",""
"","see_reward","","html-keyboard-response","291","766936","0.0-270.0","0","0","A616I","Scenes","","1184","","","32","","129","","35","","","","-1","","","","","2","","","","","0","1184","","","","","","","","","","","","","","","","","","","","","","","","",""
"","reward_outcome","","html-keyboard-response","292","768943","0.0-271.0","0","0","A616I","Scenes","","517","","","40","","129","","35","","","","","","","","","","","","","","","","-1","517","","","","","","","","","","","","","","","","","","","","","","",""
"","fixation","","html-keyboard-response","293","769958","0.0-274.0","0","0","A616I","Scenes","","null","","","null","","","","","","","","","","","","","","","","","","","","","","","","","","","","","","","","","","","","","","","","","","","",""
"","see_reward","","html-keyboard-response","294","770784","0.0-275.0","0","0","A616I","Scenes","","816","","","32","","130","","36","","","","1","","","","","2","","","","","142","816","","","","","","","","","","","","","","","","","","","","","","","","",""
"","reward_outcome","","html-keyboard-response","295","772800","0.0-276.0","0","0","A616I","Scenes","","565","","","38","","130","","36","","","","","","","","","","","","","","","","1","565","","","","","","","","","","","","","","","","","","","","","","",""
"","fixation","","html-keyboard-response","296","773809","0.0-279.0","0","0","A616I","Scenes","","null","","","null","","","","","","","","","","","","","","","","","","","","","","","","","","","","","","","","","","","","","","","","","","","",""
"","see_reward","","html-keyboard-response","297","774520","0.0-280.0","0","0","A616I","Scenes","","700","","","32","","109","","37","","","","-1","","","","","2","","","","","0","700","","","","","","","","","","","","","","","","","","","","","","","","",""
"","reward_outcome","","html-keyboard-response","298","776537","0.0-281.0","0","0","A616I","Scenes","","655","","","40","","109","","37","","","","","","","","","","","","","","","","-1","655","","","","","","","","","","","","","","","","","","","","","","",""
"","fixation","","html-keyboard-response","299","777553","0.0-284.0","0","0","A616I","Scenes","","null","","","null","","","","","","","","","","","","","","","","","","","","","","","","","","","","","","","","","","","","","","","","","","","",""
"","see_reward","","html-keyboard-response","300","778368","0.0-285.0","0","0","A616I","Scenes","","804","","","32","","142","","38","","","","1","","","","","2","","","","","144","804","","","","","","","","","","","","","","","","","","","","","","","","",""
"","reward_outcome","","html-keyboard-response","301","780384","0.0-286.0","0","0","A616I","Scenes","","512","","","40","","142","","38","","","","","","","","","","","","","","","","-1","512","","","","","","","","","","","","","","","","","","","","","","",""
"","fixation","","html-keyboard-response","302","781396","0.0-289.0","0","0","A616I","Scenes","","null","","","null","","","","","","","","","","","","","","","","","","","","","","","","","","","","","","","","","","","","","","","","","","","",""
"","see_reward","","html-keyboard-response","303","782281","0.0-290.0","0","0","A616I","Scenes","","874","","","32","","120","","39","","","","1","","","","","2","","","","","157","874","","","","","","","","","","","","","","","","","","","","","","","","",""
"","reward_outcome","","html-keyboard-response","304","784295","0.0-291.0","0","0","A616I","Scenes","","1174","","","38","","120","","39","","","","","","","","","","","","","","","","1","1174","","","","","","","","","","","","","","","","","","","","","","",""
"","fixation","","html-keyboard-response","305","785309","0.0-294.0","0","0","A616I","Scenes","","null","","","null","","","","","","","","","","","","","","","","","","","","","","","","","","","","","","","","","","","","","","","","","","","",""
"","see_reward","","html-keyboard-response","306","786089","0.0-295.0","0","0","A616I","Scenes","","773","","","32","","108","","40","","","","1","","","","","2","","","","","141","773","","","","","","","","","","","","","","","","","","","","","","","","",""
"","reward_outcome","","html-keyboard-response","307","788111","0.0-296.0","0","0","A616I","Scenes","","407","","","38","","108","","40","","","","","","","","","","","","","","","","1","407","","","","","","","","","","","","","","","","","","","","","","",""
"","fixation","","html-keyboard-response","308","789120","0.0-299.0","0","0","A616I","Scenes","","null","","","null","","","","","","","","","","","","","","","","","","","","","","","","","","","","","","","","","","","","","","","","","","","",""
"","see_reward","","html-keyboard-response","309","789932","0.0-300.0","0","0","A616I","Scenes","","804","","","32","","124","","41","","","","-1","","","","","2","","","","","0","804","","","","","","","","","","","","","","","","","","","","","","","","",""
"","reward_outcome","","html-keyboard-response","310","791949","0.0-301.0","0","0","A616I","Scenes","","461","","","40","","124","","41","","","","","","","","","","","","","","","","-1","461","","","","","","","","","","","","","","","","","","","","","","",""
"","fixation","","html-keyboard-response","311","792961","0.0-304.0","0","0","A616I","Scenes","","null","","","null","","","","","","","","","","","","","","","","","","","","","","","","","","","","","","","","","","","","","","","","","","","",""
"","see_reward","","html-keyboard-response","312","793599","0.0-305.0","0","0","A616I","Scenes","","630","","","32","","120","","42","","","","1","","","","","2","","","","","157","630","","","","","","","","","","","","","","","","","","","","","","","","",""
"","reward_outcome","","html-keyboard-response","313","795610","0.0-306.0","0","0","A616I","Scenes","","709","","","38","","120","","42","","","","","","","","","","","","","","","","1","709","","","","","","","","","","","","","","","","","","","","","","",""
"","fixation","","html-keyboard-response","314","796628","0.0-309.0","0","0","A616I","Scenes","","null","","","null","","","","","","","","","","","","","","","","","","","","","","","","","","","","","","","","","","","","","","","","","","","",""
"","see_reward","","html-keyboard-response","315","797289","0.0-310.0","0","0","A616I","Scenes","","651","","","32","","129","","43","","","","-1","","","","","2","","","","","0","651","","","","","","","","","","","","","","","","","","","","","","","","",""
"","reward_outcome","","html-keyboard-response","316","799301","0.0-311.0","0","0","A616I","Scenes","","515","","","40","","129","","43","","","","","","","","","","","","","","","","-1","515","","","","","","","","","","","","","","","","","","","","","","",""
"","fixation","","html-keyboard-response","317","800317","0.0-314.0","0","0","A616I","Scenes","","null","","","null","","","","","","","","","","","","","","","","","","","","","","","","","","","","","","","","","","","","","","","","","","","",""
"","see_reward","","html-keyboard-response","318","800953","0.0-315.0","0","0","A616I","Scenes","","623","","","32","","132","","44","","","","-1","","","","","2","","","","","0","623","","","","","","","","","","","","","","","","","","","","","","","","",""
"","reward_outcome","","html-keyboard-response","319","802969","0.0-316.0","0","0","A616I","Scenes","","547","","","40","","132","","44","","","","","","","","","","","","","","","","-1","547","","","","","","","","","","","","","","","","","","","","","","",""
"","fixation","","html-keyboard-response","320","803984","0.0-319.0","0","0","A616I","Scenes","","null","","","null","","","","","","","","","","","","","","","","","","","","","","","","","","","","","","","","","","","","","","","","","","","",""
"","see_reward","","html-keyboard-response","321","804701","0.0-320.0","0","0","A616I","Scenes","","711","","","32","","110","","45","","","","-1","","","","","2","","","","","0","711","","","","","","","","","","","","","","","","","","","","","","","","",""
"","reward_outcome","","html-keyboard-response","322","806711","0.0-321.0","0","0","A616I","Scenes","","989","","","40","","110","","45","","","","","","","","","","","","","","","","-1","989","","","","","","","","","","","","","","","","","","","","","","",""
"","fixation","","html-keyboard-response","323","807720","0.0-324.0","0","0","A616I","Scenes","","null","","","null","","","","","","","","","","","","","","","","","","","","","","","","","","","","","","","","","","","","","","","","","","","",""
"","see_reward","","html-keyboard-response","324","808370","0.0-325.0","0","0","A616I","Scenes","","644","","","32","","147","","46","","","","-1","","","","","2","","","","","0","644","","","","","","","","","","","","","","","","","","","","","","","","",""
"","reward_outcome","","html-keyboard-response","325","810380","0.0-326.0","0","0","A616I","Scenes","","513","","","40","","147","","46","","","","","","","","","","","","","","","","-1","513","","","","","","","","","","","","","","","","","","","","","","",""
"","fixation","","html-keyboard-response","326","811393","0.0-329.0","0","0","A616I","Scenes","","null","","","null","","","","","","","","","","","","","","","","","","","","","","","","","","","","","","","","","","","","","","","","","","","",""
"","see_reward","","html-keyboard-response","327","811755","0.0-330.0","0","0","A616I","Scenes","","356","","","32","","117","","47","","","","1","","","","","2","","","","","142","356","","","","","","","","","","","","","","","","","","","","","","","","",""
"","reward_outcome","","html-keyboard-response","328","813769","0.0-331.0","0","0","A616I","Scenes","","759","","","38","","117","","47","","","","","","","","","","","","","","","","1","759","","","","","","","","","","","","","","","","","","","","","","",""
"","block_over","","html-keyboard-response","329","815308","0.0-333.0-0.0","0","0","A616I","Scenes","","1528","","","78","","","","","","","","","","","","","","","","","","","","","","","","","","","","","","","","","","","","","","","","","","","",""
"","fixation","","html-keyboard-response","330","816325","0.0-334.0","0","0","A616I","Scenes","","null","","","null","","","","","","","","","","","","","","","","","","","","","","","","","","","","","","","","","","","","","","","","","","","",""
"","see_reward","","html-keyboard-response","331","817413","0.0-335.0","0","0","A616I","Scenes","","1077","","","32","","120","","48","","","","1","","","","","3","","","","","157","1077","","","","","","","","","","","","","","","","","","","","","","","","",""
"","reward_outcome","","html-keyboard-response","332","819429","0.0-336.0","0","0","A616I","Scenes","","529","","","38","","120","","48","","","","","","","","","","","","","","","","1","529","","","","","","","","","","","","","","","","","","","","","","",""
"","fixation","","html-keyboard-response","333","820448","0.0-339.0","0","0","A616I","Scenes","","null","","","null","","","","","","","","","","","","","","","","","","","","","","","","","","","","","","","","","","","","","","","","","","","",""
"","see_reward","","html-keyboard-response","334","820901","0.0-340.0","0","0","A616I","Scenes","","444","","","32","","117","","49","","","","1","","","","","3","","","","","142","444","","","","","","","","","","","","","","","","","","","","","","","","",""
"","reward_outcome","","html-keyboard-response","335","822914","0.0-341.0","0","0","A616I","Scenes","","418","","","38","","117","","49","","","","","","","","","","","","","","","","1","418","","","","","","","","","","","","","","","","","","","","","","",""
"","fixation","","html-keyboard-response","336","823929","0.0-344.0","0","0","A616I","Scenes","","null","","","null","","","","","","","","","","","","","","","","","","","","","","","","","","","","","","","","","","","","","","","","","","","",""
"","see_reward","","html-keyboard-response","337","824548","0.0-345.0","0","0","A616I","Scenes","","612","","","32","","142","","50","","","","1","","","","","3","","","","","144","612","","","","","","","","","","","","","","","","","","","","","","","","",""
"","reward_outcome","","html-keyboard-response","338","826561","0.0-346.0","0","0","A616I","Scenes","","428","","","38","","142","","50","","","","","","","","","","","","","","","","1","428","","","","","","","","","","","","","","","","","","","","","","",""
"","fixation","","html-keyboard-response","339","827581","0.0-349.0","0","0","A616I","Scenes","","null","","","null","","","","","","","","","","","","","","","","","","","","","","","","","","","","","","","","","","","","","","","","","","","",""
"","see_reward","","html-keyboard-response","340","828070","0.0-350.0","0","0","A616I","Scenes","","478","","","32","","108","","51","","","","1","","","","","3","","","","","141","478","","","","","","","","","","","","","","","","","","","","","","","","",""
"","reward_outcome","","html-keyboard-response","341","830082","0.0-351.0","0","0","A616I","Scenes","","512","","","38","","108","","51","","","","","","","","","","","","","","","","1","512","","","","","","","","","","","","","","","","","","","","","","",""
"","fixation","","html-keyboard-response","342","831097","0.0-354.0","0","0","A616I","Scenes","","null","","","null","","","","","","","","","","","","","","","","","","","","","","","","","","","","","","","","","","","","","","","","","","","",""
"","see_reward","","html-keyboard-response","343","831658","0.0-355.0","0","0","A616I","Scenes","","552","","","32","","147","","52","","","","-1","","","","","3","","","","","0","552","","","","","","","","","","","","","","","","","","","","","","","","",""
"","reward_outcome","","html-keyboard-response","344","833673","0.0-356.0","0","0","A616I","Scenes","","546","","","40","","147","","52","","","","","","","","","","","","","","","","-1","546","","","","","","","","","","","","","","","","","","","","","","",""
"","fixation","","html-keyboard-response","345","834692","0.0-359.0","0","0","A616I","Scenes","","null","","","null","","","","","","","","","","","","","","","","","","","","","","","","","","","","","","","","","","","","","","","","","","","",""
"","see_reward","","html-keyboard-response","346","835270","0.0-360.0","0","0","A616I","Scenes","","570","","","32","","147","","53","","","","-1","","","","","3","","","","","0","570","","","","","","","","","","","","","","","","","","","","","","","","",""
"","reward_outcome","","html-keyboard-response","347","837284","0.0-361.0","0","0","A616I","Scenes","","454","","","40","","147","","53","","","","","","","","","","","","","","","","-1","454","","","","","","","","","","","","","","","","","","","","","","",""
"","fixation","","html-keyboard-response","348","838296","0.0-364.0","0","0","A616I","Scenes","","null","","","null","","","","","","","","","","","","","","","","","","","","","","","","","","","","","","","","","","","","","","","","","","","",""
"","see_reward","","html-keyboard-response","349","838878","0.0-365.0","0","0","A616I","Scenes","","571","","","32","","148","","54","","","","1","","","","","3","","","","","150","571","","","","","","","","","","","","","","","","","","","","","","","","",""
"","reward_outcome","","html-keyboard-response","350","840888","0.0-366.0","0","0","A616I","Scenes","","326","","","38","","148","","54","","","","","","","","","","","","","","","","1","326","","","","","","","","","","","","","","","","","","","","","","",""
"","fixation","","html-keyboard-response","351","841900","0.0-369.0","0","0","A616I","Scenes","","null","","","null","","","","","","","","","","","","","","","","","","","","","","","","","","","","","","","","","","","","","","","","","","","",""
"","see_reward","","html-keyboard-response","352","842585","0.0-370.0","0","0","A616I","Scenes","","675","","","32","","129","","55","","","","-1","","","","","3","","","","","0","675","","","","","","","","","","","","","","","","","","","","","","","","",""
"","reward_outcome","","html-keyboard-response","353","844601","0.0-371.0","0","0","A616I","Scenes","","609","","","40","","129","","55","","","","","","","","","","","","","","","","-1","609","","","","","","","","","","","","","","","","","","","","","","",""
"","fixation","","html-keyboard-response","354","845613","0.0-374.0","0","0","A616I","Scenes","","null","","","null","","","","","","","","","","","","","","","","","","","","","","","","","","","","","","","","","","","","","","","","","","","",""
