"success","ttype","start_time","trial_type","trial_index","time_elapsed","internal_node_id","warning","missed_checkup","PID","stim_type","view_history","rt","responses","category","repeat_instructions","key_press","response","stimulus_id","painting","index","stimulus_left","stimulus_right","explain_trial","reward_type","rating_left","rating_right","painting_left","painting_right","block","left_chosen","chosen_obj","unchosen_obj","explain_response","reward_amount","see_reward_rt","register_reward_response","register_reward_rt","deliberation_reward_tally","stimulus_left_deliberation_ind","stimulus_right_deliberation_ind","chosen_trial","gain_left","higher_outcome_chosen","old_pair","chosen_object","rt_pairs","left_object_chosen","rt_object","old_response","new_rating","deliberated_stim","initial_rating","outcome_eval_rt","outcome_eval_response","outcome_eval_gain","outcome_eval_acc","preamble","outcome_eval_confidence","outcome_eval_confidence_rt","total_reward_tally"
"true","full_screen","d01182023hr1440","fullscreen","0","495513","0.0-0.0","0","0","PzDjg","People","","","","","","","","","","","","","","","","","","","","","","","","","","","","","","","","","","","","","","","","","","","","","","","","","",""
"","rating_instructions","","instructions","1","559480","0.0-1.0-0.0","0","0","PzDjg","People","[{""page_index"":0,""viewing_time"":60193},{""page_index"":1,""viewing_time"":3760}]","63954","","","","","","","","","","","","","","","","","","","","","","","","","","","","","","","","","","","","","","","","","","","","","","","",""
"","","","survey-multi-choice","2","568240","0.0-1.0-1.0","0","0","PzDjg","People","","8750","{""Q0"":""True"",""Q1"":""Mouse""}","rating_comprehension_check","0","","","","","","","","","","","","","","","","","","","","","","","","","","","","","","","","","","","","","","","","","","","","",""
"","start_phase","","html-keyboard-response","3","570974","0.0-2.0","0","0","PzDjg","People","","2730","","","","78","","","","","","","","","","","","","","","","","","","","","","","","","","","","","","","","","","","","","","","","","","","",""
"","rating","","html-slider-response","4","578807","0.0-3.0","0","0","PzDjg","People","","7824","","","","","60","32","nathan-dumlao-ger61_TX6oI-unsplash.jpg","0","","","","","","","","","","","","","","","","","","","","","","","","","","","","","","","","","","","","","","","",""
"","rating","","html-slider-response","5","591238","0.0-4.0","0","0","PzDjg","People","","12427","","","","","82","4","barna-bartis-2x3vfVxwR7o-unsplash.jpg","1","","","","","","","","","","","","","","","","","","","","","","","","","","","","","","","","","","","","","","","",""
"","rating","","html-slider-response","6","596620","0.0-5.0","0","0","PzDjg","People","","5372","","","","","87","39","philip-martin-5aGUyCW_PJw-unsplash.jpg","2","","","","","","","","","","","","","","","","","","","","","","","","","","","","","","","","","","","","","","","",""
"","rating","","html-slider-response","7","600872","0.0-6.0","0","0","PzDjg","People","","4245","","","","","62","14","freddy-kearney-o-ioeoATbIM-unsplash.jpg","3","","","","","","","","","","","","","","","","","","","","","","","","","","","","","","","","","","","","","","","",""
"","rating","","html-slider-response","8","606451","0.0-7.0","0","0","PzDjg","People","","5571","","","","","98","38","petr-sevcovic-HzDF-rxlSeM-unsplash.jpg","4","","","","","","","","","","","","","","","","","","","","","","","","","","","","","","","","","","","","","","","",""
"","rating","","html-slider-response","9","718829","0.0-8.0","0","0","PzDjg","People","","112369","","","","","92","42","prince-akachi-l3IHXOdMyHQ-unsplash.jpg","5","","","","","","","","","","","","","","","","","","","","","","","","","","","","","","","","","","","","","","","",""
"","rating","","html-slider-response","10","723450","0.0-9.0","0","0","PzDjg","People","","4612","","","","","92","7","brooke-cagle-HRZUzoX1e6w-unsplash.jpg","6","","","","","","","","","","","","","","","","","","","","","","","","","","","","","","","","","","","","","","","",""
"","rating","","html-slider-response","11","726448","0.0-10.0","0","0","PzDjg","People","","2993","","","","","85","35","oliver-ragfelt-khV4fTy6-D8-unsplash.jpg","7","","","","","","","","","","","","","","","","","","","","","","","","","","","","","","","","","","","","","","","",""
"","rating","","html-slider-response","12","730693","0.0-11.0","0","0","PzDjg","People","","4240","","","","","93","37","pavel-anoshin-d0peGya6R5Y-unsplash.jpg","8","","","","","","","","","","","","","","","","","","","","","","","","","","","","","","","","","","","","","","","",""
"","rating","","html-slider-response","13","736410","0.0-12.0","0","0","PzDjg","People","","5711","","","","","75","44","rikonavt-HQjfrvdTfak-unsplash.jpg","9","","","","","","","","","","","","","","","","","","","","","","","","","","","","","","","","","","","","","","","",""
"","rating","","html-slider-response","14","740163","0.0-13.0","0","0","PzDjg","People","","3747","","","","","96","19","ha-nguy-n-OFSQ6bHjFjs-unsplash.jpg","10","","","","","","","","","","","","","","","","","","","","","","","","","","","","","","","","","","","","","","","",""
"","rating","","html-slider-response","15","753923","0.0-14.0","0","0","PzDjg","People","","13754","","","","","91","41","prince-akachi-i2hoD-C2RUA-unsplash.jpg","11","","","","","","","","","","","","","","","","","","","","","","","","","","","","","","","","","","","","","","","",""
"","rating","","html-slider-response","16","758281","0.0-15.0","0","0","PzDjg","People","","4351","","","","","92","6","ben-o-bro-C5XyLljkMrY-unsplash.jpg","12","","","","","","","","","","","","","","","","","","","","","","","","","","","","","","","","","","","","","","","",""
"","rating","","html-slider-response","17","763723","0.0-16.0","0","0","PzDjg","People","","5436","","","","","95","33","olena-sergienko-0TSd6uCKTKc-unsplash.jpg","13","","","","","","","","","","","","","","","","","","","","","","","","","","","","","","","","","","","","","","","",""
"","rating","","html-slider-response","18","772084","0.0-17.0","0","0","PzDjg","People","","8354","","","","","90","0","abstral-official-cyOKLSgkgCE-unsplash.jpg","14","","","","","","","","","","","","","","","","","","","","","","","","","","","","","","","","","","","","","","","",""
"","rating","","html-slider-response","19","786089","0.0-18.0","0","0","PzDjg","People","","13993","","","","","100","18","good-faces-xmSWVeGEnJw-unsplash.jpg","15","","","","","","","","","","","","","","","","","","","","","","","","","","","","","","","","","","","","","","","",""
"","rating","","html-slider-response","20","790410","0.0-19.0","0","0","PzDjg","People","","4316","","","","","96","49","vicky-hladynets-_gDoyVv5F4c-unsplash.jpg","16","","","","","","","","","","","","","","","","","","","","","","","","","","","","","","","","","","","","","","","",""
"","rating","","html-slider-response","21","794604","0.0-20.0","0","0","PzDjg","People","","4189","","","","","90","16","giano-currie-5-9YOsmf8IQ-unsplash.jpg","17","","","","","","","","","","","","","","","","","","","","","","","","","","","","","","","","","","","","","","","",""
"","rating","","html-slider-response","22","798413","0.0-21.0","0","0","PzDjg","People","","3803","","","","","95","36","ospan-ali-mGdA2fzjWLo-unsplash.jpg","18","","","","","","","","","","","","","","","","","","","","","","","","","","","","","","","","","","","","","","","",""
"","rating","","html-slider-response","23","801304","0.0-22.0","0","0","PzDjg","People","","2887","","","","","94","12","daniel-rigdon-dXmXKPP2L4E-unsplash.jpg","19","","","","","","","","","","","","","","","","","","","","","","","","","","","","","","","","","","","","","","","",""
"","rating","","html-slider-response","24","804382","0.0-23.0","0","0","PzDjg","People","","3074","","","","","99","17","gleb-lukomets-paBzWCPN23k-unsplash.jpg","20","","","","","","","","","","","","","","","","","","","","","","","","","","","","","","","","","","","","","","","",""
"","rating","","html-slider-response","25","808077","0.0-24.0","0","0","PzDjg","People","","3690","","","","","95","43","raamin-ka-0qJBEzudn5E-unsplash.jpg","21","","","","","","","","","","","","","","","","","","","","","","","","","","","","","","","","","","","","","","","",""
"","rating","","html-slider-response","26","811661","0.0-25.0","0","0","PzDjg","People","","3580","","","","","87","24","joel-mott-LaK153ghdig-unsplash.jpg","22","","","","","","","","","","","","","","","","","","","","","","","","","","","","","","","","","","","","","","","",""
"","rating","","html-slider-response","27","817046","0.0-26.0","0","0","PzDjg","People","","5379","","","","","93","10","charles-etoroma-95UF6LXe-Lo-unsplash.jpg","23","","","","","","","","","","","","","","","","","","","","","","","","","","","","","","","","","","","","","","","",""
"","rating","","html-slider-response","28","820598","0.0-27.0","0","0","PzDjg","People","","3545","","","","","95","1","aiony-haust-jmATI5Q_YgY-unsplash.jpg","24","","","","","","","","","","","","","","","","","","","","","","","","","","","","","","","","","","","","","","","",""
"","rating","","html-slider-response","29","826440","0.0-28.0","0","0","PzDjg","People","","5836","","","","","69","28","justin-chen-J7Cf1Gch49E-unsplash.jpg","25","","","","","","","","","","","","","","","","","","","","","","","","","","","","","","","","","","","","","","","",""
"","rating","","html-slider-response","30","830238","0.0-29.0","0","0","PzDjg","People","","3790","","","","","82","47","tyler-nix-ZGa9d1a_4tA-unsplash.jpg","26","","","","","","","","","","","","","","","","","","","","","","","","","","","","","","","","","","","","","","","",""
"","rating","","html-slider-response","31","834425","0.0-30.0","0","0","PzDjg","People","","4178","","","","","92","34","oliver-johnson-1TUIcKob7Zs-unsplash.jpg","27","","","","","","","","","","","","","","","","","","","","","","","","","","","","","","","","","","","","","","","",""
"","rating","","html-slider-response","32","838230","0.0-31.0","0","0","PzDjg","People","","3800","","","","","84","20","houcine-ncib-B4TjXnI0Y2c-unsplash.jpg","28","","","","","","","","","","","","","","","","","","","","","","","","","","","","","","","","","","","","","","","",""
"","rating","","html-slider-response","33","841126","0.0-32.0","0","0","PzDjg","People","","2892","","","","","92","22","jessica-radanavong-mrYkTuAesKE-unsplash.jpg","29","","","","","","","","","","","","","","","","","","","","","","","","","","","","","","","","","","","","","","","",""
"","rating","","html-slider-response","34","845895","0.0-33.0","0","0","PzDjg","People","","4763","","","","","93","48","velizar-ivanov-7ktP9yZA1g4-unsplash.jpg","30","","","","","","","","","","","","","","","","","","","","","","","","","","","","","","","","","","","","","","","",""
"","rating","","html-slider-response","35","848960","0.0-34.0","0","0","PzDjg","People","","3057","","","","","86","27","jurica-koletic-7YVZYZeITc8-unsplash.jpg","31","","","","","","","","","","","","","","","","","","","","","","","","","","","","","","","","","","","","","","","",""
"","rating","","html-slider-response","36","852129","0.0-35.0","0","0","PzDjg","People","","3163","","","","","92","9","carlos-andres-gomez-vJuk8Y86mRw-unsplash.jpg","32","","","","","","","","","","","","","","","","","","","","","","","","","","","","","","","","","","","","","","","",""
"","rating","","html-slider-response","37","869110","0.0-36.0","0","0","PzDjg","People","","16972","","","","","56","15","gabriel-silverio-u3WmDyKGsrY-unsplash.jpg","33","","","","","","","","","","","","","","","","","","","","","","","","","","","","","","","","","","","","","","","",""
"","rating","","html-slider-response","38","869895","0.0-37.0","0","0","PzDjg","People","","781","","","","","50","23","joanna-nix-walkup-H4fEMshfwTE-unsplash.jpg","34","","","","","","","","","","","","","","","","","","","","","","","","","","","","","","","","","","","","","","","",""
"","rating","","html-slider-response","39","875852","0.0-38.0","0","0","PzDjg","People","","5949","","","","","81","21","jessica-felicio-_cvwXhGqG-o-unsplash.jpg","35","","","","","","","","","","","","","","","","","","","","","","","","","","","","","","","","","","","","","","","",""
"","rating","","html-slider-response","40","891306","0.0-39.0","0","0","PzDjg","People","","15447","","","","","94","3","art-hauntington-jzY0KRJopEI-unsplash.jpg","36","","","","","","","","","","","","","","","","","","","","","","","","","","","","","","","","","","","","","","","",""
"","rating","","html-slider-response","41","897224","0.0-40.0","0","0","PzDjg","People","","5912","","","","","92","25","joseph-gonzalez-iFgRcqHznqg-unsplash.jpg","37","","","","","","","","","","","","","","","","","","","","","","","","","","","","","","","","","","","","","","","",""
"","rating","","html-slider-response","42","901739","0.0-41.0","0","0","PzDjg","People","","4506","","","","","87","29","leilani-angel-K84vnnzxmTQ-unsplash.jpg","38","","","","","","","","","","","","","","","","","","","","","","","","","","","","","","","","","","","","","","","",""
"","rating","","html-slider-response","43","904554","0.0-42.0","0","0","PzDjg","People","","2807","","","","","85","40","prince-akachi-4Yv84VgQkRM-unsplash.jpg","39","","","","","","","","","","","","","","","","","","","","","","","","","","","","","","","","","","","","","","","",""
"","rating","","html-slider-response","44","908047","0.0-43.0","0","0","PzDjg","People","","3489","","","","","81","5","batel-studio-ttSRjiYG_WM-unsplash.jpg","40","","","","","","","","","","","","","","","","","","","","","","","","","","","","","","","","","","","","","","","",""
"","rating","","html-slider-response","45","911096","0.0-44.0","0","0","PzDjg","People","","3045","","","","","86","30","matheus-ferrero-pg_WCHWSdT8-unsplash.jpg","41","","","","","","","","","","","","","","","","","","","","","","","","","","","","","","","","","","","","","","","",""
"","rating","","html-slider-response","46","915105","0.0-45.0","0","0","PzDjg","People","","4003","","","","","90","45","sarah-noltner-pL5ZzPp1zqg-unsplash.jpg","42","","","","","","","","","","","","","","","","","","","","","","","","","","","","","","","","","","","","","","","",""
"","rating","","html-slider-response","47","917745","0.0-46.0","0","0","PzDjg","People","","2633","","","","","89","8","bruce-dixon-3M9WJQVHzog-unsplash.jpg","43","","","","","","","","","","","","","","","","","","","","","","","","","","","","","","","","","","","","","","","",""
"","rating","","html-slider-response","48","921168","0.0-47.0","0","0","PzDjg","People","","3419","","","","","81","2","arjunsyah-TBUA5KHJn6k-unsplash.jpg","44","","","","","","","","","","","","","","","","","","","","","","","","","","","","","","","","","","","","","","","",""
"","rating","","html-slider-response","49","925796","0.0-48.0","0","0","PzDjg","People","","4620","","","","","85","13","erik-lucatero-d2MSDujJl2g-unsplash.jpg","45","","","","","","","","","","","","","","","","","","","","","","","","","","","","","","","","","","","","","","","",""
"","rating","","html-slider-response","50","928894","0.0-49.0","0","0","PzDjg","People","","3093","","","","","86","26","juri-gianfrancesco-9EZadYaMzk4-unsplash.jpg","46","","","","","","","","","","","","","","","","","","","","","","","","","","","","","","","","","","","","","","","",""
"","rating","","html-slider-response","51","933040","0.0-50.0","0","0","PzDjg","People","","4142","","","","","92","11","christian-ferrer-8vT-DgHZDG4-unsplash.jpg","47","","","","","","","","","","","","","","","","","","","","","","","","","","","","","","","","","","","","","","","",""
"","rating","","html-slider-response","52","936878","0.0-51.0","0","0","PzDjg","People","","3834","","","","","92","31","mathilda-khoo-vLR0YP_otCo-unsplash.jpg","48","","","","","","","","","","","","","","","","","","","","","","","","","","","","","","","","","","","","","","","",""
"","rating","","html-slider-response","53","939800","0.0-52.0","0","0","PzDjg","People","","2916","","","","","88","46","stefan-stefancik-QXevDflbl8A-unsplash.jpg","49","","","","","","","","","","","","","","","","","","","","","","","","","","","","","","","","","","","","","","","",""
"","deliberation_instructions","","instructions","54","1794034","0.0-53.0-0.0","0","0","PzDjg","People","[{""page_index"":0,""viewing_time"":11079},{""page_index"":1,""viewing_time"":19063},{""page_index"":2,""viewing_time"":73740},{""page_index"":3,""viewing_time"":748142},{""page_index"":4,""viewing_time"":2193}]","854220","","","","","","","","","","","","","","","","","","","","","","","","","","","","","","","","","","","","","","","","","","","","","","","",""
"","","","survey-multi-choice","55","1833392","0.0-53.0-1.0","0","0","PzDjg","People","","39346","{""Q0"":""True"",""Q1"":""False"",""Q2"":""Consider carefully and take your time (up to 10 seconds)"",""Q3"":""True"",""Q4"":""K""}","deliberation_comprehension_check","1","","","","","","","","","","","","","","","","","","","","","","","","","","","","","","","","","","","","","","","","","","","","",""
"","missed_instruction_checkup","","html-keyboard-response","56","1836848","0.0-53.0-2.0-0.0","0","1","PzDjg","People","","3448","","","","78","","","","","","","","","","","","","","","","","","","","","","","","","","","","","","","","","","","","","","","","","","","",""
"","deliberation_instructions","","instructions","57","1841982","0.0-53.1-0.1","0","0","PzDjg","People","[{""page_index"":0,""viewing_time"":1653},{""page_index"":1,""viewing_time"":945},{""page_index"":2,""viewing_time"":742},{""page_index"":3,""viewing_time"":778},{""page_index"":4,""viewing_time"":1009}]","5128","","","","","","","","","","","","","","","","","","","","","","","","","","","","","","","","","","","","","","","","","","","","","","","",""
"","","","survey-multi-choice","58","1849620","0.0-53.1-1.1","0","0","PzDjg","People","","7624","{""Q0"":""True"",""Q1"":""True"",""Q2"":""Consider carefully and take your time (up to 10 seconds)"",""Q3"":""True"",""Q4"":""K""}","deliberation_comprehension_check","1","","","","","","","","","","","","","","","","","","","","","","","","","","","","","","","","","","","","","","","","","","","","",""
"","missed_instruction_checkup","","html-keyboard-response","59","1851596","0.0-53.1-2.1-0.1","0","1","PzDjg","People","","1970","","","","78","","","","","","","","","","","","","","","","","","","","","","","","","","","","","","","","","","","","","","","","","","","",""
"","deliberation_instructions","","instructions","60","1982770","0.0-53.2-0.2","0","0","PzDjg","People","[{""page_index"":0,""viewing_time"":67511},{""page_index"":1,""viewing_time"":25200},{""page_index"":2,""viewing_time"":27281},{""page_index"":3,""viewing_time"":9440},{""page_index"":4,""viewing_time"":1735}]","131168","","","","","","","","","","","","","","","","","","","","","","","","","","","","","","","","","","","","","","","","","","","","","","","",""
"","","","survey-multi-choice","61","2002611","0.0-53.2-1.2","0","0","PzDjg","People","","19825","{""Q0"":""True"",""Q1"":""True"",""Q2"":""Consider carefully and take your time (up to 10 seconds)"",""Q3"":""True"",""Q4"":""D""}","deliberation_comprehension_check","0","","","","","","","","","","","","","","","","","","","","","","","","","","","","","","","","","","","","","","","","","","","","",""
"","start_phase","","html-keyboard-response","62","2004762","0.0-54.0","0","0","PzDjg","People","","2145","","","","78","","","","","","","","","","","","","","","","","","","","","","","","","","","","","","","","","","","","","","","","","","","",""
"","first_deliberation_block","","html-keyboard-response","63","2006529","0.0-55.0","0","0","PzDjg","People","","1749","","","","78","","","","","","","","","","","","","","","","","","","","","","","","","","","","","","","","","","","","","","","","","","","",""
"","fixation","","html-keyboard-response","64","2007551","0.0-56.0-0.0","0","0","PzDjg","People","","null","","","","null","","","","","","","","","","","","","","","","","","","","","","","","","","","","","","","","","","","","","","","","","","","",""
"","deliberation","","html-keyboard-response","65","2009395","0.0-56.0-1.0","0","0","PzDjg","People","","1832","","","","68","","","","0","41","8","0","-1","91","89","prince-akachi-i2hoD-C2RUA-unsplash.jpg","bruce-dixon-3M9WJQVHzog-unsplash.jpg","1","1","41","8","","","","","","","","","","","","","","","","","","","","","","","","","","","",""
"","choice_confirmation","","html-keyboard-response","66","2009906","0.0-56.0-2.0-0.0","0","0","PzDjg","People","","null","","","","null","","","","0","41","8","","","","","","","","","","","","","","","","","","","","","","","","","","","","","","","","","","","","","",""
"","fixation","","html-keyboard-response","67","2010922","0.0-57.0-0.0","0","0","PzDjg","People","","null","","","","null","","","","","","","","","","","","","","","","","","","","","","","","","","","","","","","","","","","","","","","","","","","",""
"","deliberation","","html-keyboard-response","68","2012322","0.0-57.0-1.0","0","0","PzDjg","People","","1396","","","","75","","","","1","22","25","1","-1","92","92","jessica-radanavong-mrYkTuAesKE-unsplash.jpg","joseph-gonzalez-iFgRcqHznqg-unsplash.jpg","1","0","25","22","","","","","","","","","","","","","","","","","","","","","","","","","","","",""
"","choice_confirmation","","html-keyboard-response","69","2012825","0.0-57.0-2.0-0.0","0","0","PzDjg","People","","null","","","","null","","","","1","22","25","","","","","","","","","","","","","","","","","","","","","","","","","","","","","","","","","","","","","",""
"","explain_trial","","survey-text","70","2024816","0.0-57.0-5.0-0.0","0","0","PzDjg","People","","11980","{""Q0"":""more attractive""}","","","","","","","1","22","25","","","","","","","","","","","{""Q0"":""more attractive""}","","","","","","","","","","","","","","","","","","","","","","","","","","",""
"","fixation","","html-keyboard-response","71","2025826","0.0-58.0-0.0","0","0","PzDjg","People","","null","","","","null","","","","","","","","","","","","","","","","","","","","","","","","","","","","","","","","","","","","","","","","","","","",""
"","deliberation","","html-keyboard-response","72","2027547","0.0-58.0-1.0","0","0","PzDjg","People","","1716","","","","75","","","","2","9","40","0","1","92","85","carlos-andres-gomez-vJuk8Y86mRw-unsplash.jpg","prince-akachi-4Yv84VgQkRM-unsplash.jpg","1","0","40","9","","","","","","","","","","","","","","","","","","","","","","","","","","","",""
"","choice_confirmation","","html-keyboard-response","73","2028058","0.0-58.0-2.0-0.0","0","0","PzDjg","People","","null","","","","null","","","","2","9","40","","","","","","","","","","","","","","","","","","","","","","","","","","","","","","","","","","","","","",""
"","fixation","","html-keyboard-response","74","2029075","0.0-59.0-0.0","0","0","PzDjg","People","","null","","","","null","","","","","","","","","","","","","","","","","","","","","","","","","","","","","","","","","","","","","","","","","","","",""
"","deliberation","","html-keyboard-response","75","2030857","0.0-59.0-1.0","0","0","PzDjg","People","","1777","","","","75","","","","3","46","11","1","1","88","92","stefan-stefancik-QXevDflbl8A-unsplash.jpg","christian-ferrer-8vT-DgHZDG4-unsplash.jpg","1","0","11","46","","","","","","","","","","","","","","","","","","","","","","","","","","","",""
"","choice_confirmation","","html-keyboard-response","76","2031361","0.0-59.0-2.0-0.0","0","0","PzDjg","People","","null","","","","null","","","","3","46","11","","","","","","","","","","","","","","","","","","","","","","","","","","","","","","","","","","","","","",""
"","explain_trial","","survey-text","77","2039863","0.0-59.0-5.0-0.0","0","0","PzDjg","People","","8496","{""Q0"":""attractive""}","","","","","","","3","46","11","","","","","","","","","","","{""Q0"":""attractive""}","","","","","","","","","","","","","","","","","","","","","","","","","","",""
"","fixation","","html-keyboard-response","78","2040873","0.0-60.0-0.0","0","0","PzDjg","People","","null","","","","null","","","","","","","","","","","","","","","","","","","","","","","","","","","","","","","","","","","","","","","","","","","",""
"","deliberation","","html-keyboard-response","79","2043530","0.0-60.0-1.0","0","0","PzDjg","People","","2653","","","","75","","","","4","27","34","1","1","86","92","jurica-koletic-7YVZYZeITc8-unsplash.jpg","oliver-johnson-1TUIcKob7Zs-unsplash.jpg","1","0","34","27","","","","","","","","","","","","","","","","","","","","","","","","","","","",""
"","choice_confirmation","","html-keyboard-response","80","2044034","0.0-60.0-2.0-0.0","0","0","PzDjg","People","","null","","","","null","","","","4","27","34","","","","","","","","","","","","","","","","","","","","","","","","","","","","","","","","","","","","","",""
"","explain_trial","","survey-text","81","2049384","0.0-60.0-5.0-0.0","0","0","PzDjg","People","","5346","{""Q0"":""attractive""}","","","","","","","4","27","34","","","","","","","","","","","{""Q0"":""attractive""}","","","","","","","","","","","","","","","","","","","","","","","","","","",""
"","fixation","","html-keyboard-response","82","2050404","0.0-61.0-0.0","0","0","PzDjg","People","","null","","","","null","","","","","","","","","","","","","","","","","","","","","","","","","","","","","","","","","","","","","","","","","","","",""
"","deliberation","","html-keyboard-response","83","2052623","0.0-61.0-1.0","0","0","PzDjg","People","","2215","","","","75","","","","5","39","13","0","-1","87","85","philip-martin-5aGUyCW_PJw-unsplash.jpg","erik-lucatero-d2MSDujJl2g-unsplash.jpg","1","0","13","39","","","","","","","","","","","","","","","","","","","","","","","","","","","",""
"","choice_confirmation","","html-keyboard-response","84","2053129","0.0-61.0-2.0-0.0","0","0","PzDjg","People","","null","","","","null","","","","5","39","13","","","","","","","","","","","","","","","","","","","","","","","","","","","","","","","","","","","","","",""
"","fixation","","html-keyboard-response","85","2054138","0.0-62.0-0.0","0","0","PzDjg","People","","null","","","","null","","","","","","","","","","","","","","","","","","","","","","","","","","","","","","","","","","","","","","","","","","","",""
"","deliberation","","html-keyboard-response","86","2055822","0.0-62.0-1.0","0","0","PzDjg","People","","1677","","","","68","","","","6","6","7","1","1","92","92","ben-o-bro-C5XyLljkMrY-unsplash.jpg","brooke-cagle-HRZUzoX1e6w-unsplash.jpg","1","1","6","7","","","","","","","","","","","","","","","","","","","","","","","","","","","",""
"","choice_confirmation","","html-keyboard-response","87","2056344","0.0-62.0-2.0-0.0","0","0","PzDjg","People","","null","","","","null","","","","6","6","7","","","","","","","","","","","","","","","","","","","","","","","","","","","","","","","","","","","","","",""
"","explain_trial","","survey-text","88","2059236","0.0-62.0-5.0-0.0","0","0","PzDjg","People","","2884","{""Q0"":""attractive""}","","","","","","","6","6","7","","","","","","","","","","","{""Q0"":""attractive""}","","","","","","","","","","","","","","","","","","","","","","","","","","",""
"","fixation","","html-keyboard-response","89","2060239","0.0-63.0-0.0","0","0","PzDjg","People","","null","","","","null","","","","","","","","","","","","","","","","","","","","","","","","","","","","","","","","","","","","","","","","","","","",""
"","deliberation","","html-keyboard-response","90","2062773","0.0-63.0-1.0","0","0","PzDjg","People","","2529","","","","75","","","","7","31","26","1","-1","92","86","mathilda-khoo-vLR0YP_otCo-unsplash.jpg","juri-gianfrancesco-9EZadYaMzk4-unsplash.jpg","1","0","26","31","","","","","","","","","","","","","","","","","","","","","","","","","","","",""
"","choice_confirmation","","html-keyboard-response","91","2063294","0.0-63.0-2.0-0.0","0","0","PzDjg","People","","null","","","","null","","","","7","31","26","","","","","","","","","","","","","","","","","","","","","","","","","","","","","","","","","","","","","",""
"","explain_trial","","survey-text","92","2065914","0.0-63.0-5.0-0.0","0","0","PzDjg","People","","2616","{""Q0"":""attractive""}","","","","","","","7","31","26","","","","","","","","","","","{""Q0"":""attractive""}","","","","","","","","","","","","","","","","","","","","","","","","","","",""
"","fixation","","html-keyboard-response","93","2066922","0.0-64.0-0.0","0","0","PzDjg","People","","null","","","","null","","","","","","","","","","","","","","","","","","","","","","","","","","","","","","","","","","","","","","","","","","","",""
"","deliberation","","html-keyboard-response","94","2069814","0.0-64.0-1.0","0","0","PzDjg","People","","2887","","","","68","","","","8","16","42","0","-1","90","92","giano-currie-5-9YOsmf8IQ-unsplash.jpg","prince-akachi-l3IHXOdMyHQ-unsplash.jpg","1","1","16","42","","","","","","","","","","","","","","","","","","","","","","","","","","","",""
"","choice_confirmation","","html-keyboard-response","95","2070321","0.0-64.0-2.0-0.0","0","0","PzDjg","People","","null","","","","null","","","","8","16","42","","","","","","","","","","","","","","","","","","","","","","","","","","","","","","","","","","","","","",""
"","fixation","","html-keyboard-response","96","2071333","0.0-65.0-0.0","0","0","PzDjg","People","","null","","","","null","","","","","","","","","","","","","","","","","","","","","","","","","","","","","","","","","","","","","","","","","","","",""
"","deliberation","","html-keyboard-response","97","2073238","0.0-65.0-1.0","0","0","PzDjg","People","","1894","","","","68","","","","9","30","29","0","-1","86","87","matheus-ferrero-pg_WCHWSdT8-unsplash.jpg","leilani-angel-K84vnnzxmTQ-unsplash.jpg","1","1","30","29","","","","","","","","","","","","","","","","","","","","","","","","","","","",""
"","choice_confirmation","","html-keyboard-response","98","2073757","0.0-65.0-2.0-0.0","0","0","PzDjg","People","","null","","","","null","","","","9","30","29","","","","","","","","","","","","","","","","","","","","","","","","","","","","","","","","","","","","","",""
"","fixation","","html-keyboard-response","99","2074764","0.0-66.0-0.0","0","0","PzDjg","People","","null","","","","null","","","","","","","","","","","","","","","","","","","","","","","","","","","","","","","","","","","","","","","","","","","",""
"","deliberation","","html-keyboard-response","100","2076748","0.0-66.0-1.0","0","0","PzDjg","People","","1972","","","","75","","","","10","0","45","1","1","90","90","abstral-official-cyOKLSgkgCE-unsplash.jpg","sarah-noltner-pL5ZzPp1zqg-unsplash.jpg","1","0","45","0","","","","","","","","","","","","","","","","","","","","","","","","","","","",""
"","choice_confirmation","","html-keyboard-response","101","2077270","0.0-66.0-2.0-0.0","0","0","PzDjg","People","","null","","","","null","","","","10","0","45","","","","","","","","","","","","","","","","","","","","","","","","","","","","","","","","","","","","","",""
"","explain_trial","","survey-text","102","2080914","0.0-66.0-5.0-0.0","0","0","PzDjg","People","","3639","{""Q0"":""attractive""}","","","","","","","10","0","45","","","","","","","","","","","{""Q0"":""attractive""}","","","","","","","","","","","","","","","","","","","","","","","","","","",""
"","fixation","","html-keyboard-response","103","2081921","0.0-67.0-0.0","0","0","PzDjg","People","","null","","","","null","","","","","","","","","","","","","","","","","","","","","","","","","","","","","","","","","","","","","","","","","","","",""
"","deliberation","","html-keyboard-response","104","2083342","0.0-67.0-1.0","0","0","PzDjg","People","","1418","","","","68","","","","11","37","24","0","1","93","87","pavel-anoshin-d0peGya6R5Y-unsplash.jpg","joel-mott-LaK153ghdig-unsplash.jpg","1","1","37","24","","","","","","","","","","","","","","","","","","","","","","","","","","","",""
"","choice_confirmation","","html-keyboard-response","105","2083855","0.0-67.0-2.0-0.0","0","0","PzDjg","People","","null","","","","null","","","","11","37","24","","","","","","","","","","","","","","","","","","","","","","","","","","","","","","","","","","","","","",""
"","practice_deliberation_again","","html-keyboard-response","106","2098404","0.0-67.0-6.0-0.0","0","0","PzDjg","People","","14536","","","","78","","","","","","","","","","","","","","","","","","","","","","","","","","","","","","","","","","","","","","","","","","","",""
"","fixation","","html-keyboard-response","107","2099412","0.0-68.0-0.0","0","0","PzDjg","People","","null","","","","null","","","","","","","","","","","","","","","","","","","","","","","","","","","","","","","","","","","","","","","","","","","",""
"","deliberation","","html-keyboard-response","108","2100856","0.0-68.0-1.0","0","0","PzDjg","People","","1426","","","","68","","","","12","6","7","0","1","92","92","ben-o-bro-C5XyLljkMrY-unsplash.jpg","brooke-cagle-HRZUzoX1e6w-unsplash.jpg","2","1","6","7","","","","","","","","","","","","","","","","","","","","","","","","","","","",""
"","choice_confirmation","","html-keyboard-response","109","2101373","0.0-68.0-2.0-0.0","0","0","PzDjg","People","","null","","","","null","","","","12","6","7","","","","","","","","","","","","","","","","","","","","","","","","","","","","","","","","","","","","","",""
"","fixation","","html-keyboard-response","110","2102394","0.0-69.0-0.0","0","0","PzDjg","People","","null","","","","null","","","","","","","","","","","","","","","","","","","","","","","","","","","","","","","","","","","","","","","","","","","",""
"","deliberation","","html-keyboard-response","111","2104859","0.0-69.0-1.0","0","0","PzDjg","People","","2459","","","","68","","","","13","31","26","0","-1","92","86","mathilda-khoo-vLR0YP_otCo-unsplash.jpg","juri-gianfrancesco-9EZadYaMzk4-unsplash.jpg","2","1","31","26","","","","","","","","","","","","","","","","","","","","","","","","","","","",""
"","choice_confirmation","","html-keyboard-response","112","2105380","0.0-69.0-2.0-0.0","0","0","PzDjg","People","","null","","","","null","","","","13","31","26","","","","","","","","","","","","","","","","","","","","","","","","","","","","","","","","","","","","","",""
"","fixation","","html-keyboard-response","113","2106392","0.0-70.0-0.0","0","0","PzDjg","People","","null","","","","null","","","","","","","","","","","","","","","","","","","","","","","","","","","","","","","","","","","","","","","","","","","",""
"","deliberation","","html-keyboard-response","114","2108870","0.0-70.0-1.0","0","0","PzDjg","People","","2462","","","","68","","","","14","9","40","1","1","92","85","carlos-andres-gomez-vJuk8Y86mRw-unsplash.jpg","prince-akachi-4Yv84VgQkRM-unsplash.jpg","2","1","9","40","","","","","","","","","","","","","","","","","","","","","","","","","","","",""
"","choice_confirmation","","html-keyboard-response","115","2109388","0.0-70.0-2.0-0.0","0","0","PzDjg","People","","null","","","","null","","","","14","9","40","","","","","","","","","","","","","","","","","","","","","","","","","","","","","","","","","","","","","",""
"","explain_trial","","survey-text","116","2113186","0.0-70.0-5.0-0.0","0","0","PzDjg","People","","3791","{""Q0"":""attractive""}","","","","","","","14","9","40","","","","","","","","","","","{""Q0"":""attractive""}","","","","","","","","","","","","","","","","","","","","","","","","","","",""
"","fixation","","html-keyboard-response","117","2114192","0.0-71.0-0.0","0","0","PzDjg","People","","null","","","","null","","","","","","","","","","","","","","","","","","","","","","","","","","","","","","","","","","","","","","","","","","","",""
"","deliberation","","html-keyboard-response","118","2115999","0.0-71.0-1.0","0","0","PzDjg","People","","1804","","","","75","","","","15","22","25","0","-1","92","92","jessica-radanavong-mrYkTuAesKE-unsplash.jpg","joseph-gonzalez-iFgRcqHznqg-unsplash.jpg","2","0","25","22","","","","","","","","","","","","","","","","","","","","","","","","","","","",""
"","choice_confirmation","","html-keyboard-response","119","2116519","0.0-71.0-2.0-0.0","0","0","PzDjg","People","","null","","","","null","","","","15","22","25","","","","","","","","","","","","","","","","","","","","","","","","","","","","","","","","","","","","","",""
"","fixation","","html-keyboard-response","120","2117543","0.0-72.0-0.0","0","0","PzDjg","People","","null","","","","null","","","","","","","","","","","","","","","","","","","","","","","","","","","","","","","","","","","","","","","","","","","",""
"","deliberation","","html-keyboard-response","121","2120126","0.0-72.0-1.0","0","0","PzDjg","People","","2580","","","","75","","","","16","37","24","1","1","93","87","pavel-anoshin-d0peGya6R5Y-unsplash.jpg","joel-mott-LaK153ghdig-unsplash.jpg","2","0","24","37","","","","","","","","","","","","","","","","","","","","","","","","","","","",""
"","choice_confirmation","","html-keyboard-response","122","2120634","0.0-72.0-2.0-0.0","0","0","PzDjg","People","","null","","","","null","","","","16","37","24","","","","","","","","","","","","","","","","","","","","","","","","","","","","","","","","","","","","","",""
"","explain_trial","","survey-text","123","2129235","0.0-72.0-5.0-0.0","0","0","PzDjg","People","","8593","{""Q0"":""attractive  ""}","","","","","","","16","37","24","","","","","","","","","","","{""Q0"":""attractive  ""}","","","","","","","","","","","","","","","","","","","","","","","","","","",""
"","fixation","","html-keyboard-response","124","2130243","0.0-73.0-0.0","0","0","PzDjg","People","","null","","","","null","","","","","","","","","","","","","","","","","","","","","","","","","","","","","","","","","","","","","","","","","","","",""
"","deliberation","","html-keyboard-response","125","2134100","0.0-73.0-1.0","0","0","PzDjg","People","","3849","","","","68","","","","17","0","45","0","1","90","90","abstral-official-cyOKLSgkgCE-unsplash.jpg","sarah-noltner-pL5ZzPp1zqg-unsplash.jpg","2","1","0","45","","","","","","","","","","","","","","","","","","","","","","","","","","","",""
"","choice_confirmation","","html-keyboard-response","126","2134610","0.0-73.0-2.0-0.0","0","0","PzDjg","People","","null","","","","null","","","","17","0","45","","","","","","","","","","","","","","","","","","","","","","","","","","","","","","","","","","","","","",""
"","fixation","","html-keyboard-response","127","2135619","0.0-74.0-0.0","0","0","PzDjg","People","","null","","","","null","","","","","","","","","","","","","","","","","","","","","","","","","","","","","","","","","","","","","","","","","","","",""
"","deliberation","","html-keyboard-response","128","2136888","0.0-74.0-1.0","0","0","PzDjg","People","","1263","","","","68","","","","18","27","34","0","1","86","92","jurica-koletic-7YVZYZeITc8-unsplash.jpg","oliver-johnson-1TUIcKob7Zs-unsplash.jpg","2","1","27","34","","","","","","","","","","","","","","","","","","","","","","","","","","","",""
"","choice_confirmation","","html-keyboard-response","129","2137392","0.0-74.0-2.0-0.0","0","0","PzDjg","People","","null","","","","null","","","","18","27","34","","","","","","","","","","","","","","","","","","","","","","","","","","","","","","","","","","","","","",""
"","fixation","","html-keyboard-response","130","2138401","0.0-75.0-0.0","0","0","PzDjg","People","","null","","","","null","","","","","","","","","","","","","","","","","","","","","","","","","","","","","","","","","","","","","","","","","","","",""
"","deliberation","","html-keyboard-response","131","2141263","0.0-75.0-1.0","0","0","PzDjg","People","","2856","","","","75","","","","19","30","29","1","-1","86","87","matheus-ferrero-pg_WCHWSdT8-unsplash.jpg","leilani-angel-K84vnnzxmTQ-unsplash.jpg","2","0","29","30","","","","","","","","","","","","","","","","","","","","","","","","","","","",""
"","choice_confirmation","","html-keyboard-response","132","2141771","0.0-75.0-2.0-0.0","0","0","PzDjg","People","","null","","","","null","","","","19","30","29","","","","","","","","","","","","","","","","","","","","","","","","","","","","","","","","","","","","","",""
"","explain_trial","","survey-text","133","2145491","0.0-75.0-5.0-0.0","0","0","PzDjg","People","","3713","{""Q0"":""attractive""}","","","","","","","19","30","29","","","","","","","","","","","{""Q0"":""attractive""}","","","","","","","","","","","","","","","","","","","","","","","","","","",""
"","fixation","","html-keyboard-response","134","2146498","0.0-76.0-0.0","0","0","PzDjg","People","","null","","","","null","","","","","","","","","","","","","","","","","","","","","","","","","","","","","","","","","","","","","","","","","","","",""
"","deliberation","","html-keyboard-response","135","2156697","0.0-76.0-1.0","0","0","PzDjg","People","","null","","","","null","","","","20","41","8","1","-1","91","89","prince-akachi-i2hoD-C2RUA-unsplash.jpg","bruce-dixon-3M9WJQVHzog-unsplash.jpg","2","","","","","","","","","","","","","","","","","","","","","","","","","","","","","","",""
"","deliberation_too_slow","","html-keyboard-response","136","2158690","0.0-76.0-4.0-0.0","1","0","PzDjg","People","","null","","","","null","","","","20","","","","","","","","","","","","","","","","","","","","","","","","","","","","","","","","","","","","","","","",""
"","fixation","","html-keyboard-response","137","2160696","0.0-76.1-0.1","0","0","PzDjg","People","","null","","","","null","","","","","","","","","","","","","","","","","","","","","","","","","","","","","","","","","","","","","","","","","","","",""
"","deliberation","","html-keyboard-response","138","2171698","0.0-76.1-1.1","0","0","PzDjg","People","","null","","","","null","","","","20","41","8","1","-1","91","89","prince-akachi-i2hoD-C2RUA-unsplash.jpg","bruce-dixon-3M9WJQVHzog-unsplash.jpg","2","","","","","","","","","","","","","","","","","","","","","","","","","","","","","","",""
"","deliberation_too_slow","","html-keyboard-response","139","2173691","0.0-76.1-4.1-0.1","1","0","PzDjg","People","","null","","","","null","","","","20","","","","","","","","","","","","","","","","","","","","","","","","","","","","","","","","","","","","","","","",""
"","fixation","","html-keyboard-response","140","2175693","0.0-76.2-0.2","0","0","PzDjg","People","","null","","","","null","","","","","","","","","","","","","","","","","","","","","","","","","","","","","","","","","","","","","","","","","","","",""
"","deliberation","","html-keyboard-response","141","2185706","0.0-76.2-1.2","0","0","PzDjg","People","","null","","","","null","","","","20","41","8","1","-1","91","89","prince-akachi-i2hoD-C2RUA-unsplash.jpg","bruce-dixon-3M9WJQVHzog-unsplash.jpg","2","","","","","","","","","","","","","","","","","","","","","","","","","","","","","","",""
"","deliberation_too_slow","","html-keyboard-response","142","2187218","0.0-76.2-4.2-0.2","1","0","PzDjg","People","","null","","","","null","","","","20","","","","","","","","","","","","","","","","","","","","","","","","","","","","","","","","","","","","","","","",""
"","fixation","","html-keyboard-response","143","2188225","0.0-76.3-0.3","0","0","PzDjg","People","","null","","","","null","","","","","","","","","","","","","","","","","","","","","","","","","","","","","","","","","","","","","","","","","","","",""
"","deliberation","","html-keyboard-response","144","2189571","0.0-76.3-1.3","0","0","PzDjg","People","","1340","","","","68","","","","20","41","8","1","-1","91","89","prince-akachi-i2hoD-C2RUA-unsplash.jpg","bruce-dixon-3M9WJQVHzog-unsplash.jpg","2","1","41","8","","","","","","","","","","","","","","","","","","","","","","","","","","","",""
"","choice_confirmation","","html-keyboard-response","145","2190084","0.0-76.3-2.3-0.3","0","0","PzDjg","People","","null","","","","null","","","","20","41","8","","","","","","","","","","","","","","","","","","","","","","","","","","","","","","","","","","","","","",""
"","explain_trial","","survey-text","146","2195452","0.0-76.3-5.3-0.3","0","0","PzDjg","People","","5362","{""Q0"":""attractive""}","","","","","","","20","41","8","","","","","","","","","","","{""Q0"":""attractive""}","","","","","","","","","","","","","","","","","","","","","","","","","","",""
"","fixation","","html-keyboard-response","147","2196457","0.0-77.0-0.0","0","0","PzDjg","People","","null","","","","null","","","","","","","","","","","","","","","","","","","","","","","","","","","","","","","","","","","","","","","","","","","",""
"","deliberation","","html-keyboard-response","148","2198720","0.0-77.0-1.0","0","0","PzDjg","People","","2256","","","","68","","","","21","16","42","1","-1","90","92","giano-currie-5-9YOsmf8IQ-unsplash.jpg","prince-akachi-l3IHXOdMyHQ-unsplash.jpg","2","1","16","42","","","","","","","","","","","","","","","","","","","","","","","","","","","",""
"","choice_confirmation","","html-keyboard-response","149","2199226","0.0-77.0-2.0-0.0","0","0","PzDjg","People","","null","","","","null","","","","21","16","42","","","","","","","","","","","","","","","","","","","","","","","","","","","","","","","","","","","","","",""
"","explain_trial","","survey-text","150","2204596","0.0-77.0-5.0-0.0","0","0","PzDjg","People","","5363","{""Q0"":""attractive""}","","","","","","","21","16","42","","","","","","","","","","","{""Q0"":""attractive""}","","","","","","","","","","","","","","","","","","","","","","","","","","",""
"","fixation","","html-keyboard-response","151","2205602","0.0-78.0-0.0","0","0","PzDjg","People","","null","","","","null","","","","","","","","","","","","","","","","","","","","","","","","","","","","","","","","","","","","","","","","","","","",""
"","deliberation","","html-keyboard-response","152","2207442","0.0-78.0-1.0","0","0","PzDjg","People","","1834","","","","75","","","","22","46","11","0","1","88","92","stefan-stefancik-QXevDflbl8A-unsplash.jpg","christian-ferrer-8vT-DgHZDG4-unsplash.jpg","2","0","11","46","","","","","","","","","","","","","","","","","","","","","","","","","","","",""
"","choice_confirmation","","html-keyboard-response","153","2207946","0.0-78.0-2.0-0.0","0","0","PzDjg","People","","null","","","","null","","","","22","46","11","","","","","","","","","","","","","","","","","","","","","","","","","","","","","","","","","","","","","",""
"","fixation","","html-keyboard-response","154","2208955","0.0-79.0-0.0","0","0","PzDjg","People","","null","","","","null","","","","","","","","","","","","","","","","","","","","","","","","","","","","","","","","","","","","","","","","","","","",""
"","deliberation","","html-keyboard-response","155","2210472","0.0-79.0-1.0","0","0","PzDjg","People","","1513","","","","68","","","","23","39","13","1","-1","87","85","philip-martin-5aGUyCW_PJw-unsplash.jpg","erik-lucatero-d2MSDujJl2g-unsplash.jpg","2","1","39","13","","","","","","","","","","","","","","","","","","","","","","","","","","","",""
"","choice_confirmation","","html-keyboard-response","156","2210978","0.0-79.0-2.0-0.0","0","0","PzDjg","People","","null","","","","null","","","","23","39","13","","","","","","","","","","","","","","","","","","","","","","","","","","","","","","","","","","","","","",""
"","explain_trial","","survey-text","157","2213569","0.0-79.0-5.0-0.0","0","0","PzDjg","People","","2587","{""Q0"":""attractive""}","","","","","","","23","39","13","","","","","","","","","","","{""Q0"":""attractive""}","","","","","","","","","","","","","","","","","","","","","","","","","","",""
"","start_critical_deliberation_block","","html-keyboard-response","158","3641939","0.0-79.0-7.0-0.0","0","0","PzDjg","People","","1428363","","","","78","","","","","","","","","","","","","","","","","","","","","","","","","","","","","","","","","","","","","","","","","","","",""
"","fixation","","html-keyboard-response","159","3642959","0.0-80.0-0.0","0","0","PzDjg","People","","null","","","","null","","","","","","","","","","","","","","","","","","","","","","","","","","","","","","","","","","","","","","","","","","","",""
"","deliberation","","html-keyboard-response","160","3644127","0.0-80.0-1.0","0","0","PzDjg","People","","1164","","","","75","","","","24","37","24","0","1","93","87","pavel-anoshin-d0peGya6R5Y-unsplash.jpg","joel-mott-LaK153ghdig-unsplash.jpg","3","0","24","37","","","","","","","","","","","","","","","","","","","","","","","","","","","",""
"","choice_confirmation","","html-keyboard-response","161","3644637","0.0-80.0-2.0-0.0","0","0","PzDjg","People","","null","","","","null","","","","24","37","24","","","","","","","","","","","","","","","","","","","","","","","","","","","","","","","","","","","","","",""
"","fixation","","html-keyboard-response","162","3645641","0.0-81.0-0.0","0","0","PzDjg","People","","null","","","","null","","","","","","","","","","","","","","","","","","","","","","","","","","","","","","","","","","","","","","","","","","","",""
"","deliberation","","html-keyboard-response","163","3649479","0.0-81.0-1.0","0","0","PzDjg","People","","3832","","","","68","","","","25","16","42","0","-1","90","92","giano-currie-5-9YOsmf8IQ-unsplash.jpg","prince-akachi-l3IHXOdMyHQ-unsplash.jpg","3","1","16","42","","","","","","","","","","","","","","","","","","","","","","","","","","","",""
"","choice_confirmation","","html-keyboard-response","164","3649984","0.0-81.0-2.0-0.0","0","0","PzDjg","People","","null","","","","null","","","","25","16","42","","","","","","","","","","","","","","","","","","","","","","","","","","","","","","","","","","","","","",""
"","fixation","","html-keyboard-response","165","3650999","0.0-82.0-0.0","0","0","PzDjg","People","","null","","","","null","","","","","","","","","","","","","","","","","","","","","","","","","","","","","","","","","","","","","","","","","","","",""
"","deliberation","","html-keyboard-response","166","3654122","0.0-82.0-1.0","0","0","PzDjg","People","","3119","","","","68","","","","26","31","26","0","-1","92","86","mathilda-khoo-vLR0YP_otCo-unsplash.jpg","juri-gianfrancesco-9EZadYaMzk4-unsplash.jpg","3","1","31","26","","","","","","","","","","","","","","","","","","","","","","","","","","","",""
"","choice_confirmation","","html-keyboard-response","167","3654638","0.0-82.0-2.0-0.0","0","0","PzDjg","People","","null","","","","null","","","","26","31","26","","","","","","","","","","","","","","","","","","","","","","","","","","","","","","","","","","","","","",""
"","fixation","","html-keyboard-response","168","3655654","0.0-83.0-0.0","0","0","PzDjg","People","","null","","","","null","","","","","","","","","","","","","","","","","","","","","","","","","","","","","","","","","","","","","","","","","","","",""
"","deliberation","","html-keyboard-response","169","3656794","0.0-83.0-1.0","0","0","PzDjg","People","","1135","","","","75","","","","27","46","11","0","1","88","92","stefan-stefancik-QXevDflbl8A-unsplash.jpg","christian-ferrer-8vT-DgHZDG4-unsplash.jpg","3","0","11","46","","","","","","","","","","","","","","","","","","","","","","","","","","","",""
"","choice_confirmation","","html-keyboard-response","170","3657312","0.0-83.0-2.0-0.0","0","0","PzDjg","People","","null","","","","null","","","","27","46","11","","","","","","","","","","","","","","","","","","","","","","","","","","","","","","","","","","","","","",""
"","fixation","","html-keyboard-response","171","3658324","0.0-84.0-0.0","0","0","PzDjg","People","","null","","","","null","","","","","","","","","","","","","","","","","","","","","","","","","","","","","","","","","","","","","","","","","","","",""
"","deliberation","","html-keyboard-response","172","3659524","0.0-84.0-1.0","0","0","PzDjg","People","","1191","","","","75","","","","28","27","34","0","1","86","92","jurica-koletic-7YVZYZeITc8-unsplash.jpg","oliver-johnson-1TUIcKob7Zs-unsplash.jpg","3","0","34","27","","","","","","","","","","","","","","","","","","","","","","","","","","","",""
"","choice_confirmation","","html-keyboard-response","173","3660029","0.0-84.0-2.0-0.0","0","0","PzDjg","People","","null","","","","null","","","","28","27","34","","","","","","","","","","","","","","","","","","","","","","","","","","","","","","","","","","","","","",""
"","fixation","","html-keyboard-response","174","3661044","0.0-85.0-0.0","0","0","PzDjg","People","","null","","","","null","","","","","","","","","","","","","","","","","","","","","","","","","","","","","","","","","","","","","","","","","","","",""
"","deliberation","","html-keyboard-response","175","3662680","0.0-85.0-1.0","0","0","PzDjg","People","","1633","","","","68","","","","29","30","29","0","-1","86","87","matheus-ferrero-pg_WCHWSdT8-unsplash.jpg","leilani-angel-K84vnnzxmTQ-unsplash.jpg","3","1","30","29","","","","","","","","","","","","","","","","","","","","","","","","","","","",""
"","choice_confirmation","","html-keyboard-response","176","3663185","0.0-85.0-2.0-0.0","0","0","PzDjg","People","","null","","","","null","","","","29","30","29","","","","","","","","","","","","","","","","","","","","","","","","","","","","","","","","","","","","","",""
"","fixation","","html-keyboard-response","177","3664200","0.0-86.0-0.0","0","0","PzDjg","People","","null","","","","null","","","","","","","","","","","","","","","","","","","","","","","","","","","","","","","","","","","","","","","","","","","",""
"","deliberation","","html-keyboard-response","178","3666239","0.0-86.0-1.0","0","0","PzDjg","People","","2030","","","","68","","","","30","39","13","0","-1","87","85","philip-martin-5aGUyCW_PJw-unsplash.jpg","erik-lucatero-d2MSDujJl2g-unsplash.jpg","3","1","39","13","","","","","","","","","","","","","","","","","","","","","","","","","","","",""
"","choice_confirmation","","html-keyboard-response","179","3666745","0.0-86.0-2.0-0.0","0","0","PzDjg","People","","null","","","","null","","","","30","39","13","","","","","","","","","","","","","","","","","","","","","","","","","","","","","","","","","","","","","",""
"","fixation","","html-keyboard-response","180","3667757","0.0-87.0-0.0","0","0","PzDjg","People","","null","","","","null","","","","","","","","","","","","","","","","","","","","","","","","","","","","","","","","","","","","","","","","","","","",""
"","deliberation","","html-keyboard-response","181","3669042","0.0-87.0-1.0","0","0","PzDjg","People","","1276","","","","75","","","","31","9","40","0","1","92","85","carlos-andres-gomez-vJuk8Y86mRw-unsplash.jpg","prince-akachi-4Yv84VgQkRM-unsplash.jpg","3","0","40","9","","","","","","","","","","","","","","","","","","","","","","","","","","","",""
"","choice_confirmation","","html-keyboard-response","182","3669554","0.0-87.0-2.0-0.0","0","0","PzDjg","People","","null","","","","null","","","","31","9","40","","","","","","","","","","","","","","","","","","","","","","","","","","","","","","","","","","","","","",""
"","fixation","","html-keyboard-response","183","3670575","0.0-88.0-0.0","0","0","PzDjg","People","","null","","","","null","","","","","","","","","","","","","","","","","","","","","","","","","","","","","","","","","","","","","","","","","","","",""
"","deliberation","","html-keyboard-response","184","3671893","0.0-88.0-1.0","0","0","PzDjg","People","","1299","","","","68","","","","32","6","7","0","1","92","92","ben-o-bro-C5XyLljkMrY-unsplash.jpg","brooke-cagle-HRZUzoX1e6w-unsplash.jpg","3","1","6","7","","","","","","","","","","","","","","","","","","","","","","","","","","","",""
"","choice_confirmation","","html-keyboard-response","185","3672411","0.0-88.0-2.0-0.0","0","0","PzDjg","People","","null","","","","null","","","","32","6","7","","","","","","","","","","","","","","","","","","","","","","","","","","","","","","","","","","","","","",""
"","fixation","","html-keyboard-response","186","3673417","0.0-89.0-0.0","0","0","PzDjg","People","","null","","","","null","","","","","","","","","","","","","","","","","","","","","","","","","","","","","","","","","","","","","","","","","","","",""
"","deliberation","","html-keyboard-response","187","3674834","0.0-89.0-1.0","0","0","PzDjg","People","","1406","","","","68","","","","33","22","25","0","-1","92","92","jessica-radanavong-mrYkTuAesKE-unsplash.jpg","joseph-gonzalez-iFgRcqHznqg-unsplash.jpg","3","1","22","25","","","","","","","","","","","","","","","","","","","","","","","","","","","",""
"","choice_confirmation","","html-keyboard-response","188","3675336","0.0-89.0-2.0-0.0","0","0","PzDjg","People","","null","","","","null","","","","33","22","25","","","","","","","","","","","","","","","","","","","","","","","","","","","","","","","","","","","","","",""
"","fixation","","html-keyboard-response","189","3676358","0.0-90.0-0.0","0","0","PzDjg","People","","null","","","","null","","","","","","","","","","","","","","","","","","","","","","","","","","","","","","","","","","","","","","","","","","","",""
"","deliberation","","html-keyboard-response","190","3677703","0.0-90.0-1.0","0","0","PzDjg","People","","1331","","","","75","","","","34","0","45","0","1","90","90","abstral-official-cyOKLSgkgCE-unsplash.jpg","sarah-noltner-pL5ZzPp1zqg-unsplash.jpg","3","0","45","0","","","","","","","","","","","","","","","","","","","","","","","","","","","",""
"","choice_confirmation","","html-keyboard-response","191","3678223","0.0-90.0-2.0-0.0","0","0","PzDjg","People","","null","","","","null","","","","34","0","45","","","","","","","","","","","","","","","","","","","","","","","","","","","","","","","","","","","","","",""
"","fixation","","html-keyboard-response","192","3679250","0.0-91.0-0.0","0","0","PzDjg","People","","null","","","","null","","","","","","","","","","","","","","","","","","","","","","","","","","","","","","","","","","","","","","","","","","","",""
"","deliberation","","html-keyboard-response","193","3684390","0.0-91.0-1.0","0","0","PzDjg","People","","5134","","","","75","","","","35","41","8","0","-1","91","89","prince-akachi-i2hoD-C2RUA-unsplash.jpg","bruce-dixon-3M9WJQVHzog-unsplash.jpg","3","0","8","41","","","","","","","","","","","","","","","","","","","","","","","","","","","",""
"","choice_confirmation","","html-keyboard-response","194","3684913","0.0-91.0-2.0-0.0","0","0","PzDjg","People","","null","","","","null","","","","35","41","8","","","","","","","","","","","","","","","","","","","","","","","","","","","","","","","","","","","","","",""
"","reward_learning_instructions","","instructions","195","3701350","0.0-92.0-0.0","0","0","PzDjg","People","[{""page_index"":0,""viewing_time"":11327},{""page_index"":1,""viewing_time"":2815},{""page_index"":2,""viewing_time"":2288}]","16431","","","","","","","","","","","","","","","","","","","","","","","","","","","","","","","","","","","","","","","","","","","","","","","",""
"","","","survey-multi-choice","196","3708569","0.0-92.0-1.0","0","0","PzDjg","People","","7209","{""Q0"":""True"",""Q1"":""True"",""Q2"":""Just look at it"",""Q3"":""Just look at it""}","reward_comprehension_check","1","","","","","","","","","","","","","","","","","","","","","","","","","","","","","","","","","","","","","","","","","","","","",""
"","missed_instruction_checkup","","html-keyboard-response","197","3710618","0.0-92.0-2.0-0.0","0","1","PzDjg","People","","2045","","","","78","","","","","","","","","","","","","","","","","","","","","","","","","","","","","","","","","","","","","","","","","","","",""
"","reward_learning_instructions","","instructions","198","3765858","0.0-92.1-0.1","0","0","PzDjg","People","[{""page_index"":0,""viewing_time"":40974},{""page_index"":1,""viewing_time"":12642},{""page_index"":2,""viewing_time"":1615}]","55232","","","","","","","","","","","","","","","","","","","","","","","","","","","","","","","","","","","","","","","","","","","","","","","",""
"","","","survey-multi-choice","199","3897616","0.0-92.1-1.1","0","0","PzDjg","People","","131738","{""Q0"":""True"",""Q1"":""True"",""Q2"":""Press the space bar to see its outcome"",""Q3"":""Press the relevant key while the outcome is presented""}","reward_comprehension_check","0","","","","","","","","","","","","","","","","","","","","","","","","","","","","","","","","","","","","","","","","","","","","",""
"","start_phase","","html-keyboard-response","200","3900784","0.0-93.0","0","0","PzDjg","People","","3163","","","","78","","","","","","","","","","","","","","","","","","","","","","","","","","","","","","","","","","","","","","","","","","","",""
"","fixation","","html-keyboard-response","201","3901793","0.0-94.0","0","0","PzDjg","People","","null","","","","null","","","","","","","","","","","","","","","","","","","","","","","","","","","","","","","","","","","","","","","","","","","",""
"","see_reward","","html-keyboard-response","202","3911659","0.0-95.0","0","0","PzDjg","People","","9860","","","","32","","24","","0","","","","1","","","","","1","","","","","150","9860","","","","","","","","","","","","","","","","","","","","","","","","",""
"","reward_outcome","","html-keyboard-response","203","3913666","0.0-96.0","0","0","PzDjg","People","","null","","","","null","","24","","0","","","","","","","","","","","","","","","","NaN","null","","","","","","","","","","","","","","","","","","","","","","",""
"","respond_faster","","html-keyboard-response","204","3915182","0.0-97.0-0.0","1","0","PzDjg","People","","null","","","","null","","","","","","","","","","","","","","","","","","","","","","","","","","","","","","","","","","","","","","","","","","","",""
"","fixation","","html-keyboard-response","205","3916193","0.0-99.0","0","0","PzDjg","People","","null","","","","null","","","","","","","","","","","","","","","","","","","","","","","","","","","","","","","","","","","","","","","","","","","",""
"","see_reward","","html-keyboard-response","206","3917306","0.0-100.0","0","0","PzDjg","People","","1109","","","","32","","8","","1","","","","-1","","","","","1","","","","","0","1109","","","","","","","","","","","","","","","","","","","","","","","","",""
"","reward_outcome","","html-keyboard-response","207","3919319","0.0-101.0","0","0","PzDjg","People","","1156","","","","38","","8","","1","","","","","","","","","","","","","","","","1","1156","","","","","","","","","","","","","","","","","","","","","","",""
"","fixation","","html-keyboard-response","208","3920330","0.0-104.0","0","0","PzDjg","People","","null","","","","null","","","","","","","","","","","","","","","","","","","","","","","","","","","","","","","","","","","","","","","","","","","",""
"","see_reward","","html-keyboard-response","209","3921275","0.0-105.0","0","0","PzDjg","People","","940","","","","32","","45","","2","","","","1","","","","","1","","","","","155","940","","","","","","","","","","","","","","","","","","","","","","","","",""
"","reward_outcome","","html-keyboard-response","210","3923295","0.0-106.0","0","0","PzDjg","People","","1156","","","","40","","45","","2","","","","","","","","","","","","","","","","-1","1156","","","","","","","","","","","","","","","","","","","","","","",""
"","fixation","","html-keyboard-response","211","3924310","0.0-109.0","0","0","PzDjg","People","","null","","","","null","","","","","","","","","","","","","","","","","","","","","","","","","","","","","","","","","","","","","","","","","","","",""
"","see_reward","","html-keyboard-response","212","3925207","0.0-110.0","0","0","PzDjg","People","","893","","","","32","","39","","3","","","","-1","","","","","1","","","","","0","893","","","","","","","","","","","","","","","","","","","","","","","","",""
"","reward_outcome","","html-keyboard-response","213","3927217","0.0-111.0","0","0","PzDjg","People","","null","","","","null","","39","","3","","","","","","","","","","","","","","","","NaN","null","","","","","","","","","","","","","","","","","","","","","","",""
"","respond_faster","","html-keyboard-response","214","3928720","0.0-112.0-0.0","1","0","PzDjg","People","","null","","","","null","","","","","","","","","","","","","","","","","","","","","","","","","","","","","","","","","","","","","","","","","","","",""
"","fixation","","html-keyboard-response","215","3929728","0.0-114.0","0","0","PzDjg","People","","null","","","","null","","","","","","","","","","","","","","","","","","","","","","","","","","","","","","","","","","","","","","","","","","","",""
"","see_reward","","html-keyboard-response","216","3930207","0.0-115.0","0","0","PzDjg","People","","475","","","","32","","39","","4","","","","-1","","","","","1","","","","","0","475","","","","","","","","","","","","","","","","","","","","","","","","",""
"","reward_outcome","","html-keyboard-response","217","3932214","0.0-116.0","0","0","PzDjg","People","","700","","","","38","","39","","4","","","","","","","","","","","","","","","","1","700","","","","","","","","","","","","","","","","","","","","","","",""
"","fixation","","html-keyboard-response","218","3933224","0.0-119.0","0","0","PzDjg","People","","null","","","","null","","","","","","","","","","","","","","","","","","","","","","","","","","","","","","","","","","","","","","","","","","","",""
"","see_reward","","html-keyboard-response","219","3934442","0.0-120.0","0","0","PzDjg","People","","1212","","","","32","","31","","5","","","","-1","","","","","1","","","","","0","1212","","","","","","","","","","","","","","","","","","","","","","","","",""
"","reward_outcome","","html-keyboard-response","220","3936450","0.0-121.0","0","0","PzDjg","People","","1096","","","","40","","31","","5","","","","","","","","","","","","","","","","-1","1096","","","","","","","","","","","","","","","","","","","","","","",""
"","fixation","","html-keyboard-response","221","3937460","0.0-124.0","0","0","PzDjg","People","","null","","","","null","","","","","","","","","","","","","","","","","","","","","","","","","","","","","","","","","","","","","","","","","","","",""
"","see_reward","","html-keyboard-response","222","3937575","0.0-125.0","0","0","PzDjg","People","","112","","","","32","","40","","6","","","","1","","","","","1","","","","","144","112","","","","","","","","","","","","","","","","","","","","","","","","",""
"","reward_outcome","","html-keyboard-response","223","3939587","0.0-126.0","0","0","PzDjg","People","","216","","","","40","","40","","6","","","","","","","","","","","","","","","","-1","216","","","","","","","","","","","","","","","","","","","","","","",""
"","fixation","","html-keyboard-response","224","3940592","0.0-129.0","0","0","PzDjg","People","","null","","","","null","","","","","","","","","","","","","","","","","","","","","","","","","","","","","","","","","","","","","","","","","","","",""
"","see_reward","","html-keyboard-response","225","3940794","0.0-130.0","0","0","PzDjg","People","","199","","","","32","","40","","7","","","","1","","","","","1","","","","","144","199","","","","","","","","","","","","","","","","","","","","","","","","",""
"","reward_outcome","","html-keyboard-response","226","3942800","0.0-131.0","0","0","PzDjg","People","","149","","","","40","","40","","7","","","","","","","","","","","","","","","","-1","149","","","","","","","","","","","","","","","","","","","","","","",""
"","fixation","","html-keyboard-response","227","3943809","0.0-134.0","0","0","PzDjg","People","","null","","","","null","","","","","","","","","","","","","","","","","","","","","","","","","","","","","","","","","","","","","","","","","","","",""
"","see_reward","","html-keyboard-response","228","3944036","0.0-135.0","0","0","PzDjg","People","","222","","","","32","","45","","8","","","","1","","","","","1","","","","","155","222","","","","","","","","","","","","","","","","","","","","","","","","",""
"","reward_outcome","","html-keyboard-response","229","3946051","0.0-136.0","0","0","PzDjg","People","","129","","","","40","","45","","8","","","","","","","","","","","","","","","","-1","129","","","","","","","","","","","","","","","","","","","","","","",""
"","fixation","","html-keyboard-response","230","3947056","0.0-139.0","0","0","PzDjg","People","","null","","","","null","","","","","","","","","","","","","","","","","","","","","","","","","","","","","","","","","","","","","","","","","","","",""
"","see_reward","","html-keyboard-response","231","3947058","0.0-140.0","0","0","PzDjg","People","","0","","","","32","","8","","9","","","","-1","","","","","1","","","","","0","0","","","","","","","","","","","","","","","","","","","","","","","","",""
"","reward_outcome","","html-keyboard-response","232","3949067","0.0-141.0","0","0","PzDjg","People","","86","","","","38","","8","","9","","","","","","","","","","","","","","","","1","86","","","","","","","","","","","","","","","","","","","","","","",""
"","fixation","","html-keyboard-response","233","3950073","0.0-144.0","0","0","PzDjg","People","","null","","","","null","","","","","","","","","","","","","","","","","","","","","","","","","","","","","","","","","","","","","","","","","","","",""
"","see_reward","","html-keyboard-response","234","3950101","0.0-145.0","0","0","PzDjg","People","","24","","","","32","","34","","10","","","","1","","","","","1","","","","","144","24","","","","","","","","","","","","","","","","","","","","","","","","",""
"","reward_outcome","","html-keyboard-response","235","3952113","0.0-146.0","0","0","PzDjg","People","","79","","","","40","","34","","10","","","","","","","","","","","","","","","","-1","79","","","","","","","","","","","","","","","","","","","","","","",""
"","fixation","","html-keyboard-response","236","3953122","0.0-149.0","0","0","PzDjg","People","","null","","","","null","","","","","","","","","","","","","","","","","","","","","","","","","","","","","","","","","","","","","","","","","","","",""
"","see_reward","","html-keyboard-response","237","3953424","0.0-150.0","0","0","PzDjg","People","","284","","","","32","","11","","11","","","","1","","","","","1","","","","","145","284","","","","","","","","","","","","","","","","","","","","","","","","",""
"","reward_outcome","","html-keyboard-response","238","3955697","0.0-151.0","0","0","PzDjg","People","","116","","","","40","","11","","11","","","","","","","","","","","","","","","","-1","116","","","","","","","","","","","","","","","","","","","","","","",""
"","fixation","","html-keyboard-response","239","3956707","0.0-154.0","0","0","PzDjg","People","","null","","","","null","","","","","","","","","","","","","","","","","","","","","","","","","","","","","","","","","","","","","","","","","","","",""
"","see_reward","","html-keyboard-response","240","3957512","0.0-155.0","0","0","PzDjg","People","","802","","","","32","","16","","12","","","","-1","","","","","1","","","","","0","802","","","","","","","","","","","","","","","","","","","","","","","","",""
"","reward_outcome","","html-keyboard-response","241","3959526","0.0-156.0","0","0","PzDjg","People","","78","","","","40","","16","","12","","","","","","","","","","","","","","","","-1","78","","","","","","","","","","","","","","","","","","","","","","",""
"","fixation","","html-keyboard-response","242","3960537","0.0-159.0","0","0","PzDjg","People","","null","","","","null","","","","","","","","","","","","","","","","","","","","","","","","","","","","","","","","","","","","","","","","","","","",""
"","see_reward","","html-keyboard-response","243","3960655","0.0-160.0","0","0","PzDjg","People","","115","","","","32","","30","","13","","","","-1","","","","","1","","","","","0","115","","","","","","","","","","","","","","","","","","","","","","","","",""
"","reward_outcome","","html-keyboard-response","244","3962668","0.0-161.0","0","0","PzDjg","People","","46","","","","40","","30","","13","","","","","","","","","","","","","","","","-1","46","","","","","","","","","","","","","","","","","","","","","","",""
"","fixation","","html-keyboard-response","245","3963675","0.0-164.0","0","0","PzDjg","People","","null","","","","null","","","","","","","","","","","","","","","","","","","","","","","","","","","","","","","","","","","","","","","","","","","",""
"","see_reward","","html-keyboard-response","246","3963946","0.0-165.0","0","0","PzDjg","People","","268","","","","32","","30","","14","","","","-1","","","","","1","","","","","0","268","","","","","","","","","","","","","","","","","","","","","","","","",""
"","reward_outcome","","html-keyboard-response","247","3965967","0.0-166.0","0","0","PzDjg","People","","79","","","","38","","30","","14","","","","","","","","","","","","","","","","1","79","","","","","","","","","","","","","","","","","","","","","","",""
"","fixation","","html-keyboard-response","248","3966978","0.0-169.0","0","0","PzDjg","People","","null","","","","null","","","","","","","","","","","","","","","","","","","","","","","","","","","","","","","","","","","","","","","","","","","",""
"","see_reward","","html-keyboard-response","249","3967240","0.0-170.0","0","0","PzDjg","People","","252","","","","32","","6","","15","","","","1","","","","","1","","","","","145","252","","","","","","","","","","","","","","","","","","","","","","","","",""
"","reward_outcome","","html-keyboard-response","250","3969263","0.0-171.0","0","0","PzDjg","People","","97","","","","40","","6","","15","","","","","","","","","","","","","","","","-1","97","","","","","","","","","","","","","","","","","","","","","","",""
"","fixation","","html-keyboard-response","251","3970295","0.0-174.0","0","0","PzDjg","People","","null","","","","null","","","","","","","","","","","","","","","","","","","","","","","","","","","","","","","","","","","","","","","","","","","",""
"","see_reward","","html-keyboard-response","252","3970697","0.0-175.0","0","0","PzDjg","People","","385","","","","32","","22","","16","","","","-1","","","","","1","","","","","0","385","","","","","","","","","","","","","","","","","","","","","","","","",""
"","reward_outcome","","html-keyboard-response","253","3972718","0.0-176.0","0","0","PzDjg","People","","63","","","","40","","22","","16","","","","","","","","","","","","","","","","-1","63","","","","","","","","","","","","","","","","","","","","","","",""
"","fixation","","html-keyboard-response","254","3973732","0.0-179.0","0","0","PzDjg","People","","null","","","","null","","","","","","","","","","","","","","","","","","","","","","","","","","","","","","","","","","","","","","","","","","","",""
"","see_reward","","html-keyboard-response","255","3973895","0.0-180.0","0","0","PzDjg","People","","151","","","","32","","34","","17","","","","1","","","","","1","","","","","144","151","","","","","","","","","","","","","","","","","","","","","","","","",""
"","reward_outcome","","html-keyboard-response","256","3975907","0.0-181.0","0","0","PzDjg","People","","60","","","","40","","34","","17","","","","","","","","","","","","","","","","-1","60","","","","","","","","","","","","","","","","","","","","","","",""
"","fixation","","html-keyboard-response","257","3976926","0.0-184.0","0","0","PzDjg","People","","null","","","","null","","","","","","","","","","","","","","","","","","","","","","","","","","","","","","","","","","","","","","","","","","","",""
"","see_reward","","html-keyboard-response","258","3977389","0.0-185.0","0","0","PzDjg","People","","458","","","","32","","22","","18","","","","-1","","","","","1","","","","","0","458","","","","","","","","","","","","","","","","","","","","","","","","",""
"","reward_outcome","","html-keyboard-response","259","3979404","0.0-186.0","0","0","PzDjg","People","","43","","","","40","","22","","18","","","","","","","","","","","","","","","","-1","43","","","","","","","","","","","","","","","","","","","","","","",""
"","fixation","","html-keyboard-response","260","3980420","0.0-189.0","0","0","PzDjg","People","","null","","","","null","","","","","","","","","","","","","","","","","","","","","","","","","","","","","","","","","","","","","","","","","","","",""
"","see_reward","","html-keyboard-response","261","3980669","0.0-190.0","0","0","PzDjg","People","","247","","","","32","","11","","19","","","","1","","","","","1","","","","","145","247","","","","","","","","","","","","","","","","","","","","","","","","",""
"","reward_outcome","","html-keyboard-response","262","3982672","0.0-191.0","0","0","PzDjg","People","","114","","","","40","","11","","19","","","","","","","","","","","","","","","","-1","114","","","","","","","","","","","","","","","","","","","","","","",""
"","fixation","","html-keyboard-response","263","3983683","0.0-194.0","0","0","PzDjg","People","","null","","","","null","","","","","","","","","","","","","","","","","","","","","","","","","","","","","","","","","","","","","","","","","","","",""
"","see_reward","","html-keyboard-response","264","3983743","0.0-195.0","0","0","PzDjg","People","","57","","","","32","","31","","20","","","","-1","","","","","1","","","","","0","57","","","","","","","","","","","","","","","","","","","","","","","","",""
"","reward_outcome","","html-keyboard-response","265","3985752","0.0-196.0","0","0","PzDjg","People","","84","","","","40","","31","","20","","","","","","","","","","","","","","","","-1","84","","","","","","","","","","","","","","","","","","","","","","",""
"","fixation","","html-keyboard-response","266","3986769","0.0-199.0","0","0","PzDjg","People","","null","","","","null","","","","","","","","","","","","","","","","","","","","","","","","","","","","","","","","","","","","","","","","","","","",""
"","see_reward","","html-keyboard-response","267","3987587","0.0-200.0","0","0","PzDjg","People","","809","","","","32","","6","","21","","","","1","","","","","1","","","","","145","809","","","","","","","","","","","","","","","","","","","","","","","","",""
"","reward_outcome","","html-keyboard-response","268","3989604","0.0-201.0","0","0","PzDjg","People","","65","","","","40","","6","","21","","","","","","","","","","","","","","","","-1","65","","","","","","","","","","","","","","","","","","","","","","",""
"","fixation","","html-keyboard-response","269","3990608","0.0-204.0","0","0","PzDjg","People","","null","","","","null","","","","","","","","","","","","","","","","","","","","","","","","","","","","","","","","","","","","","","","","","","","",""
"","see_reward","","html-keyboard-response","270","3991004","0.0-205.0","0","0","PzDjg","People","","386","","","","32","","24","","22","","","","1","","","","","1","","","","","150","386","","","","","","","","","","","","","","","","","","","","","","","","",""
"","reward_outcome","","html-keyboard-response","271","3993014","0.0-206.0","0","0","PzDjg","People","","61","","","","40","","24","","22","","","","","","","","","","","","","","","","-1","61","","","","","","","","","","","","","","","","","","","","","","",""
"","fixation","","html-keyboard-response","272","3994028","0.0-209.0","0","0","PzDjg","People","","null","","","","null","","","","","","","","","","","","","","","","","","","","","","","","","","","","","","","","","","","","","","","","","","","",""
"","see_reward","","html-keyboard-response","273","3994317","0.0-210.0","0","0","PzDjg","People","","284","","","","32","","16","","23","","","","-1","","","","","1","","","","","0","284","","","","","","","","","","","","","","","","","","","","","","","","",""
"","reward_outcome","","html-keyboard-response","274","3996334","0.0-211.0","0","0","PzDjg","People","","74","","","","40","","16","","23","","","","","","","","","","","","","","","","-1","74","","","","","","","","","","","","","","","","","","","","","","",""
"","block_over","","html-keyboard-response","275","4001076","0.0-213.0-0.0","0","0","PzDjg","People","","4736","","","","78","","","","","","","","","","","","","","","","","","","","","","","","","","","","","","","","","","","","","","","","","","","",""
"","fixation","","html-keyboard-response","276","4002080","0.0-214.0","0","0","PzDjg","People","","null","","","","null","","","","","","","","","","","","","","","","","","","","","","","","","","","","","","","","","","","","","","","","","","","",""
"","see_reward","","html-keyboard-response","277","4002489","0.0-215.0","0","0","PzDjg","People","","398","","","","32","","6","","24","","","","1","","","","","2","","","","","145","398","","","","","","","","","","","","","","","","","","","","","","","","",""
"","reward_outcome","","html-keyboard-response","278","4004500","0.0-216.0","0","0","PzDjg","People","","51","","","","40","","6","","24","","","","","","","","","","","","","","","","-1","51","","","","","","","","","","","","","","","","","","","","","","",""
"","fixation","","html-keyboard-response","279","4005512","0.0-219.0","0","0","PzDjg","People","","null","","","","null","","","","","","","","","","","","","","","","","","","","","","","","","","","","","","","","","","","","","","","","","","","",""
"","see_reward","","html-keyboard-response","280","4005913","0.0-220.0","0","0","PzDjg","People","","398","","","","32","","24","","25","","","","1","","","","","2","","","","","150","398","","","","","","","","","","","","","","","","","","","","","","","","",""
"","reward_outcome","","html-keyboard-response","281","4007921","0.0-221.0","0","0","PzDjg","People","","58","","","","40","","24","","25","","","","","","","","","","","","","","","","-1","58","","","","","","","","","","","","","","","","","","","","","","",""
"","fixation","","html-keyboard-response","282","4008935","0.0-224.0","0","0","PzDjg","People","","null","","","","null","","","","","","","","","","","","","","","","","","","","","","","","","","","","","","","","","","","","","","","","","","","",""
"","see_reward","","html-keyboard-response","283","4009223","0.0-225.0","0","0","PzDjg","People","","277","","","","32","","34","","26","","","","1","","","","","2","","","","","144","277","","","","","","","","","","","","","","","","","","","","","","","","",""
"","reward_outcome","","html-keyboard-response","284","4011246","0.0-226.0","0","0","PzDjg","People","","63","","","","40","","34","","26","","","","","","","","","","","","","","","","-1","63","","","","","","","","","","","","","","","","","","","","","","",""
"","fixation","","html-keyboard-response","285","4012260","0.0-229.0","0","0","PzDjg","People","","null","","","","null","","","","","","","","","","","","","","","","","","","","","","","","","","","","","","","","","","","","","","","","","","","",""
"","see_reward","","html-keyboard-response","286","4012332","0.0-230.0","0","0","PzDjg","People","","60","","","","32","","8","","27","","","","-1","","","","","2","","","","","0","60","","","","","","","","","","","","","","","","","","","","","","","","",""
"","reward_outcome","","html-keyboard-response","287","4014339","0.0-231.0","0","0","PzDjg","People","","74","","","","40","","8","","27","","","","","","","","","","","","","","","","-1","74","","","","","","","","","","","","","","","","","","","","","","",""
"","fixation","","html-keyboard-response","288","4015347","0.0-234.0","0","0","PzDjg","People","","null","","","","null","","","","","","","","","","","","","","","","","","","","","","","","","","","","","","","","","","","","","","","","","","","",""
"","see_reward","","html-keyboard-response","289","4015491","0.0-235.0","0","0","PzDjg","People","","126","","","","32","","30","","28","","","","-1","","","","","2","","","","","0","126","","","","","","","","","","","","","","","","","","","","","","","","",""
"","reward_outcome","","html-keyboard-response","290","4017498","0.0-236.0","0","0","PzDjg","People","","72","","","","38","","30","","28","","","","","","","","","","","","","","","","1","72","","","","","","","","","","","","","","","","","","","","","","",""
"","fixation","","html-keyboard-response","291","4018518","0.0-239.0","0","0","PzDjg","People","","null","","","","null","","","","","","","","","","","","","","","","","","","","","","","","","","","","","","","","","","","","","","","","","","","",""
"","see_reward","","html-keyboard-response","292","4019804","0.0-240.0","0","0","PzDjg","People","","1270","","","","32","","40","","29","","","","1","","","","","2","","","","","144","1270","","","","","","","","","","","","","","","","","","","","","","","","",""
"","reward_outcome","","html-keyboard-response","293","4021810","0.0-241.0","0","0","PzDjg","People","","94","","","","40","","40","","29","","","","","","","","","","","","","","","","-1","94","","","","","","","","","","","","","","","","","","","","","","",""
"","fixation","","html-keyboard-response","294","4022815","0.0-244.0","0","0","PzDjg","People","","null","","","","null","","","","","","","","","","","","","","","","","","","","","","","","","","","","","","","","","","","","","","","","","","","",""
"","see_reward","","html-keyboard-response","295","4022965","0.0-245.0","0","0","PzDjg","People","","137","","","","32","","22","","30","","","","-1","","","","","2","","","","","0","137","","","","","","","","","","","","","","","","","","","","","","","","",""
"","reward_outcome","","html-keyboard-response","296","4024975","0.0-246.0","0","0","PzDjg","People","","111","","","","40","","22","","30","","","","","","","","","","","","","","","","-1","111","","","","","","","","","","","","","","","","","","","","","","",""
"","fixation","","html-keyboard-response","297","4025986","0.0-249.0","0","0","PzDjg","People","","null","","","","null","","","","","","","","","","","","","","","","","","","","","","","","","","","","","","","","","","","","","","","","","","","",""
"","see_reward","","html-keyboard-response","298","4026186","0.0-250.0","0","0","PzDjg","People","","192","","","","32","","34","","31","","","","1","","","","","2","","","","","144","192","","","","","","","","","","","","","","","","","","","","","","","","",""
"","reward_outcome","","html-keyboard-response","299","4028194","0.0-251.0","0","0","PzDjg","People","","46","","","","40","","34","","31","","","","","","","","","","","","","","","","-1","46","","","","","","","","","","","","","","","","","","","","","","",""
"","fixation","","html-keyboard-response","300","4029198","0.0-254.0","0","0","PzDjg","People","","null","","","","null","","","","","","","","","","","","","","","","","","","","","","","","","","","","","","","","","","","","","","","","","","","",""
"","see_reward","","html-keyboard-response","301","4029477","0.0-255.0","0","0","PzDjg","People","","277","","","","32","","39","","32","","","","-1","","","","","2","","","","","0","277","","","","","","","","","","","","","","","","","","","","","","","","",""
"","reward_outcome","","html-keyboard-response","302","4031496","0.0-256.0","0","0","PzDjg","People","","64","","","","40","","39","","32","","","","","","","","","","","","","","","","-1","64","","","","","","","","","","","","","","","","","","","","","","",""
"","fixation","","html-keyboard-response","303","4032505","0.0-259.0","0","0","PzDjg","People","","null","","","","null","","","","","","","","","","","","","","","","","","","","","","","","","","","","","","","","","","","","","","","","","","","",""
"","see_reward","","html-keyboard-response","304","4032942","0.0-260.0","0","0","PzDjg","People","","425","","","","32","","31","","33","","","","-1","","","","","2","","","","","0","425","","","","","","","","","","","","","","","","","","","","","","","","",""
"","reward_outcome","","html-keyboard-response","305","4034958","0.0-261.0","0","0","PzDjg","People","","59","","","","40","","31","","33","","","","","","","","","","","","","","","","-1","59","","","","","","","","","","","","","","","","","","","","","","",""
"","fixation","","html-keyboard-response","306","4035979","0.0-264.0","0","0","PzDjg","People","","null","","","","null","","","","","","","","","","","","","","","","","","","","","","","","","","","","","","","","","","","","","","","","","","","",""
"","see_reward","","html-keyboard-response","307","4036206","0.0-265.0","0","0","PzDjg","People","","215","","","","32","","24","","34","","","","1","","","","","2","","","","","150","215","","","","","","","","","","","","","","","","","","","","","","","","",""
"","reward_outcome","","html-keyboard-response","308","4038216","0.0-266.0","0","0","PzDjg","People","","36","","","","40","","24","","34","","","","","","","","","","","","","","","","-1","36","","","","","","","","","","","","","","","","","","","","","","",""
"","fixation","","html-keyboard-response","309","4039224","0.0-269.0","0","0","PzDjg","People","","null","","","","null","","","","","","","","","","","","","","","","","","","","","","","","","","","","","","","","","","","","","","","","","","","",""
"","see_reward","","html-keyboard-response","310","4039611","0.0-270.0","0","0","PzDjg","People","","380","","","","32","","39","","35","","","","-1","","","","","2","","","","","0","380","","","","","","","","","","","","","","","","","","","","","","","","",""
"","reward_outcome","","html-keyboard-response","311","4041619","0.0-271.0","0","0","PzDjg","People","","75","","","","40","","39","","35","","","","","","","","","","","","","","","","-1","75","","","","","","","","","","","","","","","","","","","","","","",""
"","fixation","","html-keyboard-response","312","4042636","0.0-274.0","0","0","PzDjg","People","","null","","","","null","","","","","","","","","","","","","","","","","","","","","","","","","","","","","","","","","","","","","","","","","","","",""
"","see_reward","","html-keyboard-response","313","4043089","0.0-275.0","0","0","PzDjg","People","","442","","","","32","","30","","36","","","","-1","","","","","2","","","","","0","442","","","","","","","","","","","","","","","","","","","","","","","","",""
"","reward_outcome","","html-keyboard-response","314","4045107","0.0-276.0","0","0","PzDjg","People","","48","","","","40","","30","","36","","","","","","","","","","","","","","","","-1","48","","","","","","","","","","","","","","","","","","","","","","",""
"","fixation","","html-keyboard-response","315","4046110","0.0-279.0","0","0","PzDjg","People","","null","","","","null","","","","","","","","","","","","","","","","","","","","","","","","","","","","","","","","","","","","","","","","","","","",""
"","see_reward","","html-keyboard-response","316","4046444","0.0-280.0","0","0","PzDjg","People","","327","","","","32","","40","","37","","","","1","","","","","2","","","","","144","327","","","","","","","","","","","","","","","","","","","","","","","","",""
"","reward_outcome","","html-keyboard-response","317","4048457","0.0-281.0","0","0","PzDjg","People","","75","","","","40","","40","","37","","","","","","","","","","","","","","","","-1","75","","","","","","","","","","","","","","","","","","","","","","",""
"","fixation","","html-keyboard-response","318","4049470","0.0-284.0","0","0","PzDjg","People","","null","","","","null","","","","","","","","","","","","","","","","","","","","","","","","","","","","","","","","","","","","","","","","","","","",""
"","see_reward","","html-keyboard-response","319","4049867","0.0-285.0","0","0","PzDjg","People","","393","","","","32","","16","","38","","","","-1","","","","","2","","","","","0","393","","","","","","","","","","","","","","","","","","","","","","","","",""
"","reward_outcome","","html-keyboard-response","320","4051877","0.0-286.0","0","0","PzDjg","People","","39","","","","40","","16","","38","","","","","","","","","","","","","","","","-1","39","","","","","","","","","","","","","","","","","","","","","","",""
"","fixation","","html-keyboard-response","321","4052902","0.0-289.0","0","0","PzDjg","People","","null","","","","null","","","","","","","","","","","","","","","","","","","","","","","","","","","","","","","","","","","","","","","","","","","",""
"","see_reward","","html-keyboard-response","322","4053384","0.0-290.0","0","0","PzDjg","People","","466","","","","32","","22","","39","","","","-1","","","","","2","","","","","0","466","","","","","","","","","","","","","","","","","","","","","","","","",""
"","reward_outcome","","html-keyboard-response","323","4055394","0.0-291.0","0","0","PzDjg","People","","41","","","","40","","22","","39","","","","","","","","","","","","","","","","-1","41","","","","","","","","","","","","","","","","","","","","","","",""
"","fixation","","html-keyboard-response","324","4056401","0.0-294.0","0","0","PzDjg","People","","null","","","","null","","","","","","","","","","","","","","","","","","","","","","","","","","","","","","","","","","","","","","","","","","","",""
"","see_reward","","html-keyboard-response","325","4056663","0.0-295.0","0","0","PzDjg","People","","257","","","","32","","11","","40","","","","1","","","","","2","","","","","145","257","","","","","","","","","","","","","","","","","","","","","","","","",""
"","reward_outcome","","html-keyboard-response","326","4058674","0.0-296.0","0","0","PzDjg","People","","42","","","","40","","11","","40","","","","","","","","","","","","","","","","-1","42","","","","","","","","","","","","","","","","","","","","","","",""
"","fixation","","html-keyboard-response","327","4059682","0.0-299.0","0","0","PzDjg","People","","null","","","","null","","","","","","","","","","","","","","","","","","","","","","","","","","","","","","","","","","","","","","","","","","","",""
"","see_reward","","html-keyboard-response","328","4060176","0.0-300.0","0","0","PzDjg","People","","489","","","","32","","8","","41","","","","-1","","","","","2","","","","","0","489","","","","","","","","","","","","","","","","","","","","","","","","",""
"","reward_outcome","","html-keyboard-response","329","4062183","0.0-301.0","0","0","PzDjg","People","","9","","","","40","","8","","41","","","","","","","","","","","","","","","","-1","9","","","","","","","","","","","","","","","","","","","","","","",""
"","fixation","","html-keyboard-response","330","4063191","0.0-304.0","0","0","PzDjg","People","","null","","","","null","","","","","","","","","","","","","","","","","","","","","","","","","","","","","","","","","","","","","","","","","","","",""
"","see_reward","","html-keyboard-response","331","4063449","0.0-305.0","0","0","PzDjg","People","","238","","","","32","","16","","42","","","","-1","","","","","2","","","","","0","238","","","","","","","","","","","","","","","","","","","","","","","","",""
"","reward_outcome","","html-keyboard-response","332","4065457","0.0-306.0","0","0","PzDjg","People","","12","","","","38","","16","","42","","","","","","","","","","","","","","","","1","12","","","","","","","","","","","","","","","","","","","","","","",""
"","fixation","","html-keyboard-response","333","4066463","0.0-309.0","0","0","PzDjg","People","","null","","","","null","","","","","","","","","","","","","","","","","","","","","","","","","","","","","","","","","","","","","","","","","","","",""
"","see_reward","","html-keyboard-response","334","4066536","0.0-310.0","0","0","PzDjg","People","","69","","","","32","","45","","43","","","","1","","","","","2","","","","","155","69","","","","","","","","","","","","","","","","","","","","","","","","",""
"","reward_outcome","","html-keyboard-response","335","4068557","0.0-311.0","0","0","PzDjg","People","","null","","","","null","","45","","43","","","","","","","","","","","","","","","","NaN","null","","","","","","","","","","","","","","","","","","","","","","",""
"","respond_faster","","html-keyboard-response","336","4070073","0.0-312.0-0.0","1","0","PzDjg","People","","null","","","","null","","","","","","","","","","","","","","","","","","","","","","","","","","","","","","","","","","","","","","","","","","","",""
"","fixation","","html-keyboard-response","337","4071081","0.0-314.0","0","0","PzDjg","People","","null","","","","null","","","","","","","","","","","","","","","","","","","","","","","","","","","","","","","","","","","","","","","","","","","",""
"","see_reward","","html-keyboard-response","338","4071533","0.0-315.0","0","0","PzDjg","People","","450","","","","32","","6","","44","","","","1","","","","","2","","","","","145","450","","","","","","","","","","","","","","","","","","","","","","","","",""
"","reward_outcome","","html-keyboard-response","339","4073542","0.0-316.0","0","0","PzDjg","People","","null","","","","null","","6","","44","","","","","","","","","","","","","","","","NaN","null","","","","","","","","","","","","","","","","","","","","","","",""
"","respond_faster","","html-keyboard-response","340","4075063","0.0-317.0-0.0","1","0","PzDjg","People","","null","","","","null","","","","","","","","","","","","","","","","","","","","","","","","","","","","","","","","","","","","","","","","","","","",""
"","fixation","","html-keyboard-response","341","4076072","0.0-319.0","0","0","PzDjg","People","","null","","","","null","","","","","","","","","","","","","","","","","","","","","","","","","","","","","","","","","","","","","","","","","","","",""
"","see_reward","","html-keyboard-response","342","4076377","0.0-320.0","0","0","PzDjg","People","","295","","","","32","","11","","45","","","","1","","","","","2","","","","","145","295","","","","","","","","","","","","","","","","","","","","","","","","",""
"","reward_outcome","","html-keyboard-response","343","4078393","0.0-321.0","0","0","PzDjg","People","","null","","","","null","","11","","45","","","","","","","","","","","","","","","","NaN","null","","","","","","","","","","","","","","","","","","","","","","",""
"","respond_faster","","html-keyboard-response","344","4079904","0.0-322.0-0.0","1","0","PzDjg","People","","null","","","","null","","","","","","","","","","","","","","","","","","","","","","","","","","","","","","","","","","","","","","","","","","","",""
"","fixation","","html-keyboard-response","345","4080917","0.0-324.0","0","0","PzDjg","People","","null","","","","null","","","","","","","","","","","","","","","","","","","","","","","","","","","","","","","","","","","","","","","","","","","",""
"","see_reward","","html-keyboard-response","346","4081367","0.0-325.0","0","0","PzDjg","People","","447","","","","32","","45","","46","","","","1","","","","","2","","","","","155","447","","","","","","","","","","","","","","","","","","","","","","","","",""
"","reward_outcome","","html-keyboard-response","347","4083380","0.0-326.0","0","0","PzDjg","People","","36","","","","40","","45","","46","","","","","","","","","","","","","","","","-1","36","","","","","","","","","","","","","","","","","","","","","","",""
"","fixation","","html-keyboard-response","348","4084392","0.0-329.0","0","0","PzDjg","People","","null","","","","null","","","","","","","","","","","","","","","","","","","","","","","","","","","","","","","","","","","","","","","","","","","",""
"","see_reward","","html-keyboard-response","349","4084861","0.0-330.0","0","0","PzDjg","People","","451","","","","32","","31","","47","","","","-1","","","","","2","","","","","0","451","","","","","","","","","","","","","","","","","","","","","","","","",""
