"success","ttype","start_time","trial_type","trial_index","time_elapsed","internal_node_id","warning","missed_checkup","PID","stim_type","view_history","rt","responses","repeat_instructions","key_press","response","stimulus_id","painting","index","stimulus_left","stimulus_right","explain_trial","reward_type","rating_left","rating_right","painting_left","painting_right","block","left_chosen","chosen_obj","unchosen_obj","explain_response","reward_amount","see_reward_rt","register_reward_response","register_reward_rt","deliberation_reward_tally","stimulus_left_deliberation_ind","stimulus_right_deliberation_ind","chosen_trial","gain_left","higher_outcome_chosen","old_pair","chosen_object","rt_pairs","left_object_chosen","rt_object","old_response","new_rating","deliberated_stim","initial_rating","outcome_eval_rt","outcome_eval_response","outcome_eval_gain","outcome_eval_acc","preamble","outcome_eval_confidence","outcome_eval_confidence_rt","total_reward_tally"
"true","full_screen","d01192023hr2035","fullscreen","0","14198","0.0-0.0","0","0","KRhFE","Scenes","","","","","","","","","","","","","","","","","","","","","","","","","","","","","","","","","","","","","","","","","","","","","","","","",""
"","rating_instructions","","instructions","1","24284","0.0-1.0-0.0","0","0","KRhFE","Scenes","[{""page_index"":0,""viewing_time"":7380},{""page_index"":1,""viewing_time"":2704}]","10084","","","","","","","","","","","","","","","","","","","","","","","","","","","","","","","","","","","","","","","","","","","","","","",""
"","rating_comprehension_check","","survey-multi-choice","2","30036","0.0-1.0-1.0","0","0","KRhFE","Scenes","","5750","{""Q0"":""True"",""Q1"":""Mouse""}","0","","","","","","","","","","","","","","","","","","","","","","","","","","","","","","","","","","","","","","","","","","","","",""
"","start_phase","","html-keyboard-response","3","32268","0.0-2.0","0","0","KRhFE","Scenes","","2230","","","78","","","","","","","","","","","","","","","","","","","","","","","","","","","","","","","","","","","","","","","","","","","",""
"","rating","","html-slider-response","4","35620","0.0-3.0","0","0","KRhFE","Scenes","","3350","","","","90","139","samsommer-vddccTqwal8-unsplash.jpg","0","","","","","","","","","","","","","","","","","","","","","","","","","","","","","","","","","","","","","","","",""
"","rating","","html-slider-response","5","38780","0.0-4.0","0","0","KRhFE","Scenes","","3159","","","","90","120","jarrett-kow-1ZOyYPOBn7I-unsplash.jpg","1","","","","","","","","","","","","","","","","","","","","","","","","","","","","","","","","","","","","","","","",""
"","rating","","html-slider-response","6","41676","0.0-5.0","0","0","KRhFE","Scenes","","2895","","","","76","145","stephen-leonardi-gyIRjKPXupE-unsplash.jpg","2","","","","","","","","","","","","","","","","","","","","","","","","","","","","","","","","","","","","","","","",""
"","rating","","html-slider-response","7","44476","0.0-6.0","0","0","KRhFE","Scenes","","2799","","","","75","130","lina-loos-04-C1NZk1hE-unsplash.jpg","3","","","","","","","","","","","","","","","","","","","","","","","","","","","","","","","","","","","","","","","",""
"","rating","","html-slider-response","8","47060","0.0-7.0","0","0","KRhFE","Scenes","","2582","","","","85","138","petr-vysohlid-9fqwGqGLUxc-unsplash.jpg","4","","","","","","","","","","","","","","","","","","","","","","","","","","","","","","","","","","","","","","","",""
"","rating","","html-slider-response","9","49963","0.0-8.0","0","0","KRhFE","Scenes","","2903","","","","86","116","david-marcu-W5MhJ6cy1So-unsplash.jpg","5","","","","","","","","","","","","","","","","","","","","","","","","","","","","","","","","","","","","","","","",""
"","rating","","html-slider-response","10","52579","0.0-9.0","0","0","KRhFE","Scenes","","2614","","","","82","110","bruno-van-der-kraan-qez8mNJ3ilU-unsplash.jpg","6","","","","","","","","","","","","","","","","","","","","","","","","","","","","","","","","","","","","","","","",""
"","rating","","html-slider-response","11","55220","0.0-10.0","0","0","KRhFE","Scenes","","2639","","","","100","125","john-lee-oMneOBYhJxY-unsplash.jpg","7","","","","","","","","","","","","","","","","","","","","","","","","","","","","","","","","","","","","","","","",""
"","rating","","html-slider-response","12","58546","0.0-11.0","0","0","KRhFE","Scenes","","3326","","","","66","111","claudio-testa-U3F2o6vz3bs-unsplash.jpg","8","","","","","","","","","","","","","","","","","","","","","","","","","","","","","","","","","","","","","","","",""
"","rating","","html-slider-response","13","60907","0.0-12.0","0","0","KRhFE","Scenes","","2359","","","","62","133","mickey-o-neil-xL66l--msXU-unsplash.jpg","9","","","","","","","","","","","","","","","","","","","","","","","","","","","","","","","","","","","","","","","",""
"","rating","","html-slider-response","14","64499","0.0-13.0","0","0","KRhFE","Scenes","","3591","","","","78","103","anton-darius-FBJugtbHsWU-unsplash.jpg","10","","","","","","","","","","","","","","","","","","","","","","","","","","","","","","","","","","","","","","","",""
"","rating","","html-slider-response","15","68035","0.0-14.0","0","0","KRhFE","Scenes","","3535","","","","80","131","luca-bravo-hFzIoD0F_i8-unsplash.jpg","11","","","","","","","","","","","","","","","","","","","","","","","","","","","","","","","","","","","","","","","",""
"","rating","","html-slider-response","16","70827","0.0-15.0","0","0","KRhFE","Scenes","","2791","","","","84","127","kace-rodriguez-p3OzJuT_Dks-unsplash.jpg","12","","","","","","","","","","","","","","","","","","","","","","","","","","","","","","","","","","","","","","","",""
"","rating","","html-slider-response","17","74019","0.0-16.0","0","0","KRhFE","Scenes","","3191","","","","74","135","mohammad-alizade-4wzRuAb-KWs-unsplash.jpg","13","","","","","","","","","","","","","","","","","","","","","","","","","","","","","","","","","","","","","","","",""
"","rating","","html-slider-response","18","77298","0.0-17.0","0","0","KRhFE","Scenes","","3279","","","","97","108","benjamin-voros-phIFdC6lA4E-unsplash.jpg","14","","","","","","","","","","","","","","","","","","","","","","","","","","","","","","","","","","","","","","","",""
"","rating","","html-slider-response","19","80467","0.0-18.0","0","0","KRhFE","Scenes","","3167","","","","72","102","anisur-rahman-K2b7UDed6uQ-unsplash.jpg","15","","","","","","","","","","","","","","","","","","","","","","","","","","","","","","","","","","","","","","","",""
"","rating","","html-slider-response","20","83066","0.0-19.0","0","0","KRhFE","Scenes","","2598","","","","77","147","tobias-keller-73F4pKoUkM0-unsplash.jpg","16","","","","","","","","","","","","","","","","","","","","","","","","","","","","","","","","","","","","","","","",""
"","rating","","html-slider-response","21","86234","0.0-20.0","0","0","KRhFE","Scenes","","3167","","","","83","144","solotravelgoals-7kLufxYoqWk-unsplash.jpg","17","","","","","","","","","","","","","","","","","","","","","","","","","","","","","","","","","","","","","","","",""
"","rating","","html-slider-response","22","89530","0.0-21.0","0","0","KRhFE","Scenes","","3295","","","","72","146","thomas-morse-cuKKa0vWZSY-unsplash.jpg","18","","","","","","","","","","","","","","","","","","","","","","","","","","","","","","","","","","","","","","","",""
"","rating","","html-slider-response","23","92058","0.0-22.0","0","0","KRhFE","Scenes","","2527","","","","62","114","daniel-sessler-z_9VmsxR8hs-unsplash.jpg","19","","","","","","","","","","","","","","","","","","","","","","","","","","","","","","","","","","","","","","","",""
"","rating","","html-slider-response","24","94570","0.0-23.0","0","0","KRhFE","Scenes","","2511","","","","63","109","brigitta-schneiter-hXXRLtTxXCU-unsplash.jpg","20","","","","","","","","","","","","","","","","","","","","","","","","","","","","","","","","","","","","","","","",""
"","rating","","html-slider-response","25","98338","0.0-24.0","0","0","KRhFE","Scenes","","3767","","","","83","148","tom-gainor-ZqLeQDjY6fY-unsplash.jpg","21","","","","","","","","","","","","","","","","","","","","","","","","","","","","","","","","","","","","","","","",""
"","rating","","html-slider-response","26","101563","0.0-25.0","0","0","KRhFE","Scenes","","3223","","","","66","143","sigurdur-fjalar-jonsson-1KxBabIntpE-unsplash.jpg","22","","","","","","","","","","","","","","","","","","","","","","","","","","","","","","","","","","","","","","","",""
"","rating","","html-slider-response","27","104235","0.0-26.0","0","0","KRhFE","Scenes","","2671","","","","61","115","darrell-cassell-hoCXpPUMCoE-unsplash.jpg","23","","","","","","","","","","","","","","","","","","","","","","","","","","","","","","","","","","","","","","","",""
"","rating","","html-slider-response","28","107186","0.0-27.0","0","0","KRhFE","Scenes","","2950","","","","81","119","james-wheeler-AFC0XvICMgs-unsplash.jpg","24","","","","","","","","","","","","","","","","","","","","","","","","","","","","","","","","","","","","","","","",""
"","rating","","html-slider-response","29","110979","0.0-28.0","0","0","KRhFE","Scenes","","3791","","","","69","104","artem-sapegin-XGDBdSQ70O0-unsplash.jpg","25","","","","","","","","","","","","","","","","","","","","","","","","","","","","","","","","","","","","","","","",""
"","rating","","html-slider-response","30","114202","0.0-29.0","0","0","KRhFE","Scenes","","3223","","","","75","101","aniket-deole-T-tOgjWZ0fQ-unsplash.jpg","26","","","","","","","","","","","","","","","","","","","","","","","","","","","","","","","","","","","","","","","",""
"","rating","","html-slider-response","31","117539","0.0-30.0","0","0","KRhFE","Scenes","","3335","","","","81","142","sergey-pesterev-y-b_FOmJXdg-unsplash.jpg","27","","","","","","","","","","","","","","","","","","","","","","","","","","","","","","","","","","","","","","","",""
"","rating","","html-slider-response","32","120921","0.0-31.0","0","0","KRhFE","Scenes","","3381","","","","68","112","cosmic-timetraveler-pYyOZ8q7AII-unsplash.jpg","28","","","","","","","","","","","","","","","","","","","","","","","","","","","","","","","","","","","","","","","",""
"","rating","","html-slider-response","33","124145","0.0-32.0","0","0","KRhFE","Scenes","","3222","","","","80","124","johannes-plenio-sPt5RIjKfpk-unsplash.jpg","29","","","","","","","","","","","","","","","","","","","","","","","","","","","","","","","","","","","","","","","",""
"","rating","","html-slider-response","34","127385","0.0-33.0","0","0","KRhFE","Scenes","","3240","","","","48","122","jeff-king-bJHWJeiHfHc-unsplash.jpg","30","","","","","","","","","","","","","","","","","","","","","","","","","","","","","","","","","","","","","","","",""
"","rating","","html-slider-response","35","130369","0.0-34.0","0","0","KRhFE","Scenes","","2982","","","","74","129","kurt-cotoaga-cqbLg3lZEpk-unsplash.jpg","31","","","","","","","","","","","","","","","","","","","","","","","","","","","","","","","","","","","","","","","",""
"","rating","","html-slider-response","36","133217","0.0-35.0","0","0","KRhFE","Scenes","","2847","","","","45","118","henry-be-NLF6hTe4PAg-unsplash.jpg","32","","","","","","","","","","","","","","","","","","","","","","","","","","","","","","","","","","","","","","","",""
"","rating","","html-slider-response","37","136241","0.0-36.0","0","0","KRhFE","Scenes","","3023","","","","67","121","jean-pierre-brungs-qxCqkbF7tUc-unsplash.jpg","33","","","","","","","","","","","","","","","","","","","","","","","","","","","","","","","","","","","","","","","",""
"","rating","","html-slider-response","38","141225","0.0-37.0","0","0","KRhFE","Scenes","","4982","","","","69","128","karsten-wurth-jS0zC2PJ17A-unsplash.jpg","34","","","","","","","","","","","","","","","","","","","","","","","","","","","","","","","","","","","","","","","",""
"","rating","","html-slider-response","39","144905","0.0-38.0","0","0","KRhFE","Scenes","","3678","","","","73","123","joel-jasmin-forestbird-efuwb5eBDrI-unsplash.jpg","35","","","","","","","","","","","","","","","","","","","","","","","","","","","","","","","","","","","","","","","",""
"","rating","","html-slider-response","40","148217","0.0-39.0","0","0","KRhFE","Scenes","","3310","","","","70","117","frank-mckenna-OD9EOzfSOh0-unsplash.jpg","36","","","","","","","","","","","","","","","","","","","","","","","","","","","","","","","","","","","","","","","",""
"","rating","","html-slider-response","41","152409","0.0-40.0","0","0","KRhFE","Scenes","","4190","","","","73","106","ashim-d-silva-WeYamle9fDM-unsplash.jpg","37","","","","","","","","","","","","","","","","","","","","","","","","","","","","","","","","","","","","","","","",""
"","rating","","html-slider-response","42","155265","0.0-41.0","0","0","KRhFE","Scenes","","2855","","","","58","100","aleksandra-boguslawska-MS7KD9Ti7FQ-unsplash.jpg","38","","","","","","","","","","","","","","","","","","","","","","","","","","","","","","","","","","","","","","","",""
"","rating","","html-slider-response","43","160896","0.0-42.0","0","0","KRhFE","Scenes","","5630","","","","48","105","ashim-d-silva-S2Q5mdOrrVc-unsplash.jpg","39","","","","","","","","","","","","","","","","","","","","","","","","","","","","","","","","","","","","","","","",""
"","rating","","html-slider-response","44","164361","0.0-43.0","0","0","KRhFE","Scenes","","3463","","","","72","140","samuele-errico-piccarini-JEBqFu2AOOA-unsplash.jpg","40","","","","","","","","","","","","","","","","","","","","","","","","","","","","","","","","","","","","","","","",""
"","rating","","html-slider-response","45","167161","0.0-44.0","0","0","KRhFE","Scenes","","2799","","","","59","113","damian-denis-D8R_txR_0PE-unsplash.jpg","41","","","","","","","","","","","","","","","","","","","","","","","","","","","","","","","","","","","","","","","",""
"","rating","","html-slider-response","46","170313","0.0-45.0","0","0","KRhFE","Scenes","","3151","","","","44","149","yuriy-bogdanov-W51VK3Obcj0-unsplash.jpg","42","","","","","","","","","","","","","","","","","","","","","","","","","","","","","","","","","","","","","","","",""
"","rating","","html-slider-response","47","173129","0.0-46.0","0","0","KRhFE","Scenes","","2815","","","","46","136","nicolas-jehly-LzVB84KkZOE-unsplash.jpg","43","","","","","","","","","","","","","","","","","","","","","","","","","","","","","","","","","","","","","","","",""
"","rating","","html-slider-response","48","176657","0.0-47.0","0","0","KRhFE","Scenes","","3527","","","","78","141","sebastian-unrau-v4e3JI7DDHI-unsplash.jpg","44","","","","","","","","","","","","","","","","","","","","","","","","","","","","","","","","","","","","","","","",""
"","rating","","html-slider-response","49","180454","0.0-48.0","0","0","KRhFE","Scenes","","3797","","","","72","134","milada-vigerova-pQMM63GE7fo-unsplash.jpg","45","","","","","","","","","","","","","","","","","","","","","","","","","","","","","","","","","","","","","","","",""
"","rating","","html-slider-response","50","183926","0.0-49.0","0","0","KRhFE","Scenes","","3471","","","","70","107","benjamin-davies-Zm2n2O7Fph4-unsplash.jpg","46","","","","","","","","","","","","","","","","","","","","","","","","","","","","","","","","","","","","","","","",""
"","rating","","html-slider-response","51","188998","0.0-50.0","0","0","KRhFE","Scenes","","5070","","","","95","137","olga-stalska-QaWRyEdlffY-unsplash.jpg","47","","","","","","","","","","","","","","","","","","","","","","","","","","","","","","","","","","","","","","","",""
"","rating","","html-slider-response","52","192582","0.0-51.0","0","0","KRhFE","Scenes","","3583","","","","62","132","meng-ji-8BH_M-53CyA-unsplash.jpg","48","","","","","","","","","","","","","","","","","","","","","","","","","","","","","","","","","","","","","","","",""
"","rating","","html-slider-response","53","195750","0.0-52.0","0","0","KRhFE","Scenes","","3167","","","","70","126","jordan-mcqueen-PJCZOWuOxbU-unsplash.jpg","49","","","","","","","","","","","","","","","","","","","","","","","","","","","","","","","","","","","","","","","",""
"","deliberation_instructions","","instructions","54","248619","0.0-53.0-0.0","0","0","KRhFE","Scenes","[{""page_index"":0,""viewing_time"":10997},{""page_index"":1,""viewing_time"":11161},{""page_index"":2,""viewing_time"":12800},{""page_index"":3,""viewing_time"":15557},{""page_index"":4,""viewing_time"":2351}]","52867","","","","","","","","","","","","","","","","","","","","","","","","","","","","","","","","","","","","","","","","","","","","","","",""
"","deliberation_comprehension_check","","survey-multi-choice","55","269212","0.0-53.0-1.0","0","0","KRhFE","Scenes","","20590","{""Q0"":""True"",""Q1"":""True"",""Q2"":""Consider carefully and take your time (up to 10 seconds)"",""Q3"":""True"",""Q4"":""D""}","0","","","","","","","","","","","","","","","","","","","","","","","","","","","","","","","","","","","","","","","","","","","","",""
"","start_phase","","html-keyboard-response","56","272230","0.0-54.0","0","0","KRhFE","Scenes","","3016","","","78","","","","","","","","","","","","","","","","","","","","","","","","","","","","","","","","","","","","","","","","","","","",""
"","first_deliberation_block","","html-keyboard-response","57","274213","0.0-55.0","0","0","KRhFE","Scenes","","1981","","","78","","","","","","","","","","","","","","","","","","","","","","","","","","","","","","","","","","","","","","","","","","","",""
"","fixation","","html-keyboard-response","58","275230","0.0-56.0-0.0","0","0","KRhFE","Scenes","","null","","","null","","","","","","","","","","","","","","","","","","","","","","","","","","","","","","","","","","","","","","","","","","","",""
"","deliberation","","html-keyboard-response","59","276277","0.0-56.0-1.0","0","0","KRhFE","Scenes","","1044","","","68","","","","0","129","130","1","-1","74","75","kurt-cotoaga-cqbLg3lZEpk-unsplash.jpg","lina-loos-04-C1NZk1hE-unsplash.jpg","1","1","129","130","","","","","","","","","","","","","","","","","","","","","","","","","","","",""
"","choice_confirmation","","html-keyboard-response","60","276783","0.0-56.0-2.0-0.0","0","0","KRhFE","Scenes","","null","","","null","","","","0","129","130","","","","","","","","","","","","","","","","","","","","","","","","","","","","","","","","","","","","","",""
"","explain_trial","","survey-text","61","291948","0.0-56.0-5.0-0.0","0","0","KRhFE","Scenes","","15161","{""Q0"":""More dramatic special time of day""}","","","","","","0","129","130","","","","","","","","","","","{""Q0"":""More dramatic special time of day""}","","","","","","","","","","","","","","","","","","","","","","","","","","",""
"","fixation","","html-keyboard-response","62","292959","0.0-57.0-0.0","0","0","KRhFE","Scenes","","null","","","null","","","","","","","","","","","","","","","","","","","","","","","","","","","","","","","","","","","","","","","","","","","",""
"","deliberation","","html-keyboard-response","63","294245","0.0-57.0-1.0","0","0","KRhFE","Scenes","","1284","","","75","","","","1","140","123","1","1","72","73","samuele-errico-piccarini-JEBqFu2AOOA-unsplash.jpg","joel-jasmin-forestbird-efuwb5eBDrI-unsplash.jpg","1","0","123","140","","","","","","","","","","","","","","","","","","","","","","","","","","","",""
"","choice_confirmation","","html-keyboard-response","64","294755","0.0-57.0-2.0-0.0","0","0","KRhFE","Scenes","","null","","","null","","","","1","140","123","","","","","","","","","","","","","","","","","","","","","","","","","","","","","","","","","","","","","",""
"","explain_trial","","survey-text","65","312945","0.0-57.0-5.0-0.0","0","0","KRhFE","Scenes","","18188","{""Q0"":""it just caught my eve more. I felt like the hut in the other one made it less remote""}","","","","","","1","140","123","","","","","","","","","","","{""Q0"":""it just caught my eve more. I felt like the hut in the other one made it less remote""}","","","","","","","","","","","","","","","","","","","","","","","","","","",""
"","fixation","","html-keyboard-response","66","313953","0.0-58.0-0.0","0","0","KRhFE","Scenes","","null","","","null","","","","","","","","","","","","","","","","","","","","","","","","","","","","","","","","","","","","","","","","","","","",""
"","deliberation","","html-keyboard-response","67","314913","0.0-58.0-1.0","0","0","KRhFE","Scenes","","959","","","75","","","","2","103","126","0","1","78","70","anton-darius-FBJugtbHsWU-unsplash.jpg","jordan-mcqueen-PJCZOWuOxbU-unsplash.jpg","1","0","126","103","","","","","","","","","","","","","","","","","","","","","","","","","","","",""
"","choice_confirmation","","html-keyboard-response","68","315423","0.0-58.0-2.0-0.0","0","0","KRhFE","Scenes","","null","","","null","","","","2","103","126","","","","","","","","","","","","","","","","","","","","","","","","","","","","","","","","","","","","","",""
"","fixation","","html-keyboard-response","69","316440","0.0-59.0-0.0","0","0","KRhFE","Scenes","","null","","","null","","","","","","","","","","","","","","","","","","","","","","","","","","","","","","","","","","","","","","","","","","","",""
"","deliberation","","html-keyboard-response","70","318035","0.0-59.0-1.0","0","0","KRhFE","Scenes","","1591","","","75","","","","3","104","112","1","1","69","68","artem-sapegin-XGDBdSQ70O0-unsplash.jpg","cosmic-timetraveler-pYyOZ8q7AII-unsplash.jpg","1","0","112","104","","","","","","","","","","","","","","","","","","","","","","","","","","","",""
"","choice_confirmation","","html-keyboard-response","71","318549","0.0-59.0-2.0-0.0","0","0","KRhFE","Scenes","","null","","","null","","","","3","104","112","","","","","","","","","","","","","","","","","","","","","","","","","","","","","","","","","","","","","",""
"","explain_trial","","survey-text","72","332033","0.0-59.0-5.0-0.0","0","0","KRhFE","Scenes","","13482","{""Q0"":""the purple color was just very striking to me""}","","","","","","3","104","112","","","","","","","","","","","{""Q0"":""the purple color was just very striking to me""}","","","","","","","","","","","","","","","","","","","","","","","","","","",""
"","fixation","","html-keyboard-response","73","333044","0.0-60.0-0.0","0","0","KRhFE","Scenes","","null","","","null","","","","","","","","","","","","","","","","","","","","","","","","","","","","","","","","","","","","","","","","","","","",""
"","deliberation","","html-keyboard-response","74","333923","0.0-60.0-1.0","0","0","KRhFE","Scenes","","876","","","68","","","","4","106","128","0","-1","73","69","ashim-d-silva-WeYamle9fDM-unsplash.jpg","karsten-wurth-jS0zC2PJ17A-unsplash.jpg","1","1","106","128","","","","","","","","","","","","","","","","","","","","","","","","","","","",""
"","choice_confirmation","","html-keyboard-response","75","334428","0.0-60.0-2.0-0.0","0","0","KRhFE","Scenes","","null","","","null","","","","4","106","128","","","","","","","","","","","","","","","","","","","","","","","","","","","","","","","","","","","","","",""
"","fixation","","html-keyboard-response","76","335438","0.0-61.0-0.0","0","0","KRhFE","Scenes","","null","","","null","","","","","","","","","","","","","","","","","","","","","","","","","","","","","","","","","","","","","","","","","","","",""
"","deliberation","","html-keyboard-response","77","336499","0.0-61.0-1.0","0","0","KRhFE","Scenes","","1058","","","75","","","","5","124","121","0","-1","80","67","johannes-plenio-sPt5RIjKfpk-unsplash.jpg","jean-pierre-brungs-qxCqkbF7tUc-unsplash.jpg","1","0","121","124","","","","","","","","","","","","","","","","","","","","","","","","","","","",""
"","choice_confirmation","","html-keyboard-response","78","337009","0.0-61.0-2.0-0.0","0","0","KRhFE","Scenes","","null","","","null","","","","5","124","121","","","","","","","","","","","","","","","","","","","","","","","","","","","","","","","","","","","","","",""
"","fixation","","html-keyboard-response","79","338026","0.0-62.0-0.0","0","0","KRhFE","Scenes","","null","","","null","","","","","","","","","","","","","","","","","","","","","","","","","","","","","","","","","","","","","","","","","","","",""
"","deliberation","","html-keyboard-response","80","339345","0.0-62.0-1.0","0","0","KRhFE","Scenes","","1317","","","68","","","","6","146","131","1","-1","72","80","thomas-morse-cuKKa0vWZSY-unsplash.jpg","luca-bravo-hFzIoD0F_i8-unsplash.jpg","1","1","146","131","","","","","","","","","","","","","","","","","","","","","","","","","","","",""
"","choice_confirmation","","html-keyboard-response","81","339855","0.0-62.0-2.0-0.0","0","0","KRhFE","Scenes","","null","","","null","","","","6","146","131","","","","","","","","","","","","","","","","","","","","","","","","","","","","","","","","","","","","","",""
"","explain_trial","","survey-text","82","353009","0.0-62.0-5.0-0.0","0","0","KRhFE","Scenes","","13153","{""Q0"":""Love the colors and the Fall foliage""}","","","","","","6","146","131","","","","","","","","","","","{""Q0"":""Love the colors and the Fall foliage""}","","","","","","","","","","","","","","","","","","","","","","","","","","",""
"","fixation","","html-keyboard-response","83","354030","0.0-63.0-0.0","0","0","KRhFE","Scenes","","null","","","null","","","","","","","","","","","","","","","","","","","","","","","","","","","","","","","","","","","","","","","","","","","",""
"","deliberation","","html-keyboard-response","84","354867","0.0-63.0-1.0","0","0","KRhFE","Scenes","","833","","","68","","","","7","135","102","0","-1","74","72","mohammad-alizade-4wzRuAb-KWs-unsplash.jpg","anisur-rahman-K2b7UDed6uQ-unsplash.jpg","1","1","135","102","","","","","","","","","","","","","","","","","","","","","","","","","","","",""
"","choice_confirmation","","html-keyboard-response","85","355377","0.0-63.0-2.0-0.0","0","0","KRhFE","Scenes","","null","","","null","","","","7","135","102","","","","","","","","","","","","","","","","","","","","","","","","","","","","","","","","","","","","","",""
"","fixation","","html-keyboard-response","86","356396","0.0-64.0-0.0","0","0","KRhFE","Scenes","","null","","","null","","","","","","","","","","","","","","","","","","","","","","","","","","","","","","","","","","","","","","","","","","","",""
"","deliberation","","html-keyboard-response","87","357459","0.0-64.0-1.0","0","0","KRhFE","Scenes","","1061","","","75","","","","8","107","141","1","1","70","78","benjamin-davies-Zm2n2O7Fph4-unsplash.jpg","sebastian-unrau-v4e3JI7DDHI-unsplash.jpg","1","0","141","107","","","","","","","","","","","","","","","","","","","","","","","","","","","",""
"","choice_confirmation","","html-keyboard-response","88","357967","0.0-64.0-2.0-0.0","0","0","KRhFE","Scenes","","null","","","null","","","","8","107","141","","","","","","","","","","","","","","","","","","","","","","","","","","","","","","","","","","","","","",""
"","explain_trial","","survey-text","89","370864","0.0-64.0-5.0-0.0","0","0","KRhFE","Scenes","","12894","{""Q0"":""Beautiful fall foliage, striking colors""}","","","","","","8","107","141","","","","","","","","","","","{""Q0"":""Beautiful fall foliage, striking colors""}","","","","","","","","","","","","","","","","","","","","","","","","","","",""
"","fixation","","html-keyboard-response","90","371875","0.0-65.0-0.0","0","0","KRhFE","Scenes","","null","","","null","","","","","","","","","","","","","","","","","","","","","","","","","","","","","","","","","","","","","","","","","","","",""
"","deliberation","","html-keyboard-response","91","372833","0.0-65.0-1.0","0","0","KRhFE","Scenes","","955","","","75","","","","9","101","147","0","1","75","77","aniket-deole-T-tOgjWZ0fQ-unsplash.jpg","tobias-keller-73F4pKoUkM0-unsplash.jpg","1","0","147","101","","","","","","","","","","","","","","","","","","","","","","","","","","","",""
"","choice_confirmation","","html-keyboard-response","92","373348","0.0-65.0-2.0-0.0","0","0","KRhFE","Scenes","","null","","","null","","","","9","101","147","","","","","","","","","","","","","","","","","","","","","","","","","","","","","","","","","","","","","",""
"","fixation","","html-keyboard-response","93","374355","0.0-66.0-0.0","0","0","KRhFE","Scenes","","null","","","null","","","","","","","","","","","","","","","","","","","","","","","","","","","","","","","","","","","","","","","","","","","",""
"","deliberation","","html-keyboard-response","94","375154","0.0-66.0-1.0","0","0","KRhFE","Scenes","","797","","","68","","","","10","117","145","1","-1","70","76","frank-mckenna-OD9EOzfSOh0-unsplash.jpg","stephen-leonardi-gyIRjKPXupE-unsplash.jpg","1","1","117","145","","","","","","","","","","","","","","","","","","","","","","","","","","","",""
"","choice_confirmation","","html-keyboard-response","95","375658","0.0-66.0-2.0-0.0","0","0","KRhFE","Scenes","","null","","","null","","","","10","117","145","","","","","","","","","","","","","","","","","","","","","","","","","","","","","","","","","","","","","",""
"","explain_trial","","survey-text","96","389448","0.0-66.0-5.0-0.0","0","0","KRhFE","Scenes","","13789","{""Q0"":""Love the birds and the sunlight aspect""}","","","","","","10","117","145","","","","","","","","","","","{""Q0"":""Love the birds and the sunlight aspect""}","","","","","","","","","","","","","","","","","","","","","","","","","","",""
"","fixation","","html-keyboard-response","97","390456","0.0-67.0-0.0","0","0","KRhFE","Scenes","","null","","","null","","","","","","","","","","","","","","","","","","","","","","","","","","","","","","","","","","","","","","","","","","","",""
"","deliberation","","html-keyboard-response","98","391410","0.0-67.0-1.0","0","0","KRhFE","Scenes","","952","","","75","","","","11","134","143","0","1","72","66","milada-vigerova-pQMM63GE7fo-unsplash.jpg","sigurdur-fjalar-jonsson-1KxBabIntpE-unsplash.jpg","1","0","143","134","","","","","","","","","","","","","","","","","","","","","","","","","","","",""
"","choice_confirmation","","html-keyboard-response","99","391921","0.0-67.0-2.0-0.0","0","0","KRhFE","Scenes","","null","","","null","","","","11","134","143","","","","","","","","","","","","","","","","","","","","","","","","","","","","","","","","","","","","","",""
"","practice_deliberation_again","","html-keyboard-response","100","395571","0.0-67.0-6.0-0.0","0","0","KRhFE","Scenes","","3647","","","78","","","","","","","","","","","","","","","","","","","","","","","","","","","","","","","","","","","","","","","","","","","",""
"","fixation","","html-keyboard-response","101","396576","0.0-68.0-0.0","0","0","KRhFE","Scenes","","null","","","null","","","","","","","","","","","","","","","","","","","","","","","","","","","","","","","","","","","","","","","","","","","",""
"","deliberation","","html-keyboard-response","102","397217","0.0-68.0-1.0","0","0","KRhFE","Scenes","","638","","","75","","","","12","107","141","0","1","70","78","benjamin-davies-Zm2n2O7Fph4-unsplash.jpg","sebastian-unrau-v4e3JI7DDHI-unsplash.jpg","2","0","141","107","","","","","","","","","","","","","","","","","","","","","","","","","","","",""
"","choice_confirmation","","html-keyboard-response","103","397727","0.0-68.0-2.0-0.0","0","0","KRhFE","Scenes","","null","","","null","","","","12","107","141","","","","","","","","","","","","","","","","","","","","","","","","","","","","","","","","","","","","","",""
"","fixation","","html-keyboard-response","104","398748","0.0-69.0-0.0","0","0","KRhFE","Scenes","","null","","","null","","","","","","","","","","","","","","","","","","","","","","","","","","","","","","","","","","","","","","","","","","","",""
"","deliberation","","html-keyboard-response","105","399745","0.0-69.0-1.0","0","0","KRhFE","Scenes","","995","","","75","","","","13","103","126","1","1","78","70","anton-darius-FBJugtbHsWU-unsplash.jpg","jordan-mcqueen-PJCZOWuOxbU-unsplash.jpg","2","0","126","103","","","","","","","","","","","","","","","","","","","","","","","","","","","",""
"","choice_confirmation","","html-keyboard-response","106","400262","0.0-69.0-2.0-0.0","0","0","KRhFE","Scenes","","null","","","null","","","","13","103","126","","","","","","","","","","","","","","","","","","","","","","","","","","","","","","","","","","","","","",""
"","explain_trial","","survey-text","107","422016","0.0-69.0-5.0-0.0","0","0","KRhFE","Scenes","","21751","{""Q0"":""the sun captured at just the right moment and like the plants, special time of day""}","","","","","","13","103","126","","","","","","","","","","","{""Q0"":""the sun captured at just the right moment and like the plants, special time of day""}","","","","","","","","","","","","","","","","","","","","","","","","","","",""
"","fixation","","html-keyboard-response","108","423026","0.0-70.0-0.0","0","0","KRhFE","Scenes","","null","","","null","","","","","","","","","","","","","","","","","","","","","","","","","","","","","","","","","","","","","","","","","","","",""
"","deliberation","","html-keyboard-response","109","423729","0.0-70.0-1.0","0","0","KRhFE","Scenes","","699","","","75","","","","14","104","112","0","1","69","68","artem-sapegin-XGDBdSQ70O0-unsplash.jpg","cosmic-timetraveler-pYyOZ8q7AII-unsplash.jpg","2","0","112","104","","","","","","","","","","","","","","","","","","","","","","","","","","","",""
"","choice_confirmation","","html-keyboard-response","110","424244","0.0-70.0-2.0-0.0","0","0","KRhFE","Scenes","","null","","","null","","","","14","104","112","","","","","","","","","","","","","","","","","","","","","","","","","","","","","","","","","","","","","",""
"","fixation","","html-keyboard-response","111","425269","0.0-71.0-0.0","0","0","KRhFE","Scenes","","null","","","null","","","","","","","","","","","","","","","","","","","","","","","","","","","","","","","","","","","","","","","","","","","",""
"","deliberation","","html-keyboard-response","112","426049","0.0-71.0-1.0","0","0","KRhFE","Scenes","","778","","","68","","","","15","124","121","1","-1","80","67","johannes-plenio-sPt5RIjKfpk-unsplash.jpg","jean-pierre-brungs-qxCqkbF7tUc-unsplash.jpg","2","1","124","121","","","","","","","","","","","","","","","","","","","","","","","","","","","",""
"","choice_confirmation","","html-keyboard-response","113","426553","0.0-71.0-2.0-0.0","0","0","KRhFE","Scenes","","null","","","null","","","","15","124","121","","","","","","","","","","","","","","","","","","","","","","","","","","","","","","","","","","","","","",""
"","explain_trial","","survey-text","114","448960","0.0-71.0-5.0-0.0","0","0","KRhFE","Scenes","","22404","{""Q0"":""Sun at the perfect moment, also the red is a nice pop of color in mostly barren trees""}","","","","","","15","124","121","","","","","","","","","","","{""Q0"":""Sun at the perfect moment, also the red is a nice pop of color in mostly barren trees""}","","","","","","","","","","","","","","","","","","","","","","","","","","",""
"","fixation","","html-keyboard-response","115","449968","0.0-72.0-0.0","0","0","KRhFE","Scenes","","null","","","null","","","","","","","","","","","","","","","","","","","","","","","","","","","","","","","","","","","","","","","","","","","",""
"","deliberation","","html-keyboard-response","116","450786","0.0-72.0-1.0","0","0","KRhFE","Scenes","","814","","","68","","","","16","129","130","0","-1","74","75","kurt-cotoaga-cqbLg3lZEpk-unsplash.jpg","lina-loos-04-C1NZk1hE-unsplash.jpg","2","1","129","130","","","","","","","","","","","","","","","","","","","","","","","","","","","",""
"","choice_confirmation","","html-keyboard-response","117","451291","0.0-72.0-2.0-0.0","0","0","KRhFE","Scenes","","null","","","null","","","","16","129","130","","","","","","","","","","","","","","","","","","","","","","","","","","","","","","","","","","","","","",""
"","fixation","","html-keyboard-response","118","452300","0.0-73.0-0.0","0","0","KRhFE","Scenes","","null","","","null","","","","","","","","","","","","","","","","","","","","","","","","","","","","","","","","","","","","","","","","","","","",""
"","deliberation","","html-keyboard-response","119","453023","0.0-73.0-1.0","0","0","KRhFE","Scenes","","722","","","68","","","","17","117","145","0","-1","70","76","frank-mckenna-OD9EOzfSOh0-unsplash.jpg","stephen-leonardi-gyIRjKPXupE-unsplash.jpg","2","1","117","145","","","","","","","","","","","","","","","","","","","","","","","","","","","",""
"","choice_confirmation","","html-keyboard-response","120","453530","0.0-73.0-2.0-0.0","0","0","KRhFE","Scenes","","null","","","null","","","","17","117","145","","","","","","","","","","","","","","","","","","","","","","","","","","","","","","","","","","","","","",""
"","fixation","","html-keyboard-response","121","454547","0.0-74.0-0.0","0","0","KRhFE","Scenes","","null","","","null","","","","","","","","","","","","","","","","","","","","","","","","","","","","","","","","","","","","","","","","","","","",""
"","deliberation","","html-keyboard-response","122","455585","0.0-74.0-1.0","0","0","KRhFE","Scenes","","1034","","","68","","","","18","101","147","1","1","75","77","aniket-deole-T-tOgjWZ0fQ-unsplash.jpg","tobias-keller-73F4pKoUkM0-unsplash.jpg","2","1","101","147","","","","","","","","","","","","","","","","","","","","","","","","","","","",""
"","choice_confirmation","","html-keyboard-response","123","456093","0.0-74.0-2.0-0.0","0","0","KRhFE","Scenes","","null","","","null","","","","18","101","147","","","","","","","","","","","","","","","","","","","","","","","","","","","","","","","","","","","","","",""
"","explain_trial","","survey-text","124","476783","0.0-74.0-5.0-0.0","0","0","KRhFE","Scenes","","20688","{""Q0"":""Really pretty to see the snow capped mountains, but also the fall foliage on the trees in the valley""}","","","","","","18","101","147","","","","","","","","","","","{""Q0"":""Really pretty to see the snow capped mountains, but also the fall foliage on the trees in the valley""}","","","","","","","","","","","","","","","","","","","","","","","","","","",""
"","fixation","","html-keyboard-response","125","477803","0.0-75.0-0.0","0","0","KRhFE","Scenes","","null","","","null","","","","","","","","","","","","","","","","","","","","","","","","","","","","","","","","","","","","","","","","","","","",""
"","deliberation","","html-keyboard-response","126","478785","0.0-75.0-1.0","0","0","KRhFE","Scenes","","979","","","68","","","","19","135","102","1","-1","74","72","mohammad-alizade-4wzRuAb-KWs-unsplash.jpg","anisur-rahman-K2b7UDed6uQ-unsplash.jpg","2","1","135","102","","","","","","","","","","","","","","","","","","","","","","","","","","","",""
"","choice_confirmation","","html-keyboard-response","127","479302","0.0-75.0-2.0-0.0","0","0","KRhFE","Scenes","","null","","","null","","","","19","135","102","","","","","","","","","","","","","","","","","","","","","","","","","","","","","","","","","","","","","",""
"","explain_trial","","survey-text","128","497647","0.0-75.0-5.0-0.0","0","0","KRhFE","Scenes","","18342","{""Q0"":""special time of day and really remote because you can see the stars""}","","","","","","19","135","102","","","","","","","","","","","{""Q0"":""special time of day and really remote because you can see the stars""}","","","","","","","","","","","","","","","","","","","","","","","","","","",""
"","fixation","","html-keyboard-response","129","498667","0.0-76.0-0.0","0","0","KRhFE","Scenes","","null","","","null","","","","","","","","","","","","","","","","","","","","","","","","","","","","","","","","","","","","","","","","","","","",""
"","deliberation","","html-keyboard-response","130","499408","0.0-76.0-1.0","0","0","KRhFE","Scenes","","737","","","68","","","","20","106","128","1","-1","73","69","ashim-d-silva-WeYamle9fDM-unsplash.jpg","karsten-wurth-jS0zC2PJ17A-unsplash.jpg","2","1","106","128","","","","","","","","","","","","","","","","","","","","","","","","","","","",""
"","choice_confirmation","","html-keyboard-response","131","499913","0.0-76.0-2.0-0.0","0","0","KRhFE","Scenes","","null","","","null","","","","20","106","128","","","","","","","","","","","","","","","","","","","","","","","","","","","","","","","","","","","","","",""
"","explain_trial","","survey-text","132","515647","0.0-76.0-5.0-0.0","0","0","KRhFE","Scenes","","15732","{""Q0"":""the colors are just really striking and caught my eye""}","","","","","","20","106","128","","","","","","","","","","","{""Q0"":""the colors are just really striking and caught my eye""}","","","","","","","","","","","","","","","","","","","","","","","","","","",""
"","fixation","","html-keyboard-response","133","516670","0.0-77.0-0.0","0","0","KRhFE","Scenes","","null","","","null","","","","","","","","","","","","","","","","","","","","","","","","","","","","","","","","","","","","","","","","","","","",""
"","deliberation","","html-keyboard-response","134","517904","0.0-77.0-1.0","0","0","KRhFE","Scenes","","1231","","","75","","","","21","140","123","0","1","72","73","samuele-errico-piccarini-JEBqFu2AOOA-unsplash.jpg","joel-jasmin-forestbird-efuwb5eBDrI-unsplash.jpg","2","0","123","140","","","","","","","","","","","","","","","","","","","","","","","","","","","",""
"","choice_confirmation","","html-keyboard-response","135","518413","0.0-77.0-2.0-0.0","0","0","KRhFE","Scenes","","null","","","null","","","","21","140","123","","","","","","","","","","","","","","","","","","","","","","","","","","","","","","","","","","","","","",""
"","fixation","","html-keyboard-response","136","519435","0.0-78.0-0.0","0","0","KRhFE","Scenes","","null","","","null","","","","","","","","","","","","","","","","","","","","","","","","","","","","","","","","","","","","","","","","","","","",""
"","deliberation","","html-keyboard-response","137","520784","0.0-78.0-1.0","0","0","KRhFE","Scenes","","1346","","","68","","","","22","146","131","0","-1","72","80","thomas-morse-cuKKa0vWZSY-unsplash.jpg","luca-bravo-hFzIoD0F_i8-unsplash.jpg","2","1","146","131","","","","","","","","","","","","","","","","","","","","","","","","","","","",""
"","choice_confirmation","","html-keyboard-response","138","521293","0.0-78.0-2.0-0.0","0","0","KRhFE","Scenes","","null","","","null","","","","22","146","131","","","","","","","","","","","","","","","","","","","","","","","","","","","","","","","","","","","","","",""
"","fixation","","html-keyboard-response","139","522316","0.0-79.0-0.0","0","0","KRhFE","Scenes","","null","","","null","","","","","","","","","","","","","","","","","","","","","","","","","","","","","","","","","","","","","","","","","","","",""
"","deliberation","","html-keyboard-response","140","523537","0.0-79.0-1.0","0","0","KRhFE","Scenes","","1219","","","75","","","","23","134","143","1","1","72","66","milada-vigerova-pQMM63GE7fo-unsplash.jpg","sigurdur-fjalar-jonsson-1KxBabIntpE-unsplash.jpg","2","0","143","134","","","","","","","","","","","","","","","","","","","","","","","","","","","",""
"","choice_confirmation","","html-keyboard-response","141","524048","0.0-79.0-2.0-0.0","0","0","KRhFE","Scenes","","null","","","null","","","","23","134","143","","","","","","","","","","","","","","","","","","","","","","","","","","","","","","","","","","","","","",""
"","explain_trial","","survey-text","142","538447","0.0-79.0-5.0-0.0","0","0","KRhFE","Scenes","","14396","{""Q0"":""There is something very relaxing about this lone rock to me""}","","","","","","23","134","143","","","","","","","","","","","{""Q0"":""There is something very relaxing about this lone rock to me""}","","","","","","","","","","","","","","","","","","","","","","","","","","",""
"","start_critical_deliberation_block","","html-keyboard-response","143","542416","0.0-79.0-7.0-0.0","0","0","KRhFE","Scenes","","3967","","","78","","","","","","","","","","","","","","","","","","","","","","","","","","","","","","","","","","","","","","","","","","","",""
"","fixation","","html-keyboard-response","144","543435","0.0-80.0-0.0","0","0","KRhFE","Scenes","","null","","","null","","","","","","","","","","","","","","","","","","","","","","","","","","","","","","","","","","","","","","","","","","","",""
"","deliberation","","html-keyboard-response","145","544257","0.0-80.0-1.0","0","0","KRhFE","Scenes","","819","","","75","","","","24","107","141","0","1","70","78","benjamin-davies-Zm2n2O7Fph4-unsplash.jpg","sebastian-unrau-v4e3JI7DDHI-unsplash.jpg","3","0","141","107","","","","","","","","","","","","","","","","","","","","","","","","","","","",""
"","choice_confirmation","","html-keyboard-response","146","544774","0.0-80.0-2.0-0.0","0","0","KRhFE","Scenes","","null","","","null","","","","24","107","141","","","","","","","","","","","","","","","","","","","","","","","","","","","","","","","","","","","","","",""
"","fixation","","html-keyboard-response","147","545795","0.0-81.0-0.0","0","0","KRhFE","Scenes","","null","","","null","","","","","","","","","","","","","","","","","","","","","","","","","","","","","","","","","","","","","","","","","","","",""
"","deliberation","","html-keyboard-response","148","546832","0.0-81.0-1.0","0","0","KRhFE","Scenes","","1034","","","75","","","","25","103","126","0","1","78","70","anton-darius-FBJugtbHsWU-unsplash.jpg","jordan-mcqueen-PJCZOWuOxbU-unsplash.jpg","3","0","126","103","","","","","","","","","","","","","","","","","","","","","","","","","","","",""
"","choice_confirmation","","html-keyboard-response","149","547343","0.0-81.0-2.0-0.0","0","0","KRhFE","Scenes","","null","","","null","","","","25","103","126","","","","","","","","","","","","","","","","","","","","","","","","","","","","","","","","","","","","","",""
"","fixation","","html-keyboard-response","150","548364","0.0-82.0-0.0","0","0","KRhFE","Scenes","","null","","","null","","","","","","","","","","","","","","","","","","","","","","","","","","","","","","","","","","","","","","","","","","","",""
"","deliberation","","html-keyboard-response","151","549216","0.0-82.0-1.0","0","0","KRhFE","Scenes","","848","","","75","","","","26","134","143","0","1","72","66","milada-vigerova-pQMM63GE7fo-unsplash.jpg","sigurdur-fjalar-jonsson-1KxBabIntpE-unsplash.jpg","3","0","143","134","","","","","","","","","","","","","","","","","","","","","","","","","","","",""
"","choice_confirmation","","html-keyboard-response","152","549724","0.0-82.0-2.0-0.0","0","0","KRhFE","Scenes","","null","","","null","","","","26","134","143","","","","","","","","","","","","","","","","","","","","","","","","","","","","","","","","","","","","","",""
"","fixation","","html-keyboard-response","153","550744","0.0-83.0-0.0","0","0","KRhFE","Scenes","","null","","","null","","","","","","","","","","","","","","","","","","","","","","","","","","","","","","","","","","","","","","","","","","","",""
"","deliberation","","html-keyboard-response","154","551663","0.0-83.0-1.0","0","0","KRhFE","Scenes","","918","","","68","","","","27","146","131","0","-1","72","80","thomas-morse-cuKKa0vWZSY-unsplash.jpg","luca-bravo-hFzIoD0F_i8-unsplash.jpg","3","1","146","131","","","","","","","","","","","","","","","","","","","","","","","","","","","",""
"","choice_confirmation","","html-keyboard-response","155","552176","0.0-83.0-2.0-0.0","0","0","KRhFE","Scenes","","null","","","null","","","","27","146","131","","","","","","","","","","","","","","","","","","","","","","","","","","","","","","","","","","","","","",""
"","fixation","","html-keyboard-response","156","553190","0.0-84.0-0.0","0","0","KRhFE","Scenes","","null","","","null","","","","","","","","","","","","","","","","","","","","","","","","","","","","","","","","","","","","","","","","","","","",""
"","deliberation","","html-keyboard-response","157","554606","0.0-84.0-1.0","0","0","KRhFE","Scenes","","1414","","","68","","","","28","140","123","0","1","72","73","samuele-errico-piccarini-JEBqFu2AOOA-unsplash.jpg","joel-jasmin-forestbird-efuwb5eBDrI-unsplash.jpg","3","1","140","123","","","","","","","","","","","","","","","","","","","","","","","","","","","",""
"","choice_confirmation","","html-keyboard-response","158","555118","0.0-84.0-2.0-0.0","0","0","KRhFE","Scenes","","null","","","null","","","","28","140","123","","","","","","","","","","","","","","","","","","","","","","","","","","","","","","","","","","","","","",""
"","fixation","","html-keyboard-response","159","556138","0.0-85.0-0.0","0","0","KRhFE","Scenes","","null","","","null","","","","","","","","","","","","","","","","","","","","","","","","","","","","","","","","","","","","","","","","","","","",""
"","deliberation","","html-keyboard-response","160","557135","0.0-85.0-1.0","0","0","KRhFE","Scenes","","994","","","68","","","","29","101","147","0","1","75","77","aniket-deole-T-tOgjWZ0fQ-unsplash.jpg","tobias-keller-73F4pKoUkM0-unsplash.jpg","3","1","101","147","","","","","","","","","","","","","","","","","","","","","","","","","","","",""
"","choice_confirmation","","html-keyboard-response","161","557650","0.0-85.0-2.0-0.0","0","0","KRhFE","Scenes","","null","","","null","","","","29","101","147","","","","","","","","","","","","","","","","","","","","","","","","","","","","","","","","","","","","","",""
"","fixation","","html-keyboard-response","162","558654","0.0-86.0-0.0","0","0","KRhFE","Scenes","","null","","","null","","","","","","","","","","","","","","","","","","","","","","","","","","","","","","","","","","","","","","","","","","","",""
"","deliberation","","html-keyboard-response","163","559744","0.0-86.0-1.0","0","0","KRhFE","Scenes","","1087","","","68","","","","30","104","112","0","1","69","68","artem-sapegin-XGDBdSQ70O0-unsplash.jpg","cosmic-timetraveler-pYyOZ8q7AII-unsplash.jpg","3","1","104","112","","","","","","","","","","","","","","","","","","","","","","","","","","","",""
"","choice_confirmation","","html-keyboard-response","164","560251","0.0-86.0-2.0-0.0","0","0","KRhFE","Scenes","","null","","","null","","","","30","104","112","","","","","","","","","","","","","","","","","","","","","","","","","","","","","","","","","","","","","",""
"","fixation","","html-keyboard-response","165","561270","0.0-87.0-0.0","0","0","KRhFE","Scenes","","null","","","null","","","","","","","","","","","","","","","","","","","","","","","","","","","","","","","","","","","","","","","","","","","",""
"","deliberation","","html-keyboard-response","166","562384","0.0-87.0-1.0","0","0","KRhFE","Scenes","","1111","","","68","","","","31","129","130","0","-1","74","75","kurt-cotoaga-cqbLg3lZEpk-unsplash.jpg","lina-loos-04-C1NZk1hE-unsplash.jpg","3","1","129","130","","","","","","","","","","","","","","","","","","","","","","","","","","","",""
"","choice_confirmation","","html-keyboard-response","167","562886","0.0-87.0-2.0-0.0","0","0","KRhFE","Scenes","","null","","","null","","","","31","129","130","","","","","","","","","","","","","","","","","","","","","","","","","","","","","","","","","","","","","",""
"","fixation","","html-keyboard-response","168","563899","0.0-88.0-0.0","0","0","KRhFE","Scenes","","null","","","null","","","","","","","","","","","","","","","","","","","","","","","","","","","","","","","","","","","","","","","","","","","",""
"","deliberation","","html-keyboard-response","169","564689","0.0-88.0-1.0","0","0","KRhFE","Scenes","","787","","","68","","","","32","135","102","0","-1","74","72","mohammad-alizade-4wzRuAb-KWs-unsplash.jpg","anisur-rahman-K2b7UDed6uQ-unsplash.jpg","3","1","135","102","","","","","","","","","","","","","","","","","","","","","","","","","","","",""
"","choice_confirmation","","html-keyboard-response","170","565202","0.0-88.0-2.0-0.0","0","0","KRhFE","Scenes","","null","","","null","","","","32","135","102","","","","","","","","","","","","","","","","","","","","","","","","","","","","","","","","","","","","","",""
"","fixation","","html-keyboard-response","171","566220","0.0-89.0-0.0","0","0","KRhFE","Scenes","","null","","","null","","","","","","","","","","","","","","","","","","","","","","","","","","","","","","","","","","","","","","","","","","","",""
"","deliberation","","html-keyboard-response","172","567807","0.0-89.0-1.0","0","0","KRhFE","Scenes","","1584","","","68","","","","33","124","121","0","-1","80","67","johannes-plenio-sPt5RIjKfpk-unsplash.jpg","jean-pierre-brungs-qxCqkbF7tUc-unsplash.jpg","3","1","124","121","","","","","","","","","","","","","","","","","","","","","","","","","","","",""
"","choice_confirmation","","html-keyboard-response","173","568311","0.0-89.0-2.0-0.0","0","0","KRhFE","Scenes","","null","","","null","","","","33","124","121","","","","","","","","","","","","","","","","","","","","","","","","","","","","","","","","","","","","","",""
"","fixation","","html-keyboard-response","174","569321","0.0-90.0-0.0","0","0","KRhFE","Scenes","","null","","","null","","","","","","","","","","","","","","","","","","","","","","","","","","","","","","","","","","","","","","","","","","","",""
"","deliberation","","html-keyboard-response","175","570143","0.0-90.0-1.0","0","0","KRhFE","Scenes","","820","","","68","","","","34","117","145","0","-1","70","76","frank-mckenna-OD9EOzfSOh0-unsplash.jpg","stephen-leonardi-gyIRjKPXupE-unsplash.jpg","3","1","117","145","","","","","","","","","","","","","","","","","","","","","","","","","","","",""
"","choice_confirmation","","html-keyboard-response","176","570657","0.0-90.0-2.0-0.0","0","0","KRhFE","Scenes","","null","","","null","","","","34","117","145","","","","","","","","","","","","","","","","","","","","","","","","","","","","","","","","","","","","","",""
"","fixation","","html-keyboard-response","177","571675","0.0-91.0-0.0","0","0","KRhFE","Scenes","","null","","","null","","","","","","","","","","","","","","","","","","","","","","","","","","","","","","","","","","","","","","","","","","","",""
"","deliberation","","html-keyboard-response","178","572495","0.0-91.0-1.0","0","0","KRhFE","Scenes","","818","","","68","","","","35","106","128","0","-1","73","69","ashim-d-silva-WeYamle9fDM-unsplash.jpg","karsten-wurth-jS0zC2PJ17A-unsplash.jpg","3","1","106","128","","","","","","","","","","","","","","","","","","","","","","","","","","","",""
"","choice_confirmation","","html-keyboard-response","179","573008","0.0-91.0-2.0-0.0","0","0","KRhFE","Scenes","","null","","","null","","","","35","106","128","","","","","","","","","","","","","","","","","","","","","","","","","","","","","","","","","","","","","",""
"","reward_learning_instructions","","instructions","180","611292","0.0-92.0-0.0","0","0","KRhFE","Scenes","[{""page_index"":0,""viewing_time"":17691},{""page_index"":1,""viewing_time"":18919},{""page_index"":2,""viewing_time"":1672}]","38282","","","","","","","","","","","","","","","","","","","","","","","","","","","","","","","","","","","","","","","","","","","","","","",""
"","reward_comprehension_check","","survey-multi-choice","181","621365","0.0-92.0-1.0","0","0","KRhFE","Scenes","","10067","{""Q0"":""True"",""Q1"":""True"",""Q2"":""Press the space bar to see its outcome"",""Q3"":""Press the relevant key while the outcome is presented""}","0","","","","","","","","","","","","","","","","","","","","","","","","","","","","","","","","","","","","","","","","","","","","",""
"","start_phase","","html-keyboard-response","182","623822","0.0-93.0","0","0","KRhFE","Scenes","","2456","","","78","","","","","","","","","","","","","","","","","","","","","","","","","","","","","","","","","","","","","","","","","","","",""
"","fixation","","html-keyboard-response","183","624841","0.0-94.0","0","0","KRhFE","Scenes","","null","","","null","","","","","","","","","","","","","","","","","","","","","","","","","","","","","","","","","","","","","","","","","","","",""
"","see_reward","","html-keyboard-response","184","625692","0.0-95.0","0","0","KRhFE","Scenes","","850","","","32","","146","","0","","","","-1","","","","","1","","","","","0","850","","","","","","","","","","","","","","","","","","","","","","","","",""
"","reward_outcome","","html-keyboard-response","185","627702","0.0-96.0","0","0","KRhFE","Scenes","","null","","","null","","146","","0","","","","","","","","","","","","","","","","NaN","null","","","","","","","","","","","","","","","","","","","","","","",""
"","respond_faster","","html-keyboard-response","186","629216","0.0-97.0-0.0","1","0","KRhFE","Scenes","","null","","","null","","","","","","","","","","","","","","","","","","","","","","","","","","","","","","","","","","","","","","","","","","","",""
"","fixation","","html-keyboard-response","187","630223","0.0-99.0","0","0","KRhFE","Scenes","","null","","","null","","","","","","","","","","","","","","","","","","","","","","","","","","","","","","","","","","","","","","","","","","","",""
"","see_reward","","html-keyboard-response","188","630847","0.0-100.0","0","0","KRhFE","Scenes","","622","","","32","","106","","1","","","","-1","","","","","1","","","","","0","622","","","","","","","","","","","","","","","","","","","","","","","","",""
"","reward_outcome","","html-keyboard-response","189","632866","0.0-101.0","0","0","KRhFE","Scenes","","1612","","","40","","106","","1","","","","","","","","","","","","","","","","-1","1612","","","","","","","","","","","","","","","","","","","","","","",""
"","fixation","","html-keyboard-response","190","633871","0.0-104.0","0","0","KRhFE","Scenes","","null","","","null","","","","","","","","","","","","","","","","","","","","","","","","","","","","","","","","","","","","","","","","","","","",""
"","see_reward","","html-keyboard-response","191","634620","0.0-105.0","0","0","KRhFE","Scenes","","749","","","32","","135","","2","","","","-1","","","","","1","","","","","0","749","","","","","","","","","","","","","","","","","","","","","","","","",""
"","reward_outcome","","html-keyboard-response","192","636640","0.0-106.0","0","0","KRhFE","Scenes","","880","","","40","","135","","2","","","","","","","","","","","","","","","","-1","880","","","","","","","","","","","","","","","","","","","","","","",""
"","fixation","","html-keyboard-response","193","637649","0.0-109.0","0","0","KRhFE","Scenes","","null","","","null","","","","","","","","","","","","","","","","","","","","","","","","","","","","","","","","","","","","","","","","","","","",""
"","see_reward","","html-keyboard-response","194","638238","0.0-110.0","0","0","KRhFE","Scenes","","585","","","32","","117","","3","","","","-1","","","","","1","","","","","0","585","","","","","","","","","","","","","","","","","","","","","","","","",""
"","reward_outcome","","html-keyboard-response","195","640247","0.0-111.0","0","0","KRhFE","Scenes","","702","","","40","","117","","3","","","","","","","","","","","","","","","","-1","702","","","","","","","","","","","","","","","","","","","","","","",""
"","fixation","","html-keyboard-response","196","641259","0.0-114.0","0","0","KRhFE","Scenes","","null","","","null","","","","","","","","","","","","","","","","","","","","","","","","","","","","","","","","","","","","","","","","","","","",""
"","see_reward","","html-keyboard-response","197","641743","0.0-115.0","0","0","KRhFE","Scenes","","481","","","32","","124","","4","","","","-1","","","","","1","","","","","0","481","","","","","","","","","","","","","","","","","","","","","","","","",""
"","reward_outcome","","html-keyboard-response","198","643750","0.0-116.0","0","0","KRhFE","Scenes","","684","","","40","","124","","4","","","","","","","","","","","","","","","","-1","684","","","","","","","","","","","","","","","","","","","","","","",""
"","fixation","","html-keyboard-response","199","644763","0.0-119.0","0","0","KRhFE","Scenes","","null","","","null","","","","","","","","","","","","","","","","","","","","","","","","","","","","","","","","","","","","","","","","","","","",""
"","see_reward","","html-keyboard-response","200","645262","0.0-120.0","0","0","KRhFE","Scenes","","496","","","32","","135","","5","","","","-1","","","","","1","","","","","0","496","","","","","","","","","","","","","","","","","","","","","","","","",""
"","reward_outcome","","html-keyboard-response","201","647271","0.0-121.0","0","0","KRhFE","Scenes","","589","","","40","","135","","5","","","","","","","","","","","","","","","","-1","589","","","","","","","","","","","","","","","","","","","","","","",""
"","fixation","","html-keyboard-response","202","648285","0.0-124.0","0","0","KRhFE","Scenes","","null","","","null","","","","","","","","","","","","","","","","","","","","","","","","","","","","","","","","","","","","","","","","","","","",""
"","see_reward","","html-keyboard-response","203","648638","0.0-125.0","0","0","KRhFE","Scenes","","350","","","32","","117","","6","","","","-1","","","","","1","","","","","0","350","","","","","","","","","","","","","","","","","","","","","","","","",""
"","reward_outcome","","html-keyboard-response","204","650649","0.0-126.0","0","0","KRhFE","Scenes","","589","","","40","","117","","6","","","","","","","","","","","","","","","","-1","589","","","","","","","","","","","","","","","","","","","","","","",""
"","fixation","","html-keyboard-response","205","651666","0.0-129.0","0","0","KRhFE","Scenes","","null","","","null","","","","","","","","","","","","","","","","","","","","","","","","","","","","","","","","","","","","","","","","","","","",""
"","see_reward","","html-keyboard-response","206","652060","0.0-130.0","0","0","KRhFE","Scenes","","392","","","32","","146","","7","","","","-1","","","","","1","","","","","0","392","","","","","","","","","","","","","","","","","","","","","","","","",""
"","reward_outcome","","html-keyboard-response","207","654083","0.0-131.0","0","0","KRhFE","Scenes","","591","","","40","","146","","7","","","","","","","","","","","","","","","","-1","591","","","","","","","","","","","","","","","","","","","","","","",""
"","fixation","","html-keyboard-response","208","655099","0.0-134.0","0","0","KRhFE","Scenes","","null","","","null","","","","","","","","","","","","","","","","","","","","","","","","","","","","","","","","","","","","","","","","","","","",""
"","see_reward","","html-keyboard-response","209","655502","0.0-135.0","0","0","KRhFE","Scenes","","400","","","32","","140","","8","","","","1","","","","","1","","","","","149","400","","","","","","","","","","","","","","","","","","","","","","","","",""
"","reward_outcome","","html-keyboard-response","210","657513","0.0-136.0","0","0","KRhFE","Scenes","","813","","","38","","140","","8","","","","","","","","","","","","","","","","1","813","","","","","","","","","","","","","","","","","","","","","","",""
"","fixation","","html-keyboard-response","211","658519","0.0-139.0","0","0","KRhFE","Scenes","","null","","","null","","","","","","","","","","","","","","","","","","","","","","","","","","","","","","","","","","","","","","","","","","","",""
"","see_reward","","html-keyboard-response","212","658990","0.0-140.0","0","0","KRhFE","Scenes","","469","","","32","","126","","9","","","","1","","","","","1","","","","","149","469","","","","","","","","","","","","","","","","","","","","","","","","",""
"","reward_outcome","","html-keyboard-response","213","661002","0.0-141.0","0","0","KRhFE","Scenes","","780","","","38","","126","","9","","","","","","","","","","","","","","","","1","780","","","","","","","","","","","","","","","","","","","","","","",""
"","fixation","","html-keyboard-response","214","662016","0.0-144.0","0","0","KRhFE","Scenes","","null","","","null","","","","","","","","","","","","","","","","","","","","","","","","","","","","","","","","","","","","","","","","","","","",""
"","see_reward","","html-keyboard-response","215","662572","0.0-145.0","0","0","KRhFE","Scenes","","555","","","32","","101","","10","","","","1","","","","","1","","","","","150","555","","","","","","","","","","","","","","","","","","","","","","","","",""
"","reward_outcome","","html-keyboard-response","216","664592","0.0-146.0","0","0","KRhFE","Scenes","","1135","","","38","","101","","10","","","","","","","","","","","","","","","","1","1135","","","","","","","","","","","","","","","","","","","","","","",""
"","fixation","","html-keyboard-response","217","665601","0.0-149.0","0","0","KRhFE","Scenes","","null","","","null","","","","","","","","","","","","","","","","","","","","","","","","","","","","","","","","","","","","","","","","","","","",""
"","see_reward","","html-keyboard-response","218","666156","0.0-150.0","0","0","KRhFE","Scenes","","553","","","32","","124","","11","","","","-1","","","","","1","","","","","0","553","","","","","","","","","","","","","","","","","","","","","","","","",""
"","reward_outcome","","html-keyboard-response","219","668168","0.0-151.0","0","0","KRhFE","Scenes","","640","","","40","","124","","11","","","","","","","","","","","","","","","","-1","640","","","","","","","","","","","","","","","","","","","","","","",""
"","fixation","","html-keyboard-response","220","669182","0.0-154.0","0","0","KRhFE","Scenes","","null","","","null","","","","","","","","","","","","","","","","","","","","","","","","","","","","","","","","","","","","","","","","","","","",""
"","see_reward","","html-keyboard-response","221","669659","0.0-155.0","0","0","KRhFE","Scenes","","474","","","32","","143","","12","","","","1","","","","","1","","","","","159","474","","","","","","","","","","","","","","","","","","","","","","","","",""
"","reward_outcome","","html-keyboard-response","222","671674","0.0-156.0","0","0","KRhFE","Scenes","","770","","","38","","143","","12","","","","","","","","","","","","","","","","1","770","","","","","","","","","","","","","","","","","","","","","","",""
"","fixation","","html-keyboard-response","223","672690","0.0-159.0","0","0","KRhFE","Scenes","","null","","","null","","","","","","","","","","","","","","","","","","","","","","","","","","","","","","","","","","","","","","","","","","","",""
"","see_reward","","html-keyboard-response","224","673214","0.0-160.0","0","0","KRhFE","Scenes","","521","","","32","","129","","13","","","","-1","","","","","1","","","","","0","521","","","","","","","","","","","","","","","","","","","","","","","","",""
"","reward_outcome","","html-keyboard-response","225","675224","0.0-161.0","0","0","KRhFE","Scenes","","636","","","40","","129","","13","","","","","","","","","","","","","","","","-1","636","","","","","","","","","","","","","","","","","","","","","","",""
"","fixation","","html-keyboard-response","226","676242","0.0-164.0","0","0","KRhFE","Scenes","","null","","","null","","","","","","","","","","","","","","","","","","","","","","","","","","","","","","","","","","","","","","","","","","","",""
"","see_reward","","html-keyboard-response","227","676685","0.0-165.0","0","0","KRhFE","Scenes","","441","","","32","","106","","14","","","","-1","","","","","1","","","","","0","441","","","","","","","","","","","","","","","","","","","","","","","","",""
"","reward_outcome","","html-keyboard-response","228","678706","0.0-166.0","0","0","KRhFE","Scenes","","507","","","40","","106","","14","","","","","","","","","","","","","","","","-1","507","","","","","","","","","","","","","","","","","","","","","","",""
"","fixation","","html-keyboard-response","229","679729","0.0-169.0","0","0","KRhFE","Scenes","","null","","","null","","","","","","","","","","","","","","","","","","","","","","","","","","","","","","","","","","","","","","","","","","","",""
"","see_reward","","html-keyboard-response","230","680205","0.0-170.0","0","0","KRhFE","Scenes","","474","","","32","","104","","15","","","","1","","","","","1","","","","","140","474","","","","","","","","","","","","","","","","","","","","","","","","",""
"","reward_outcome","","html-keyboard-response","231","682221","0.0-171.0","0","0","KRhFE","Scenes","","764","","","38","","104","","15","","","","","","","","","","","","","","","","1","764","","","","","","","","","","","","","","","","","","","","","","",""
"","fixation","","html-keyboard-response","232","683230","0.0-174.0","0","0","KRhFE","Scenes","","null","","","null","","","","","","","","","","","","","","","","","","","","","","","","","","","","","","","","","","","","","","","","","","","",""
"","see_reward","","html-keyboard-response","233","683726","0.0-175.0","0","0","KRhFE","Scenes","","493","","","32","","140","","16","","","","1","","","","","1","","","","","149","493","","","","","","","","","","","","","","","","","","","","","","","","",""
"","reward_outcome","","html-keyboard-response","234","685736","0.0-176.0","0","0","KRhFE","Scenes","","572","","","38","","140","","16","","","","","","","","","","","","","","","","1","572","","","","","","","","","","","","","","","","","","","","","","",""
"","fixation","","html-keyboard-response","235","686754","0.0-179.0","0","0","KRhFE","Scenes","","null","","","null","","","","","","","","","","","","","","","","","","","","","","","","","","","","","","","","","","","","","","","","","","","",""
"","see_reward","","html-keyboard-response","236","687181","0.0-180.0","0","0","KRhFE","Scenes","","424","","","32","","126","","17","","","","1","","","","","1","","","","","149","424","","","","","","","","","","","","","","","","","","","","","","","","",""
"","reward_outcome","","html-keyboard-response","237","689201","0.0-181.0","0","0","KRhFE","Scenes","","765","","","38","","126","","17","","","","","","","","","","","","","","","","1","765","","","","","","","","","","","","","","","","","","","","","","",""
"","fixation","","html-keyboard-response","238","690224","0.0-184.0","0","0","KRhFE","Scenes","","null","","","null","","","","","","","","","","","","","","","","","","","","","","","","","","","","","","","","","","","","","","","","","","","",""
"","see_reward","","html-keyboard-response","239","690621","0.0-185.0","0","0","KRhFE","Scenes","","394","","","32","","141","","18","","","","1","","","","","1","","","","","147","394","","","","","","","","","","","","","","","","","","","","","","","","",""
"","reward_outcome","","html-keyboard-response","240","692639","0.0-186.0","0","0","KRhFE","Scenes","","765","","","38","","141","","18","","","","","","","","","","","","","","","","1","765","","","","","","","","","","","","","","","","","","","","","","",""
"","fixation","","html-keyboard-response","241","693655","0.0-189.0","0","0","KRhFE","Scenes","","null","","","null","","","","","","","","","","","","","","","","","","","","","","","","","","","","","","","","","","","","","","","","","","","",""
"","see_reward","","html-keyboard-response","242","694060","0.0-190.0","0","0","KRhFE","Scenes","","402","","","32","","101","","19","","","","1","","","","","1","","","","","150","402","","","","","","","","","","","","","","","","","","","","","","","","",""
"","reward_outcome","","html-keyboard-response","243","696079","0.0-191.0","0","0","KRhFE","Scenes","","814","","","38","","101","","19","","","","","","","","","","","","","","","","1","814","","","","","","","","","","","","","","","","","","","","","","",""
"","fixation","","html-keyboard-response","244","697088","0.0-194.0","0","0","KRhFE","Scenes","","null","","","null","","","","","","","","","","","","","","","","","","","","","","","","","","","","","","","","","","","","","","","","","","","",""
"","see_reward","","html-keyboard-response","245","697597","0.0-195.0","0","0","KRhFE","Scenes","","506","","","32","","141","","20","","","","1","","","","","1","","","","","147","506","","","","","","","","","","","","","","","","","","","","","","","","",""
"","reward_outcome","","html-keyboard-response","246","699611","0.0-196.0","0","0","KRhFE","Scenes","","637","","","38","","141","","20","","","","","","","","","","","","","","","","1","637","","","","","","","","","","","","","","","","","","","","","","",""
"","fixation","","html-keyboard-response","247","700633","0.0-199.0","0","0","KRhFE","Scenes","","null","","","null","","","","","","","","","","","","","","","","","","","","","","","","","","","","","","","","","","","","","","","","","","","",""
"","see_reward","","html-keyboard-response","248","701037","0.0-200.0","0","0","KRhFE","Scenes","","401","","","32","","129","","21","","","","-1","","","","","1","","","","","0","401","","","","","","","","","","","","","","","","","","","","","","","","",""
"","reward_outcome","","html-keyboard-response","249","703044","0.0-201.0","0","0","KRhFE","Scenes","","604","","","40","","129","","21","","","","","","","","","","","","","","","","-1","604","","","","","","","","","","","","","","","","","","","","","","",""
"","fixation","","html-keyboard-response","250","704066","0.0-204.0","0","0","KRhFE","Scenes","","null","","","null","","","","","","","","","","","","","","","","","","","","","","","","","","","","","","","","","","","","","","","","","","","",""
"","see_reward","","html-keyboard-response","251","704478","0.0-205.0","0","0","KRhFE","Scenes","","409","","","32","","143","","22","","","","1","","","","","1","","","","","159","409","","","","","","","","","","","","","","","","","","","","","","","","",""
"","reward_outcome","","html-keyboard-response","252","706485","0.0-206.0","0","0","KRhFE","Scenes","","620","","","38","","143","","22","","","","","","","","","","","","","","","","1","620","","","","","","","","","","","","","","","","","","","","","","",""
"","fixation","","html-keyboard-response","253","707494","0.0-209.0","0","0","KRhFE","Scenes","","null","","","null","","","","","","","","","","","","","","","","","","","","","","","","","","","","","","","","","","","","","","","","","","","",""
"","see_reward","","html-keyboard-response","254","707901","0.0-210.0","0","0","KRhFE","Scenes","","403","","","32","","104","","23","","","","1","","","","","1","","","","","140","403","","","","","","","","","","","","","","","","","","","","","","","","",""
"","reward_outcome","","html-keyboard-response","255","709910","0.0-211.0","0","0","KRhFE","Scenes","","653","","","38","","104","","23","","","","","","","","","","","","","","","","1","653","","","","","","","","","","","","","","","","","","","","","","",""
"","block_over","","html-keyboard-response","256","712491","0.0-213.0-0.0","0","0","KRhFE","Scenes","","2579","","","78","","","","","","","","","","","","","","","","","","","","","","","","","","","","","","","","","","","","","","","","","","","",""
"","fixation","","html-keyboard-response","257","713514","0.0-214.0","0","0","KRhFE","Scenes","","null","","","null","","","","","","","","","","","","","","","","","","","","","","","","","","","","","","","","","","","","","","","","","","","",""
"","see_reward","","html-keyboard-response","258","714494","0.0-215.0","0","0","KRhFE","Scenes","","976","","","32","","143","","24","","","","1","","","","","2","","","","","159","976","","","","","","","","","","","","","","","","","","","","","","","","",""
"","reward_outcome","","html-keyboard-response","259","716512","0.0-216.0","0","0","KRhFE","Scenes","","732","","","38","","143","","24","","","","","","","","","","","","","","","","1","732","","","","","","","","","","","","","","","","","","","","","","",""
"","fixation","","html-keyboard-response","260","717521","0.0-219.0","0","0","KRhFE","Scenes","","null","","","null","","","","","","","","","","","","","","","","","","","","","","","","","","","","","","","","","","","","","","","","","","","",""
"","see_reward","","html-keyboard-response","261","717949","0.0-220.0","0","0","KRhFE","Scenes","","426","","","32","","104","","25","","","","1","","","","","2","","","","","140","426","","","","","","","","","","","","","","","","","","","","","","","","",""
"","reward_outcome","","html-keyboard-response","262","719966","0.0-221.0","0","0","KRhFE","Scenes","","668","","","38","","104","","25","","","","","","","","","","","","","","","","1","668","","","","","","","","","","","","","","","","","","","","","","",""
"","fixation","","html-keyboard-response","263","720979","0.0-224.0","0","0","KRhFE","Scenes","","null","","","null","","","","","","","","","","","","","","","","","","","","","","","","","","","","","","","","","","","","","","","","","","","",""
"","see_reward","","html-keyboard-response","264","721419","0.0-225.0","0","0","KRhFE","Scenes","","438","","","32","","106","","26","","","","-1","","","","","2","","","","","0","438","","","","","","","","","","","","","","","","","","","","","","","","",""
"","reward_outcome","","html-keyboard-response","265","723436","0.0-226.0","0","0","KRhFE","Scenes","","543","","","40","","106","","26","","","","","","","","","","","","","","","","-1","543","","","","","","","","","","","","","","","","","","","","","","",""
"","fixation","","html-keyboard-response","266","724452","0.0-229.0","0","0","KRhFE","Scenes","","null","","","null","","","","","","","","","","","","","","","","","","","","","","","","","","","","","","","","","","","","","","","","","","","",""
"","see_reward","","html-keyboard-response","267","724750","0.0-230.0","0","0","KRhFE","Scenes","","296","","","32","","141","","27","","","","1","","","","","2","","","","","147","296","","","","","","","","","","","","","","","","","","","","","","","","",""
"","reward_outcome","","html-keyboard-response","268","726757","0.0-231.0","0","0","KRhFE","Scenes","","636","","","38","","141","","27","","","","","","","","","","","","","","","","1","636","","","","","","","","","","","","","","","","","","","","","","",""
"","fixation","","html-keyboard-response","269","727775","0.0-234.0","0","0","KRhFE","Scenes","","null","","","null","","","","","","","","","","","","","","","","","","","","","","","","","","","","","","","","","","","","","","","","","","","",""
"","see_reward","","html-keyboard-response","270","728125","0.0-235.0","0","0","KRhFE","Scenes","","347","","","32","","104","","28","","","","1","","","","","2","","","","","140","347","","","","","","","","","","","","","","","","","","","","","","","","",""
"","reward_outcome","","html-keyboard-response","271","730132","0.0-236.0","0","0","KRhFE","Scenes","","557","","","38","","104","","28","","","","","","","","","","","","","","","","1","557","","","","","","","","","","","","","","","","","","","","","","",""
"","fixation","","html-keyboard-response","272","731141","0.0-239.0","0","0","KRhFE","Scenes","","null","","","null","","","","","","","","","","","","","","","","","","","","","","","","","","","","","","","","","","","","","","","","","","","",""
"","see_reward","","html-keyboard-response","273","731565","0.0-240.0","0","0","KRhFE","Scenes","","421","","","32","","117","","29","","","","-1","","","","","2","","","","","0","421","","","","","","","","","","","","","","","","","","","","","","","","",""
"","reward_outcome","","html-keyboard-response","274","733572","0.0-241.0","0","0","KRhFE","Scenes","","509","","","40","","117","","29","","","","","","","","","","","","","","","","-1","509","","","","","","","","","","","","","","","","","","","","","","",""
"","fixation","","html-keyboard-response","275","734582","0.0-244.0","0","0","KRhFE","Scenes","","null","","","null","","","","","","","","","","","","","","","","","","","","","","","","","","","","","","","","","","","","","","","","","","","",""
"","see_reward","","html-keyboard-response","276","734877","0.0-245.0","0","0","KRhFE","Scenes","","293","","","32","","129","","30","","","","-1","","","","","2","","","","","0","293","","","","","","","","","","","","","","","","","","","","","","","","",""
"","reward_outcome","","html-keyboard-response","277","736885","0.0-246.0","0","0","KRhFE","Scenes","","524","","","40","","129","","30","","","","","","","","","","","","","","","","-1","524","","","","","","","","","","","","","","","","","","","","","","",""
"","fixation","","html-keyboard-response","278","737900","0.0-249.0","0","0","KRhFE","Scenes","","null","","","null","","","","","","","","","","","","","","","","","","","","","","","","","","","","","","","","","","","","","","","","","","","",""
"","see_reward","","html-keyboard-response","279","738254","0.0-250.0","0","0","KRhFE","Scenes","","350","","","32","","135","","31","","","","-1","","","","","2","","","","","0","350","","","","","","","","","","","","","","","","","","","","","","","","",""
"","reward_outcome","","html-keyboard-response","280","740272","0.0-251.0","0","0","KRhFE","Scenes","","619","","","40","","135","","31","","","","","","","","","","","","","","","","-1","619","","","","","","","","","","","","","","","","","","","","","","",""
"","fixation","","html-keyboard-response","281","741281","0.0-254.0","0","0","KRhFE","Scenes","","null","","","null","","","","","","","","","","","","","","","","","","","","","","","","","","","","","","","","","","","","","","","","","","","",""
"","see_reward","","html-keyboard-response","282","741629","0.0-255.0","0","0","KRhFE","Scenes","","345","","","32","","146","","32","","","","-1","","","","","2","","","","","0","345","","","","","","","","","","","","","","","","","","","","","","","","",""
"","reward_outcome","","html-keyboard-response","283","743649","0.0-256.0","0","0","KRhFE","Scenes","","940","","","40","","146","","32","","","","","","","","","","","","","","","","-1","940","","","","","","","","","","","","","","","","","","","","","","",""
"","fixation","","html-keyboard-response","284","744674","0.0-259.0","0","0","KRhFE","Scenes","","null","","","null","","","","","","","","","","","","","","","","","","","","","","","","","","","","","","","","","","","","","","","","","","","",""
"","see_reward","","html-keyboard-response","285","745038","0.0-260.0","0","0","KRhFE","Scenes","","361","","","32","","106","","33","","","","-1","","","","","2","","","","","0","361","","","","","","","","","","","","","","","","","","","","","","","","",""
"","reward_outcome","","html-keyboard-response","286","747059","0.0-261.0","0","0","KRhFE","Scenes","","716","","","40","","106","","33","","","","","","","","","","","","","","","","-1","716","","","","","","","","","","","","","","","","","","","","","","",""
"","fixation","","html-keyboard-response","287","748074","0.0-264.0","0","0","KRhFE","Scenes","","null","","","null","","","","","","","","","","","","","","","","","","","","","","","","","","","","","","","","","","","","","","","","","","","",""
"","see_reward","","html-keyboard-response","288","748429","0.0-265.0","0","0","KRhFE","Scenes","","351","","","32","","126","","34","","","","1","","","","","2","","","","","149","351","","","","","","","","","","","","","","","","","","","","","","","","",""
"","reward_outcome","","html-keyboard-response","289","750444","0.0-266.0","0","0","KRhFE","Scenes","","733","","","38","","126","","34","","","","","","","","","","","","","","","","1","733","","","","","","","","","","","","","","","","","","","","","","",""
"","fixation","","html-keyboard-response","290","751462","0.0-269.0","0","0","KRhFE","Scenes","","null","","","null","","","","","","","","","","","","","","","","","","","","","","","","","","","","","","","","","","","","","","","","","","","",""
"","see_reward","","html-keyboard-response","291","751882","0.0-270.0","0","0","KRhFE","Scenes","","418","","","32","","143","","35","","","","1","","","","","2","","","","","159","418","","","","","","","","","","","","","","","","","","","","","","","","",""
"","reward_outcome","","html-keyboard-response","292","753894","0.0-271.0","0","0","KRhFE","Scenes","","560","","","38","","143","","35","","","","","","","","","","","","","","","","1","560","","","","","","","","","","","","","","","","","","","","","","",""
"","fixation","","html-keyboard-response","293","754905","0.0-274.0","0","0","KRhFE","Scenes","","null","","","null","","","","","","","","","","","","","","","","","","","","","","","","","","","","","","","","","","","","","","","","","","","",""
"","see_reward","","html-keyboard-response","294","755278","0.0-275.0","0","0","KRhFE","Scenes","","370","","","32","","141","","36","","","","1","","","","","2","","","","","147","370","","","","","","","","","","","","","","","","","","","","","","","","",""
"","reward_outcome","","html-keyboard-response","295","757296","0.0-276.0","0","0","KRhFE","Scenes","","748","","","38","","141","","36","","","","","","","","","","","","","","","","1","748","","","","","","","","","","","","","","","","","","","","","","",""
"","fixation","","html-keyboard-response","296","758303","0.0-279.0","0","0","KRhFE","Scenes","","null","","","null","","","","","","","","","","","","","","","","","","","","","","","","","","","","","","","","","","","","","","","","","","","",""
"","see_reward","","html-keyboard-response","297","758717","0.0-280.0","0","0","KRhFE","Scenes","","410","","","32","","135","","37","","","","-1","","","","","2","","","","","0","410","","","","","","","","","","","","","","","","","","","","","","","","",""
"","reward_outcome","","html-keyboard-response","298","760737","0.0-281.0","0","0","KRhFE","Scenes","","null","","","null","","135","","37","","","","","","","","","","","","","","","","NaN","null","","","","","","","","","","","","","","","","","","","","","","",""
"","respond_faster","","html-keyboard-response","299","762244","0.0-282.0-0.0","1","0","KRhFE","Scenes","","null","","","null","","","","","","","","","","","","","","","","","","","","","","","","","","","","","","","","","","","","","","","","","","","",""
"","fixation","","html-keyboard-response","300","763262","0.0-284.0","0","0","KRhFE","Scenes","","null","","","null","","","","","","","","","","","","","","","","","","","","","","","","","","","","","","","","","","","","","","","","","","","",""
"","see_reward","","html-keyboard-response","301","763933","0.0-285.0","0","0","KRhFE","Scenes","","667","","","32","","124","","38","","","","-1","","","","","2","","","","","0","667","","","","","","","","","","","","","","","","","","","","","","","","",""
"","reward_outcome","","html-keyboard-response","302","765941","0.0-286.0","0","0","KRhFE","Scenes","","670","","","40","","124","","38","","","","","","","","","","","","","","","","-1","670","","","","","","","","","","","","","","","","","","","","","","",""
"","fixation","","html-keyboard-response","303","766955","0.0-289.0","0","0","KRhFE","Scenes","","null","","","null","","","","","","","","","","","","","","","","","","","","","","","","","","","","","","","","","","","","","","","","","","","",""
"","see_reward","","html-keyboard-response","304","767419","0.0-290.0","0","0","KRhFE","Scenes","","462","","","32","","117","","39","","","","-1","","","","","2","","","","","0","462","","","","","","","","","","","","","","","","","","","","","","","","",""
"","reward_outcome","","html-keyboard-response","305","769428","0.0-291.0","0","0","KRhFE","Scenes","","527","","","40","","117","","39","","","","","","","","","","","","","","","","-1","527","","","","","","","","","","","","","","","","","","","","","","",""
"","fixation","","html-keyboard-response","306","770442","0.0-294.0","0","0","KRhFE","Scenes","","null","","","null","","","","","","","","","","","","","","","","","","","","","","","","","","","","","","","","","","","","","","","","","","","",""
"","see_reward","","html-keyboard-response","307","770940","0.0-295.0","0","0","KRhFE","Scenes","","496","","","32","","126","","40","","","","1","","","","","2","","","","","149","496","","","","","","","","","","","","","","","","","","","","","","","","",""
"","reward_outcome","","html-keyboard-response","308","772961","0.0-296.0","0","0","KRhFE","Scenes","","541","","","38","","126","","40","","","","","","","","","","","","","","","","1","541","","","","","","","","","","","","","","","","","","","","","","",""
"","fixation","","html-keyboard-response","309","773978","0.0-299.0","0","0","KRhFE","Scenes","","null","","","null","","","","","","","","","","","","","","","","","","","","","","","","","","","","","","","","","","","","","","","","","","","",""
"","see_reward","","html-keyboard-response","310","774493","0.0-300.0","0","0","KRhFE","Scenes","","512","","","32","","101","","41","","","","1","","","","","2","","","","","150","512","","","","","","","","","","","","","","","","","","","","","","","","",""
"","reward_outcome","","html-keyboard-response","311","776505","0.0-301.0","0","0","KRhFE","Scenes","","685","","","38","","101","","41","","","","","","","","","","","","","","","","1","685","","","","","","","","","","","","","","","","","","","","","","",""
"","fixation","","html-keyboard-response","312","777521","0.0-304.0","0","0","KRhFE","Scenes","","null","","","null","","","","","","","","","","","","","","","","","","","","","","","","","","","","","","","","","","","","","","","","","","","",""
"","see_reward","","html-keyboard-response","313","778030","0.0-305.0","0","0","KRhFE","Scenes","","506","","","32","","140","","42","","","","1","","","","","2","","","","","149","506","","","","","","","","","","","","","","","","","","","","","","","","",""
"","reward_outcome","","html-keyboard-response","314","780050","0.0-306.0","0","0","KRhFE","Scenes","","587","","","38","","140","","42","","","","","","","","","","","","","","","","1","587","","","","","","","","","","","","","","","","","","","","","","",""
"","fixation","","html-keyboard-response","315","781072","0.0-309.0","0","0","KRhFE","Scenes","","null","","","null","","","","","","","","","","","","","","","","","","","","","","","","","","","","","","","","","","","","","","","","","","","",""
"","see_reward","","html-keyboard-response","316","781580","0.0-310.0","0","0","KRhFE","Scenes","","507","","","32","","129","","43","","","","-1","","","","","2","","","","","0","507","","","","","","","","","","","","","","","","","","","","","","","","",""
"","reward_outcome","","html-keyboard-response","317","783598","0.0-311.0","0","0","KRhFE","Scenes","","572","","","40","","129","","43","","","","","","","","","","","","","","","","-1","572","","","","","","","","","","","","","","","","","","","","","","",""
"","fixation","","html-keyboard-response","318","784606","0.0-314.0","0","0","KRhFE","Scenes","","null","","","null","","","","","","","","","","","","","","","","","","","","","","","","","","","","","","","","","","","","","","","","","","","",""
"","see_reward","","html-keyboard-response","319","785034","0.0-315.0","0","0","KRhFE","Scenes","","427","","","32","","101","","44","","","","1","","","","","2","","","","","150","427","","","","","","","","","","","","","","","","","","","","","","","","",""
"","reward_outcome","","html-keyboard-response","320","787057","0.0-316.0","0","0","KRhFE","Scenes","","704","","","38","","101","","44","","","","","","","","","","","","","","","","1","704","","","","","","","","","","","","","","","","","","","","","","",""
"","fixation","","html-keyboard-response","321","788079","0.0-319.0","0","0","KRhFE","Scenes","","null","","","null","","","","","","","","","","","","","","","","","","","","","","","","","","","","","","","","","","","","","","","","","","","",""
"","see_reward","","html-keyboard-response","322","788603","0.0-320.0","0","0","KRhFE","Scenes","","522","","","32","","124","","45","","","","-1","","","","","2","","","","","0","522","","","","","","","","","","","","","","","","","","","","","","","","",""
"","reward_outcome","","html-keyboard-response","323","790625","0.0-321.0","0","0","KRhFE","Scenes","","496","","","40","","124","","45","","","","","","","","","","","","","","","","-1","496","","","","","","","","","","","","","","","","","","","","","","",""
"","fixation","","html-keyboard-response","324","791643","0.0-324.0","0","0","KRhFE","Scenes","","null","","","null","","","","","","","","","","","","","","","","","","","","","","","","","","","","","","","","","","","","","","","","","","","",""
"","see_reward","","html-keyboard-response","325","792188","0.0-325.0","0","0","KRhFE","Scenes","","543","","","32","","146","","46","","","","-1","","","","","2","","","","","0","543","","","","","","","","","","","","","","","","","","","","","","","","",""
"","reward_outcome","","html-keyboard-response","326","794201","0.0-326.0","0","0","KRhFE","Scenes","","491","","","40","","146","","46","","","","","","","","","","","","","","","","-1","491","","","","","","","","","","","","","","","","","","","","","","",""
"","fixation","","html-keyboard-response","327","795222","0.0-329.0","0","0","KRhFE","Scenes","","null","","","null","","","","","","","","","","","","","","","","","","","","","","","","","","","","","","","","","","","","","","","","","","","",""
"","see_reward","","html-keyboard-response","328","795724","0.0-330.0","0","0","KRhFE","Scenes","","500","","","32","","140","","47","","","","1","","","","","2","","","","","149","500","","","","","","","","","","","","","","","","","","","","","","","","",""
"","reward_outcome","","html-keyboard-response","329","797736","0.0-331.0","0","0","KRhFE","Scenes","","620","","","38","","140","","47","","","","","","","","","","","","","","","","1","620","","","","","","","","","","","","","","","","","","","","","","",""
"","block_over","","html-keyboard-response","330","799755","0.0-333.0-0.0","0","0","KRhFE","Scenes","","2017","","","78","","","","","","","","","","","","","","","","","","","","","","","","","","","","","","","","","","","","","","","","","","","",""
"","fixation","","html-keyboard-response","331","800769","0.0-334.0","0","0","KRhFE","Scenes","","null","","","null","","","","","","","","","","","","","","","","","","","","","","","","","","","","","","","","","","","","","","","","","","","",""
"","see_reward","","html-keyboard-response","332","801148","0.0-335.0","0","0","KRhFE","Scenes","","377","","","32","","140","","48","","","","1","","","","","3","","","","","149","377","","","","","","","","","","","","","","","","","","","","","","","","",""
"","reward_outcome","","html-keyboard-response","333","803160","0.0-336.0","0","0","KRhFE","Scenes","","573","","","38","","140","","48","","","","","","","","","","","","","","","","1","573","","","","","","","","","","","","","","","","","","","","","","",""
"","fixation","","html-keyboard-response","334","804170","0.0-339.0","0","0","KRhFE","Scenes","","null","","","null","","","","","","","","","","","","","","","","","","","","","","","","","","","","","","","","","","","","","","","","","","","",""
"","see_reward","","html-keyboard-response","335","804588","0.0-340.0","0","0","KRhFE","Scenes","","416","","","32","","143","","49","","","","1","","","","","3","","","","","159","416","","","","","","","","","","","","","","","","","","","","","","","","",""
"","reward_outcome","","html-keyboard-response","336","806598","0.0-341.0","0","0","KRhFE","Scenes","","717","","","38","","143","","49","","","","","","","","","","","","","","","","1","717","","","","","","","","","","","","","","","","","","","","","","",""
"","fixation","","html-keyboard-response","337","807609","0.0-344.0","0","0","KRhFE","Scenes","","null","","","null","","","","","","","","","","","","","","","","","","","","","","","","","","","","","","","","","","","","","","","","","","","",""
"","see_reward","","html-keyboard-response","338","808028","0.0-345.0","0","0","KRhFE","Scenes","","417","","","32","","117","","50","","","","-1","","","","","3","","","","","0","417","","","","","","","","","","","","","","","","","","","","","","","","",""
"","reward_outcome","","html-keyboard-response","339","810040","0.0-346.0","0","0","KRhFE","Scenes","","478","","","40","","117","","50","","","","","","","","","","","","","","","","-1","478","","","","","","","","","","","","","","","","","","","","","","",""
"","fixation","","html-keyboard-response","340","811055","0.0-349.0","0","0","KRhFE","Scenes","","null","","","null","","","","","","","","","","","","","","","","","","","","","","","","","","","","","","","","","","","","","","","","","","","",""
"","see_reward","","html-keyboard-response","341","811389","0.0-350.0","0","0","KRhFE","Scenes","","332","","","32","","104","","51","","","","1","","","","","3","","","","","140","332","","","","","","","","","","","","","","","","","","","","","","","","",""
"","reward_outcome","","html-keyboard-response","342","813396","0.0-351.0","0","0","KRhFE","Scenes","","492","","","38","","104","","51","","","","","","","","","","","","","","","","1","492","","","","","","","","","","","","","","","","","","","","","","",""
"","fixation","","html-keyboard-response","343","814411","0.0-354.0","0","0","KRhFE","Scenes","","null","","","null","","","","","","","","","","","","","","","","","","","","","","","","","","","","","","","","","","","","","","","","","","","",""
"","see_reward","","html-keyboard-response","344","814796","0.0-355.0","0","0","KRhFE","Scenes","","383","","","32","","126","","52","","","","1","","","","","3","","","","","149","383","","","","","","","","","","","","","","","","","","","","","","","","",""
"","reward_outcome","","html-keyboard-response","345","816812","0.0-356.0","0","0","KRhFE","Scenes","","492","","","38","","126","","52","","","","","","","","","","","","","","","","1","492","","","","","","","","","","","","","","","","","","","","","","",""
"","fixation","","html-keyboard-response","346","817829","0.0-359.0","0","0","KRhFE","Scenes","","null","","","null","","","","","","","","","","","","","","","","","","","","","","","","","","","","","","","","","","","","","","","","","","","",""
"","see_reward","","html-keyboard-response","347","818348","0.0-360.0","0","0","KRhFE","Scenes","","516","","","32","","104","","53","","","","1","","","","","3","","","","","140","516","","","","","","","","","","","","","","","","","","","","","","","","",""
"","reward_outcome","","html-keyboard-response","348","820367","0.0-361.0","0","0","KRhFE","Scenes","","509","","","38","","104","","53","","","","","","","","","","","","","","","","1","509","","","","","","","","","","","","","","","","","","","","","","",""
"","fixation","","html-keyboard-response","349","821372","0.0-364.0","0","0","KRhFE","Scenes","","null","","","null","","","","","","","","","","","","","","","","","","","","","","","","","","","","","","","","","","","","","","","","","","","",""
"","see_reward","","html-keyboard-response","350","821805","0.0-365.0","0","0","KRhFE","Scenes","","431","","","32","","140","","54","","","","1","","","","","3","","","","","149","431","","","","","","","","","","","","","","","","","","","","","","","","",""
"","reward_outcome","","html-keyboard-response","351","823812","0.0-366.0","0","0","KRhFE","Scenes","","442","","","38","","140","","54","","","","","","","","","","","","","","","","1","442","","","","","","","","","","","","","","","","","","","","","","",""
"","fixation","","html-keyboard-response","352","824829","0.0-369.0","0","0","KRhFE","Scenes","","null","","","null","","","","","","","","","","","","","","","","","","","","","","","","","","","","","","","","","","","","","","","","","","","",""
