"success","ttype","start_time","trial_type","trial_index","time_elapsed","internal_node_id","warning","missed_checkup","PID","stim_type","view_history","rt","responses","repeat_instructions","key_press","response","stimulus_id","painting","index","stimulus_left","stimulus_right","explain_trial","reward_type","rating_left","rating_right","painting_left","painting_right","block","left_chosen","chosen_obj","unchosen_obj","explain_response","reward_amount","see_reward_rt","register_reward_response","register_reward_rt","deliberation_reward_tally","stimulus_left_deliberation_ind","stimulus_right_deliberation_ind","chosen_trial","gain_left","higher_outcome_chosen","old_pair","chosen_object","rt_pairs","left_object_chosen","rt_object","old_response","new_rating","deliberated_stim","initial_rating","outcome_eval_rt","outcome_eval_response","outcome_eval_gain","outcome_eval_acc","preamble","outcome_eval_confidence","outcome_eval_confidence_rt","total_reward_tally"
"true","full_screen","d01192023hr2206","fullscreen","0","63437","0.0-0.0","0","0","bvEXR","Scenes","","","","","","","","","","","","","","","","","","","","","","","","","","","","","","","","","","","","","","","","","","","","","","","","",""
"","rating_instructions","","instructions","1","71295","0.0-1.0-0.0","0","0","bvEXR","Scenes","[{""page_index"":0,""viewing_time"":5547},{""page_index"":1,""viewing_time"":2308}]","7856","","","","","","","","","","","","","","","","","","","","","","","","","","","","","","","","","","","","","","","","","","","","","","",""
"","rating_comprehension_check","","survey-multi-choice","2","76136","0.0-1.0-1.0","0","0","bvEXR","Scenes","","4838","{""Q0"":""True"",""Q1"":""Mouse""}","0","","","","","","","","","","","","","","","","","","","","","","","","","","","","","","","","","","","","","","","","","","","","",""
"","start_phase","","html-keyboard-response","3","77877","0.0-2.0","0","0","bvEXR","Scenes","","1738","","","78","","","","","","","","","","","","","","","","","","","","","","","","","","","","","","","","","","","","","","","","","","","",""
"","rating","","html-slider-response","4","81369","0.0-3.0","0","0","bvEXR","Scenes","","3490","","","","81","117","frank-mckenna-OD9EOzfSOh0-unsplash.jpg","0","","","","","","","","","","","","","","","","","","","","","","","","","","","","","","","","","","","","","","","",""
"","rating","","html-slider-response","5","83828","0.0-4.0","0","0","bvEXR","Scenes","","2457","","","","82","111","claudio-testa-U3F2o6vz3bs-unsplash.jpg","1","","","","","","","","","","","","","","","","","","","","","","","","","","","","","","","","","","","","","","","",""
"","rating","","html-slider-response","6","86065","0.0-5.0","0","0","bvEXR","Scenes","","2236","","","","84","103","anton-darius-FBJugtbHsWU-unsplash.jpg","2","","","","","","","","","","","","","","","","","","","","","","","","","","","","","","","","","","","","","","","",""
"","rating","","html-slider-response","7","88276","0.0-6.0","0","0","bvEXR","Scenes","","2209","","","","71","139","samsommer-vddccTqwal8-unsplash.jpg","3","","","","","","","","","","","","","","","","","","","","","","","","","","","","","","","","","","","","","","","",""
"","rating","","html-slider-response","8","90424","0.0-7.0","0","0","bvEXR","Scenes","","2146","","","","43","134","milada-vigerova-pQMM63GE7fo-unsplash.jpg","4","","","","","","","","","","","","","","","","","","","","","","","","","","","","","","","","","","","","","","","",""
"","rating","","html-slider-response","9","93293","0.0-8.0","0","0","bvEXR","Scenes","","2867","","","","85","120","jarrett-kow-1ZOyYPOBn7I-unsplash.jpg","5","","","","","","","","","","","","","","","","","","","","","","","","","","","","","","","","","","","","","","","",""
"","rating","","html-slider-response","10","95602","0.0-9.0","0","0","bvEXR","Scenes","","2307","","","","93","137","olga-stalska-QaWRyEdlffY-unsplash.jpg","6","","","","","","","","","","","","","","","","","","","","","","","","","","","","","","","","","","","","","","","",""
"","rating","","html-slider-response","11","97870","0.0-10.0","0","0","bvEXR","Scenes","","2266","","","","100","108","benjamin-voros-phIFdC6lA4E-unsplash.jpg","7","","","","","","","","","","","","","","","","","","","","","","","","","","","","","","","","","","","","","","","",""
"","rating","","html-slider-response","12","99537","0.0-11.0","0","0","bvEXR","Scenes","","1666","","","","77","125","john-lee-oMneOBYhJxY-unsplash.jpg","8","","","","","","","","","","","","","","","","","","","","","","","","","","","","","","","","","","","","","","","",""
"","rating","","html-slider-response","13","101252","0.0-12.0","0","0","bvEXR","Scenes","","1713","","","","85","102","anisur-rahman-K2b7UDed6uQ-unsplash.jpg","9","","","","","","","","","","","","","","","","","","","","","","","","","","","","","","","","","","","","","","","",""
"","rating","","html-slider-response","14","102848","0.0-13.0","0","0","bvEXR","Scenes","","1594","","","","80","130","lina-loos-04-C1NZk1hE-unsplash.jpg","10","","","","","","","","","","","","","","","","","","","","","","","","","","","","","","","","","","","","","","","",""
"","rating","","html-slider-response","15","104497","0.0-14.0","0","0","bvEXR","Scenes","","1648","","","","85","114","daniel-sessler-z_9VmsxR8hs-unsplash.jpg","11","","","","","","","","","","","","","","","","","","","","","","","","","","","","","","","","","","","","","","","",""
"","rating","","html-slider-response","16","105966","0.0-15.0","0","0","bvEXR","Scenes","","1467","","","","83","127","kace-rodriguez-p3OzJuT_Dks-unsplash.jpg","12","","","","","","","","","","","","","","","","","","","","","","","","","","","","","","","","","","","","","","","",""
"","rating","","html-slider-response","17","107368","0.0-16.0","0","0","bvEXR","Scenes","","1401","","","","71","128","karsten-wurth-jS0zC2PJ17A-unsplash.jpg","13","","","","","","","","","","","","","","","","","","","","","","","","","","","","","","","","","","","","","","","",""
"","rating","","html-slider-response","18","109187","0.0-17.0","0","0","bvEXR","Scenes","","1818","","","","54","118","henry-be-NLF6hTe4PAg-unsplash.jpg","14","","","","","","","","","","","","","","","","","","","","","","","","","","","","","","","","","","","","","","","",""
"","rating","","html-slider-response","19","110695","0.0-18.0","0","0","bvEXR","Scenes","","1506","","","","81","140","samuele-errico-piccarini-JEBqFu2AOOA-unsplash.jpg","15","","","","","","","","","","","","","","","","","","","","","","","","","","","","","","","","","","","","","","","",""
"","rating","","html-slider-response","20","113027","0.0-19.0","0","0","bvEXR","Scenes","","2330","","","","93","109","brigitta-schneiter-hXXRLtTxXCU-unsplash.jpg","16","","","","","","","","","","","","","","","","","","","","","","","","","","","","","","","","","","","","","","","",""
"","rating","","html-slider-response","21","115199","0.0-20.0","0","0","bvEXR","Scenes","","2170","","","","56","141","sebastian-unrau-v4e3JI7DDHI-unsplash.jpg","17","","","","","","","","","","","","","","","","","","","","","","","","","","","","","","","","","","","","","","","",""
"","rating","","html-slider-response","22","117571","0.0-21.0","0","0","bvEXR","Scenes","","2370","","","","33","124","johannes-plenio-sPt5RIjKfpk-unsplash.jpg","18","","","","","","","","","","","","","","","","","","","","","","","","","","","","","","","","","","","","","","","",""
"","rating","","html-slider-response","23","117723","0.0-22.0","0","0","bvEXR","Scenes","","152","","","","50","101","aniket-deole-T-tOgjWZ0fQ-unsplash.jpg","19","","","","","","","","","","","","","","","","","","","","","","","","","","","","","","","","","","","","","","","",""
"","rating","","html-slider-response","24","119953","0.0-23.0","0","0","bvEXR","Scenes","","2228","","","","72","135","mohammad-alizade-4wzRuAb-KWs-unsplash.jpg","20","","","","","","","","","","","","","","","","","","","","","","","","","","","","","","","","","","","","","","","",""
"","rating","","html-slider-response","25","122265","0.0-24.0","0","0","bvEXR","Scenes","","2311","","","","65","131","luca-bravo-hFzIoD0F_i8-unsplash.jpg","21","","","","","","","","","","","","","","","","","","","","","","","","","","","","","","","","","","","","","","","",""
"","rating","","html-slider-response","26","125896","0.0-25.0","0","0","bvEXR","Scenes","","3629","","","","30","100","aleksandra-boguslawska-MS7KD9Ti7FQ-unsplash.jpg","22","","","","","","","","","","","","","","","","","","","","","","","","","","","","","","","","","","","","","","","",""
"","rating","","html-slider-response","27","138494","0.0-26.0","0","0","bvEXR","Scenes","","12596","","","","85","147","tobias-keller-73F4pKoUkM0-unsplash.jpg","23","","","","","","","","","","","","","","","","","","","","","","","","","","","","","","","","","","","","","","","",""
"","rating","","html-slider-response","28","140779","0.0-27.0","0","0","bvEXR","Scenes","","2283","","","","66","143","sigurdur-fjalar-jonsson-1KxBabIntpE-unsplash.jpg","24","","","","","","","","","","","","","","","","","","","","","","","","","","","","","","","","","","","","","","","",""
"","rating","","html-slider-response","29","143031","0.0-28.0","0","0","bvEXR","Scenes","","2250","","","","67","115","darrell-cassell-hoCXpPUMCoE-unsplash.jpg","25","","","","","","","","","","","","","","","","","","","","","","","","","","","","","","","","","","","","","","","",""
"","rating","","html-slider-response","30","145941","0.0-29.0","0","0","bvEXR","Scenes","","2908","","","","48","107","benjamin-davies-Zm2n2O7Fph4-unsplash.jpg","26","","","","","","","","","","","","","","","","","","","","","","","","","","","","","","","","","","","","","","","",""
"","rating","","html-slider-response","31","147704","0.0-30.0","0","0","bvEXR","Scenes","","1762","","","","70","110","bruno-van-der-kraan-qez8mNJ3ilU-unsplash.jpg","27","","","","","","","","","","","","","","","","","","","","","","","","","","","","","","","","","","","","","","","",""
"","rating","","html-slider-response","32","149644","0.0-31.0","0","0","bvEXR","Scenes","","1940","","","","79","121","jean-pierre-brungs-qxCqkbF7tUc-unsplash.jpg","28","","","","","","","","","","","","","","","","","","","","","","","","","","","","","","","","","","","","","","","",""
"","rating","","html-slider-response","33","152144","0.0-32.0","0","0","bvEXR","Scenes","","2498","","","","46","142","sergey-pesterev-y-b_FOmJXdg-unsplash.jpg","29","","","","","","","","","","","","","","","","","","","","","","","","","","","","","","","","","","","","","","","",""
"","rating","","html-slider-response","34","153700","0.0-33.0","0","0","bvEXR","Scenes","","1555","","","","66","149","yuriy-bogdanov-W51VK3Obcj0-unsplash.jpg","30","","","","","","","","","","","","","","","","","","","","","","","","","","","","","","","","","","","","","","","",""
"","rating","","html-slider-response","35","156049","0.0-34.0","0","0","bvEXR","Scenes","","2347","","","","47","104","artem-sapegin-XGDBdSQ70O0-unsplash.jpg","31","","","","","","","","","","","","","","","","","","","","","","","","","","","","","","","","","","","","","","","",""
"","rating","","html-slider-response","36","158261","0.0-35.0","0","0","bvEXR","Scenes","","2211","","","","63","113","damian-denis-D8R_txR_0PE-unsplash.jpg","32","","","","","","","","","","","","","","","","","","","","","","","","","","","","","","","","","","","","","","","",""
"","rating","","html-slider-response","37","161082","0.0-36.0","0","0","bvEXR","Scenes","","2820","","","","45","145","stephen-leonardi-gyIRjKPXupE-unsplash.jpg","33","","","","","","","","","","","","","","","","","","","","","","","","","","","","","","","","","","","","","","","",""
"","rating","","html-slider-response","38","163479","0.0-37.0","0","0","bvEXR","Scenes","","2395","","","","60","136","nicolas-jehly-LzVB84KkZOE-unsplash.jpg","34","","","","","","","","","","","","","","","","","","","","","","","","","","","","","","","","","","","","","","","",""
"","rating","","html-slider-response","39","166652","0.0-38.0","0","0","bvEXR","Scenes","","3171","","","","69","129","kurt-cotoaga-cqbLg3lZEpk-unsplash.jpg","35","","","","","","","","","","","","","","","","","","","","","","","","","","","","","","","","","","","","","","","",""
"","rating","","html-slider-response","40","168874","0.0-39.0","0","0","bvEXR","Scenes","","2221","","","","69","119","james-wheeler-AFC0XvICMgs-unsplash.jpg","36","","","","","","","","","","","","","","","","","","","","","","","","","","","","","","","","","","","","","","","",""
"","rating","","html-slider-response","41","171094","0.0-40.0","0","0","bvEXR","Scenes","","2218","","","","71","146","thomas-morse-cuKKa0vWZSY-unsplash.jpg","37","","","","","","","","","","","","","","","","","","","","","","","","","","","","","","","","","","","","","","","",""
"","rating","","html-slider-response","42","173170","0.0-41.0","0","0","bvEXR","Scenes","","2074","","","","66","116","david-marcu-W5MhJ6cy1So-unsplash.jpg","38","","","","","","","","","","","","","","","","","","","","","","","","","","","","","","","","","","","","","","","",""
"","rating","","html-slider-response","43","175110","0.0-42.0","0","0","bvEXR","Scenes","","1939","","","","74","132","meng-ji-8BH_M-53CyA-unsplash.jpg","39","","","","","","","","","","","","","","","","","","","","","","","","","","","","","","","","","","","","","","","",""
"","rating","","html-slider-response","44","177426","0.0-43.0","0","0","bvEXR","Scenes","","2314","","","","73","106","ashim-d-silva-WeYamle9fDM-unsplash.jpg","40","","","","","","","","","","","","","","","","","","","","","","","","","","","","","","","","","","","","","","","",""
"","rating","","html-slider-response","45","179567","0.0-44.0","0","0","bvEXR","Scenes","","2140","","","","78","144","solotravelgoals-7kLufxYoqWk-unsplash.jpg","41","","","","","","","","","","","","","","","","","","","","","","","","","","","","","","","","","","","","","","","",""
"","rating","","html-slider-response","46","184881","0.0-45.0","0","0","bvEXR","Scenes","","5312","","","","81","123","joel-jasmin-forestbird-efuwb5eBDrI-unsplash.jpg","42","","","","","","","","","","","","","","","","","","","","","","","","","","","","","","","","","","","","","","","",""
"","rating","","html-slider-response","47","187013","0.0-46.0","0","0","bvEXR","Scenes","","2130","","","","73","133","mickey-o-neil-xL66l--msXU-unsplash.jpg","43","","","","","","","","","","","","","","","","","","","","","","","","","","","","","","","","","","","","","","","",""
"","rating","","html-slider-response","48","188672","0.0-47.0","0","0","bvEXR","Scenes","","1657","","","","71","148","tom-gainor-ZqLeQDjY6fY-unsplash.jpg","44","","","","","","","","","","","","","","","","","","","","","","","","","","","","","","","","","","","","","","","",""
"","rating","","html-slider-response","49","190219","0.0-48.0","0","0","bvEXR","Scenes","","1545","","","","83","122","jeff-king-bJHWJeiHfHc-unsplash.jpg","45","","","","","","","","","","","","","","","","","","","","","","","","","","","","","","","","","","","","","","","",""
"","rating","","html-slider-response","50","191989","0.0-49.0","0","0","bvEXR","Scenes","","1768","","","","71","105","ashim-d-silva-S2Q5mdOrrVc-unsplash.jpg","46","","","","","","","","","","","","","","","","","","","","","","","","","","","","","","","","","","","","","","","",""
"","rating","","html-slider-response","51","194154","0.0-50.0","0","0","bvEXR","Scenes","","2165","","","","41","138","petr-vysohlid-9fqwGqGLUxc-unsplash.jpg","47","","","","","","","","","","","","","","","","","","","","","","","","","","","","","","","","","","","","","","","",""
"","rating","","html-slider-response","52","195990","0.0-51.0","0","0","bvEXR","Scenes","","1834","","","","77","112","cosmic-timetraveler-pYyOZ8q7AII-unsplash.jpg","48","","","","","","","","","","","","","","","","","","","","","","","","","","","","","","","","","","","","","","","",""
"","rating","","html-slider-response","53","197930","0.0-52.0","0","0","bvEXR","Scenes","","1939","","","","70","126","jordan-mcqueen-PJCZOWuOxbU-unsplash.jpg","49","","","","","","","","","","","","","","","","","","","","","","","","","","","","","","","","","","","","","","","",""
"","deliberation_instructions","","instructions","54","229610","0.0-53.0-0.0","0","0","bvEXR","Scenes","[{""page_index"":0,""viewing_time"":8400},{""page_index"":1,""viewing_time"":5365},{""page_index"":2,""viewing_time"":8286},{""page_index"":3,""viewing_time"":7270},{""page_index"":4,""viewing_time"":2356}]","31677","","","","","","","","","","","","","","","","","","","","","","","","","","","","","","","","","","","","","","","","","","","","","","",""
"","deliberation_comprehension_check","","survey-multi-choice","55","246842","0.0-53.0-1.0","0","0","bvEXR","Scenes","","17226","{""Q0"":""True"",""Q1"":""True"",""Q2"":""Consider carefully and take your time (up to 10 seconds)"",""Q3"":""False"",""Q4"":""D""}","1","","","","","","","","","","","","","","","","","","","","","","","","","","","","","","","","","","","","","","","","","","","","",""
"","missed_instruction_checkup","","html-keyboard-response","56","249074","0.0-53.0-2.0-0.0","0","1","bvEXR","Scenes","","2230","","","78","","","","","","","","","","","","","","","","","","","","","","","","","","","","","","","","","","","","","","","","","","","",""
"","deliberation_instructions","","instructions","57","283779","0.0-53.1-0.1","0","0","bvEXR","Scenes","[{""page_index"":0,""viewing_time"":1951},{""page_index"":1,""viewing_time"":17762},{""page_index"":2,""viewing_time"":12303},{""page_index"":3,""viewing_time"":1446},{""page_index"":4,""viewing_time"":1241}]","34703","","","","","","","","","","","","","","","","","","","","","","","","","","","","","","","","","","","","","","","","","","","","","","",""
"","deliberation_comprehension_check","","survey-multi-choice","58","289982","0.0-53.1-1.1","0","0","bvEXR","Scenes","","6198","{""Q0"":""True"",""Q1"":""True"",""Q2"":""Consider carefully and take your time (up to 10 seconds)"",""Q3"":""True"",""Q4"":""D""}","0","","","","","","","","","","","","","","","","","","","","","","","","","","","","","","","","","","","","","","","","","","","","",""
"","start_phase","","html-keyboard-response","59","291308","0.0-54.0","0","0","bvEXR","Scenes","","1326","","","78","","","","","","","","","","","","","","","","","","","","","","","","","","","","","","","","","","","","","","","","","","","",""
"","first_deliberation_block","","html-keyboard-response","60","292967","0.0-55.0","0","0","bvEXR","Scenes","","1657","","","78","","","","","","","","","","","","","","","","","","","","","","","","","","","","","","","","","","","","","","","","","","","",""
"","fixation","","html-keyboard-response","61","293974","0.0-56.0-0.0","0","0","bvEXR","Scenes","","null","","","null","","","","","","","","","","","","","","","","","","","","","","","","","","","","","","","","","","","","","","","","","","","",""
"","deliberation","","html-keyboard-response","62","296274","0.0-56.0-1.0","0","0","bvEXR","Scenes","","2298","","","75","","","","0","148","119","1","1","71","69","tom-gainor-ZqLeQDjY6fY-unsplash.jpg","james-wheeler-AFC0XvICMgs-unsplash.jpg","1","0","119","148","","","","","","","","","","","","","","","","","","","","","","","","","","","",""
"","choice_confirmation","","html-keyboard-response","63","296783","0.0-56.0-2.0-0.0","0","0","bvEXR","Scenes","","null","","","null","","","","0","148","119","","","","","","","","","","","","","","","","","","","","","","","","","","","","","","","","","","","","","",""
"","explain_trial","","survey-text","64","306136","0.0-56.0-5.0-0.0","0","0","bvEXR","Scenes","","9350","{""Q0"":""Its much more beautiful than the other one""}","","","","","","0","148","119","","","","","","","","","","","{""Q0"":""Its much more beautiful than the other one""}","","","","","","","","","","","","","","","","","","","","","","","","","","",""
"","fixation","","html-keyboard-response","65","307144","0.0-57.0-0.0","0","0","bvEXR","Scenes","","null","","","null","","","","","","","","","","","","","","","","","","","","","","","","","","","","","","","","","","","","","","","","","","","",""
"","deliberation","","html-keyboard-response","66","309073","0.0-57.0-1.0","0","0","bvEXR","Scenes","","1927","","","75","","","","1","128","105","1","1","71","71","karsten-wurth-jS0zC2PJ17A-unsplash.jpg","ashim-d-silva-S2Q5mdOrrVc-unsplash.jpg","1","0","105","128","","","","","","","","","","","","","","","","","","","","","","","","","","","",""
"","choice_confirmation","","html-keyboard-response","67","309584","0.0-57.0-2.0-0.0","0","0","bvEXR","Scenes","","null","","","null","","","","1","128","105","","","","","","","","","","","","","","","","","","","","","","","","","","","","","","","","","","","","","",""
"","explain_trial","","survey-text","68","320506","0.0-57.0-5.0-0.0","0","0","bvEXR","Scenes","","10920","{""Q0"":""Its a subtle picture""}","","","","","","1","128","105","","","","","","","","","","","{""Q0"":""Its a subtle picture""}","","","","","","","","","","","","","","","","","","","","","","","","","","",""
"","fixation","","html-keyboard-response","69","321508","0.0-58.0-0.0","0","0","bvEXR","Scenes","","null","","","null","","","","","","","","","","","","","","","","","","","","","","","","","","","","","","","","","","","","","","","","","","","",""
"","deliberation","","html-keyboard-response","70","326001","0.0-58.0-1.0","0","0","bvEXR","Scenes","","4491","","","75","","","","2","115","135","1","-1","67","72","darrell-cassell-hoCXpPUMCoE-unsplash.jpg","mohammad-alizade-4wzRuAb-KWs-unsplash.jpg","1","0","135","115","","","","","","","","","","","","","","","","","","","","","","","","","","","",""
"","choice_confirmation","","html-keyboard-response","71","326510","0.0-58.0-2.0-0.0","0","0","bvEXR","Scenes","","null","","","null","","","","2","115","135","","","","","","","","","","","","","","","","","","","","","","","","","","","","","","","","","","","","","",""
"","explain_trial","","survey-text","72","337460","0.0-58.0-5.0-0.0","0","0","bvEXR","Scenes","","10948","{""Q0"":""I believe it will fetch a higher price""}","","","","","","2","115","135","","","","","","","","","","","{""Q0"":""I believe it will fetch a higher price""}","","","","","","","","","","","","","","","","","","","","","","","","","","",""
"","fixation","","html-keyboard-response","73","338469","0.0-59.0-0.0","0","0","bvEXR","Scenes","","null","","","null","","","","","","","","","","","","","","","","","","","","","","","","","","","","","","","","","","","","","","","","","","","",""
"","deliberation","","html-keyboard-response","74","340281","0.0-59.0-1.0","0","0","bvEXR","Scenes","","1810","","","75","","","","3","126","132","0","1","70","74","jordan-mcqueen-PJCZOWuOxbU-unsplash.jpg","meng-ji-8BH_M-53CyA-unsplash.jpg","1","0","132","126","","","","","","","","","","","","","","","","","","","","","","","","","","","",""
"","choice_confirmation","","html-keyboard-response","75","340791","0.0-59.0-2.0-0.0","0","0","bvEXR","Scenes","","null","","","null","","","","3","126","132","","","","","","","","","","","","","","","","","","","","","","","","","","","","","","","","","","","","","",""
"","fixation","","html-keyboard-response","76","341800","0.0-60.0-0.0","0","0","bvEXR","Scenes","","null","","","null","","","","","","","","","","","","","","","","","","","","","","","","","","","","","","","","","","","","","","","","","","","",""
"","deliberation","","html-keyboard-response","77","344121","0.0-60.0-1.0","0","0","bvEXR","Scenes","","2320","","","75","","","","4","117","116","0","1","81","66","frank-mckenna-OD9EOzfSOh0-unsplash.jpg","david-marcu-W5MhJ6cy1So-unsplash.jpg","1","0","116","117","","","","","","","","","","","","","","","","","","","","","","","","","","","",""
"","choice_confirmation","","html-keyboard-response","78","344633","0.0-60.0-2.0-0.0","0","0","bvEXR","Scenes","","null","","","null","","","","4","117","116","","","","","","","","","","","","","","","","","","","","","","","","","","","","","","","","","","","","","",""
"","fixation","","html-keyboard-response","79","345637","0.0-61.0-0.0","0","0","bvEXR","Scenes","","null","","","null","","","","","","","","","","","","","","","","","","","","","","","","","","","","","","","","","","","","","","","","","","","",""
"","deliberation","","html-keyboard-response","80","346896","0.0-61.0-1.0","0","0","bvEXR","Scenes","","1257","","","75","","","","5","149","146","0","-1","66","71","yuriy-bogdanov-W51VK3Obcj0-unsplash.jpg","thomas-morse-cuKKa0vWZSY-unsplash.jpg","1","0","146","149","","","","","","","","","","","","","","","","","","","","","","","","","","","",""
"","choice_confirmation","","html-keyboard-response","81","347408","0.0-61.0-2.0-0.0","0","0","bvEXR","Scenes","","null","","","null","","","","5","149","146","","","","","","","","","","","","","","","","","","","","","","","","","","","","","","","","","","","","","",""
"","fixation","","html-keyboard-response","82","348413","0.0-62.0-0.0","0","0","bvEXR","Scenes","","null","","","null","","","","","","","","","","","","","","","","","","","","","","","","","","","","","","","","","","","","","","","","","","","",""
"","deliberation","","html-keyboard-response","83","349653","0.0-62.0-1.0","0","0","bvEXR","Scenes","","1239","","","75","","","","6","121","110","1","-1","79","70","jean-pierre-brungs-qxCqkbF7tUc-unsplash.jpg","bruno-van-der-kraan-qez8mNJ3ilU-unsplash.jpg","1","0","110","121","","","","","","","","","","","","","","","","","","","","","","","","","","","",""
"","choice_confirmation","","html-keyboard-response","84","350160","0.0-62.0-2.0-0.0","0","0","bvEXR","Scenes","","null","","","null","","","","6","121","110","","","","","","","","","","","","","","","","","","","","","","","","","","","","","","","","","","","","","",""
"","explain_trial","","survey-text","85","357523","0.0-62.0-5.0-0.0","0","0","bvEXR","Scenes","","7362","{""Q0"":""Its much more pretty than the left one""}","","","","","","6","121","110","","","","","","","","","","","{""Q0"":""Its much more pretty than the left one""}","","","","","","","","","","","","","","","","","","","","","","","","","","",""
"","fixation","","html-keyboard-response","86","358535","0.0-63.0-0.0","0","0","bvEXR","Scenes","","null","","","null","","","","","","","","","","","","","","","","","","","","","","","","","","","","","","","","","","","","","","","","","","","",""
"","deliberation","","html-keyboard-response","87","361282","0.0-63.0-1.0","0","0","bvEXR","Scenes","","2745","","","75","","","","7","131","106","0","1","65","73","luca-bravo-hFzIoD0F_i8-unsplash.jpg","ashim-d-silva-WeYamle9fDM-unsplash.jpg","1","0","106","131","","","","","","","","","","","","","","","","","","","","","","","","","","","",""
"","choice_confirmation","","html-keyboard-response","88","361788","0.0-63.0-2.0-0.0","0","0","bvEXR","Scenes","","null","","","null","","","","7","131","106","","","","","","","","","","","","","","","","","","","","","","","","","","","","","","","","","","","","","",""
"","fixation","","html-keyboard-response","89","362796","0.0-64.0-0.0","0","0","bvEXR","Scenes","","null","","","null","","","","","","","","","","","","","","","","","","","","","","","","","","","","","","","","","","","","","","","","","","","",""
"","deliberation","","html-keyboard-response","90","364319","0.0-64.0-1.0","0","0","bvEXR","Scenes","","1521","","","68","","","","8","139","143","1","-1","71","66","samsommer-vddccTqwal8-unsplash.jpg","sigurdur-fjalar-jonsson-1KxBabIntpE-unsplash.jpg","1","1","139","143","","","","","","","","","","","","","","","","","","","","","","","","","","","",""
"","choice_confirmation","","html-keyboard-response","91","364821","0.0-64.0-2.0-0.0","0","0","bvEXR","Scenes","","null","","","null","","","","8","139","143","","","","","","","","","","","","","","","","","","","","","","","","","","","","","","","","","","","","","",""
"","explain_trial","","survey-text","92","380723","0.0-64.0-5.0-0.0","0","0","bvEXR","Scenes","","15900","{""Q0"":""I believe it will fetch a higher price than the one on the right.""}","","","","","","8","139","143","","","","","","","","","","","{""Q0"":""I believe it will fetch a higher price than the one on the right.""}","","","","","","","","","","","","","","","","","","","","","","","","","","",""
"","fixation","","html-keyboard-response","93","381732","0.0-65.0-0.0","0","0","bvEXR","Scenes","","null","","","null","","","","","","","","","","","","","","","","","","","","","","","","","","","","","","","","","","","","","","","","","","","",""
"","deliberation","","html-keyboard-response","94","386806","0.0-65.0-1.0","0","0","bvEXR","Scenes","","5073","","","68","","","","9","144","129","1","1","78","69","solotravelgoals-7kLufxYoqWk-unsplash.jpg","kurt-cotoaga-cqbLg3lZEpk-unsplash.jpg","1","1","144","129","","","","","","","","","","","","","","","","","","","","","","","","","","","",""
"","choice_confirmation","","html-keyboard-response","95","387309","0.0-65.0-2.0-0.0","0","0","bvEXR","Scenes","","null","","","null","","","","9","144","129","","","","","","","","","","","","","","","","","","","","","","","","","","","","","","","","","","","","","",""
"","explain_trial","","survey-text","96","398353","0.0-65.0-5.0-0.0","0","0","bvEXR","Scenes","","11042","{""Q0"":""This photo looks much better than the right""}","","","","","","9","144","129","","","","","","","","","","","{""Q0"":""This photo looks much better than the right""}","","","","","","","","","","","","","","","","","","","","","","","","","","",""
"","fixation","","html-keyboard-response","97","399356","0.0-66.0-0.0","0","0","bvEXR","Scenes","","null","","","null","","","","","","","","","","","","","","","","","","","","","","","","","","","","","","","","","","","","","","","","","","","",""
"","deliberation","","html-keyboard-response","98","401717","0.0-66.0-1.0","0","0","bvEXR","Scenes","","2359","","","68","","","","10","112","130","0","-1","77","80","cosmic-timetraveler-pYyOZ8q7AII-unsplash.jpg","lina-loos-04-C1NZk1hE-unsplash.jpg","1","1","112","130","","","","","","","","","","","","","","","","","","","","","","","","","","","",""
"","choice_confirmation","","html-keyboard-response","99","402225","0.0-66.0-2.0-0.0","0","0","bvEXR","Scenes","","null","","","null","","","","10","112","130","","","","","","","","","","","","","","","","","","","","","","","","","","","","","","","","","","","","","",""
"","fixation","","html-keyboard-response","100","403232","0.0-67.0-0.0","0","0","bvEXR","Scenes","","null","","","null","","","","","","","","","","","","","","","","","","","","","","","","","","","","","","","","","","","","","","","","","","","",""
"","deliberation","","html-keyboard-response","101","404562","0.0-67.0-1.0","0","0","bvEXR","Scenes","","1328","","","75","","","","11","133","125","0","-1","73","77","mickey-o-neil-xL66l--msXU-unsplash.jpg","john-lee-oMneOBYhJxY-unsplash.jpg","1","0","125","133","","","","","","","","","","","","","","","","","","","","","","","","","","","",""
"","choice_confirmation","","html-keyboard-response","102","405069","0.0-67.0-2.0-0.0","0","0","bvEXR","Scenes","","null","","","null","","","","11","133","125","","","","","","","","","","","","","","","","","","","","","","","","","","","","","","","","","","","","","",""
"","practice_deliberation_again","","html-keyboard-response","103","406810","0.0-67.0-6.0-0.0","0","0","bvEXR","Scenes","","1740","","","78","","","","","","","","","","","","","","","","","","","","","","","","","","","","","","","","","","","","","","","","","","","",""
"","fixation","","html-keyboard-response","104","407821","0.0-68.0-0.0","0","0","bvEXR","Scenes","","null","","","null","","","","","","","","","","","","","","","","","","","","","","","","","","","","","","","","","","","","","","","","","","","",""
"","deliberation","","html-keyboard-response","105","409676","0.0-68.0-1.0","0","0","bvEXR","Scenes","","1854","","","75","","","","12","121","110","0","-1","79","70","jean-pierre-brungs-qxCqkbF7tUc-unsplash.jpg","bruno-van-der-kraan-qez8mNJ3ilU-unsplash.jpg","2","0","110","121","","","","","","","","","","","","","","","","","","","","","","","","","","","",""
"","choice_confirmation","","html-keyboard-response","106","410182","0.0-68.0-2.0-0.0","0","0","bvEXR","Scenes","","null","","","null","","","","12","121","110","","","","","","","","","","","","","","","","","","","","","","","","","","","","","","","","","","","","","",""
"","fixation","","html-keyboard-response","107","411188","0.0-69.0-0.0","0","0","bvEXR","Scenes","","null","","","null","","","","","","","","","","","","","","","","","","","","","","","","","","","","","","","","","","","","","","","","","","","",""
"","deliberation","","html-keyboard-response","108","411784","0.0-69.0-1.0","0","0","bvEXR","Scenes","","595","","","75","","","","13","131","106","1","1","65","73","luca-bravo-hFzIoD0F_i8-unsplash.jpg","ashim-d-silva-WeYamle9fDM-unsplash.jpg","2","0","106","131","","","","","","","","","","","","","","","","","","","","","","","","","","","",""
"","choice_confirmation","","html-keyboard-response","109","412294","0.0-69.0-2.0-0.0","0","0","bvEXR","Scenes","","null","","","null","","","","13","131","106","","","","","","","","","","","","","","","","","","","","","","","","","","","","","","","","","","","","","",""
"","explain_trial","","survey-text","110","423047","0.0-69.0-5.0-0.0","0","0","bvEXR","Scenes","","10751","{""Q0"":""It looks way better than left picture""}","","","","","","13","131","106","","","","","","","","","","","{""Q0"":""It looks way better than left picture""}","","","","","","","","","","","","","","","","","","","","","","","","","","",""
"","fixation","","html-keyboard-response","111","424051","0.0-70.0-0.0","0","0","bvEXR","Scenes","","null","","","null","","","","","","","","","","","","","","","","","","","","","","","","","","","","","","","","","","","","","","","","","","","",""
"","deliberation","","html-keyboard-response","112","434060","0.0-70.0-1.0","0","0","bvEXR","Scenes","","null","","","null","","","","14","144","129","0","1","78","69","solotravelgoals-7kLufxYoqWk-unsplash.jpg","kurt-cotoaga-cqbLg3lZEpk-unsplash.jpg","2","","","","","","","","","","","","","","","","","","","","","","","","","","","","","","",""
"","deliberation_too_slow","","html-keyboard-response","113","435568","0.0-70.0-4.0-0.0","1","0","bvEXR","Scenes","","null","","","null","","","","14","","","","","","","","","","","","","","","","","","","","","","","","","","","","","","","","","","","","","","","",""
"","fixation","","html-keyboard-response","114","436573","0.0-70.1-0.1","0","0","bvEXR","Scenes","","null","","","null","","","","","","","","","","","","","","","","","","","","","","","","","","","","","","","","","","","","","","","","","","","",""
"","deliberation","","html-keyboard-response","115","437763","0.0-70.1-1.1","0","0","bvEXR","Scenes","","1188","","","75","","","","14","144","129","0","1","78","69","solotravelgoals-7kLufxYoqWk-unsplash.jpg","kurt-cotoaga-cqbLg3lZEpk-unsplash.jpg","2","0","129","144","","","","","","","","","","","","","","","","","","","","","","","","","","","",""
"","choice_confirmation","","html-keyboard-response","116","438270","0.0-70.1-2.1-0.1","0","0","bvEXR","Scenes","","null","","","null","","","","14","144","129","","","","","","","","","","","","","","","","","","","","","","","","","","","","","","","","","","","","","",""
"","fixation","","html-keyboard-response","117","439276","0.0-71.0-0.0","0","0","bvEXR","Scenes","","null","","","null","","","","","","","","","","","","","","","","","","","","","","","","","","","","","","","","","","","","","","","","","","","",""
"","deliberation","","html-keyboard-response","118","439974","0.0-71.0-1.0","0","0","bvEXR","Scenes","","696","","","75","","","","15","133","125","1","-1","73","77","mickey-o-neil-xL66l--msXU-unsplash.jpg","john-lee-oMneOBYhJxY-unsplash.jpg","2","0","125","133","","","","","","","","","","","","","","","","","","","","","","","","","","","",""
"","choice_confirmation","","html-keyboard-response","119","440480","0.0-71.0-2.0-0.0","0","0","bvEXR","Scenes","","null","","","null","","","","15","133","125","","","","","","","","","","","","","","","","","","","","","","","","","","","","","","","","","","","","","",""
"","explain_trial","","survey-text","120","448058","0.0-71.0-5.0-0.0","0","0","bvEXR","Scenes","","7576","{""Q0"":""It looks so much beautiful than left""}","","","","","","15","133","125","","","","","","","","","","","{""Q0"":""It looks so much beautiful than left""}","","","","","","","","","","","","","","","","","","","","","","","","","","",""
"","fixation","","html-keyboard-response","121","449068","0.0-72.0-0.0","0","0","bvEXR","Scenes","","null","","","null","","","","","","","","","","","","","","","","","","","","","","","","","","","","","","","","","","","","","","","","","","","",""
"","deliberation","","html-keyboard-response","122","449704","0.0-72.0-1.0","0","0","bvEXR","Scenes","","634","","","75","","","","16","149","146","1","-1","66","71","yuriy-bogdanov-W51VK3Obcj0-unsplash.jpg","thomas-morse-cuKKa0vWZSY-unsplash.jpg","2","0","146","149","","","","","","","","","","","","","","","","","","","","","","","","","","","",""
"","choice_confirmation","","html-keyboard-response","123","450215","0.0-72.0-2.0-0.0","0","0","bvEXR","Scenes","","null","","","null","","","","16","149","146","","","","","","","","","","","","","","","","","","","","","","","","","","","","","","","","","","","","","",""
"","explain_trial","","survey-text","124","458418","0.0-72.0-5.0-0.0","0","0","bvEXR","Scenes","","8201","{""Q0"":""It looks so much better than the left one""}","","","","","","16","149","146","","","","","","","","","","","{""Q0"":""It looks so much better than the left one""}","","","","","","","","","","","","","","","","","","","","","","","","","","",""
"","fixation","","html-keyboard-response","125","459425","0.0-73.0-0.0","0","0","bvEXR","Scenes","","null","","","null","","","","","","","","","","","","","","","","","","","","","","","","","","","","","","","","","","","","","","","","","","","",""
"","deliberation","","html-keyboard-response","126","460361","0.0-73.0-1.0","0","0","bvEXR","Scenes","","935","","","75","","","","17","117","116","1","1","81","66","frank-mckenna-OD9EOzfSOh0-unsplash.jpg","david-marcu-W5MhJ6cy1So-unsplash.jpg","2","0","116","117","","","","","","","","","","","","","","","","","","","","","","","","","","","",""
"","choice_confirmation","","html-keyboard-response","127","460869","0.0-73.0-2.0-0.0","0","0","bvEXR","Scenes","","null","","","null","","","","17","117","116","","","","","","","","","","","","","","","","","","","","","","","","","","","","","","","","","","","","","",""
"","explain_trial","","survey-text","128","478479","0.0-73.0-5.0-0.0","0","0","bvEXR","Scenes","","17609","{""Q0"":""The right photo looks better and will better price""}","","","","","","17","117","116","","","","","","","","","","","{""Q0"":""The right photo looks better and will better price""}","","","","","","","","","","","","","","","","","","","","","","","","","","",""
"","fixation","","html-keyboard-response","129","479482","0.0-74.0-0.0","0","0","bvEXR","Scenes","","null","","","null","","","","","","","","","","","","","","","","","","","","","","","","","","","","","","","","","","","","","","","","","","","",""
"","deliberation","","html-keyboard-response","130","481378","0.0-74.0-1.0","0","0","bvEXR","Scenes","","1894","","","75","","","","18","148","119","0","1","71","69","tom-gainor-ZqLeQDjY6fY-unsplash.jpg","james-wheeler-AFC0XvICMgs-unsplash.jpg","2","0","119","148","","","","","","","","","","","","","","","","","","","","","","","","","","","",""
"","choice_confirmation","","html-keyboard-response","131","481886","0.0-74.0-2.0-0.0","0","0","bvEXR","Scenes","","null","","","null","","","","18","148","119","","","","","","","","","","","","","","","","","","","","","","","","","","","","","","","","","","","","","",""
"","fixation","","html-keyboard-response","132","482895","0.0-75.0-0.0","0","0","bvEXR","Scenes","","null","","","null","","","","","","","","","","","","","","","","","","","","","","","","","","","","","","","","","","","","","","","","","","","",""
"","deliberation","","html-keyboard-response","133","484261","0.0-75.0-1.0","0","0","bvEXR","Scenes","","1365","","","75","","","","19","115","135","0","-1","67","72","darrell-cassell-hoCXpPUMCoE-unsplash.jpg","mohammad-alizade-4wzRuAb-KWs-unsplash.jpg","2","0","135","115","","","","","","","","","","","","","","","","","","","","","","","","","","","",""
"","choice_confirmation","","html-keyboard-response","134","484764","0.0-75.0-2.0-0.0","0","0","bvEXR","Scenes","","null","","","null","","","","19","115","135","","","","","","","","","","","","","","","","","","","","","","","","","","","","","","","","","","","","","",""
"","fixation","","html-keyboard-response","135","485772","0.0-76.0-0.0","0","0","bvEXR","Scenes","","null","","","null","","","","","","","","","","","","","","","","","","","","","","","","","","","","","","","","","","","","","","","","","","","",""
"","deliberation","","html-keyboard-response","136","486983","0.0-76.0-1.0","0","0","bvEXR","Scenes","","1210","","","68","","","","20","112","130","1","-1","77","80","cosmic-timetraveler-pYyOZ8q7AII-unsplash.jpg","lina-loos-04-C1NZk1hE-unsplash.jpg","2","1","112","130","","","","","","","","","","","","","","","","","","","","","","","","","","","",""
"","choice_confirmation","","html-keyboard-response","137","487492","0.0-76.0-2.0-0.0","0","0","bvEXR","Scenes","","null","","","null","","","","20","112","130","","","","","","","","","","","","","","","","","","","","","","","","","","","","","","","","","","","","","",""
"","explain_trial","","survey-text","138","497798","0.0-76.0-5.0-0.0","0","0","bvEXR","Scenes","","10304","{""Q0"":""The left picture are more beautiful""}","","","","","","20","112","130","","","","","","","","","","","{""Q0"":""The left picture are more beautiful""}","","","","","","","","","","","","","","","","","","","","","","","","","","",""
"","fixation","","html-keyboard-response","139","498806","0.0-77.0-0.0","0","0","bvEXR","Scenes","","null","","","null","","","","","","","","","","","","","","","","","","","","","","","","","","","","","","","","","","","","","","","","","","","",""
"","deliberation","","html-keyboard-response","140","501277","0.0-77.0-1.0","0","0","bvEXR","Scenes","","2469","","","68","","","","21","128","105","0","1","71","71","karsten-wurth-jS0zC2PJ17A-unsplash.jpg","ashim-d-silva-S2Q5mdOrrVc-unsplash.jpg","2","1","128","105","","","","","","","","","","","","","","","","","","","","","","","","","","","",""
"","choice_confirmation","","html-keyboard-response","141","501781","0.0-77.0-2.0-0.0","0","0","bvEXR","Scenes","","null","","","null","","","","21","128","105","","","","","","","","","","","","","","","","","","","","","","","","","","","","","","","","","","","","","",""
"","fixation","","html-keyboard-response","142","502788","0.0-78.0-0.0","0","0","bvEXR","Scenes","","null","","","null","","","","","","","","","","","","","","","","","","","","","","","","","","","","","","","","","","","","","","","","","","","",""
"","deliberation","","html-keyboard-response","143","503936","0.0-78.0-1.0","0","0","bvEXR","Scenes","","1147","","","75","","","","22","126","132","1","1","70","74","jordan-mcqueen-PJCZOWuOxbU-unsplash.jpg","meng-ji-8BH_M-53CyA-unsplash.jpg","2","0","132","126","","","","","","","","","","","","","","","","","","","","","","","","","","","",""
"","choice_confirmation","","html-keyboard-response","144","504444","0.0-78.0-2.0-0.0","0","0","bvEXR","Scenes","","null","","","null","","","","22","126","132","","","","","","","","","","","","","","","","","","","","","","","","","","","","","","","","","","","","","",""
"","explain_trial","","survey-text","145","524643","0.0-78.0-5.0-0.0","0","0","bvEXR","Scenes","","20197","{""Q0"":""The right picture looks more beautiful and will fetch a higher price.""}","","","","","","22","126","132","","","","","","","","","","","{""Q0"":""The right picture looks more beautiful and will fetch a higher price.""}","","","","","","","","","","","","","","","","","","","","","","","","","","",""
"","fixation","","html-keyboard-response","146","525645","0.0-79.0-0.0","0","0","bvEXR","Scenes","","null","","","null","","","","","","","","","","","","","","","","","","","","","","","","","","","","","","","","","","","","","","","","","","","",""
"","deliberation","","html-keyboard-response","147","526821","0.0-79.0-1.0","0","0","bvEXR","Scenes","","1175","","","68","","","","23","139","143","0","-1","71","66","samsommer-vddccTqwal8-unsplash.jpg","sigurdur-fjalar-jonsson-1KxBabIntpE-unsplash.jpg","2","1","139","143","","","","","","","","","","","","","","","","","","","","","","","","","","","",""
"","choice_confirmation","","html-keyboard-response","148","527325","0.0-79.0-2.0-0.0","0","0","bvEXR","Scenes","","null","","","null","","","","23","139","143","","","","","","","","","","","","","","","","","","","","","","","","","","","","","","","","","","","","","",""
"","start_critical_deliberation_block","","html-keyboard-response","149","528669","0.0-79.0-7.0-0.0","0","0","bvEXR","Scenes","","1342","","","78","","","","","","","","","","","","","","","","","","","","","","","","","","","","","","","","","","","","","","","","","","","",""
"","fixation","","html-keyboard-response","150","529675","0.0-80.0-0.0","0","0","bvEXR","Scenes","","null","","","null","","","","","","","","","","","","","","","","","","","","","","","","","","","","","","","","","","","","","","","","","","","",""
"","deliberation","","html-keyboard-response","151","530637","0.0-80.0-1.0","0","0","bvEXR","Scenes","","960","","","68","","","","24","112","130","0","-1","77","80","cosmic-timetraveler-pYyOZ8q7AII-unsplash.jpg","lina-loos-04-C1NZk1hE-unsplash.jpg","3","1","112","130","","","","","","","","","","","","","","","","","","","","","","","","","","","",""
"","choice_confirmation","","html-keyboard-response","152","531140","0.0-80.0-2.0-0.0","0","0","bvEXR","Scenes","","null","","","null","","","","24","112","130","","","","","","","","","","","","","","","","","","","","","","","","","","","","","","","","","","","","","",""
"","fixation","","html-keyboard-response","153","532147","0.0-81.0-0.0","0","0","bvEXR","Scenes","","null","","","null","","","","","","","","","","","","","","","","","","","","","","","","","","","","","","","","","","","","","","","","","","","",""
"","deliberation","","html-keyboard-response","154","532865","0.0-81.0-1.0","0","0","bvEXR","Scenes","","716","","","75","","","","25","144","129","0","1","78","69","solotravelgoals-7kLufxYoqWk-unsplash.jpg","kurt-cotoaga-cqbLg3lZEpk-unsplash.jpg","3","0","129","144","","","","","","","","","","","","","","","","","","","","","","","","","","","",""
"","choice_confirmation","","html-keyboard-response","155","533369","0.0-81.0-2.0-0.0","0","0","bvEXR","Scenes","","null","","","null","","","","25","144","129","","","","","","","","","","","","","","","","","","","","","","","","","","","","","","","","","","","","","",""
"","fixation","","html-keyboard-response","156","534382","0.0-82.0-0.0","0","0","bvEXR","Scenes","","null","","","null","","","","","","","","","","","","","","","","","","","","","","","","","","","","","","","","","","","","","","","","","","","",""
"","deliberation","","html-keyboard-response","157","534955","0.0-82.0-1.0","0","0","bvEXR","Scenes","","572","","","75","","","","26","149","146","0","-1","66","71","yuriy-bogdanov-W51VK3Obcj0-unsplash.jpg","thomas-morse-cuKKa0vWZSY-unsplash.jpg","3","0","146","149","","","","","","","","","","","","","","","","","","","","","","","","","","","",""
"","choice_confirmation","","html-keyboard-response","158","535458","0.0-82.0-2.0-0.0","0","0","bvEXR","Scenes","","null","","","null","","","","26","149","146","","","","","","","","","","","","","","","","","","","","","","","","","","","","","","","","","","","","","",""
"","fixation","","html-keyboard-response","159","536467","0.0-83.0-0.0","0","0","bvEXR","Scenes","","null","","","null","","","","","","","","","","","","","","","","","","","","","","","","","","","","","","","","","","","","","","","","","","","",""
"","deliberation","","html-keyboard-response","160","537225","0.0-83.0-1.0","0","0","bvEXR","Scenes","","756","","","75","","","","27","117","116","0","1","81","66","frank-mckenna-OD9EOzfSOh0-unsplash.jpg","david-marcu-W5MhJ6cy1So-unsplash.jpg","3","0","116","117","","","","","","","","","","","","","","","","","","","","","","","","","","","",""
"","choice_confirmation","","html-keyboard-response","161","537729","0.0-83.0-2.0-0.0","0","0","bvEXR","Scenes","","null","","","null","","","","27","117","116","","","","","","","","","","","","","","","","","","","","","","","","","","","","","","","","","","","","","",""
"","fixation","","html-keyboard-response","162","538739","0.0-84.0-0.0","0","0","bvEXR","Scenes","","null","","","null","","","","","","","","","","","","","","","","","","","","","","","","","","","","","","","","","","","","","","","","","","","",""
"","deliberation","","html-keyboard-response","163","539514","0.0-84.0-1.0","0","0","bvEXR","Scenes","","774","","","75","","","","28","133","125","0","-1","73","77","mickey-o-neil-xL66l--msXU-unsplash.jpg","john-lee-oMneOBYhJxY-unsplash.jpg","3","0","125","133","","","","","","","","","","","","","","","","","","","","","","","","","","","",""
"","choice_confirmation","","html-keyboard-response","164","540023","0.0-84.0-2.0-0.0","0","0","bvEXR","Scenes","","null","","","null","","","","28","133","125","","","","","","","","","","","","","","","","","","","","","","","","","","","","","","","","","","","","","",""
"","fixation","","html-keyboard-response","165","541030","0.0-85.0-0.0","0","0","bvEXR","Scenes","","null","","","null","","","","","","","","","","","","","","","","","","","","","","","","","","","","","","","","","","","","","","","","","","","",""
"","deliberation","","html-keyboard-response","166","542026","0.0-85.0-1.0","0","0","bvEXR","Scenes","","994","","","75","","","","29","148","119","0","1","71","69","tom-gainor-ZqLeQDjY6fY-unsplash.jpg","james-wheeler-AFC0XvICMgs-unsplash.jpg","3","0","119","148","","","","","","","","","","","","","","","","","","","","","","","","","","","",""
"","choice_confirmation","","html-keyboard-response","167","542531","0.0-85.0-2.0-0.0","0","0","bvEXR","Scenes","","null","","","null","","","","29","148","119","","","","","","","","","","","","","","","","","","","","","","","","","","","","","","","","","","","","","",""
"","fixation","","html-keyboard-response","168","543541","0.0-86.0-0.0","0","0","bvEXR","Scenes","","null","","","null","","","","","","","","","","","","","","","","","","","","","","","","","","","","","","","","","","","","","","","","","","","",""
"","deliberation","","html-keyboard-response","169","544254","0.0-86.0-1.0","0","0","bvEXR","Scenes","","711","","","68","","","","30","131","106","0","1","65","73","luca-bravo-hFzIoD0F_i8-unsplash.jpg","ashim-d-silva-WeYamle9fDM-unsplash.jpg","3","1","131","106","","","","","","","","","","","","","","","","","","","","","","","","","","","",""
"","choice_confirmation","","html-keyboard-response","170","544766","0.0-86.0-2.0-0.0","0","0","bvEXR","Scenes","","null","","","null","","","","30","131","106","","","","","","","","","","","","","","","","","","","","","","","","","","","","","","","","","","","","","",""
"","fixation","","html-keyboard-response","171","545771","0.0-87.0-0.0","0","0","bvEXR","Scenes","","null","","","null","","","","","","","","","","","","","","","","","","","","","","","","","","","","","","","","","","","","","","","","","","","",""
"","deliberation","","html-keyboard-response","172","546814","0.0-87.0-1.0","0","0","bvEXR","Scenes","","1041","","","75","","","","31","121","110","0","-1","79","70","jean-pierre-brungs-qxCqkbF7tUc-unsplash.jpg","bruno-van-der-kraan-qez8mNJ3ilU-unsplash.jpg","3","0","110","121","","","","","","","","","","","","","","","","","","","","","","","","","","","",""
"","choice_confirmation","","html-keyboard-response","173","547325","0.0-87.0-2.0-0.0","0","0","bvEXR","Scenes","","null","","","null","","","","31","121","110","","","","","","","","","","","","","","","","","","","","","","","","","","","","","","","","","","","","","",""
"","fixation","","html-keyboard-response","174","548330","0.0-88.0-0.0","0","0","bvEXR","Scenes","","null","","","null","","","","","","","","","","","","","","","","","","","","","","","","","","","","","","","","","","","","","","","","","","","",""
"","deliberation","","html-keyboard-response","175","549274","0.0-88.0-1.0","0","0","bvEXR","Scenes","","943","","","75","","","","32","126","132","0","1","70","74","jordan-mcqueen-PJCZOWuOxbU-unsplash.jpg","meng-ji-8BH_M-53CyA-unsplash.jpg","3","0","132","126","","","","","","","","","","","","","","","","","","","","","","","","","","","",""
"","choice_confirmation","","html-keyboard-response","176","549780","0.0-88.0-2.0-0.0","0","0","bvEXR","Scenes","","null","","","null","","","","32","126","132","","","","","","","","","","","","","","","","","","","","","","","","","","","","","","","","","","","","","",""
"","fixation","","html-keyboard-response","177","550786","0.0-89.0-0.0","0","0","bvEXR","Scenes","","null","","","null","","","","","","","","","","","","","","","","","","","","","","","","","","","","","","","","","","","","","","","","","","","",""
"","deliberation","","html-keyboard-response","178","552985","0.0-89.0-1.0","0","0","bvEXR","Scenes","","2197","","","75","","","","33","128","105","0","1","71","71","karsten-wurth-jS0zC2PJ17A-unsplash.jpg","ashim-d-silva-S2Q5mdOrrVc-unsplash.jpg","3","0","105","128","","","","","","","","","","","","","","","","","","","","","","","","","","","",""
"","choice_confirmation","","html-keyboard-response","179","553490","0.0-89.0-2.0-0.0","0","0","bvEXR","Scenes","","null","","","null","","","","33","128","105","","","","","","","","","","","","","","","","","","","","","","","","","","","","","","","","","","","","","",""
"","fixation","","html-keyboard-response","180","554499","0.0-90.0-0.0","0","0","bvEXR","Scenes","","null","","","null","","","","","","","","","","","","","","","","","","","","","","","","","","","","","","","","","","","","","","","","","","","",""
"","deliberation","","html-keyboard-response","181","555434","0.0-90.0-1.0","0","0","bvEXR","Scenes","","933","","","68","","","","34","139","143","0","-1","71","66","samsommer-vddccTqwal8-unsplash.jpg","sigurdur-fjalar-jonsson-1KxBabIntpE-unsplash.jpg","3","1","139","143","","","","","","","","","","","","","","","","","","","","","","","","","","","",""
"","choice_confirmation","","html-keyboard-response","182","555941","0.0-90.0-2.0-0.0","0","0","bvEXR","Scenes","","null","","","null","","","","34","139","143","","","","","","","","","","","","","","","","","","","","","","","","","","","","","","","","","","","","","",""
"","fixation","","html-keyboard-response","183","556946","0.0-91.0-0.0","0","0","bvEXR","Scenes","","null","","","null","","","","","","","","","","","","","","","","","","","","","","","","","","","","","","","","","","","","","","","","","","","",""
"","deliberation","","html-keyboard-response","184","557537","0.0-91.0-1.0","0","0","bvEXR","Scenes","","589","","","75","","","","35","115","135","0","-1","67","72","darrell-cassell-hoCXpPUMCoE-unsplash.jpg","mohammad-alizade-4wzRuAb-KWs-unsplash.jpg","3","0","135","115","","","","","","","","","","","","","","","","","","","","","","","","","","","",""
"","choice_confirmation","","html-keyboard-response","185","558051","0.0-91.0-2.0-0.0","0","0","bvEXR","Scenes","","null","","","null","","","","35","115","135","","","","","","","","","","","","","","","","","","","","","","","","","","","","","","","","","","","","","",""
"","reward_learning_instructions","","instructions","186","583978","0.0-92.0-0.0","0","0","bvEXR","Scenes","[{""page_index"":0,""viewing_time"":6168},{""page_index"":1,""viewing_time"":18595},{""page_index"":2,""viewing_time"":1163}]","25926","","","","","","","","","","","","","","","","","","","","","","","","","","","","","","","","","","","","","","","","","","","","","","",""
"","reward_comprehension_check","","survey-multi-choice","187","593549","0.0-92.0-1.0","0","0","bvEXR","Scenes","","9565","{""Q0"":""True"",""Q1"":""True"",""Q2"":""Press the space bar to see its outcome"",""Q3"":""Press the relevant key while the outcome is presented""}","0","","","","","","","","","","","","","","","","","","","","","","","","","","","","","","","","","","","","","","","","","","","","",""
"","start_phase","","html-keyboard-response","188","594959","0.0-93.0","0","0","bvEXR","Scenes","","1409","","","78","","","","","","","","","","","","","","","","","","","","","","","","","","","","","","","","","","","","","","","","","","","",""
"","fixation","","html-keyboard-response","189","595970","0.0-94.0","0","0","bvEXR","Scenes","","null","","","null","","","","","","","","","","","","","","","","","","","","","","","","","","","","","","","","","","","","","","","","","","","",""
"","see_reward","","html-keyboard-response","190","597835","0.0-95.0","0","0","bvEXR","Scenes","","1863","","","32","","139","","0","","","","-1","","","","","1","","","","","0","1863","","","","","","","","","","","","","","","","","","","","","","","","",""
"","reward_outcome","","html-keyboard-response","191","599845","0.0-96.0","0","0","bvEXR","Scenes","","null","","","null","","139","","0","","","","","","","","","","","","","","","","NaN","null","","","","","","","","","","","","","","","","","","","","","","",""
"","respond_faster","","html-keyboard-response","192","601355","0.0-97.0-0.0","1","0","bvEXR","Scenes","","null","","","null","","","","","","","","","","","","","","","","","","","","","","","","","","","","","","","","","","","","","","","","","","","",""
"","fixation","","html-keyboard-response","193","602361","0.0-99.0","0","0","bvEXR","Scenes","","null","","","null","","","","","","","","","","","","","","","","","","","","","","","","","","","","","","","","","","","","","","","","","","","",""
"","see_reward","","html-keyboard-response","194","603269","0.0-100.0","0","0","bvEXR","Scenes","","906","","","32","","146","","1","","","","-1","","","","","1","","","","","0","906","","","","","","","","","","","","","","","","","","","","","","","","",""
"","reward_outcome","","html-keyboard-response","195","605273","0.0-101.0","0","0","bvEXR","Scenes","","null","","","null","","146","","1","","","","","","","","","","","","","","","","NaN","null","","","","","","","","","","","","","","","","","","","","","","",""
"","respond_faster","","html-keyboard-response","196","606777","0.0-102.0-0.0","1","0","bvEXR","Scenes","","null","","","null","","","","","","","","","","","","","","","","","","","","","","","","","","","","","","","","","","","","","","","","","","","",""
"","fixation","","html-keyboard-response","197","607788","0.0-104.0","0","0","bvEXR","Scenes","","null","","","null","","","","","","","","","","","","","","","","","","","","","","","","","","","","","","","","","","","","","","","","","","","",""
"","see_reward","","html-keyboard-response","198","608137","0.0-105.0","0","0","bvEXR","Scenes","","347","","","32","","110","","2","","","","-1","","","","","1","","","","","0","347","","","","","","","","","","","","","","","","","","","","","","","","",""
"","reward_outcome","","html-keyboard-response","199","610146","0.0-106.0","0","0","bvEXR","Scenes","","null","","","null","","110","","2","","","","","","","","","","","","","","","","NaN","null","","","","","","","","","","","","","","","","","","","","","","",""
"","respond_faster","","html-keyboard-response","200","611650","0.0-107.0-0.0","1","0","bvEXR","Scenes","","null","","","null","","","","","","","","","","","","","","","","","","","","","","","","","","","","","","","","","","","","","","","","","","","",""
"","fixation","","html-keyboard-response","201","612658","0.0-109.0","0","0","bvEXR","Scenes","","null","","","null","","","","","","","","","","","","","","","","","","","","","","","","","","","","","","","","","","","","","","","","","","","",""
"","see_reward","","html-keyboard-response","202","613450","0.0-110.0","0","0","bvEXR","Scenes","","792","","","32","","131","","3","","","","1","","","","","1","","","","","143","792","","","","","","","","","","","","","","","","","","","","","","","","",""
"","reward_outcome","","html-keyboard-response","203","615457","0.0-111.0","0","0","bvEXR","Scenes","","null","","","null","","131","","3","","","","","","","","","","","","","","","","NaN","null","","","","","","","","","","","","","","","","","","","","","","",""
"","respond_faster","","html-keyboard-response","204","616962","0.0-112.0-0.0","1","0","bvEXR","Scenes","","null","","","null","","","","","","","","","","","","","","","","","","","","","","","","","","","","","","","","","","","","","","","","","","","",""
"","fixation","","html-keyboard-response","205","617971","0.0-114.0","0","0","bvEXR","Scenes","","null","","","null","","","","","","","","","","","","","","","","","","","","","","","","","","","","","","","","","","","","","","","","","","","",""
"","see_reward","","html-keyboard-response","206","618510","0.0-115.0","0","0","bvEXR","Scenes","","537","","","32","","105","","4","","","","1","","","","","1","","","","","155","537","","","","","","","","","","","","","","","","","","","","","","","","",""
"","reward_outcome","","html-keyboard-response","207","620512","0.0-116.0","0","0","bvEXR","Scenes","","null","","","null","","105","","4","","","","","","","","","","","","","","","","NaN","null","","","","","","","","","","","","","","","","","","","","","","",""
"","respond_faster","","html-keyboard-response","208","622017","0.0-117.0-0.0","1","0","bvEXR","Scenes","","null","","","null","","","","","","","","","","","","","","","","","","","","","","","","","","","","","","","","","","","","","","","","","","","",""
"","fixation","","html-keyboard-response","209","623029","0.0-119.0","0","0","bvEXR","Scenes","","null","","","null","","","","","","","","","","","","","","","","","","","","","","","","","","","","","","","","","","","","","","","","","","","",""
"","see_reward","","html-keyboard-response","210","623482","0.0-120.0","0","0","bvEXR","Scenes","","452","","","32","","129","","5","","","","1","","","","","1","","","","","150","452","","","","","","","","","","","","","","","","","","","","","","","","",""
"","reward_outcome","","html-keyboard-response","211","625491","0.0-121.0","0","0","bvEXR","Scenes","","null","","","null","","129","","5","","","","","","","","","","","","","","","","NaN","null","","","","","","","","","","","","","","","","","","","","","","",""
"","respond_faster","","html-keyboard-response","212","627004","0.0-122.0-0.0","1","0","bvEXR","Scenes","","null","","","null","","","","","","","","","","","","","","","","","","","","","","","","","","","","","","","","","","","","","","","","","","","",""
"","fixation","","html-keyboard-response","213","628011","0.0-124.0","0","0","bvEXR","Scenes","","null","","","null","","","","","","","","","","","","","","","","","","","","","","","","","","","","","","","","","","","","","","","","","","","",""
"","see_reward","","html-keyboard-response","214","628216","0.0-125.0","0","0","bvEXR","Scenes","","203","","","32","","110","","6","","","","-1","","","","","1","","","","","0","203","","","","","","","","","","","","","","","","","","","","","","","","",""
"","reward_outcome","","html-keyboard-response","215","630229","0.0-126.0","0","0","bvEXR","Scenes","","481","","","38","","110","","6","","","","","","","","","","","","","","","","1","481","","","","","","","","","","","","","","","","","","","","","","",""
"","fixation","","html-keyboard-response","216","631233","0.0-129.0","0","0","bvEXR","Scenes","","null","","","null","","","","","","","","","","","","","","","","","","","","","","","","","","","","","","","","","","","","","","","","","","","",""
"","see_reward","","html-keyboard-response","217","631843","0.0-130.0","0","0","bvEXR","Scenes","","608","","","32","","119","","7","","","","1","","","","","1","","","","","159","608","","","","","","","","","","","","","","","","","","","","","","","","",""
"","reward_outcome","","html-keyboard-response","218","633851","0.0-131.0","0","0","bvEXR","Scenes","","null","","","null","","119","","7","","","","","","","","","","","","","","","","NaN","null","","","","","","","","","","","","","","","","","","","","","","",""
"","respond_faster","","html-keyboard-response","219","635361","0.0-132.0-0.0","1","0","bvEXR","Scenes","","null","","","null","","","","","","","","","","","","","","","","","","","","","","","","","","","","","","","","","","","","","","","","","","","",""
"","fixation","","html-keyboard-response","220","636368","0.0-134.0","0","0","bvEXR","Scenes","","null","","","null","","","","","","","","","","","","","","","","","","","","","","","","","","","","","","","","","","","","","","","","","","","",""
"","see_reward","","html-keyboard-response","221","636868","0.0-135.0","0","0","bvEXR","Scenes","","499","","","32","","112","","8","","","","-1","","","","","1","","","","","0","499","","","","","","","","","","","","","","","","","","","","","","","","",""
"","reward_outcome","","html-keyboard-response","222","638873","0.0-136.0","0","0","bvEXR","Scenes","","null","","","null","","112","","8","","","","","","","","","","","","","","","","NaN","null","","","","","","","","","","","","","","","","","","","","","","",""
"","respond_faster","","html-keyboard-response","223","640378","0.0-137.0-0.0","1","0","bvEXR","Scenes","","null","","","null","","","","","","","","","","","","","","","","","","","","","","","","","","","","","","","","","","","","","","","","","","","",""
"","fixation","","html-keyboard-response","224","641388","0.0-139.0","0","0","bvEXR","Scenes","","null","","","null","","","","","","","","","","","","","","","","","","","","","","","","","","","","","","","","","","","","","","","","","","","",""
"","see_reward","","html-keyboard-response","225","641732","0.0-140.0","0","0","bvEXR","Scenes","","343","","","32","","116","","9","","","","1","","","","","1","","","","","157","343","","","","","","","","","","","","","","","","","","","","","","","","",""
"","reward_outcome","","html-keyboard-response","226","643740","0.0-141.0","0","0","bvEXR","Scenes","","null","","","null","","116","","9","","","","","","","","","","","","","","","","NaN","null","","","","","","","","","","","","","","","","","","","","","","",""
"","respond_faster","","html-keyboard-response","227","645248","0.0-142.0-0.0","1","0","bvEXR","Scenes","","null","","","null","","","","","","","","","","","","","","","","","","","","","","","","","","","","","","","","","","","","","","","","","","","",""
"","fixation","","html-keyboard-response","228","646257","0.0-144.0","0","0","bvEXR","Scenes","","null","","","null","","","","","","","","","","","","","","","","","","","","","","","","","","","","","","","","","","","","","","","","","","","",""
"","see_reward","","html-keyboard-response","229","646545","0.0-145.0","0","0","bvEXR","Scenes","","288","","","32","","116","","10","","","","1","","","","","1","","","","","157","288","","","","","","","","","","","","","","","","","","","","","","","","",""
"","reward_outcome","","html-keyboard-response","230","648556","0.0-146.0","0","0","bvEXR","Scenes","","null","","","null","","116","","10","","","","","","","","","","","","","","","","NaN","null","","","","","","","","","","","","","","","","","","","","","","",""
"","respond_faster","","html-keyboard-response","231","650068","0.0-147.0-0.0","1","0","bvEXR","Scenes","","null","","","null","","","","","","","","","","","","","","","","","","","","","","","","","","","","","","","","","","","","","","","","","","","",""
"","fixation","","html-keyboard-response","232","651075","0.0-149.0","0","0","bvEXR","Scenes","","null","","","null","","","","","","","","","","","","","","","","","","","","","","","","","","","","","","","","","","","","","","","","","","","",""
"","see_reward","","html-keyboard-response","233","651627","0.0-150.0","0","0","bvEXR","Scenes","","552","","","32","","125","","11","","","","-1","","","","","1","","","","","0","552","","","","","","","","","","","","","","","","","","","","","","","","",""
"","reward_outcome","","html-keyboard-response","234","653632","0.0-151.0","0","0","bvEXR","Scenes","","null","","","null","","125","","11","","","","","","","","","","","","","","","","NaN","null","","","","","","","","","","","","","","","","","","","","","","",""
"","respond_faster","","html-keyboard-response","235","655140","0.0-152.0-0.0","1","0","bvEXR","Scenes","","null","","","null","","","","","","","","","","","","","","","","","","","","","","","","","","","","","","","","","","","","","","","","","","","",""
"","fixation","","html-keyboard-response","236","656147","0.0-154.0","0","0","bvEXR","Scenes","","null","","","null","","","","","","","","","","","","","","","","","","","","","","","","","","","","","","","","","","","","","","","","","","","",""
"","see_reward","","html-keyboard-response","237","656632","0.0-155.0","0","0","bvEXR","Scenes","","484","","","32","","132","","12","","","","1","","","","","1","","","","","158","484","","","","","","","","","","","","","","","","","","","","","","","","",""
"","reward_outcome","","html-keyboard-response","238","658641","0.0-156.0","0","0","bvEXR","Scenes","","935","","","38","","132","","12","","","","","","","","","","","","","","","","1","935","","","","","","","","","","","","","","","","","","","","","","",""
"","fixation","","html-keyboard-response","239","659649","0.0-159.0","0","0","bvEXR","Scenes","","null","","","null","","","","","","","","","","","","","","","","","","","","","","","","","","","","","","","","","","","","","","","","","","","",""
"","see_reward","","html-keyboard-response","240","659975","0.0-160.0","0","0","bvEXR","Scenes","","324","","","32","","129","","13","","","","1","","","","","1","","","","","150","324","","","","","","","","","","","","","","","","","","","","","","","","",""
"","reward_outcome","","html-keyboard-response","241","661985","0.0-161.0","0","0","bvEXR","Scenes","","665","","","38","","129","","13","","","","","","","","","","","","","","","","1","665","","","","","","","","","","","","","","","","","","","","","","",""
"","fixation","","html-keyboard-response","242","662995","0.0-164.0","0","0","bvEXR","Scenes","","null","","","null","","","","","","","","","","","","","","","","","","","","","","","","","","","","","","","","","","","","","","","","","","","",""
"","see_reward","","html-keyboard-response","243","663267","0.0-165.0","0","0","bvEXR","Scenes","","271","","","32","","146","","14","","","","-1","","","","","1","","","","","0","271","","","","","","","","","","","","","","","","","","","","","","","","",""
"","reward_outcome","","html-keyboard-response","244","665273","0.0-166.0","0","0","bvEXR","Scenes","","null","","","null","","146","","14","","","","","","","","","","","","","","","","NaN","null","","","","","","","","","","","","","","","","","","","","","","",""
"","respond_faster","","html-keyboard-response","245","666778","0.0-167.0-0.0","1","0","bvEXR","Scenes","","null","","","null","","","","","","","","","","","","","","","","","","","","","","","","","","","","","","","","","","","","","","","","","","","",""
"","fixation","","html-keyboard-response","246","667784","0.0-169.0","0","0","bvEXR","Scenes","","null","","","null","","","","","","","","","","","","","","","","","","","","","","","","","","","","","","","","","","","","","","","","","","","",""
"","see_reward","","html-keyboard-response","247","667792","0.0-170.0","0","0","bvEXR","Scenes","","6","","","32","","112","","15","","","","-1","","","","","1","","","","","0","6","","","","","","","","","","","","","","","","","","","","","","","","",""
"","reward_outcome","","html-keyboard-response","248","669801","0.0-171.0","0","0","bvEXR","Scenes","","188","","","40","","112","","15","","","","","","","","","","","","","","","","-1","188","","","","","","","","","","","","","","","","","","","","","","",""
"","fixation","","html-keyboard-response","249","670811","0.0-174.0","0","0","bvEXR","Scenes","","null","","","null","","","","","","","","","","","","","","","","","","","","","","","","","","","","","","","","","","","","","","","","","","","",""
"","see_reward","","html-keyboard-response","250","671100","0.0-175.0","0","0","bvEXR","Scenes","","288","","","32","","105","","16","","","","1","","","","","1","","","","","155","288","","","","","","","","","","","","","","","","","","","","","","","","",""
"","reward_outcome","","html-keyboard-response","251","673108","0.0-176.0","0","0","bvEXR","Scenes","","null","","","null","","105","","16","","","","","","","","","","","","","","","","NaN","null","","","","","","","","","","","","","","","","","","","","","","",""
"","respond_faster","","html-keyboard-response","252","674619","0.0-177.0-0.0","1","0","bvEXR","Scenes","","null","","","null","","","","","","","","","","","","","","","","","","","","","","","","","","","","","","","","","","","","","","","","","","","",""
"","fixation","","html-keyboard-response","253","675628","0.0-179.0","0","0","bvEXR","Scenes","","null","","","null","","","","","","","","","","","","","","","","","","","","","","","","","","","","","","","","","","","","","","","","","","","",""
"","see_reward","","html-keyboard-response","254","676210","0.0-180.0","0","0","bvEXR","Scenes","","582","","","32","","131","","17","","","","1","","","","","1","","","","","143","582","","","","","","","","","","","","","","","","","","","","","","","","",""
"","reward_outcome","","html-keyboard-response","255","678219","0.0-181.0","0","0","bvEXR","Scenes","","null","","","null","","131","","17","","","","","","","","","","","","","","","","NaN","null","","","","","","","","","","","","","","","","","","","","","","",""
"","respond_faster","","html-keyboard-response","256","679730","0.0-182.0-0.0","1","0","bvEXR","Scenes","","null","","","null","","","","","","","","","","","","","","","","","","","","","","","","","","","","","","","","","","","","","","","","","","","",""
"","fixation","","html-keyboard-response","257","680739","0.0-184.0","0","0","bvEXR","Scenes","","null","","","null","","","","","","","","","","","","","","","","","","","","","","","","","","","","","","","","","","","","","","","","","","","",""
"","see_reward","","html-keyboard-response","258","681141","0.0-185.0","0","0","bvEXR","Scenes","","400","","","32","","135","","18","","","","-1","","","","","1","","","","","0","400","","","","","","","","","","","","","","","","","","","","","","","","",""
"","reward_outcome","","html-keyboard-response","259","683147","0.0-186.0","0","0","bvEXR","Scenes","","178","","","40","","135","","18","","","","","","","","","","","","","","","","-1","178","","","","","","","","","","","","","","","","","","","","","","",""
"","fixation","","html-keyboard-response","260","684157","0.0-189.0","0","0","bvEXR","Scenes","","null","","","null","","","","","","","","","","","","","","","","","","","","","","","","","","","","","","","","","","","","","","","","","","","",""
"","see_reward","","html-keyboard-response","261","684639","0.0-190.0","0","0","bvEXR","Scenes","","481","","","32","","119","","19","","","","1","","","","","1","","","","","159","481","","","","","","","","","","","","","","","","","","","","","","","","",""
"","reward_outcome","","html-keyboard-response","262","686648","0.0-191.0","0","0","bvEXR","Scenes","","null","","","null","","119","","19","","","","","","","","","","","","","","","","NaN","null","","","","","","","","","","","","","","","","","","","","","","",""
"","respond_faster","","html-keyboard-response","263","688152","0.0-192.0-0.0","1","0","bvEXR","Scenes","","null","","","null","","","","","","","","","","","","","","","","","","","","","","","","","","","","","","","","","","","","","","","","","","","",""
"","fixation","","html-keyboard-response","264","689163","0.0-194.0","0","0","bvEXR","Scenes","","null","","","null","","","","","","","","","","","","","","","","","","","","","","","","","","","","","","","","","","","","","","","","","","","",""
"","see_reward","","html-keyboard-response","265","689519","0.0-195.0","0","0","bvEXR","Scenes","","355","","","32","","132","","20","","","","1","","","","","1","","","","","158","355","","","","","","","","","","","","","","","","","","","","","","","","",""
"","reward_outcome","","html-keyboard-response","266","691531","0.0-196.0","0","0","bvEXR","Scenes","","null","","","null","","132","","20","","","","","","","","","","","","","","","","NaN","null","","","","","","","","","","","","","","","","","","","","","","",""
"","respond_faster","","html-keyboard-response","267","693041","0.0-197.0-0.0","1","0","bvEXR","Scenes","","null","","","null","","","","","","","","","","","","","","","","","","","","","","","","","","","","","","","","","","","","","","","","","","","",""
"","fixation","","html-keyboard-response","268","694048","0.0-199.0","0","0","bvEXR","Scenes","","null","","","null","","","","","","","","","","","","","","","","","","","","","","","","","","","","","","","","","","","","","","","","","","","",""
"","see_reward","","html-keyboard-response","269","695157","0.0-200.0","0","0","bvEXR","Scenes","","1107","","","32","","139","","21","","","","-1","","","","","1","","","","","0","1107","","","","","","","","","","","","","","","","","","","","","","","","",""
"","reward_outcome","","html-keyboard-response","270","697163","0.0-201.0","0","0","bvEXR","Scenes","","null","","","null","","139","","21","","","","","","","","","","","","","","","","NaN","null","","","","","","","","","","","","","","","","","","","","","","",""
"","respond_faster","","html-keyboard-response","271","698672","0.0-202.0-0.0","1","0","bvEXR","Scenes","","null","","","null","","","","","","","","","","","","","","","","","","","","","","","","","","","","","","","","","","","","","","","","","","","",""
"","fixation","","html-keyboard-response","272","699684","0.0-204.0","0","0","bvEXR","Scenes","","null","","","null","","","","","","","","","","","","","","","","","","","","","","","","","","","","","","","","","","","","","","","","","","","",""
"","see_reward","","html-keyboard-response","273","700706","0.0-205.0","0","0","bvEXR","Scenes","","1021","","","32","","135","","22","","","","-1","","","","","1","","","","","0","1021","","","","","","","","","","","","","","","","","","","","","","","","",""
"","reward_outcome","","html-keyboard-response","274","702716","0.0-206.0","0","0","bvEXR","Scenes","","null","","","null","","135","","22","","","","","","","","","","","","","","","","NaN","null","","","","","","","","","","","","","","","","","","","","","","",""
"","respond_faster","","html-keyboard-response","275","704228","0.0-207.0-0.0","1","0","bvEXR","Scenes","","null","","","null","","","","","","","","","","","","","","","","","","","","","","","","","","","","","","","","","","","","","","","","","","","",""
"","fixation","","html-keyboard-response","276","705235","0.0-209.0","0","0","bvEXR","Scenes","","null","","","null","","","","","","","","","","","","","","","","","","","","","","","","","","","","","","","","","","","","","","","","","","","",""
"","see_reward","","html-keyboard-response","277","705656","0.0-210.0","0","0","bvEXR","Scenes","","420","","","32","","125","","23","","","","-1","","","","","1","","","","","0","420","","","","","","","","","","","","","","","","","","","","","","","","",""
"","reward_outcome","","html-keyboard-response","278","707666","0.0-211.0","0","0","bvEXR","Scenes","","null","","","null","","125","","23","","","","","","","","","","","","","","","","NaN","null","","","","","","","","","","","","","","","","","","","","","","",""
"","respond_faster","","html-keyboard-response","279","709177","0.0-212.0-0.0","1","0","bvEXR","Scenes","","null","","","null","","","","","","","","","","","","","","","","","","","","","","","","","","","","","","","","","","","","","","","","","","","",""
"","block_over","","html-keyboard-response","280","710918","0.0-213.0-0.0","0","0","bvEXR","Scenes","","1741","","","78","","","","","","","","","","","","","","","","","","","","","","","","","","","","","","","","","","","","","","","","","","","",""
"","fixation","","html-keyboard-response","281","711930","0.0-214.0","0","0","bvEXR","Scenes","","null","","","null","","","","","","","","","","","","","","","","","","","","","","","","","","","","","","","","","","","","","","","","","","","",""
"","see_reward","","html-keyboard-response","282","712292","0.0-215.0","0","0","bvEXR","Scenes","","360","","","32","","110","","24","","","","-1","","","","","2","","","","","0","360","","","","","","","","","","","","","","","","","","","","","","","","",""
"","reward_outcome","","html-keyboard-response","283","714295","0.0-216.0","0","0","bvEXR","Scenes","","null","","","null","","110","","24","","","","","","","","","","","","","","","","NaN","null","","","","","","","","","","","","","","","","","","","","","","",""
"","respond_faster","","html-keyboard-response","284","715804","0.0-217.0-0.0","1","0","bvEXR","Scenes","","null","","","null","","","","","","","","","","","","","","","","","","","","","","","","","","","","","","","","","","","","","","","","","","","",""
"","fixation","","html-keyboard-response","285","716810","0.0-219.0","0","0","bvEXR","Scenes","","null","","","null","","","","","","","","","","","","","","","","","","","","","","","","","","","","","","","","","","","","","","","","","","","",""
"","see_reward","","html-keyboard-response","286","717023","0.0-220.0","0","0","bvEXR","Scenes","","211","","","32","","125","","25","","","","-1","","","","","2","","","","","0","211","","","","","","","","","","","","","","","","","","","","","","","","",""
"","reward_outcome","","html-keyboard-response","287","719034","0.0-221.0","0","0","bvEXR","Scenes","","0","","","38","","125","","25","","","","","","","","","","","","","","","","1","0","","","","","","","","","","","","","","","","","","","","","","",""
"","fixation","","html-keyboard-response","288","720040","0.0-224.0","0","0","bvEXR","Scenes","","null","","","null","","","","","","","","","","","","","","","","","","","","","","","","","","","","","","","","","","","","","","","","","","","",""
"","see_reward","","html-keyboard-response","289","720431","0.0-225.0","0","0","bvEXR","Scenes","","389","","","32","","119","","26","","","","1","","","","","2","","","","","159","389","","","","","","","","","","","","","","","","","","","","","","","","",""
"","reward_outcome","","html-keyboard-response","290","722442","0.0-226.0","0","0","bvEXR","Scenes","","null","","","null","","119","","26","","","","","","","","","","","","","","","","NaN","null","","","","","","","","","","","","","","","","","","","","","","",""
"","respond_faster","","html-keyboard-response","291","723956","0.0-227.0-0.0","1","0","bvEXR","Scenes","","null","","","null","","","","","","","","","","","","","","","","","","","","","","","","","","","","","","","","","","","","","","","","","","","",""
"","fixation","","html-keyboard-response","292","724963","0.0-229.0","0","0","bvEXR","Scenes","","null","","","null","","","","","","","","","","","","","","","","","","","","","","","","","","","","","","","","","","","","","","","","","","","",""
"","see_reward","","html-keyboard-response","293","725212","0.0-230.0","0","0","bvEXR","Scenes","","247","","","32","","112","","27","","","","-1","","","","","2","","","","","0","247","","","","","","","","","","","","","","","","","","","","","","","","",""
"","reward_outcome","","html-keyboard-response","294","727216","0.0-231.0","0","0","bvEXR","Scenes","","null","","","null","","112","","27","","","","","","","","","","","","","","","","NaN","null","","","","","","","","","","","","","","","","","","","","","","",""
"","respond_faster","","html-keyboard-response","295","728721","0.0-232.0-0.0","1","0","bvEXR","Scenes","","null","","","null","","","","","","","","","","","","","","","","","","","","","","","","","","","","","","","","","","","","","","","","","","","",""
"","fixation","","html-keyboard-response","296","729727","0.0-234.0","0","0","bvEXR","Scenes","","null","","","null","","","","","","","","","","","","","","","","","","","","","","","","","","","","","","","","","","","","","","","","","","","",""
"","see_reward","","html-keyboard-response","297","730075","0.0-235.0","0","0","bvEXR","Scenes","","346","","","32","","131","","28","","","","1","","","","","2","","","","","143","346","","","","","","","","","","","","","","","","","","","","","","","","",""
"","reward_outcome","","html-keyboard-response","298","732084","0.0-236.0","0","0","bvEXR","Scenes","","null","","","null","","131","","28","","","","","","","","","","","","","","","","NaN","null","","","","","","","","","","","","","","","","","","","","","","",""
"","respond_faster","","html-keyboard-response","299","733592","0.0-237.0-0.0","1","0","bvEXR","Scenes","","null","","","null","","","","","","","","","","","","","","","","","","","","","","","","","","","","","","","","","","","","","","","","","","","",""
"","fixation","","html-keyboard-response","300","734599","0.0-239.0","0","0","bvEXR","Scenes","","null","","","null","","","","","","","","","","","","","","","","","","","","","","","","","","","","","","","","","","","","","","","","","","","",""
"","see_reward","","html-keyboard-response","301","735154","0.0-240.0","0","0","bvEXR","Scenes","","553","","","32","","129","","29","","","","1","","","","","2","","","","","150","553","","","","","","","","","","","","","","","","","","","","","","","","",""
"","reward_outcome","","html-keyboard-response","302","737161","0.0-241.0","0","0","bvEXR","Scenes","","null","","","null","","129","","29","","","","","","","","","","","","","","","","NaN","null","","","","","","","","","","","","","","","","","","","","","","",""
"","respond_faster","","html-keyboard-response","303","738666","0.0-242.0-0.0","1","0","bvEXR","Scenes","","null","","","null","","","","","","","","","","","","","","","","","","","","","","","","","","","","","","","","","","","","","","","","","","","",""
"","fixation","","html-keyboard-response","304","739671","0.0-244.0","0","0","bvEXR","Scenes","","null","","","null","","","","","","","","","","","","","","","","","","","","","","","","","","","","","","","","","","","","","","","","","","","",""
"","see_reward","","html-keyboard-response","305","739901","0.0-245.0","0","0","bvEXR","Scenes","","230","","","32","","139","","30","","","","-1","","","","","2","","","","","0","230","","","","","","","","","","","","","","","","","","","","","","","","",""
"","reward_outcome","","html-keyboard-response","306","741914","0.0-246.0","0","0","bvEXR","Scenes","","258","","","40","","139","","30","","","","","","","","","","","","","","","","-1","258","","","","","","","","","","","","","","","","","","","","","","",""
"","fixation","","html-keyboard-response","307","742920","0.0-249.0","0","0","bvEXR","Scenes","","null","","","null","","","","","","","","","","","","","","","","","","","","","","","","","","","","","","","","","","","","","","","","","","","",""
"","see_reward","","html-keyboard-response","308","743354","0.0-250.0","0","0","bvEXR","Scenes","","433","","","32","","119","","31","","","","1","","","","","2","","","","","159","433","","","","","","","","","","","","","","","","","","","","","","","","",""
"","reward_outcome","","html-keyboard-response","309","745361","0.0-251.0","0","0","bvEXR","Scenes","","99","","","38","","119","","31","","","","","","","","","","","","","","","","1","99","","","","","","","","","","","","","","","","","","","","","","",""
"","fixation","","html-keyboard-response","310","746372","0.0-254.0","0","0","bvEXR","Scenes","","null","","","null","","","","","","","","","","","","","","","","","","","","","","","","","","","","","","","","","","","","","","","","","","","",""
"","see_reward","","html-keyboard-response","311","746922","0.0-255.0","0","0","bvEXR","Scenes","","550","","","32","","116","","32","","","","1","","","","","2","","","","","157","550","","","","","","","","","","","","","","","","","","","","","","","","",""
"","reward_outcome","","html-keyboard-response","312","748929","0.0-256.0","0","0","bvEXR","Scenes","","null","","","null","","116","","32","","","","","","","","","","","","","","","","NaN","null","","","","","","","","","","","","","","","","","","","","","","",""
"","respond_faster","","html-keyboard-response","313","750438","0.0-257.0-0.0","1","0","bvEXR","Scenes","","null","","","null","","","","","","","","","","","","","","","","","","","","","","","","","","","","","","","","","","","","","","","","","","","",""
"","fixation","","html-keyboard-response","314","751448","0.0-259.0","0","0","bvEXR","Scenes","","null","","","null","","","","","","","","","","","","","","","","","","","","","","","","","","","","","","","","","","","","","","","","","","","",""
"","see_reward","","html-keyboard-response","315","751703","0.0-260.0","0","0","bvEXR","Scenes","","254","","","32","","146","","33","","","","-1","","","","","2","","","","","0","254","","","","","","","","","","","","","","","","","","","","","","","","",""
"","reward_outcome","","html-keyboard-response","316","753712","0.0-261.0","0","0","bvEXR","Scenes","","36","","","40","","146","","33","","","","","","","","","","","","","","","","-1","36","","","","","","","","","","","","","","","","","","","","","","",""
"","fixation","","html-keyboard-response","317","754719","0.0-264.0","0","0","bvEXR","Scenes","","null","","","null","","","","","","","","","","","","","","","","","","","","","","","","","","","","","","","","","","","","","","","","","","","",""
"","see_reward","","html-keyboard-response","318","755198","0.0-265.0","0","0","bvEXR","Scenes","","479","","","32","","116","","34","","","","1","","","","","2","","","","","157","479","","","","","","","","","","","","","","","","","","","","","","","","",""
"","reward_outcome","","html-keyboard-response","319","757210","0.0-266.0","0","0","bvEXR","Scenes","","5","","","38","","116","","34","","","","","","","","","","","","","","","","1","5","","","","","","","","","","","","","","","","","","","","","","",""
"","fixation","","html-keyboard-response","320","758217","0.0-269.0","0","0","bvEXR","Scenes","","null","","","null","","","","","","","","","","","","","","","","","","","","","","","","","","","","","","","","","","","","","","","","","","","",""
"","see_reward","","html-keyboard-response","321","758767","0.0-270.0","0","0","bvEXR","Scenes","","549","","","32","","129","","35","","","","1","","","","","2","","","","","150","549","","","","","","","","","","","","","","","","","","","","","","","","",""
"","reward_outcome","","html-keyboard-response","322","760777","0.0-271.0","0","0","bvEXR","Scenes","","null","","","null","","129","","35","","","","","","","","","","","","","","","","NaN","null","","","","","","","","","","","","","","","","","","","","","","",""
"","respond_faster","","html-keyboard-response","323","762288","0.0-272.0-0.0","1","0","bvEXR","Scenes","","null","","","null","","","","","","","","","","","","","","","","","","","","","","","","","","","","","","","","","","","","","","","","","","","",""
"","fixation","","html-keyboard-response","324","763294","0.0-274.0","0","0","bvEXR","Scenes","","null","","","null","","","","","","","","","","","","","","","","","","","","","","","","","","","","","","","","","","","","","","","","","","","",""
"","see_reward","","html-keyboard-response","325","763663","0.0-275.0","0","0","bvEXR","Scenes","","367","","","32","","135","","36","","","","-1","","","","","2","","","","","0","367","","","","","","","","","","","","","","","","","","","","","","","","",""
"","reward_outcome","","html-keyboard-response","326","765671","0.0-276.0","0","0","bvEXR","Scenes","","15","","","38","","135","","36","","","","","","","","","","","","","","","","1","15","","","","","","","","","","","","","","","","","","","","","","",""
"","fixation","","html-keyboard-response","327","766683","0.0-279.0","0","0","bvEXR","Scenes","","null","","","null","","","","","","","","","","","","","","","","","","","","","","","","","","","","","","","","","","","","","","","","","","","",""
"","see_reward","","html-keyboard-response","328","766998","0.0-280.0","0","0","bvEXR","Scenes","","313","","","32","","135","","37","","","","-1","","","","","2","","","","","0","313","","","","","","","","","","","","","","","","","","","","","","","","",""
"","reward_outcome","","html-keyboard-response","329","769010","0.0-281.0","0","0","bvEXR","Scenes","","150","","","38","","135","","37","","","","","","","","","","","","","","","","1","150","","","","","","","","","","","","","","","","","","","","","","",""
"","fixation","","html-keyboard-response","330","770017","0.0-284.0","0","0","bvEXR","Scenes","","null","","","null","","","","","","","","","","","","","","","","","","","","","","","","","","","","","","","","","","","","","","","","","","","",""
"","see_reward","","html-keyboard-response","331","770209","0.0-285.0","0","0","bvEXR","Scenes","","191","","","32","","146","","38","","","","-1","","","","","2","","","","","0","191","","","","","","","","","","","","","","","","","","","","","","","","",""
"","reward_outcome","","html-keyboard-response","332","772217","0.0-286.0","0","0","bvEXR","Scenes","","71","","","40","","146","","38","","","","","","","","","","","","","","","","-1","71","","","","","","","","","","","","","","","","","","","","","","",""
"","fixation","","html-keyboard-response","333","773226","0.0-289.0","0","0","bvEXR","Scenes","","null","","","null","","","","","","","","","","","","","","","","","","","","","","","","","","","","","","","","","","","","","","","","","","","",""
"","see_reward","","html-keyboard-response","334","773572","0.0-290.0","0","0","bvEXR","Scenes","","344","","","32","","110","","39","","","","-1","","","","","2","","","","","0","344","","","","","","","","","","","","","","","","","","","","","","","","",""
"","reward_outcome","","html-keyboard-response","335","775577","0.0-291.0","0","0","bvEXR","Scenes","","279","","","38","","110","","39","","","","","","","","","","","","","","","","1","279","","","","","","","","","","","","","","","","","","","","","","",""
"","fixation","","html-keyboard-response","336","776585","0.0-294.0","0","0","bvEXR","Scenes","","null","","","null","","","","","","","","","","","","","","","","","","","","","","","","","","","","","","","","","","","","","","","","","","","",""
"","see_reward","","html-keyboard-response","337","776932","0.0-295.0","0","0","bvEXR","Scenes","","346","","","32","","132","","40","","","","1","","","","","2","","","","","158","346","","","","","","","","","","","","","","","","","","","","","","","","",""
"","reward_outcome","","html-keyboard-response","338","778942","0.0-296.0","0","0","bvEXR","Scenes","","788","","","38","","132","","40","","","","","","","","","","","","","","","","1","788","","","","","","","","","","","","","","","","","","","","","","",""
"","fixation","","html-keyboard-response","339","779954","0.0-299.0","0","0","bvEXR","Scenes","","null","","","null","","","","","","","","","","","","","","","","","","","","","","","","","","","","","","","","","","","","","","","","","","","",""
"","see_reward","","html-keyboard-response","340","780411","0.0-300.0","0","0","bvEXR","Scenes","","455","","","32","","139","","41","","","","-1","","","","","2","","","","","0","455","","","","","","","","","","","","","","","","","","","","","","","","",""
"","reward_outcome","","html-keyboard-response","341","782414","0.0-301.0","0","0","bvEXR","Scenes","","null","","","null","","139","","41","","","","","","","","","","","","","","","","NaN","null","","","","","","","","","","","","","","","","","","","","","","",""
"","respond_faster","","html-keyboard-response","342","783923","0.0-302.0-0.0","1","0","bvEXR","Scenes","","null","","","null","","","","","","","","","","","","","","","","","","","","","","","","","","","","","","","","","","","","","","","","","","","",""
"","fixation","","html-keyboard-response","343","784926","0.0-304.0","0","0","bvEXR","Scenes","","null","","","null","","","","","","","","","","","","","","","","","","","","","","","","","","","","","","","","","","","","","","","","","","","",""
"","see_reward","","html-keyboard-response","344","785169","0.0-305.0","0","0","bvEXR","Scenes","","241","","","32","","105","","42","","","","1","","","","","2","","","","","155","241","","","","","","","","","","","","","","","","","","","","","","","","",""
"","reward_outcome","","html-keyboard-response","345","787177","0.0-306.0","0","0","bvEXR","Scenes","","1512","","","38","","105","","42","","","","","","","","","","","","","","","","1","1512","","","","","","","","","","","","","","","","","","","","","","",""
"","fixation","","html-keyboard-response","346","788183","0.0-309.0","0","0","bvEXR","Scenes","","null","","","null","","","","","","","","","","","","","","","","","","","","","","","","","","","","","","","","","","","","","","","","","","","",""
"","see_reward","","html-keyboard-response","347","788497","0.0-310.0","0","0","bvEXR","Scenes","","313","","","32","","112","","43","","","","-1","","","","","2","","","","","0","313","","","","","","","","","","","","","","","","","","","","","","","","",""
"","reward_outcome","","html-keyboard-response","348","790503","0.0-311.0","0","0","bvEXR","Scenes","","null","","","null","","112","","43","","","","","","","","","","","","","","","","NaN","null","","","","","","","","","","","","","","","","","","","","","","",""
"","respond_faster","","html-keyboard-response","349","792006","0.0-312.0-0.0","1","0","bvEXR","Scenes","","null","","","null","","","","","","","","","","","","","","","","","","","","","","","","","","","","","","","","","","","","","","","","","","","",""
"","fixation","","html-keyboard-response","350","793019","0.0-314.0","0","0","bvEXR","Scenes","","null","","","null","","","","","","","","","","","","","","","","","","","","","","","","","","","","","","","","","","","","","","","","","","","",""
"","see_reward","","html-keyboard-response","351","793065","0.0-315.0","0","0","bvEXR","Scenes","","45","","","32","","125","","44","","","","-1","","","","","2","","","","","0","45","","","","","","","","","","","","","","","","","","","","","","","","",""
"","reward_outcome","","html-keyboard-response","352","795075","0.0-316.0","0","0","bvEXR","Scenes","","null","","","null","","125","","44","","","","","","","","","","","","","","","","NaN","null","","","","","","","","","","","","","","","","","","","","","","",""
