"success","ttype","start_time","trial_type","trial_index","time_elapsed","internal_node_id","warning","missed_checkup","PID","stim_type","view_history","rt","responses","repeat_instructions","key_press","response","stimulus_id","painting","index","stimulus_left","stimulus_right","explain_trial","reward_type","rating_left","rating_right","painting_left","painting_right","block","left_chosen","chosen_obj","unchosen_obj","explain_response","reward_amount","see_reward_rt","register_reward_response","register_reward_rt","deliberation_reward_tally","stimulus_left_deliberation_ind","stimulus_right_deliberation_ind","chosen_trial","gain_left","higher_outcome_chosen","old_pair","chosen_object","rt_pairs","left_object_chosen","rt_object","old_response","new_rating","deliberated_stim","initial_rating","outcome_eval_rt","outcome_eval_response","outcome_eval_gain","outcome_eval_acc","preamble","outcome_eval_confidence","outcome_eval_confidence_rt","total_reward_tally"
"true","full_screen","d01192023hr2356","fullscreen","0","2678","0.0-0.0","0","0","FiwW9","Scenes","","","","","","","","","","","","","","","","","","","","","","","","","","","","","","","","","","","","","","","","","","","","","","","","",""
"","rating_instructions","","instructions","1","17046","0.0-1.0-0.0","0","0","FiwW9","Scenes","[{""page_index"":0,""viewing_time"":11651},{""page_index"":1,""viewing_time"":2711}]","14362","","","","","","","","","","","","","","","","","","","","","","","","","","","","","","","","","","","","","","","","","","","","","","",""
"","rating_comprehension_check","","survey-multi-choice","2","26228","0.0-1.0-1.0","0","0","FiwW9","Scenes","","9174","{""Q0"":""False"",""Q1"":""Mouse""}","1","","","","","","","","","","","","","","","","","","","","","","","","","","","","","","","","","","","","","","","","","","","","",""
"","missed_instruction_checkup","","html-keyboard-response","3","29284","0.0-1.0-2.0-0.0","0","1","FiwW9","Scenes","","3049","","","78","","","","","","","","","","","","","","","","","","","","","","","","","","","","","","","","","","","","","","","","","","","",""
"","rating_instructions","","instructions","4","45285","0.0-1.1-0.1","0","0","FiwW9","Scenes","[{""page_index"":0,""viewing_time"":14488},{""page_index"":1,""viewing_time"":1510}]","15998","","","","","","","","","","","","","","","","","","","","","","","","","","","","","","","","","","","","","","","","","","","","","","",""
"","rating_comprehension_check","","survey-multi-choice","5","55030","0.0-1.1-1.1","0","0","FiwW9","Scenes","","9737","{""Q0"":""True"",""Q1"":""Mouse""}","0","","","","","","","","","","","","","","","","","","","","","","","","","","","","","","","","","","","","","","","","","","","","",""
"","start_phase","","html-keyboard-response","6","60042","0.0-2.0","0","0","FiwW9","Scenes","","5005","","","78","","","","","","","","","","","","","","","","","","","","","","","","","","","","","","","","","","","","","","","","","","","",""
"","rating","","html-slider-response","7","66610","0.0-3.0","0","0","FiwW9","Scenes","","6563","","","","100","119","james-wheeler-AFC0XvICMgs-unsplash.jpg","0","","","","","","","","","","","","","","","","","","","","","","","","","","","","","","","","","","","","","","","",""
"","rating","","html-slider-response","8","70448","0.0-4.0","0","0","FiwW9","Scenes","","3831","","","","65","100","aleksandra-boguslawska-MS7KD9Ti7FQ-unsplash.jpg","1","","","","","","","","","","","","","","","","","","","","","","","","","","","","","","","","","","","","","","","",""
"","rating","","html-slider-response","9","73547","0.0-5.0","0","0","FiwW9","Scenes","","3091","","","","70","126","jordan-mcqueen-PJCZOWuOxbU-unsplash.jpg","2","","","","","","","","","","","","","","","","","","","","","","","","","","","","","","","","","","","","","","","",""
"","rating","","html-slider-response","10","76740","0.0-6.0","0","0","FiwW9","Scenes","","3184","","","","36","149","yuriy-bogdanov-W51VK3Obcj0-unsplash.jpg","3","","","","","","","","","","","","","","","","","","","","","","","","","","","","","","","","","","","","","","","",""
"","rating","","html-slider-response","11","80276","0.0-7.0","0","0","FiwW9","Scenes","","3530","","","","100","144","solotravelgoals-7kLufxYoqWk-unsplash.jpg","4","","","","","","","","","","","","","","","","","","","","","","","","","","","","","","","","","","","","","","","",""
"","rating","","html-slider-response","12","84118","0.0-8.0","0","0","FiwW9","Scenes","","3835","","","","91","128","karsten-wurth-jS0zC2PJ17A-unsplash.jpg","5","","","","","","","","","","","","","","","","","","","","","","","","","","","","","","","","","","","","","","","",""
"","rating","","html-slider-response","13","87990","0.0-9.0","0","0","FiwW9","Scenes","","3866","","","","56","121","jean-pierre-brungs-qxCqkbF7tUc-unsplash.jpg","6","","","","","","","","","","","","","","","","","","","","","","","","","","","","","","","","","","","","","","","",""
"","rating","","html-slider-response","14","94921","0.0-10.0","0","0","FiwW9","Scenes","","6925","","","","78","120","jarrett-kow-1ZOyYPOBn7I-unsplash.jpg","7","","","","","","","","","","","","","","","","","","","","","","","","","","","","","","","","","","","","","","","",""
"","rating","","html-slider-response","15","97468","0.0-11.0","0","0","FiwW9","Scenes","","2542","","","","69","124","johannes-plenio-sPt5RIjKfpk-unsplash.jpg","8","","","","","","","","","","","","","","","","","","","","","","","","","","","","","","","","","","","","","","","",""
"","rating","","html-slider-response","16","100076","0.0-12.0","0","0","FiwW9","Scenes","","2603","","","","62","117","frank-mckenna-OD9EOzfSOh0-unsplash.jpg","9","","","","","","","","","","","","","","","","","","","","","","","","","","","","","","","","","","","","","","","",""
"","rating","","html-slider-response","17","105415","0.0-13.0","0","0","FiwW9","Scenes","","5333","","","","10","118","henry-be-NLF6hTe4PAg-unsplash.jpg","10","","","","","","","","","","","","","","","","","","","","","","","","","","","","","","","","","","","","","","","",""
"","rating","","html-slider-response","18","108051","0.0-14.0","0","0","FiwW9","Scenes","","2632","","","","46","102","anisur-rahman-K2b7UDed6uQ-unsplash.jpg","11","","","","","","","","","","","","","","","","","","","","","","","","","","","","","","","","","","","","","","","",""
"","rating","","html-slider-response","19","111089","0.0-15.0","0","0","FiwW9","Scenes","","3032","","","","50","107","benjamin-davies-Zm2n2O7Fph4-unsplash.jpg","12","","","","","","","","","","","","","","","","","","","","","","","","","","","","","","","","","","","","","","","",""
"","rating","","html-slider-response","20","116349","0.0-16.0","0","0","FiwW9","Scenes","","5255","","","","72","106","ashim-d-silva-WeYamle9fDM-unsplash.jpg","13","","","","","","","","","","","","","","","","","","","","","","","","","","","","","","","","","","","","","","","",""
"","rating","","html-slider-response","21","120309","0.0-17.0","0","0","FiwW9","Scenes","","3954","","","","50","141","sebastian-unrau-v4e3JI7DDHI-unsplash.jpg","14","","","","","","","","","","","","","","","","","","","","","","","","","","","","","","","","","","","","","","","",""
"","rating","","html-slider-response","22","123883","0.0-18.0","0","0","FiwW9","Scenes","","3568","","","","31","104","artem-sapegin-XGDBdSQ70O0-unsplash.jpg","15","","","","","","","","","","","","","","","","","","","","","","","","","","","","","","","","","","","","","","","",""
"","rating","","html-slider-response","23","128315","0.0-19.0","0","0","FiwW9","Scenes","","4427","","","","86","145","stephen-leonardi-gyIRjKPXupE-unsplash.jpg","16","","","","","","","","","","","","","","","","","","","","","","","","","","","","","","","","","","","","","","","",""
"","rating","","html-slider-response","24","131905","0.0-20.0","0","0","FiwW9","Scenes","","3585","","","","97","137","olga-stalska-QaWRyEdlffY-unsplash.jpg","17","","","","","","","","","","","","","","","","","","","","","","","","","","","","","","","","","","","","","","","",""
"","rating","","html-slider-response","25","134508","0.0-21.0","0","0","FiwW9","Scenes","","2598","","","","94","101","aniket-deole-T-tOgjWZ0fQ-unsplash.jpg","18","","","","","","","","","","","","","","","","","","","","","","","","","","","","","","","","","","","","","","","",""
"","rating","","html-slider-response","26","138239","0.0-22.0","0","0","FiwW9","Scenes","","3726","","","","90","103","anton-darius-FBJugtbHsWU-unsplash.jpg","19","","","","","","","","","","","","","","","","","","","","","","","","","","","","","","","","","","","","","","","",""
"","rating","","html-slider-response","27","141911","0.0-23.0","0","0","FiwW9","Scenes","","3666","","","","100","148","tom-gainor-ZqLeQDjY6fY-unsplash.jpg","20","","","","","","","","","","","","","","","","","","","","","","","","","","","","","","","","","","","","","","","",""
"","rating","","html-slider-response","28","145507","0.0-24.0","0","0","FiwW9","Scenes","","3590","","","","29","111","claudio-testa-U3F2o6vz3bs-unsplash.jpg","21","","","","","","","","","","","","","","","","","","","","","","","","","","","","","","","","","","","","","","","",""
"","rating","","html-slider-response","29","149676","0.0-25.0","0","0","FiwW9","Scenes","","4164","","","","52","142","sergey-pesterev-y-b_FOmJXdg-unsplash.jpg","22","","","","","","","","","","","","","","","","","","","","","","","","","","","","","","","","","","","","","","","",""
"","rating","","html-slider-response","30","155123","0.0-26.0","0","0","FiwW9","Scenes","","5440","","","","56","110","bruno-van-der-kraan-qez8mNJ3ilU-unsplash.jpg","23","","","","","","","","","","","","","","","","","","","","","","","","","","","","","","","","","","","","","","","",""
"","rating","","html-slider-response","31","158808","0.0-27.0","0","0","FiwW9","Scenes","","3681","","","","72","134","milada-vigerova-pQMM63GE7fo-unsplash.jpg","24","","","","","","","","","","","","","","","","","","","","","","","","","","","","","","","","","","","","","","","",""
"","rating","","html-slider-response","32","161260","0.0-28.0","0","0","FiwW9","Scenes","","2447","","","","82","140","samuele-errico-piccarini-JEBqFu2AOOA-unsplash.jpg","25","","","","","","","","","","","","","","","","","","","","","","","","","","","","","","","","","","","","","","","",""
"","rating","","html-slider-response","33","164106","0.0-29.0","0","0","FiwW9","Scenes","","2841","","","","11","133","mickey-o-neil-xL66l--msXU-unsplash.jpg","26","","","","","","","","","","","","","","","","","","","","","","","","","","","","","","","","","","","","","","","",""
"","rating","","html-slider-response","34","167152","0.0-30.0","0","0","FiwW9","Scenes","","3040","","","","48","127","kace-rodriguez-p3OzJuT_Dks-unsplash.jpg","27","","","","","","","","","","","","","","","","","","","","","","","","","","","","","","","","","","","","","","","",""
"","rating","","html-slider-response","35","169678","0.0-31.0","0","0","FiwW9","Scenes","","2521","","","","36","146","thomas-morse-cuKKa0vWZSY-unsplash.jpg","28","","","","","","","","","","","","","","","","","","","","","","","","","","","","","","","","","","","","","","","",""
"","rating","","html-slider-response","36","173012","0.0-32.0","0","0","FiwW9","Scenes","","3329","","","","86","135","mohammad-alizade-4wzRuAb-KWs-unsplash.jpg","29","","","","","","","","","","","","","","","","","","","","","","","","","","","","","","","","","","","","","","","",""
"","rating","","html-slider-response","37","176378","0.0-33.0","0","0","FiwW9","Scenes","","3360","","","","59","131","luca-bravo-hFzIoD0F_i8-unsplash.jpg","30","","","","","","","","","","","","","","","","","","","","","","","","","","","","","","","","","","","","","","","",""
"","rating","","html-slider-response","38","179795","0.0-34.0","0","0","FiwW9","Scenes","","3411","","","","91","147","tobias-keller-73F4pKoUkM0-unsplash.jpg","31","","","","","","","","","","","","","","","","","","","","","","","","","","","","","","","","","","","","","","","",""
"","rating","","html-slider-response","39","183812","0.0-35.0","0","0","FiwW9","Scenes","","4013","","","","100","108","benjamin-voros-phIFdC6lA4E-unsplash.jpg","32","","","","","","","","","","","","","","","","","","","","","","","","","","","","","","","","","","","","","","","",""
"","rating","","html-slider-response","40","191647","0.0-36.0","0","0","FiwW9","Scenes","","7829","","","","3","122","jeff-king-bJHWJeiHfHc-unsplash.jpg","33","","","","","","","","","","","","","","","","","","","","","","","","","","","","","","","","","","","","","","","",""
"","rating","","html-slider-response","41","196910","0.0-37.0","0","0","FiwW9","Scenes","","5256","","","","80","132","meng-ji-8BH_M-53CyA-unsplash.jpg","34","","","","","","","","","","","","","","","","","","","","","","","","","","","","","","","","","","","","","","","",""
"","rating","","html-slider-response","42","199741","0.0-38.0","0","0","FiwW9","Scenes","","2825","","","","97","125","john-lee-oMneOBYhJxY-unsplash.jpg","35","","","","","","","","","","","","","","","","","","","","","","","","","","","","","","","","","","","","","","","",""
"","rating","","html-slider-response","43","203790","0.0-39.0","0","0","FiwW9","Scenes","","4041","","","","61","116","david-marcu-W5MhJ6cy1So-unsplash.jpg","36","","","","","","","","","","","","","","","","","","","","","","","","","","","","","","","","","","","","","","","",""
"","rating","","html-slider-response","44","206722","0.0-40.0","0","0","FiwW9","Scenes","","2927","","","","85","123","joel-jasmin-forestbird-efuwb5eBDrI-unsplash.jpg","37","","","","","","","","","","","","","","","","","","","","","","","","","","","","","","","","","","","","","","","",""
"","rating","","html-slider-response","45","209270","0.0-41.0","0","0","FiwW9","Scenes","","2543","","","","87","139","samsommer-vddccTqwal8-unsplash.jpg","38","","","","","","","","","","","","","","","","","","","","","","","","","","","","","","","","","","","","","","","",""
"","rating","","html-slider-response","46","212072","0.0-42.0","0","0","FiwW9","Scenes","","2797","","","","38","115","darrell-cassell-hoCXpPUMCoE-unsplash.jpg","39","","","","","","","","","","","","","","","","","","","","","","","","","","","","","","","","","","","","","","","",""
"","rating","","html-slider-response","47","214851","0.0-43.0","0","0","FiwW9","Scenes","","2773","","","","30","105","ashim-d-silva-S2Q5mdOrrVc-unsplash.jpg","40","","","","","","","","","","","","","","","","","","","","","","","","","","","","","","","","","","","","","","","",""
"","rating","","html-slider-response","48","220998","0.0-44.0","0","0","FiwW9","Scenes","","6142","","","","28","114","daniel-sessler-z_9VmsxR8hs-unsplash.jpg","41","","","","","","","","","","","","","","","","","","","","","","","","","","","","","","","","","","","","","","","",""
"","rating","","html-slider-response","49","223979","0.0-45.0","0","0","FiwW9","Scenes","","2975","","","","94","130","lina-loos-04-C1NZk1hE-unsplash.jpg","42","","","","","","","","","","","","","","","","","","","","","","","","","","","","","","","","","","","","","","","",""
"","rating","","html-slider-response","50","226452","0.0-46.0","0","0","FiwW9","Scenes","","2468","","","","85","109","brigitta-schneiter-hXXRLtTxXCU-unsplash.jpg","43","","","","","","","","","","","","","","","","","","","","","","","","","","","","","","","","","","","","","","","",""
"","rating","","html-slider-response","51","229588","0.0-47.0","0","0","FiwW9","Scenes","","3131","","","","100","112","cosmic-timetraveler-pYyOZ8q7AII-unsplash.jpg","44","","","","","","","","","","","","","","","","","","","","","","","","","","","","","","","","","","","","","","","",""
"","rating","","html-slider-response","52","232306","0.0-48.0","0","0","FiwW9","Scenes","","2713","","","","86","136","nicolas-jehly-LzVB84KkZOE-unsplash.jpg","45","","","","","","","","","","","","","","","","","","","","","","","","","","","","","","","","","","","","","","","",""
"","rating","","html-slider-response","53","236472","0.0-49.0","0","0","FiwW9","Scenes","","4162","","","","79","143","sigurdur-fjalar-jonsson-1KxBabIntpE-unsplash.jpg","46","","","","","","","","","","","","","","","","","","","","","","","","","","","","","","","","","","","","","","","",""
"","rating","","html-slider-response","54","239263","0.0-50.0","0","0","FiwW9","Scenes","","2786","","","","50","113","damian-denis-D8R_txR_0PE-unsplash.jpg","47","","","","","","","","","","","","","","","","","","","","","","","","","","","","","","","","","","","","","","","",""
"","rating","","html-slider-response","55","245287","0.0-51.0","0","0","FiwW9","Scenes","","6014","","","","66","129","kurt-cotoaga-cqbLg3lZEpk-unsplash.jpg","48","","","","","","","","","","","","","","","","","","","","","","","","","","","","","","","","","","","","","","","",""
"","rating","","html-slider-response","56","252476","0.0-52.0","0","0","FiwW9","Scenes","","7180","","","","26","138","petr-vysohlid-9fqwGqGLUxc-unsplash.jpg","49","","","","","","","","","","","","","","","","","","","","","","","","","","","","","","","","","","","","","","","",""
"","deliberation_instructions","","instructions","57","458700","0.0-53.0-0.0","0","0","FiwW9","Scenes","[{""page_index"":0,""viewing_time"":83450},{""page_index"":1,""viewing_time"":15812},{""page_index"":2,""viewing_time"":25879},{""page_index"":3,""viewing_time"":78675},{""page_index"":4,""viewing_time"":2397}]","206213","","","","","","","","","","","","","","","","","","","","","","","","","","","","","","","","","","","","","","","","","","","","","","",""
"","deliberation_comprehension_check","","survey-multi-choice","58","490266","0.0-53.0-1.0","0","0","FiwW9","Scenes","","31556","{""Q0"":""True"",""Q1"":""True"",""Q2"":""Consider carefully and take your time (up to 10 seconds)"",""Q3"":""True"",""Q4"":""D""}","0","","","","","","","","","","","","","","","","","","","","","","","","","","","","","","","","","","","","","","","","","","","","",""
"","start_phase","","html-keyboard-response","59","492327","0.0-54.0","0","0","FiwW9","Scenes","","2054","","","78","","","","","","","","","","","","","","","","","","","","","","","","","","","","","","","","","","","","","","","","","","","",""
"","first_deliberation_block","","html-keyboard-response","60","498638","0.0-55.0","0","0","FiwW9","Scenes","","6308","","","78","","","","","","","","","","","","","","","","","","","","","","","","","","","","","","","","","","","","","","","","","","","",""
"","fixation","","html-keyboard-response","61","499645","0.0-56.0-0.0","0","0","FiwW9","Scenes","","null","","","null","","","","","","","","","","","","","","","","","","","","","","","","","","","","","","","","","","","","","","","","","","","",""
"","deliberation","","html-keyboard-response","62","502508","0.0-56.0-1.0","0","0","FiwW9","Scenes","","2857","","","75","","","","0","120","107","1","1","78","50","jarrett-kow-1ZOyYPOBn7I-unsplash.jpg","benjamin-davies-Zm2n2O7Fph4-unsplash.jpg","1","0","107","120","","","","","","","","","","","","","","","","","","","","","","","","","","","",""
"","choice_confirmation","","html-keyboard-response","63","503018","0.0-56.0-2.0-0.0","0","0","FiwW9","Scenes","","null","","","null","","","","0","120","107","","","","","","","","","","","","","","","","","","","","","","","","","","","","","","","","","","","","","",""
"","explain_trial","","survey-text","64","577712","0.0-56.0-5.0-0.0","0","0","FiwW9","Scenes","","74687","{""Q0"":""Photograph could fit well in a living room.""}","","","","","","0","120","107","","","","","","","","","","","{""Q0"":""Photograph could fit well in a living room.""}","","","","","","","","","","","","","","","","","","","","","","","","","","",""
"","fixation","","html-keyboard-response","65","578722","0.0-57.0-0.0","0","0","FiwW9","Scenes","","null","","","null","","","","","","","","","","","","","","","","","","","","","","","","","","","","","","","","","","","","","","","","","","","",""
"","deliberation","","html-keyboard-response","66","586194","0.0-57.0-1.0","0","0","FiwW9","Scenes","","7466","","","75","","","","1","134","131","1","-1","72","59","milada-vigerova-pQMM63GE7fo-unsplash.jpg","luca-bravo-hFzIoD0F_i8-unsplash.jpg","1","0","131","134","","","","","","","","","","","","","","","","","","","","","","","","","","","",""
"","choice_confirmation","","html-keyboard-response","67","586703","0.0-57.0-2.0-0.0","0","0","FiwW9","Scenes","","null","","","null","","","","1","134","131","","","","","","","","","","","","","","","","","","","","","","","","","","","","","","","","","","","","","",""
"","explain_trial","","survey-text","68","634358","0.0-57.0-5.0-0.0","0","0","FiwW9","Scenes","","47650","{""Q0"":""Quality of shot is a lot better.""}","","","","","","1","134","131","","","","","","","","","","","{""Q0"":""Quality of shot is a lot better.""}","","","","","","","","","","","","","","","","","","","","","","","","","","",""
"","fixation","","html-keyboard-response","69","635370","0.0-58.0-0.0","0","0","FiwW9","Scenes","","null","","","null","","","","","","","","","","","","","","","","","","","","","","","","","","","","","","","","","","","","","","","","","","","",""
"","deliberation","","html-keyboard-response","70","641994","0.0-58.0-1.0","0","0","FiwW9","Scenes","","6618","","","75","","","","2","142","110","0","-1","52","56","sergey-pesterev-y-b_FOmJXdg-unsplash.jpg","bruno-van-der-kraan-qez8mNJ3ilU-unsplash.jpg","1","0","110","142","","","","","","","","","","","","","","","","","","","","","","","","","","","",""
"","choice_confirmation","","html-keyboard-response","71","642502","0.0-58.0-2.0-0.0","0","0","FiwW9","Scenes","","null","","","null","","","","2","142","110","","","","","","","","","","","","","","","","","","","","","","","","","","","","","","","","","","","","","",""
"","fixation","","html-keyboard-response","72","643506","0.0-59.0-0.0","0","0","FiwW9","Scenes","","null","","","null","","","","","","","","","","","","","","","","","","","","","","","","","","","","","","","","","","","","","","","","","","","",""
"","deliberation","","html-keyboard-response","73","649890","0.0-59.0-1.0","0","0","FiwW9","Scenes","","6379","","","75","","","","3","132","113","0","1","80","50","meng-ji-8BH_M-53CyA-unsplash.jpg","damian-denis-D8R_txR_0PE-unsplash.jpg","1","0","113","132","","","","","","","","","","","","","","","","","","","","","","","","","","","",""
"","choice_confirmation","","html-keyboard-response","74","650400","0.0-59.0-2.0-0.0","0","0","FiwW9","Scenes","","null","","","null","","","","3","132","113","","","","","","","","","","","","","","","","","","","","","","","","","","","","","","","","","","","","","",""
"","fixation","","html-keyboard-response","75","651410","0.0-60.0-0.0","0","0","FiwW9","Scenes","","null","","","null","","","","","","","","","","","","","","","","","","","","","","","","","","","","","","","","","","","","","","","","","","","",""
"","deliberation","","html-keyboard-response","76","657626","0.0-60.0-1.0","0","0","FiwW9","Scenes","","6210","","","68","","","","4","121","126","1","-1","56","70","jean-pierre-brungs-qxCqkbF7tUc-unsplash.jpg","jordan-mcqueen-PJCZOWuOxbU-unsplash.jpg","1","1","121","126","","","","","","","","","","","","","","","","","","","","","","","","","","","",""
"","choice_confirmation","","html-keyboard-response","77","658136","0.0-60.0-2.0-0.0","0","0","FiwW9","Scenes","","null","","","null","","","","4","121","126","","","","","","","","","","","","","","","","","","","","","","","","","","","","","","","","","","","","","",""
"","explain_trial","","survey-text","78","699083","0.0-60.0-5.0-0.0","0","0","FiwW9","Scenes","","40944","{""Q0"":""Open field and centered mountain is a clear shot compared to grass cutting in front of sun.""}","","","","","","4","121","126","","","","","","","","","","","{""Q0"":""Open field and centered mountain is a clear shot compared to grass cutting in front of sun.""}","","","","","","","","","","","","","","","","","","","","","","","","","","",""
"","fixation","","html-keyboard-response","79","700094","0.0-61.0-0.0","0","0","FiwW9","Scenes","","null","","","null","","","","","","","","","","","","","","","","","","","","","","","","","","","","","","","","","","","","","","","","","","","",""
"","deliberation","","html-keyboard-response","80","703872","0.0-61.0-1.0","0","0","FiwW9","Scenes","","3774","","","75","","","","5","129","145","0","-1","66","86","kurt-cotoaga-cqbLg3lZEpk-unsplash.jpg","stephen-leonardi-gyIRjKPXupE-unsplash.jpg","1","0","145","129","","","","","","","","","","","","","","","","","","","","","","","","","","","",""
"","choice_confirmation","","html-keyboard-response","81","704383","0.0-61.0-2.0-0.0","0","0","FiwW9","Scenes","","null","","","null","","","","5","129","145","","","","","","","","","","","","","","","","","","","","","","","","","","","","","","","","","","","","","",""
"","fixation","","html-keyboard-response","82","705391","0.0-62.0-0.0","0","0","FiwW9","Scenes","","null","","","null","","","","","","","","","","","","","","","","","","","","","","","","","","","","","","","","","","","","","","","","","","","",""
"","deliberation","","html-keyboard-response","83","707633","0.0-62.0-1.0","0","0","FiwW9","Scenes","","2236","","","75","","","","6","109","124","1","1","85","69","brigitta-schneiter-hXXRLtTxXCU-unsplash.jpg","johannes-plenio-sPt5RIjKfpk-unsplash.jpg","1","0","124","109","","","","","","","","","","","","","","","","","","","","","","","","","","","",""
"","choice_confirmation","","html-keyboard-response","84","708138","0.0-62.0-2.0-0.0","0","0","FiwW9","Scenes","","null","","","null","","","","6","109","124","","","","","","","","","","","","","","","","","","","","","","","","","","","","","","","","","","","","","",""
"","explain_trial","","survey-text","85","749634","0.0-62.0-5.0-0.0","0","0","FiwW9","Scenes","","41491","{""Q0"":""Great shot with different colors and dim sun grabs the viewers attention.""}","","","","","","6","109","124","","","","","","","","","","","{""Q0"":""Great shot with different colors and dim sun grabs the viewers attention.""}","","","","","","","","","","","","","","","","","","","","","","","","","","",""
"","fixation","","html-keyboard-response","86","750643","0.0-63.0-0.0","0","0","FiwW9","Scenes","","null","","","null","","","","","","","","","","","","","","","","","","","","","","","","","","","","","","","","","","","","","","","","","","","",""
"","deliberation","","html-keyboard-response","87","754282","0.0-63.0-1.0","0","0","FiwW9","Scenes","","3633","","","68","","","","7","117","141","0","1","62","50","frank-mckenna-OD9EOzfSOh0-unsplash.jpg","sebastian-unrau-v4e3JI7DDHI-unsplash.jpg","1","1","117","141","","","","","","","","","","","","","","","","","","","","","","","","","","","",""
"","choice_confirmation","","html-keyboard-response","88","754793","0.0-63.0-2.0-0.0","0","0","FiwW9","Scenes","","null","","","null","","","","7","117","141","","","","","","","","","","","","","","","","","","","","","","","","","","","","","","","","","","","","","",""
"","fixation","","html-keyboard-response","89","755802","0.0-64.0-0.0","0","0","FiwW9","Scenes","","null","","","null","","","","","","","","","","","","","","","","","","","","","","","","","","","","","","","","","","","","","","","","","","","",""
"","deliberation","","html-keyboard-response","90","759843","0.0-64.0-1.0","0","0","FiwW9","Scenes","","4035","","","68","","","","8","140","136","1","1","82","86","samuele-errico-piccarini-JEBqFu2AOOA-unsplash.jpg","nicolas-jehly-LzVB84KkZOE-unsplash.jpg","1","1","140","136","","","","","","","","","","","","","","","","","","","","","","","","","","","",""
"","choice_confirmation","","html-keyboard-response","91","760353","0.0-64.0-2.0-0.0","0","0","FiwW9","Scenes","","null","","","null","","","","8","140","136","","","","","","","","","","","","","","","","","","","","","","","","","","","","","","","","","","","","","",""
"","explain_trial","","survey-text","92","792440","0.0-64.0-5.0-0.0","0","0","FiwW9","Scenes","","32082","{""Q0"":""Mountain range and setting would sell more than desert shot.""}","","","","","","8","140","136","","","","","","","","","","","{""Q0"":""Mountain range and setting would sell more than desert shot.""}","","","","","","","","","","","","","","","","","","","","","","","","","","",""
"","fixation","","html-keyboard-response","93","793447","0.0-65.0-0.0","0","0","FiwW9","Scenes","","null","","","null","","","","","","","","","","","","","","","","","","","","","","","","","","","","","","","","","","","","","","","","","","","",""
"","deliberation","","html-keyboard-response","94","796163","0.0-65.0-1.0","0","0","FiwW9","Scenes","","2710","","","68","","","","9","135","123","1","-1","86","85","mohammad-alizade-4wzRuAb-KWs-unsplash.jpg","joel-jasmin-forestbird-efuwb5eBDrI-unsplash.jpg","1","1","135","123","","","","","","","","","","","","","","","","","","","","","","","","","","","",""
"","choice_confirmation","","html-keyboard-response","95","796672","0.0-65.0-2.0-0.0","0","0","FiwW9","Scenes","","null","","","null","","","","9","135","123","","","","","","","","","","","","","","","","","","","","","","","","","","","","","","","","","","","","","",""
"","explain_trial","","survey-text","96","819889","0.0-65.0-5.0-0.0","0","0","FiwW9","Scenes","","23213","{""Q0"":""Clear vastness of space over a sunset is a beautiful shot.""}","","","","","","9","135","123","","","","","","","","","","","{""Q0"":""Clear vastness of space over a sunset is a beautiful shot.""}","","","","","","","","","","","","","","","","","","","","","","","","","","",""
"","fixation","","html-keyboard-response","97","820898","0.0-66.0-0.0","0","0","FiwW9","Scenes","","null","","","null","","","","","","","","","","","","","","","","","","","","","","","","","","","","","","","","","","","","","","","","","","","",""
"","deliberation","","html-keyboard-response","98","824906","0.0-66.0-1.0","0","0","FiwW9","Scenes","","4004","","","68","","","","10","106","143","0","1","72","79","ashim-d-silva-WeYamle9fDM-unsplash.jpg","sigurdur-fjalar-jonsson-1KxBabIntpE-unsplash.jpg","1","1","106","143","","","","","","","","","","","","","","","","","","","","","","","","","","","",""
"","choice_confirmation","","html-keyboard-response","99","825415","0.0-66.0-2.0-0.0","0","0","FiwW9","Scenes","","null","","","null","","","","10","106","143","","","","","","","","","","","","","","","","","","","","","","","","","","","","","","","","","","","","","",""
"","fixation","","html-keyboard-response","100","826425","0.0-67.0-0.0","0","0","FiwW9","Scenes","","null","","","null","","","","","","","","","","","","","","","","","","","","","","","","","","","","","","","","","","","","","","","","","","","",""
"","deliberation","","html-keyboard-response","101","829154","0.0-67.0-1.0","0","0","FiwW9","Scenes","","2723","","","75","","","","11","116","100","0","-1","61","65","david-marcu-W5MhJ6cy1So-unsplash.jpg","aleksandra-boguslawska-MS7KD9Ti7FQ-unsplash.jpg","1","0","100","116","","","","","","","","","","","","","","","","","","","","","","","","","","","",""
"","choice_confirmation","","html-keyboard-response","102","829662","0.0-67.0-2.0-0.0","0","0","FiwW9","Scenes","","null","","","null","","","","11","116","100","","","","","","","","","","","","","","","","","","","","","","","","","","","","","","","","","","","","","",""
"","practice_deliberation_again","","html-keyboard-response","103","834120","0.0-67.0-6.0-0.0","0","0","FiwW9","Scenes","","4454","","","78","","","","","","","","","","","","","","","","","","","","","","","","","","","","","","","","","","","","","","","","","","","",""
"","fixation","","html-keyboard-response","104","835127","0.0-68.0-0.0","0","0","FiwW9","Scenes","","null","","","null","","","","","","","","","","","","","","","","","","","","","","","","","","","","","","","","","","","","","","","","","","","",""
"","deliberation","","html-keyboard-response","105","838722","0.0-68.0-1.0","0","0","FiwW9","Scenes","","3590","","","75","","","","12","120","107","0","1","78","50","jarrett-kow-1ZOyYPOBn7I-unsplash.jpg","benjamin-davies-Zm2n2O7Fph4-unsplash.jpg","2","0","107","120","","","","","","","","","","","","","","","","","","","","","","","","","","","",""
"","choice_confirmation","","html-keyboard-response","106","839232","0.0-68.0-2.0-0.0","0","0","FiwW9","Scenes","","null","","","null","","","","12","120","107","","","","","","","","","","","","","","","","","","","","","","","","","","","","","","","","","","","","","",""
"","fixation","","html-keyboard-response","107","840237","0.0-69.0-0.0","0","0","FiwW9","Scenes","","null","","","null","","","","","","","","","","","","","","","","","","","","","","","","","","","","","","","","","","","","","","","","","","","",""
"","deliberation","","html-keyboard-response","108","843553","0.0-69.0-1.0","0","0","FiwW9","Scenes","","3312","","","68","","","","13","121","126","0","-1","56","70","jean-pierre-brungs-qxCqkbF7tUc-unsplash.jpg","jordan-mcqueen-PJCZOWuOxbU-unsplash.jpg","2","1","121","126","","","","","","","","","","","","","","","","","","","","","","","","","","","",""
"","choice_confirmation","","html-keyboard-response","109","844061","0.0-69.0-2.0-0.0","0","0","FiwW9","Scenes","","null","","","null","","","","13","121","126","","","","","","","","","","","","","","","","","","","","","","","","","","","","","","","","","","","","","",""
"","fixation","","html-keyboard-response","110","845071","0.0-70.0-0.0","0","0","FiwW9","Scenes","","null","","","null","","","","","","","","","","","","","","","","","","","","","","","","","","","","","","","","","","","","","","","","","","","",""
"","deliberation","","html-keyboard-response","111","846345","0.0-70.0-1.0","0","0","FiwW9","Scenes","","1268","","","75","","","","14","116","100","1","-1","61","65","david-marcu-W5MhJ6cy1So-unsplash.jpg","aleksandra-boguslawska-MS7KD9Ti7FQ-unsplash.jpg","2","0","100","116","","","","","","","","","","","","","","","","","","","","","","","","","","","",""
"","choice_confirmation","","html-keyboard-response","112","846851","0.0-70.0-2.0-0.0","0","0","FiwW9","Scenes","","null","","","null","","","","14","116","100","","","","","","","","","","","","","","","","","","","","","","","","","","","","","","","","","","","","","",""
"","explain_trial","","survey-text","113","868047","0.0-70.0-5.0-0.0","0","0","FiwW9","Scenes","","21192","{""Q0"":""Viewer could feel as if they are walking on the boardwalk to the beach.""}","","","","","","14","116","100","","","","","","","","","","","{""Q0"":""Viewer could feel as if they are walking on the boardwalk to the beach.""}","","","","","","","","","","","","","","","","","","","","","","","","","","",""
"","fixation","","html-keyboard-response","114","869056","0.0-71.0-0.0","0","0","FiwW9","Scenes","","null","","","null","","","","","","","","","","","","","","","","","","","","","","","","","","","","","","","","","","","","","","","","","","","",""
"","deliberation","","html-keyboard-response","115","871609","0.0-71.0-1.0","0","0","FiwW9","Scenes","","2548","","","68","","","","15","140","136","0","1","82","86","samuele-errico-piccarini-JEBqFu2AOOA-unsplash.jpg","nicolas-jehly-LzVB84KkZOE-unsplash.jpg","2","1","140","136","","","","","","","","","","","","","","","","","","","","","","","","","","","",""
"","choice_confirmation","","html-keyboard-response","116","872117","0.0-71.0-2.0-0.0","0","0","FiwW9","Scenes","","null","","","null","","","","15","140","136","","","","","","","","","","","","","","","","","","","","","","","","","","","","","","","","","","","","","",""
"","fixation","","html-keyboard-response","117","873127","0.0-72.0-0.0","0","0","FiwW9","Scenes","","null","","","null","","","","","","","","","","","","","","","","","","","","","","","","","","","","","","","","","","","","","","","","","","","",""
"","deliberation","","html-keyboard-response","118","875865","0.0-72.0-1.0","0","0","FiwW9","Scenes","","2734","","","75","","","","16","134","131","0","-1","72","59","milada-vigerova-pQMM63GE7fo-unsplash.jpg","luca-bravo-hFzIoD0F_i8-unsplash.jpg","2","0","131","134","","","","","","","","","","","","","","","","","","","","","","","","","","","",""
"","choice_confirmation","","html-keyboard-response","119","876375","0.0-72.0-2.0-0.0","0","0","FiwW9","Scenes","","null","","","null","","","","16","134","131","","","","","","","","","","","","","","","","","","","","","","","","","","","","","","","","","","","","","",""
"","fixation","","html-keyboard-response","120","877381","0.0-73.0-0.0","0","0","FiwW9","Scenes","","null","","","null","","","","","","","","","","","","","","","","","","","","","","","","","","","","","","","","","","","","","","","","","","","",""
"","deliberation","","html-keyboard-response","121","878569","0.0-73.0-1.0","0","0","FiwW9","Scenes","","1183","","","68","","","","17","117","141","1","1","62","50","frank-mckenna-OD9EOzfSOh0-unsplash.jpg","sebastian-unrau-v4e3JI7DDHI-unsplash.jpg","2","1","117","141","","","","","","","","","","","","","","","","","","","","","","","","","","","",""
"","choice_confirmation","","html-keyboard-response","122","879079","0.0-73.0-2.0-0.0","0","0","FiwW9","Scenes","","null","","","null","","","","17","117","141","","","","","","","","","","","","","","","","","","","","","","","","","","","","","","","","","","","","","",""
"","explain_trial","","survey-text","123","913988","0.0-73.0-5.0-0.0","0","0","FiwW9","Scenes","","34904","{""Q0"":""Beautiful shot with movement of seagulls above ocean. ""}","","","","","","17","117","141","","","","","","","","","","","{""Q0"":""Beautiful shot with movement of seagulls above ocean. ""}","","","","","","","","","","","","","","","","","","","","","","","","","","",""
"","fixation","","html-keyboard-response","124","914995","0.0-74.0-0.0","0","0","FiwW9","Scenes","","null","","","null","","","","","","","","","","","","","","","","","","","","","","","","","","","","","","","","","","","","","","","","","","","",""
"","deliberation","","html-keyboard-response","125","917760","0.0-74.0-1.0","0","0","FiwW9","Scenes","","2760","","","75","","","","18","142","110","1","-1","52","56","sergey-pesterev-y-b_FOmJXdg-unsplash.jpg","bruno-van-der-kraan-qez8mNJ3ilU-unsplash.jpg","2","0","110","142","","","","","","","","","","","","","","","","","","","","","","","","","","","",""
"","choice_confirmation","","html-keyboard-response","126","918270","0.0-74.0-2.0-0.0","0","0","FiwW9","Scenes","","null","","","null","","","","18","142","110","","","","","","","","","","","","","","","","","","","","","","","","","","","","","","","","","","","","","",""
"","explain_trial","","survey-text","127","966295","0.0-74.0-5.0-0.0","0","0","FiwW9","Scenes","","48022","{""Q0"":""Center point is the entire photo as to a centered rock.""}","","","","","","18","142","110","","","","","","","","","","","{""Q0"":""Center point is the entire photo as to a centered rock.""}","","","","","","","","","","","","","","","","","","","","","","","","","","",""
"","fixation","","html-keyboard-response","128","967305","0.0-75.0-0.0","0","0","FiwW9","Scenes","","null","","","null","","","","","","","","","","","","","","","","","","","","","","","","","","","","","","","","","","","","","","","","","","","",""
"","deliberation","","html-keyboard-response","129","969687","0.0-75.0-1.0","0","0","FiwW9","Scenes","","2378","","","68","","","","19","135","123","0","-1","86","85","mohammad-alizade-4wzRuAb-KWs-unsplash.jpg","joel-jasmin-forestbird-efuwb5eBDrI-unsplash.jpg","2","1","135","123","","","","","","","","","","","","","","","","","","","","","","","","","","","",""
"","choice_confirmation","","html-keyboard-response","130","970198","0.0-75.0-2.0-0.0","0","0","FiwW9","Scenes","","null","","","null","","","","19","135","123","","","","","","","","","","","","","","","","","","","","","","","","","","","","","","","","","","","","","",""
"","fixation","","html-keyboard-response","131","971207","0.0-76.0-0.0","0","0","FiwW9","Scenes","","null","","","null","","","","","","","","","","","","","","","","","","","","","","","","","","","","","","","","","","","","","","","","","","","",""
"","deliberation","","html-keyboard-response","132","974823","0.0-76.0-1.0","0","0","FiwW9","Scenes","","3611","","","75","","","","20","132","113","1","1","80","50","meng-ji-8BH_M-53CyA-unsplash.jpg","damian-denis-D8R_txR_0PE-unsplash.jpg","2","0","113","132","","","","","","","","","","","","","","","","","","","","","","","","","","","",""
"","choice_confirmation","","html-keyboard-response","133","975334","0.0-76.0-2.0-0.0","0","0","FiwW9","Scenes","","null","","","null","","","","20","132","113","","","","","","","","","","","","","","","","","","","","","","","","","","","","","","","","","","","","","",""
"","explain_trial","","survey-text","134","997624","0.0-76.0-5.0-0.0","0","0","FiwW9","Scenes","","22284","{""Q0"":""Cool shot that's easy to catch attention ""}","","","","","","20","132","113","","","","","","","","","","","{""Q0"":""Cool shot that's easy to catch attention ""}","","","","","","","","","","","","","","","","","","","","","","","","","","",""
"","fixation","","html-keyboard-response","135","998634","0.0-77.0-0.0","0","0","FiwW9","Scenes","","null","","","null","","","","","","","","","","","","","","","","","","","","","","","","","","","","","","","","","","","","","","","","","","","",""
"","deliberation","","html-keyboard-response","136","999910","0.0-77.0-1.0","0","0","FiwW9","Scenes","","1271","","","75","","","","21","129","145","1","-1","66","86","kurt-cotoaga-cqbLg3lZEpk-unsplash.jpg","stephen-leonardi-gyIRjKPXupE-unsplash.jpg","2","0","145","129","","","","","","","","","","","","","","","","","","","","","","","","","","","",""
"","choice_confirmation","","html-keyboard-response","137","1000420","0.0-77.0-2.0-0.0","0","0","FiwW9","Scenes","","null","","","null","","","","21","129","145","","","","","","","","","","","","","","","","","","","","","","","","","","","","","","","","","","","","","",""
"","explain_trial","","survey-text","138","1021439","0.0-77.0-5.0-0.0","0","0","FiwW9","Scenes","","21015","{""Q0"":""Archway of trees that could grab the viewer into the road.""}","","","","","","21","129","145","","","","","","","","","","","{""Q0"":""Archway of trees that could grab the viewer into the road.""}","","","","","","","","","","","","","","","","","","","","","","","","","","",""
"","fixation","","html-keyboard-response","139","1022448","0.0-78.0-0.0","0","0","FiwW9","Scenes","","null","","","null","","","","","","","","","","","","","","","","","","","","","","","","","","","","","","","","","","","","","","","","","","","",""
"","deliberation","","html-keyboard-response","140","1024599","0.0-78.0-1.0","0","0","FiwW9","Scenes","","2145","","","75","","","","22","109","124","0","1","85","69","brigitta-schneiter-hXXRLtTxXCU-unsplash.jpg","johannes-plenio-sPt5RIjKfpk-unsplash.jpg","2","0","124","109","","","","","","","","","","","","","","","","","","","","","","","","","","","",""
"","choice_confirmation","","html-keyboard-response","141","1025109","0.0-78.0-2.0-0.0","0","0","FiwW9","Scenes","","null","","","null","","","","22","109","124","","","","","","","","","","","","","","","","","","","","","","","","","","","","","","","","","","","","","",""
"","fixation","","html-keyboard-response","142","1026117","0.0-79.0-0.0","0","0","FiwW9","Scenes","","null","","","null","","","","","","","","","","","","","","","","","","","","","","","","","","","","","","","","","","","","","","","","","","","",""
"","deliberation","","html-keyboard-response","143","1027998","0.0-79.0-1.0","0","0","FiwW9","Scenes","","1877","","","68","","","","23","106","143","1","1","72","79","ashim-d-silva-WeYamle9fDM-unsplash.jpg","sigurdur-fjalar-jonsson-1KxBabIntpE-unsplash.jpg","2","1","106","143","","","","","","","","","","","","","","","","","","","","","","","","","","","",""
"","choice_confirmation","","html-keyboard-response","144","1028508","0.0-79.0-2.0-0.0","0","0","FiwW9","Scenes","","null","","","null","","","","23","106","143","","","","","","","","","","","","","","","","","","","","","","","","","","","","","","","","","","","","","",""
"","explain_trial","","survey-text","145","1056014","0.0-79.0-5.0-0.0","0","0","FiwW9","Scenes","","27501","{""Q0"":""Unique shot that shows an artistic view of canyons.""}","","","","","","23","106","143","","","","","","","","","","","{""Q0"":""Unique shot that shows an artistic view of canyons.""}","","","","","","","","","","","","","","","","","","","","","","","","","","",""
"","start_critical_deliberation_block","","html-keyboard-response","146","1059358","0.0-79.0-7.0-0.0","0","0","FiwW9","Scenes","","3338","","","78","","","","","","","","","","","","","","","","","","","","","","","","","","","","","","","","","","","","","","","","","","","",""
"","fixation","","html-keyboard-response","147","1060365","0.0-80.0-0.0","0","0","FiwW9","Scenes","","null","","","null","","","","","","","","","","","","","","","","","","","","","","","","","","","","","","","","","","","","","","","","","","","",""
"","deliberation","","html-keyboard-response","148","1063510","0.0-80.0-1.0","0","0","FiwW9","Scenes","","3139","","","68","","","","24","135","123","0","-1","86","85","mohammad-alizade-4wzRuAb-KWs-unsplash.jpg","joel-jasmin-forestbird-efuwb5eBDrI-unsplash.jpg","3","1","135","123","","","","","","","","","","","","","","","","","","","","","","","","","","","",""
"","choice_confirmation","","html-keyboard-response","149","1064016","0.0-80.0-2.0-0.0","0","0","FiwW9","Scenes","","null","","","null","","","","24","135","123","","","","","","","","","","","","","","","","","","","","","","","","","","","","","","","","","","","","","",""
"","fixation","","html-keyboard-response","150","1065025","0.0-81.0-0.0","0","0","FiwW9","Scenes","","null","","","null","","","","","","","","","","","","","","","","","","","","","","","","","","","","","","","","","","","","","","","","","","","",""
"","deliberation","","html-keyboard-response","151","1066414","0.0-81.0-1.0","0","0","FiwW9","Scenes","","1384","","","68","","","","25","117","141","0","1","62","50","frank-mckenna-OD9EOzfSOh0-unsplash.jpg","sebastian-unrau-v4e3JI7DDHI-unsplash.jpg","3","1","117","141","","","","","","","","","","","","","","","","","","","","","","","","","","","",""
"","choice_confirmation","","html-keyboard-response","152","1066919","0.0-81.0-2.0-0.0","0","0","FiwW9","Scenes","","null","","","null","","","","25","117","141","","","","","","","","","","","","","","","","","","","","","","","","","","","","","","","","","","","","","",""
"","fixation","","html-keyboard-response","153","1067928","0.0-82.0-0.0","0","0","FiwW9","Scenes","","null","","","null","","","","","","","","","","","","","","","","","","","","","","","","","","","","","","","","","","","","","","","","","","","",""
"","deliberation","","html-keyboard-response","154","1068925","0.0-82.0-1.0","0","0","FiwW9","Scenes","","991","","","68","","","","26","106","143","0","1","72","79","ashim-d-silva-WeYamle9fDM-unsplash.jpg","sigurdur-fjalar-jonsson-1KxBabIntpE-unsplash.jpg","3","1","106","143","","","","","","","","","","","","","","","","","","","","","","","","","","","",""
"","choice_confirmation","","html-keyboard-response","155","1069433","0.0-82.0-2.0-0.0","0","0","FiwW9","Scenes","","null","","","null","","","","26","106","143","","","","","","","","","","","","","","","","","","","","","","","","","","","","","","","","","","","","","",""
"","fixation","","html-keyboard-response","156","1070443","0.0-83.0-0.0","0","0","FiwW9","Scenes","","null","","","null","","","","","","","","","","","","","","","","","","","","","","","","","","","","","","","","","","","","","","","","","","","",""
"","deliberation","","html-keyboard-response","157","1071565","0.0-83.0-1.0","0","0","FiwW9","Scenes","","1117","","","75","","","","27","142","110","0","-1","52","56","sergey-pesterev-y-b_FOmJXdg-unsplash.jpg","bruno-van-der-kraan-qez8mNJ3ilU-unsplash.jpg","3","0","110","142","","","","","","","","","","","","","","","","","","","","","","","","","","","",""
"","choice_confirmation","","html-keyboard-response","158","1072076","0.0-83.0-2.0-0.0","0","0","FiwW9","Scenes","","null","","","null","","","","27","142","110","","","","","","","","","","","","","","","","","","","","","","","","","","","","","","","","","","","","","",""
"","fixation","","html-keyboard-response","159","1073086","0.0-84.0-0.0","0","0","FiwW9","Scenes","","null","","","null","","","","","","","","","","","","","","","","","","","","","","","","","","","","","","","","","","","","","","","","","","","",""
"","deliberation","","html-keyboard-response","160","1074085","0.0-84.0-1.0","0","0","FiwW9","Scenes","","993","","","68","","","","28","121","126","0","-1","56","70","jean-pierre-brungs-qxCqkbF7tUc-unsplash.jpg","jordan-mcqueen-PJCZOWuOxbU-unsplash.jpg","3","1","121","126","","","","","","","","","","","","","","","","","","","","","","","","","","","",""
"","choice_confirmation","","html-keyboard-response","161","1074596","0.0-84.0-2.0-0.0","0","0","FiwW9","Scenes","","null","","","null","","","","28","121","126","","","","","","","","","","","","","","","","","","","","","","","","","","","","","","","","","","","","","",""
"","fixation","","html-keyboard-response","162","1075603","0.0-85.0-0.0","0","0","FiwW9","Scenes","","null","","","null","","","","","","","","","","","","","","","","","","","","","","","","","","","","","","","","","","","","","","","","","","","",""
"","deliberation","","html-keyboard-response","163","1076742","0.0-85.0-1.0","0","0","FiwW9","Scenes","","1134","","","75","","","","29","129","145","0","-1","66","86","kurt-cotoaga-cqbLg3lZEpk-unsplash.jpg","stephen-leonardi-gyIRjKPXupE-unsplash.jpg","3","0","145","129","","","","","","","","","","","","","","","","","","","","","","","","","","","",""
"","choice_confirmation","","html-keyboard-response","164","1077251","0.0-85.0-2.0-0.0","0","0","FiwW9","Scenes","","null","","","null","","","","29","129","145","","","","","","","","","","","","","","","","","","","","","","","","","","","","","","","","","","","","","",""
"","fixation","","html-keyboard-response","165","1078256","0.0-86.0-0.0","0","0","FiwW9","Scenes","","null","","","null","","","","","","","","","","","","","","","","","","","","","","","","","","","","","","","","","","","","","","","","","","","",""
"","deliberation","","html-keyboard-response","166","1079278","0.0-86.0-1.0","0","0","FiwW9","Scenes","","1016","","","68","","","","30","140","136","0","1","82","86","samuele-errico-piccarini-JEBqFu2AOOA-unsplash.jpg","nicolas-jehly-LzVB84KkZOE-unsplash.jpg","3","1","140","136","","","","","","","","","","","","","","","","","","","","","","","","","","","",""
"","choice_confirmation","","html-keyboard-response","167","1079788","0.0-86.0-2.0-0.0","0","0","FiwW9","Scenes","","null","","","null","","","","30","140","136","","","","","","","","","","","","","","","","","","","","","","","","","","","","","","","","","","","","","",""
"","fixation","","html-keyboard-response","168","1080794","0.0-87.0-0.0","0","0","FiwW9","Scenes","","null","","","null","","","","","","","","","","","","","","","","","","","","","","","","","","","","","","","","","","","","","","","","","","","",""
"","deliberation","","html-keyboard-response","169","1081782","0.0-87.0-1.0","0","0","FiwW9","Scenes","","984","","","75","","","","31","132","113","0","1","80","50","meng-ji-8BH_M-53CyA-unsplash.jpg","damian-denis-D8R_txR_0PE-unsplash.jpg","3","0","113","132","","","","","","","","","","","","","","","","","","","","","","","","","","","",""
"","choice_confirmation","","html-keyboard-response","170","1082287","0.0-87.0-2.0-0.0","0","0","FiwW9","Scenes","","null","","","null","","","","31","132","113","","","","","","","","","","","","","","","","","","","","","","","","","","","","","","","","","","","","","",""
"","fixation","","html-keyboard-response","171","1083297","0.0-88.0-0.0","0","0","FiwW9","Scenes","","null","","","null","","","","","","","","","","","","","","","","","","","","","","","","","","","","","","","","","","","","","","","","","","","",""
"","deliberation","","html-keyboard-response","172","1084549","0.0-88.0-1.0","0","0","FiwW9","Scenes","","1248","","","75","","","","32","109","124","0","1","85","69","brigitta-schneiter-hXXRLtTxXCU-unsplash.jpg","johannes-plenio-sPt5RIjKfpk-unsplash.jpg","3","0","124","109","","","","","","","","","","","","","","","","","","","","","","","","","","","",""
"","choice_confirmation","","html-keyboard-response","173","1085060","0.0-88.0-2.0-0.0","0","0","FiwW9","Scenes","","null","","","null","","","","32","109","124","","","","","","","","","","","","","","","","","","","","","","","","","","","","","","","","","","","","","",""
"","fixation","","html-keyboard-response","174","1086070","0.0-89.0-0.0","0","0","FiwW9","Scenes","","null","","","null","","","","","","","","","","","","","","","","","","","","","","","","","","","","","","","","","","","","","","","","","","","",""
"","deliberation","","html-keyboard-response","175","1088581","0.0-89.0-1.0","0","0","FiwW9","Scenes","","2506","","","75","","","","33","120","107","0","1","78","50","jarrett-kow-1ZOyYPOBn7I-unsplash.jpg","benjamin-davies-Zm2n2O7Fph4-unsplash.jpg","3","0","107","120","","","","","","","","","","","","","","","","","","","","","","","","","","","",""
"","choice_confirmation","","html-keyboard-response","176","1089088","0.0-89.0-2.0-0.0","0","0","FiwW9","Scenes","","null","","","null","","","","33","120","107","","","","","","","","","","","","","","","","","","","","","","","","","","","","","","","","","","","","","",""
"","fixation","","html-keyboard-response","177","1090098","0.0-90.0-0.0","0","0","FiwW9","Scenes","","null","","","null","","","","","","","","","","","","","","","","","","","","","","","","","","","","","","","","","","","","","","","","","","","",""
"","deliberation","","html-keyboard-response","178","1091541","0.0-90.0-1.0","0","0","FiwW9","Scenes","","1438","","","75","","","","34","134","131","0","-1","72","59","milada-vigerova-pQMM63GE7fo-unsplash.jpg","luca-bravo-hFzIoD0F_i8-unsplash.jpg","3","0","131","134","","","","","","","","","","","","","","","","","","","","","","","","","","","",""
"","choice_confirmation","","html-keyboard-response","179","1092051","0.0-90.0-2.0-0.0","0","0","FiwW9","Scenes","","null","","","null","","","","34","134","131","","","","","","","","","","","","","","","","","","","","","","","","","","","","","","","","","","","","","",""
"","fixation","","html-keyboard-response","180","1093061","0.0-91.0-0.0","0","0","FiwW9","Scenes","","null","","","null","","","","","","","","","","","","","","","","","","","","","","","","","","","","","","","","","","","","","","","","","","","",""
"","deliberation","","html-keyboard-response","181","1093894","0.0-91.0-1.0","0","0","FiwW9","Scenes","","827","","","75","","","","35","116","100","0","-1","61","65","david-marcu-W5MhJ6cy1So-unsplash.jpg","aleksandra-boguslawska-MS7KD9Ti7FQ-unsplash.jpg","3","0","100","116","","","","","","","","","","","","","","","","","","","","","","","","","","","",""
"","choice_confirmation","","html-keyboard-response","182","1094414","0.0-91.0-2.0-0.0","0","0","FiwW9","Scenes","","null","","","null","","","","35","116","100","","","","","","","","","","","","","","","","","","","","","","","","","","","","","","","","","","","","","",""
"","reward_learning_instructions","","instructions","183","1140917","0.0-92.0-0.0","0","0","FiwW9","Scenes","[{""page_index"":0,""viewing_time"":14788},{""page_index"":1,""viewing_time"":30509},{""page_index"":2,""viewing_time"":1201}]","46498","","","","","","","","","","","","","","","","","","","","","","","","","","","","","","","","","","","","","","","","","","","","","","",""
"","reward_comprehension_check","","survey-multi-choice","184","1156280","0.0-92.0-1.0","0","0","FiwW9","Scenes","","15355","{""Q0"":""True"",""Q1"":""True"",""Q2"":""Press the space bar to see its outcome"",""Q3"":""Press the relevant key while the outcome is presented""}","0","","","","","","","","","","","","","","","","","","","","","","","","","","","","","","","","","","","","","","","","","","","","",""
"","start_phase","","html-keyboard-response","185","1158303","0.0-93.0","0","0","FiwW9","Scenes","","2018","","","78","","","","","","","","","","","","","","","","","","","","","","","","","","","","","","","","","","","","","","","","","","","",""
"","fixation","","html-keyboard-response","186","1159313","0.0-94.0","0","0","FiwW9","Scenes","","null","","","null","","","","","","","","","","","","","","","","","","","","","","","","","","","","","","","","","","","","","","","","","","","",""
"","see_reward","","html-keyboard-response","187","1161488","0.0-95.0","0","0","FiwW9","Scenes","","2170","","","32","","107","","0","","","","1","","","","","1","","","","","146","2170","","","","","","","","","","","","","","","","","","","","","","","","",""
"","reward_outcome","","html-keyboard-response","188","1163493","0.0-96.0","0","0","FiwW9","Scenes","","null","","","null","","107","","0","","","","","","","","","","","","","","","","NaN","null","","","","","","","","","","","","","","","","","","","","","","",""
"","respond_faster","","html-keyboard-response","189","1165003","0.0-97.0-0.0","1","0","FiwW9","Scenes","","null","","","null","","","","","","","","","","","","","","","","","","","","","","","","","","","","","","","","","","","","","","","","","","","",""
"","fixation","","html-keyboard-response","190","1166013","0.0-99.0","0","0","FiwW9","Scenes","","null","","","null","","","","","","","","","","","","","","","","","","","","","","","","","","","","","","","","","","","","","","","","","","","",""
"","see_reward","","html-keyboard-response","191","1167223","0.0-100.0","0","0","FiwW9","Scenes","","1205","","","32","","110","","1","","","","-1","","","","","1","","","","","0","1205","","","","","","","","","","","","","","","","","","","","","","","","",""
"","reward_outcome","","html-keyboard-response","192","1169234","0.0-101.0","0","0","FiwW9","Scenes","","819","","","40","","110","","1","","","","","","","","","","","","","","","","-1","819","","","","","","","","","","","","","","","","","","","","","","",""
"","fixation","","html-keyboard-response","193","1170239","0.0-104.0","0","0","FiwW9","Scenes","","null","","","null","","","","","","","","","","","","","","","","","","","","","","","","","","","","","","","","","","","","","","","","","","","",""
"","see_reward","","html-keyboard-response","194","1171071","0.0-105.0","0","0","FiwW9","Scenes","","827","","","32","","113","","2","","","","1","","","","","1","","","","","142","827","","","","","","","","","","","","","","","","","","","","","","","","",""
"","reward_outcome","","html-keyboard-response","195","1173080","0.0-106.0","0","0","FiwW9","Scenes","","787","","","38","","113","","2","","","","","","","","","","","","","","","","1","787","","","","","","","","","","","","","","","","","","","","","","",""
"","fixation","","html-keyboard-response","196","1174090","0.0-109.0","0","0","FiwW9","Scenes","","null","","","null","","","","","","","","","","","","","","","","","","","","","","","","","","","","","","","","","","","","","","","","","","","",""
"","see_reward","","html-keyboard-response","197","1174990","0.0-110.0","0","0","FiwW9","Scenes","","896","","","32","","135","","3","","","","-1","","","","","1","","","","","0","896","","","","","","","","","","","","","","","","","","","","","","","","",""
"","reward_outcome","","html-keyboard-response","198","1177000","0.0-111.0","0","0","FiwW9","Scenes","","898","","","40","","135","","3","","","","","","","","","","","","","","","","-1","898","","","","","","","","","","","","","","","","","","","","","","",""
"","fixation","","html-keyboard-response","199","1178009","0.0-114.0","0","0","FiwW9","Scenes","","null","","","null","","","","","","","","","","","","","","","","","","","","","","","","","","","","","","","","","","","","","","","","","","","",""
"","see_reward","","html-keyboard-response","200","1178638","0.0-115.0","0","0","FiwW9","Scenes","","624","","","32","","145","","4","","","","-1","","","","","1","","","","","0","624","","","","","","","","","","","","","","","","","","","","","","","","",""
"","reward_outcome","","html-keyboard-response","201","1180648","0.0-116.0","0","0","FiwW9","Scenes","","973","","","40","","145","","4","","","","","","","","","","","","","","","","-1","973","","","","","","","","","","","","","","","","","","","","","","",""
"","fixation","","html-keyboard-response","202","1181658","0.0-119.0","0","0","FiwW9","Scenes","","null","","","null","","","","","","","","","","","","","","","","","","","","","","","","","","","","","","","","","","","","","","","","","","","",""
"","see_reward","","html-keyboard-response","203","1182454","0.0-120.0","0","0","FiwW9","Scenes","","793","","","32","","117","","5","","","","1","","","","","1","","","","","150","793","","","","","","","","","","","","","","","","","","","","","","","","",""
"","reward_outcome","","html-keyboard-response","204","1184460","0.0-121.0","0","0","FiwW9","Scenes","","876","","","38","","117","","5","","","","","","","","","","","","","","","","1","876","","","","","","","","","","","","","","","","","","","","","","",""
"","fixation","","html-keyboard-response","205","1185465","0.0-124.0","0","0","FiwW9","Scenes","","null","","","null","","","","","","","","","","","","","","","","","","","","","","","","","","","","","","","","","","","","","","","","","","","",""
"","see_reward","","html-keyboard-response","206","1186113","0.0-125.0","0","0","FiwW9","Scenes","","644","","","32","","124","","6","","","","1","","","","","1","","","","","151","644","","","","","","","","","","","","","","","","","","","","","","","","",""
"","reward_outcome","","html-keyboard-response","207","1188120","0.0-126.0","0","0","FiwW9","Scenes","","1010","","","38","","124","","6","","","","","","","","","","","","","","","","1","1010","","","","","","","","","","","","","","","","","","","","","","",""
"","fixation","","html-keyboard-response","208","1189125","0.0-129.0","0","0","FiwW9","Scenes","","null","","","null","","","","","","","","","","","","","","","","","","","","","","","","","","","","","","","","","","","","","","","","","","","",""
"","see_reward","","html-keyboard-response","209","1190143","0.0-130.0","0","0","FiwW9","Scenes","","1014","","","32","","135","","7","","","","-1","","","","","1","","","","","0","1014","","","","","","","","","","","","","","","","","","","","","","","","",""
"","reward_outcome","","html-keyboard-response","210","1192152","0.0-131.0","0","0","FiwW9","Scenes","","1051","","","40","","135","","7","","","","","","","","","","","","","","","","-1","1051","","","","","","","","","","","","","","","","","","","","","","",""
"","fixation","","html-keyboard-response","211","1193158","0.0-134.0","0","0","FiwW9","Scenes","","null","","","null","","","","","","","","","","","","","","","","","","","","","","","","","","","","","","","","","","","","","","","","","","","",""
"","see_reward","","html-keyboard-response","212","1193784","0.0-135.0","0","0","FiwW9","Scenes","","622","","","32","","106","","8","","","","1","","","","","1","","","","","153","622","","","","","","","","","","","","","","","","","","","","","","","","",""
"","reward_outcome","","html-keyboard-response","213","1195793","0.0-136.0","0","0","FiwW9","Scenes","","794","","","38","","106","","8","","","","","","","","","","","","","","","","1","794","","","","","","","","","","","","","","","","","","","","","","",""
"","fixation","","html-keyboard-response","214","1196803","0.0-139.0","0","0","FiwW9","Scenes","","null","","","null","","","","","","","","","","","","","","","","","","","","","","","","","","","","","","","","","","","","","","","","","","","",""
"","see_reward","","html-keyboard-response","215","1197519","0.0-140.0","0","0","FiwW9","Scenes","","711","","","32","","131","","9","","","","-1","","","","","1","","","","","0","711","","","","","","","","","","","","","","","","","","","","","","","","",""
"","reward_outcome","","html-keyboard-response","216","1199529","0.0-141.0","0","0","FiwW9","Scenes","","1132","","","40","","131","","9","","","","","","","","","","","","","","","","-1","1132","","","","","","","","","","","","","","","","","","","","","","",""
"","fixation","","html-keyboard-response","217","1200538","0.0-144.0","0","0","FiwW9","Scenes","","null","","","null","","","","","","","","","","","","","","","","","","","","","","","","","","","","","","","","","","","","","","","","","","","",""
"","see_reward","","html-keyboard-response","218","1201119","0.0-145.0","0","0","FiwW9","Scenes","","575","","","32","","140","","10","","","","1","","","","","1","","","","","158","575","","","","","","","","","","","","","","","","","","","","","","","","",""
"","reward_outcome","","html-keyboard-response","219","1203124","0.0-146.0","0","0","FiwW9","Scenes","","null","","","null","","140","","10","","","","","","","","","","","","","","","","NaN","null","","","","","","","","","","","","","","","","","","","","","","",""
"","respond_faster","","html-keyboard-response","220","1204634","0.0-147.0-0.0","1","0","FiwW9","Scenes","","null","","","null","","","","","","","","","","","","","","","","","","","","","","","","","","","","","","","","","","","","","","","","","","","",""
"","fixation","","html-keyboard-response","221","1205644","0.0-149.0","0","0","FiwW9","Scenes","","null","","","null","","","","","","","","","","","","","","","","","","","","","","","","","","","","","","","","","","","","","","","","","","","",""
"","see_reward","","html-keyboard-response","222","1206078","0.0-150.0","0","0","FiwW9","Scenes","","429","","","32","","107","","11","","","","1","","","","","1","","","","","146","429","","","","","","","","","","","","","","","","","","","","","","","","",""
"","reward_outcome","","html-keyboard-response","223","1208084","0.0-151.0","0","0","FiwW9","Scenes","","691","","","38","","107","","11","","","","","","","","","","","","","","","","1","691","","","","","","","","","","","","","","","","","","","","","","",""
"","fixation","","html-keyboard-response","224","1209090","0.0-154.0","0","0","FiwW9","Scenes","","null","","","null","","","","","","","","","","","","","","","","","","","","","","","","","","","","","","","","","","","","","","","","","","","",""
"","see_reward","","html-keyboard-response","225","1209598","0.0-155.0","0","0","FiwW9","Scenes","","503","","","32","","113","","12","","","","1","","","","","1","","","","","142","503","","","","","","","","","","","","","","","","","","","","","","","","",""
"","reward_outcome","","html-keyboard-response","226","1211608","0.0-156.0","0","0","FiwW9","Scenes","","659","","","38","","113","","12","","","","","","","","","","","","","","","","1","659","","","","","","","","","","","","","","","","","","","","","","",""
"","fixation","","html-keyboard-response","227","1212618","0.0-159.0","0","0","FiwW9","Scenes","","null","","","null","","","","","","","","","","","","","","","","","","","","","","","","","","","","","","","","","","","","","","","","","","","",""
"","see_reward","","html-keyboard-response","228","1213102","0.0-160.0","0","0","FiwW9","Scenes","","479","","","32","","117","","13","","","","1","","","","","1","","","","","150","479","","","","","","","","","","","","","","","","","","","","","","","","",""
"","reward_outcome","","html-keyboard-response","229","1215112","0.0-161.0","0","0","FiwW9","Scenes","","923","","","38","","117","","13","","","","","","","","","","","","","","","","1","923","","","","","","","","","","","","","","","","","","","","","","",""
"","fixation","","html-keyboard-response","230","1216117","0.0-164.0","0","0","FiwW9","Scenes","","null","","","null","","","","","","","","","","","","","","","","","","","","","","","","","","","","","","","","","","","","","","","","","","","",""
"","see_reward","","html-keyboard-response","231","1216567","0.0-165.0","0","0","FiwW9","Scenes","","444","","","32","","106","","14","","","","1","","","","","1","","","","","153","444","","","","","","","","","","","","","","","","","","","","","","","","",""
"","reward_outcome","","html-keyboard-response","232","1218576","0.0-166.0","0","0","FiwW9","Scenes","","923","","","38","","106","","14","","","","","","","","","","","","","","","","1","923","","","","","","","","","","","","","","","","","","","","","","",""
"","fixation","","html-keyboard-response","233","1219585","0.0-169.0","0","0","FiwW9","Scenes","","null","","","null","","","","","","","","","","","","","","","","","","","","","","","","","","","","","","","","","","","","","","","","","","","",""
"","see_reward","","html-keyboard-response","234","1220102","0.0-170.0","0","0","FiwW9","Scenes","","512","","","32","","145","","15","","","","-1","","","","","1","","","","","0","512","","","","","","","","","","","","","","","","","","","","","","","","",""
"","reward_outcome","","html-keyboard-response","235","1222113","0.0-171.0","0","0","FiwW9","Scenes","","891","","","40","","145","","15","","","","","","","","","","","","","","","","-1","891","","","","","","","","","","","","","","","","","","","","","","",""
"","fixation","","html-keyboard-response","236","1223122","0.0-174.0","0","0","FiwW9","Scenes","","null","","","null","","","","","","","","","","","","","","","","","","","","","","","","","","","","","","","","","","","","","","","","","","","",""
"","see_reward","","html-keyboard-response","237","1223790","0.0-175.0","0","0","FiwW9","Scenes","","663","","","32","","140","","16","","","","1","","","","","1","","","","","158","663","","","","","","","","","","","","","","","","","","","","","","","","",""
"","reward_outcome","","html-keyboard-response","238","1225796","0.0-176.0","0","0","FiwW9","Scenes","","763","","","38","","140","","16","","","","","","","","","","","","","","","","1","763","","","","","","","","","","","","","","","","","","","","","","",""
"","fixation","","html-keyboard-response","239","1226807","0.0-179.0","0","0","FiwW9","Scenes","","null","","","null","","","","","","","","","","","","","","","","","","","","","","","","","","","","","","","","","","","","","","","","","","","",""
"","see_reward","","html-keyboard-response","240","1227430","0.0-180.0","0","0","FiwW9","Scenes","","620","","","32","","100","","17","","","","-1","","","","","1","","","","","0","620","","","","","","","","","","","","","","","","","","","","","","","","",""
"","reward_outcome","","html-keyboard-response","241","1229435","0.0-181.0","0","0","FiwW9","Scenes","","1051","","","40","","100","","17","","","","","","","","","","","","","","","","-1","1051","","","","","","","","","","","","","","","","","","","","","","",""
"","fixation","","html-keyboard-response","242","1230445","0.0-184.0","0","0","FiwW9","Scenes","","null","","","null","","","","","","","","","","","","","","","","","","","","","","","","","","","","","","","","","","","","","","","","","","","",""
"","see_reward","","html-keyboard-response","243","1230910","0.0-185.0","0","0","FiwW9","Scenes","","460","","","32","","121","","18","","","","-1","","","","","1","","","","","0","460","","","","","","","","","","","","","","","","","","","","","","","","",""
"","reward_outcome","","html-keyboard-response","244","1232920","0.0-186.0","0","0","FiwW9","Scenes","","1066","","","40","","121","","18","","","","","","","","","","","","","","","","-1","1066","","","","","","","","","","","","","","","","","","","","","","",""
"","fixation","","html-keyboard-response","245","1233930","0.0-189.0","0","0","FiwW9","Scenes","","null","","","null","","","","","","","","","","","","","","","","","","","","","","","","","","","","","","","","","","","","","","","","","","","",""
"","see_reward","","html-keyboard-response","246","1234526","0.0-190.0","0","0","FiwW9","Scenes","","591","","","32","","124","","19","","","","1","","","","","1","","","","","151","591","","","","","","","","","","","","","","","","","","","","","","","","",""
"","reward_outcome","","html-keyboard-response","247","1236531","0.0-191.0","0","0","FiwW9","Scenes","","1339","","","38","","124","","19","","","","","","","","","","","","","","","","1","1339","","","","","","","","","","","","","","","","","","","","","","",""
"","fixation","","html-keyboard-response","248","1237536","0.0-194.0","0","0","FiwW9","Scenes","","null","","","null","","","","","","","","","","","","","","","","","","","","","","","","","","","","","","","","","","","","","","","","","","","",""
"","see_reward","","html-keyboard-response","249","1238389","0.0-195.0","0","0","FiwW9","Scenes","","848","","","32","","100","","20","","","","-1","","","","","1","","","","","0","848","","","","","","","","","","","","","","","","","","","","","","","","",""
"","reward_outcome","","html-keyboard-response","250","1240397","0.0-196.0","0","0","FiwW9","Scenes","","716","","","40","","100","","20","","","","","","","","","","","","","","","","-1","716","","","","","","","","","","","","","","","","","","","","","","",""
"","fixation","","html-keyboard-response","251","1241406","0.0-199.0","0","0","FiwW9","Scenes","","null","","","null","","","","","","","","","","","","","","","","","","","","","","","","","","","","","","","","","","","","","","","","","","","",""
"","see_reward","","html-keyboard-response","252","1241830","0.0-200.0","0","0","FiwW9","Scenes","","420","","","32","","121","","21","","","","-1","","","","","1","","","","","0","420","","","","","","","","","","","","","","","","","","","","","","","","",""
"","reward_outcome","","html-keyboard-response","253","1243840","0.0-201.0","0","0","FiwW9","Scenes","","834","","","40","","121","","21","","","","","","","","","","","","","","","","-1","834","","","","","","","","","","","","","","","","","","","","","","",""
"","fixation","","html-keyboard-response","254","1244845","0.0-204.0","0","0","FiwW9","Scenes","","null","","","null","","","","","","","","","","","","","","","","","","","","","","","","","","","","","","","","","","","","","","","","","","","",""
"","see_reward","","html-keyboard-response","255","1245142","0.0-205.0","0","0","FiwW9","Scenes","","292","","","32","","131","","22","","","","-1","","","","","1","","","","","0","292","","","","","","","","","","","","","","","","","","","","","","","","",""
"","reward_outcome","","html-keyboard-response","256","1247149","0.0-206.0","0","0","FiwW9","Scenes","","956","","","40","","131","","22","","","","","","","","","","","","","","","","-1","956","","","","","","","","","","","","","","","","","","","","","","",""
"","fixation","","html-keyboard-response","257","1248153","0.0-209.0","0","0","FiwW9","Scenes","","null","","","null","","","","","","","","","","","","","","","","","","","","","","","","","","","","","","","","","","","","","","","","","","","",""
"","see_reward","","html-keyboard-response","258","1248518","0.0-210.0","0","0","FiwW9","Scenes","","360","","","32","","110","","23","","","","-1","","","","","1","","","","","0","360","","","","","","","","","","","","","","","","","","","","","","","","",""
"","reward_outcome","","html-keyboard-response","259","1250528","0.0-211.0","0","0","FiwW9","Scenes","","1035","","","40","","110","","23","","","","","","","","","","","","","","","","-1","1035","","","","","","","","","","","","","","","","","","","","","","",""
"","block_over","","html-keyboard-response","260","1260418","0.0-213.0-0.0","0","0","FiwW9","Scenes","","9887","","","78","","","","","","","","","","","","","","","","","","","","","","","","","","","","","","","","","","","","","","","","","","","",""
"","fixation","","html-keyboard-response","261","1261424","0.0-214.0","0","0","FiwW9","Scenes","","null","","","null","","","","","","","","","","","","","","","","","","","","","","","","","","","","","","","","","","","","","","","","","","","",""
"","see_reward","","html-keyboard-response","262","1263544","0.0-215.0","0","0","FiwW9","Scenes","","2115","","","32","","145","","24","","","","-1","","","","","2","","","","","0","2115","","","","","","","","","","","","","","","","","","","","","","","","",""
"","reward_outcome","","html-keyboard-response","263","1265549","0.0-216.0","0","0","FiwW9","Scenes","","1116","","","40","","145","","24","","","","","","","","","","","","","","","","-1","1116","","","","","","","","","","","","","","","","","","","","","","",""
"","fixation","","html-keyboard-response","264","1266557","0.0-219.0","0","0","FiwW9","Scenes","","null","","","null","","","","","","","","","","","","","","","","","","","","","","","","","","","","","","","","","","","","","","","","","","","",""
"","see_reward","","html-keyboard-response","265","1267049","0.0-220.0","0","0","FiwW9","Scenes","","487","","","32","","145","","25","","","","-1","","","","","2","","","","","0","487","","","","","","","","","","","","","","","","","","","","","","","","",""
"","reward_outcome","","html-keyboard-response","266","1269059","0.0-221.0","0","0","FiwW9","Scenes","","628","","","40","","145","","25","","","","","","","","","","","","","","","","-1","628","","","","","","","","","","","","","","","","","","","","","","",""
"","fixation","","html-keyboard-response","267","1270070","0.0-224.0","0","0","FiwW9","Scenes","","null","","","null","","","","","","","","","","","","","","","","","","","","","","","","","","","","","","","","","","","","","","","","","","","",""
"","see_reward","","html-keyboard-response","268","1270339","0.0-225.0","0","0","FiwW9","Scenes","","264","","","32","","117","","26","","","","1","","","","","2","","","","","150","264","","","","","","","","","","","","","","","","","","","","","","","","",""
"","reward_outcome","","html-keyboard-response","269","1272349","0.0-226.0","0","0","FiwW9","Scenes","","715","","","38","","117","","26","","","","","","","","","","","","","","","","1","715","","","","","","","","","","","","","","","","","","","","","","",""
"","fixation","","html-keyboard-response","270","1273356","0.0-229.0","0","0","FiwW9","Scenes","","null","","","null","","","","","","","","","","","","","","","","","","","","","","","","","","","","","","","","","","","","","","","","","","","",""
"","see_reward","","html-keyboard-response","271","1273666","0.0-230.0","0","0","FiwW9","Scenes","","305","","","32","","131","","27","","","","-1","","","","","2","","","","","0","305","","","","","","","","","","","","","","","","","","","","","","","","",""
"","reward_outcome","","html-keyboard-response","272","1275677","0.0-231.0","0","0","FiwW9","Scenes","","723","","","40","","131","","27","","","","","","","","","","","","","","","","-1","723","","","","","","","","","","","","","","","","","","","","","","",""
"","fixation","","html-keyboard-response","273","1276686","0.0-234.0","0","0","FiwW9","Scenes","","null","","","null","","","","","","","","","","","","","","","","","","","","","","","","","","","","","","","","","","","","","","","","","","","",""
"","see_reward","","html-keyboard-response","274","1277018","0.0-235.0","0","0","FiwW9","Scenes","","327","","","32","","140","","28","","","","1","","","","","2","","","","","158","327","","","","","","","","","","","","","","","","","","","","","","","","",""
"","reward_outcome","","html-keyboard-response","275","1279027","0.0-236.0","0","0","FiwW9","Scenes","","755","","","38","","140","","28","","","","","","","","","","","","","","","","1","755","","","","","","","","","","","","","","","","","","","","","","",""
"","fixation","","html-keyboard-response","276","1280038","0.0-239.0","0","0","FiwW9","Scenes","","null","","","null","","","","","","","","","","","","","","","","","","","","","","","","","","","","","","","","","","","","","","","","","","","",""
"","see_reward","","html-keyboard-response","277","1280578","0.0-240.0","0","0","FiwW9","Scenes","","536","","","32","","110","","29","","","","-1","","","","","2","","","","","0","536","","","","","","","","","","","","","","","","","","","","","","","","",""
"","reward_outcome","","html-keyboard-response","278","1282588","0.0-241.0","0","0","FiwW9","Scenes","","995","","","40","","110","","29","","","","","","","","","","","","","","","","-1","995","","","","","","","","","","","","","","","","","","","","","","",""
"","fixation","","html-keyboard-response","279","1283596","0.0-244.0","0","0","FiwW9","Scenes","","null","","","null","","","","","","","","","","","","","","","","","","","","","","","","","","","","","","","","","","","","","","","","","","","",""
"","see_reward","","html-keyboard-response","280","1283946","0.0-245.0","0","0","FiwW9","Scenes","","345","","","32","","135","","30","","","","-1","","","","","2","","","","","0","345","","","","","","","","","","","","","","","","","","","","","","","","",""
"","reward_outcome","","html-keyboard-response","281","1285956","0.0-246.0","0","0","FiwW9","Scenes","","747","","","40","","135","","30","","","","","","","","","","","","","","","","-1","747","","","","","","","","","","","","","","","","","","","","","","",""
"","fixation","","html-keyboard-response","282","1286960","0.0-249.0","0","0","FiwW9","Scenes","","null","","","null","","","","","","","","","","","","","","","","","","","","","","","","","","","","","","","","","","","","","","","","","","","",""
"","see_reward","","html-keyboard-response","283","1287424","0.0-250.0","0","0","FiwW9","Scenes","","459","","","32","","100","","31","","","","-1","","","","","2","","","","","0","459","","","","","","","","","","","","","","","","","","","","","","","","",""
"","reward_outcome","","html-keyboard-response","284","1289434","0.0-251.0","0","0","FiwW9","Scenes","","1302","","","40","","100","","31","","","","","","","","","","","","","","","","-1","1302","","","","","","","","","","","","","","","","","","","","","","",""
"","fixation","","html-keyboard-response","285","1290444","0.0-254.0","0","0","FiwW9","Scenes","","null","","","null","","","","","","","","","","","","","","","","","","","","","","","","","","","","","","","","","","","","","","","","","","","",""
"","see_reward","","html-keyboard-response","286","1290778","0.0-255.0","0","0","FiwW9","Scenes","","329","","","32","","124","","32","","","","1","","","","","2","","","","","151","329","","","","","","","","","","","","","","","","","","","","","","","","",""
"","reward_outcome","","html-keyboard-response","287","1292783","0.0-256.0","0","0","FiwW9","Scenes","","1100","","","38","","124","","32","","","","","","","","","","","","","","","","1","1100","","","","","","","","","","","","","","","","","","","","","","",""
"","fixation","","html-keyboard-response","288","1293793","0.0-259.0","0","0","FiwW9","Scenes","","null","","","null","","","","","","","","","","","","","","","","","","","","","","","","","","","","","","","","","","","","","","","","","","","",""
"","see_reward","","html-keyboard-response","289","1295131","0.0-260.0","0","0","FiwW9","Scenes","","1332","","","32","","131","","33","","","","-1","","","","","2","","","","","0","1332","","","","","","","","","","","","","","","","","","","","","","","","",""
"","reward_outcome","","html-keyboard-response","290","1297135","0.0-261.0","0","0","FiwW9","Scenes","","1667","","","40","","131","","33","","","","","","","","","","","","","","","","-1","1667","","","","","","","","","","","","","","","","","","","","","","",""
"","fixation","","html-keyboard-response","291","1298145","0.0-264.0","0","0","FiwW9","Scenes","","null","","","null","","","","","","","","","","","","","","","","","","","","","","","","","","","","","","","","","","","","","","","","","","","",""
"","see_reward","","html-keyboard-response","292","1298737","0.0-265.0","0","0","FiwW9","Scenes","","587","","","32","","113","","34","","","","1","","","","","2","","","","","142","587","","","","","","","","","","","","","","","","","","","","","","","","",""
"","reward_outcome","","html-keyboard-response","293","1300748","0.0-266.0","0","0","FiwW9","Scenes","","1380","","","38","","113","","34","","","","","","","","","","","","","","","","1","1380","","","","","","","","","","","","","","","","","","","","","","",""
"","fixation","","html-keyboard-response","294","1301757","0.0-269.0","0","0","FiwW9","Scenes","","null","","","null","","","","","","","","","","","","","","","","","","","","","","","","","","","","","","","","","","","","","","","","","","","",""
"","see_reward","","html-keyboard-response","295","1302194","0.0-270.0","0","0","FiwW9","Scenes","","432","","","32","","106","","35","","","","1","","","","","2","","","","","153","432","","","","","","","","","","","","","","","","","","","","","","","","",""
"","reward_outcome","","html-keyboard-response","296","1304199","0.0-271.0","0","0","FiwW9","Scenes","","795","","","38","","106","","35","","","","","","","","","","","","","","","","1","795","","","","","","","","","","","","","","","","","","","","","","",""
"","fixation","","html-keyboard-response","297","1305208","0.0-274.0","0","0","FiwW9","Scenes","","null","","","null","","","","","","","","","","","","","","","","","","","","","","","","","","","","","","","","","","","","","","","","","","","",""
"","see_reward","","html-keyboard-response","298","1305690","0.0-275.0","0","0","FiwW9","Scenes","","476","","","32","","110","","36","","","","-1","","","","","2","","","","","0","476","","","","","","","","","","","","","","","","","","","","","","","","",""
"","reward_outcome","","html-keyboard-response","299","1307700","0.0-276.0","0","0","FiwW9","Scenes","","900","","","40","","110","","36","","","","","","","","","","","","","","","","-1","900","","","","","","","","","","","","","","","","","","","","","","",""
"","fixation","","html-keyboard-response","300","1308705","0.0-279.0","0","0","FiwW9","Scenes","","null","","","null","","","","","","","","","","","","","","","","","","","","","","","","","","","","","","","","","","","","","","","","","","","",""
"","see_reward","","html-keyboard-response","301","1309234","0.0-280.0","0","0","FiwW9","Scenes","","523","","","32","","117","","37","","","","1","","","","","2","","","","","150","523","","","","","","","","","","","","","","","","","","","","","","","","",""
"","reward_outcome","","html-keyboard-response","302","1311244","0.0-281.0","0","0","FiwW9","Scenes","","1012","","","38","","117","","37","","","","","","","","","","","","","","","","1","1012","","","","","","","","","","","","","","","","","","","","","","",""
"","fixation","","html-keyboard-response","303","1312253","0.0-284.0","0","0","FiwW9","Scenes","","null","","","null","","","","","","","","","","","","","","","","","","","","","","","","","","","","","","","","","","","","","","","","","","","",""
"","see_reward","","html-keyboard-response","304","1312769","0.0-285.0","0","0","FiwW9","Scenes","","512","","","32","","124","","38","","","","1","","","","","2","","","","","151","512","","","","","","","","","","","","","","","","","","","","","","","","",""
"","reward_outcome","","html-keyboard-response","305","1314780","0.0-286.0","0","0","FiwW9","Scenes","","731","","","38","","124","","38","","","","","","","","","","","","","","","","1","731","","","","","","","","","","","","","","","","","","","","","","",""
"","fixation","","html-keyboard-response","306","1315789","0.0-289.0","0","0","FiwW9","Scenes","","null","","","null","","","","","","","","","","","","","","","","","","","","","","","","","","","","","","","","","","","","","","","","","","","",""
"","see_reward","","html-keyboard-response","307","1316097","0.0-290.0","0","0","FiwW9","Scenes","","303","","","32","","100","","39","","","","-1","","","","","2","","","","","0","303","","","","","","","","","","","","","","","","","","","","","","","","",""
"","reward_outcome","","html-keyboard-response","308","1318108","0.0-291.0","0","0","FiwW9","Scenes","","691","","","40","","100","","39","","","","","","","","","","","","","","","","-1","691","","","","","","","","","","","","","","","","","","","","","","",""
"","fixation","","html-keyboard-response","309","1319118","0.0-294.0","0","0","FiwW9","Scenes","","null","","","null","","","","","","","","","","","","","","","","","","","","","","","","","","","","","","","","","","","","","","","","","","","",""
"","see_reward","","html-keyboard-response","310","1319569","0.0-295.0","0","0","FiwW9","Scenes","","447","","","32","","121","","40","","","","-1","","","","","2","","","","","0","447","","","","","","","","","","","","","","","","","","","","","","","","",""
"","reward_outcome","","html-keyboard-response","311","1321577","0.0-296.0","0","0","FiwW9","Scenes","","924","","","40","","121","","40","","","","","","","","","","","","","","","","-1","924","","","","","","","","","","","","","","","","","","","","","","",""
"","fixation","","html-keyboard-response","312","1322585","0.0-299.0","0","0","FiwW9","Scenes","","null","","","null","","","","","","","","","","","","","","","","","","","","","","","","","","","","","","","","","","","","","","","","","","","",""
"","see_reward","","html-keyboard-response","313","1323065","0.0-300.0","0","0","FiwW9","Scenes","","475","","","32","","121","","41","","","","-1","","","","","2","","","","","0","475","","","","","","","","","","","","","","","","","","","","","","","","",""
"","reward_outcome","","html-keyboard-response","314","1325075","0.0-301.0","0","0","FiwW9","Scenes","","1595","","","40","","121","","41","","","","","","","","","","","","","","","","-1","1595","","","","","","","","","","","","","","","","","","","","","","",""
"","fixation","","html-keyboard-response","315","1326080","0.0-304.0","0","0","FiwW9","Scenes","","null","","","null","","","","","","","","","","","","","","","","","","","","","","","","","","","","","","","","","","","","","","","","","","","",""
"","see_reward","","html-keyboard-response","316","1326562","0.0-305.0","0","0","FiwW9","Scenes","","477","","","32","","107","","42","","","","1","","","","","2","","","","","146","477","","","","","","","","","","","","","","","","","","","","","","","","",""
"","reward_outcome","","html-keyboard-response","317","1328571","0.0-306.0","0","0","FiwW9","Scenes","","995","","","38","","107","","42","","","","","","","","","","","","","","","","1","995","","","","","","","","","","","","","","","","","","","","","","",""
"","fixation","","html-keyboard-response","318","1329581","0.0-309.0","0","0","FiwW9","Scenes","","null","","","null","","","","","","","","","","","","","","","","","","","","","","","","","","","","","","","","","","","","","","","","","","","",""
"","see_reward","","html-keyboard-response","319","1330153","0.0-310.0","0","0","FiwW9","Scenes","","567","","","32","","113","","43","","","","1","","","","","2","","","","","142","567","","","","","","","","","","","","","","","","","","","","","","","","",""
"","reward_outcome","","html-keyboard-response","320","1332163","0.0-311.0","0","0","FiwW9","Scenes","","1340","","","38","","113","","43","","","","","","","","","","","","","","","","1","1340","","","","","","","","","","","","","","","","","","","","","","",""
"","fixation","","html-keyboard-response","321","1333173","0.0-314.0","0","0","FiwW9","Scenes","","null","","","null","","","","","","","","","","","","","","","","","","","","","","","","","","","","","","","","","","","","","","","","","","","",""
"","see_reward","","html-keyboard-response","322","1333721","0.0-315.0","0","0","FiwW9","Scenes","","544","","","32","","106","","44","","","","1","","","","","2","","","","","153","544","","","","","","","","","","","","","","","","","","","","","","","","",""
"","reward_outcome","","html-keyboard-response","323","1335727","0.0-316.0","0","0","FiwW9","Scenes","","755","","","38","","106","","44","","","","","","","","","","","","","","","","1","755","","","","","","","","","","","","","","","","","","","","","","",""
"","fixation","","html-keyboard-response","324","1336737","0.0-319.0","0","0","FiwW9","Scenes","","null","","","null","","","","","","","","","","","","","","","","","","","","","","","","","","","","","","","","","","","","","","","","","","","",""
"","see_reward","","html-keyboard-response","325","1337113","0.0-320.0","0","0","FiwW9","Scenes","","373","","","32","","135","","45","","","","-1","","","","","2","","","","","0","373","","","","","","","","","","","","","","","","","","","","","","","","",""
"","reward_outcome","","html-keyboard-response","326","1339123","0.0-321.0","0","0","FiwW9","Scenes","","1179","","","40","","135","","45","","","","","","","","","","","","","","","","-1","1179","","","","","","","","","","","","","","","","","","","","","","",""
"","fixation","","html-keyboard-response","327","1340133","0.0-324.0","0","0","FiwW9","Scenes","","null","","","null","","","","","","","","","","","","","","","","","","","","","","","","","","","","","","","","","","","","","","","","","","","",""
"","see_reward","","html-keyboard-response","328","1341513","0.0-325.0","0","0","FiwW9","Scenes","","1375","","","32","","107","","46","","","","1","","","","","2","","","","","146","1375","","","","","","","","","","","","","","","","","","","","","","","","",""
"","reward_outcome","","html-keyboard-response","329","1343523","0.0-326.0","0","0","FiwW9","Scenes","","747","","","38","","107","","46","","","","","","","","","","","","","","","","1","747","","","","","","","","","","","","","","","","","","","","","","",""
"","fixation","","html-keyboard-response","330","1344533","0.0-329.0","0","0","FiwW9","Scenes","","null","","","null","","","","","","","","","","","","","","","","","","","","","","","","","","","","","","","","","","","","","","","","","","","",""
"","see_reward","","html-keyboard-response","331","1345025","0.0-330.0","0","0","FiwW9","Scenes","","488","","","32","","140","","47","","","","1","","","","","2","","","","","158","488","","","","","","","","","","","","","","","","","","","","","","","","",""
"","reward_outcome","","html-keyboard-response","332","1347035","0.0-331.0","0","0","FiwW9","Scenes","","1140","","","38","","140","","47","","","","","","","","","","","","","","","","1","1140","","","","","","","","","","","","","","","","","","","","","","",""
"","block_over","","html-keyboard-response","333","1349010","0.0-333.0-0.0","0","0","FiwW9","Scenes","","1969","","","78","","","","","","","","","","","","","","","","","","","","","","","","","","","","","","","","","","","","","","","","","","","",""
"","fixation","","html-keyboard-response","334","1350014","0.0-334.0","0","0","FiwW9","Scenes","","null","","","null","","","","","","","","","","","","","","","","","","","","","","","","","","","","","","","","","","","","","","","","","","","",""
"","see_reward","","html-keyboard-response","335","1350433","0.0-335.0","0","0","FiwW9","Scenes","","415","","","32","","117","","48","","","","1","","","","","3","","","","","150","415","","","","","","","","","","","","","","","","","","","","","","","","",""
"","reward_outcome","","html-keyboard-response","336","1352440","0.0-336.0","0","0","FiwW9","Scenes","","428","","","38","","117","","48","","","","","","","","","","","","","","","","1","428","","","","","","","","","","","","","","","","","","","","","","",""
"","fixation","","html-keyboard-response","337","1353450","0.0-339.0","0","0","FiwW9","Scenes","","null","","","null","","","","","","","","","","","","","","","","","","","","","","","","","","","","","","","","","","","","","","","","","","","",""
"","see_reward","","html-keyboard-response","338","1353769","0.0-340.0","0","0","FiwW9","Scenes","","315","","","32","","113","","49","","","","1","","","","","3","","","","","142","315","","","","","","","","","","","","","","","","","","","","","","","","",""
"","reward_outcome","","html-keyboard-response","339","1355779","0.0-341.0","0","0","FiwW9","Scenes","","459","","","38","","113","","49","","","","","","","","","","","","","","","","1","459","","","","","","","","","","","","","","","","","","","","","","",""
"","fixation","","html-keyboard-response","340","1356784","0.0-344.0","0","0","FiwW9","Scenes","","null","","","null","","","","","","","","","","","","","","","","","","","","","","","","","","","","","","","","","","","","","","","","","","","",""
"","see_reward","","html-keyboard-response","341","1357289","0.0-345.0","0","0","FiwW9","Scenes","","499","","","32","","135","","50","","","","-1","","","","","3","","","","","0","499","","","","","","","","","","","","","","","","","","","","","","","","",""
"","reward_outcome","","html-keyboard-response","342","1359294","0.0-346.0","0","0","FiwW9","Scenes","","508","","","40","","135","","50","","","","","","","","","","","","","","","","-1","508","","","","","","","","","","","","","","","","","","","","","","",""
"","fixation","","html-keyboard-response","343","1360299","0.0-349.0","0","0","FiwW9","Scenes","","null","","","null","","","","","","","","","","","","","","","","","","","","","","","","","","","","","","","","","","","","","","","","","","","",""
"","see_reward","","html-keyboard-response","344","1360745","0.0-350.0","0","0","FiwW9","Scenes","","442","","","32","","124","","51","","","","1","","","","","3","","","","","151","442","","","","","","","","","","","","","","","","","","","","","","","","",""
"","reward_outcome","","html-keyboard-response","345","1362755","0.0-351.0","0","0","FiwW9","Scenes","","771","","","38","","124","","51","","","","","","","","","","","","","","","","1","771","","","","","","","","","","","","","","","","","","","","","","",""
"","fixation","","html-keyboard-response","346","1363765","0.0-354.0","0","0","FiwW9","Scenes","","null","","","null","","","","","","","","","","","","","","","","","","","","","","","","","","","","","","","","","","","","","","","","","","","",""
"","see_reward","","html-keyboard-response","347","1364337","0.0-355.0","0","0","FiwW9","Scenes","","566","","","32","","121","","52","","","","-1","","","","","3","","","","","0","566","","","","","","","","","","","","","","","","","","","","","","","","",""
"","reward_outcome","","html-keyboard-response","348","1366345","0.0-356.0","0","0","FiwW9","Scenes","","635","","","40","","121","","52","","","","","","","","","","","","","","","","-1","635","","","","","","","","","","","","","","","","","","","","","","",""
"","fixation","","html-keyboard-response","349","1367356","0.0-359.0","0","0","FiwW9","Scenes","","null","","","null","","","","","","","","","","","","","","","","","","","","","","","","","","","","","","","","","","","","","","","","","","","",""
"","see_reward","","html-keyboard-response","350","1367936","0.0-360.0","0","0","FiwW9","Scenes","","576","","","32","","100","","53","","","","-1","","","","","3","","","","","0","576","","","","","","","","","","","","","","","","","","","","","","","","",""
"","reward_outcome","","html-keyboard-response","351","1369947","0.0-361.0","0","0","FiwW9","Scenes","","1092","","","40","","100","","53","","","","","","","","","","","","","","","","-1","1092","","","","","","","","","","","","","","","","","","","","","","",""
