"success","ttype","start_time","trial_type","trial_index","time_elapsed","internal_node_id","warning","missed_checkup","PID","stim_type","view_history","rt","responses","repeat_instructions","key_press","response","stimulus_id","painting","index","stimulus_left","stimulus_right","explain_trial","reward_type","rating_left","rating_right","painting_left","painting_right","block","left_chosen","chosen_obj","unchosen_obj","explain_response","reward_amount","see_reward_rt","register_reward_response","register_reward_rt","deliberation_reward_tally","stimulus_left_deliberation_ind","stimulus_right_deliberation_ind","chosen_trial","gain_left","higher_outcome_chosen","old_pair","chosen_object","rt_pairs","left_object_chosen","rt_object","old_response","new_rating","deliberated_stim","initial_rating","outcome_eval_rt","outcome_eval_response","outcome_eval_gain","outcome_eval_acc","preamble","outcome_eval_confidence","outcome_eval_confidence_rt","total_reward_tally"
"true","full_screen","d01192023hr2211","fullscreen","0","10641","0.0-0.0","0","0","DYGU0","Scenes","","","","","","","","","","","","","","","","","","","","","","","","","","","","","","","","","","","","","","","","","","","","","","","","",""
"","rating_instructions","","instructions","1","20639","0.0-1.0-0.0","0","0","DYGU0","Scenes","[{""page_index"":0,""viewing_time"":8328},{""page_index"":1,""viewing_time"":1670}]","9998","","","","","","","","","","","","","","","","","","","","","","","","","","","","","","","","","","","","","","","","","","","","","","",""
"","rating_comprehension_check","","survey-multi-choice","2","29943","0.0-1.0-1.0","0","0","DYGU0","Scenes","","9303","{""Q0"":""True"",""Q1"":""Mouse""}","0","","","","","","","","","","","","","","","","","","","","","","","","","","","","","","","","","","","","","","","","","","","","",""
"","start_phase","","html-keyboard-response","3","33003","0.0-2.0","0","0","DYGU0","Scenes","","3058","","","78","","","","","","","","","","","","","","","","","","","","","","","","","","","","","","","","","","","","","","","","","","","",""
"","rating","","html-slider-response","4","37107","0.0-3.0","0","0","DYGU0","Scenes","","4103","","","","75","110","bruno-van-der-kraan-qez8mNJ3ilU-unsplash.jpg","0","","","","","","","","","","","","","","","","","","","","","","","","","","","","","","","","","","","","","","","",""
"","rating","","html-slider-response","5","42847","0.0-4.0","0","0","DYGU0","Scenes","","5739","","","","86","136","nicolas-jehly-LzVB84KkZOE-unsplash.jpg","1","","","","","","","","","","","","","","","","","","","","","","","","","","","","","","","","","","","","","","","",""
"","rating","","html-slider-response","6","46151","0.0-5.0","0","0","DYGU0","Scenes","","3304","","","","81","147","tobias-keller-73F4pKoUkM0-unsplash.jpg","2","","","","","","","","","","","","","","","","","","","","","","","","","","","","","","","","","","","","","","","",""
"","rating","","html-slider-response","7","49585","0.0-6.0","0","0","DYGU0","Scenes","","3433","","","","61","128","karsten-wurth-jS0zC2PJ17A-unsplash.jpg","3","","","","","","","","","","","","","","","","","","","","","","","","","","","","","","","","","","","","","","","",""
"","rating","","html-slider-response","8","52727","0.0-7.0","0","0","DYGU0","Scenes","","3141","","","","39","103","anton-darius-FBJugtbHsWU-unsplash.jpg","4","","","","","","","","","","","","","","","","","","","","","","","","","","","","","","","","","","","","","","","",""
"","rating","","html-slider-response","9","55835","0.0-8.0","0","0","DYGU0","Scenes","","3106","","","","56","100","aleksandra-boguslawska-MS7KD9Ti7FQ-unsplash.jpg","5","","","","","","","","","","","","","","","","","","","","","","","","","","","","","","","","","","","","","","","",""
"","rating","","html-slider-response","10","60776","0.0-9.0","0","0","DYGU0","Scenes","","4940","","","","82","138","petr-vysohlid-9fqwGqGLUxc-unsplash.jpg","6","","","","","","","","","","","","","","","","","","","","","","","","","","","","","","","","","","","","","","","",""
"","rating","","html-slider-response","11","74628","0.0-10.0","0","0","DYGU0","Scenes","","13852","","","","71","140","samuele-errico-piccarini-JEBqFu2AOOA-unsplash.jpg","7","","","","","","","","","","","","","","","","","","","","","","","","","","","","","","","","","","","","","","","",""
"","rating","","html-slider-response","12","78252","0.0-11.0","0","0","DYGU0","Scenes","","3623","","","","86","104","artem-sapegin-XGDBdSQ70O0-unsplash.jpg","8","","","","","","","","","","","","","","","","","","","","","","","","","","","","","","","","","","","","","","","",""
"","rating","","html-slider-response","13","84045","0.0-12.0","0","0","DYGU0","Scenes","","5792","","","","76","144","solotravelgoals-7kLufxYoqWk-unsplash.jpg","9","","","","","","","","","","","","","","","","","","","","","","","","","","","","","","","","","","","","","","","",""
"","rating","","html-slider-response","14","87223","0.0-13.0","0","0","DYGU0","Scenes","","3176","","","","87","134","milada-vigerova-pQMM63GE7fo-unsplash.jpg","10","","","","","","","","","","","","","","","","","","","","","","","","","","","","","","","","","","","","","","","",""
"","rating","","html-slider-response","15","92557","0.0-14.0","0","0","DYGU0","Scenes","","5332","","","","80","109","brigitta-schneiter-hXXRLtTxXCU-unsplash.jpg","11","","","","","","","","","","","","","","","","","","","","","","","","","","","","","","","","","","","","","","","",""
"","rating","","html-slider-response","16","99790","0.0-15.0","0","0","DYGU0","Scenes","","7232","","","","83","107","benjamin-davies-Zm2n2O7Fph4-unsplash.jpg","12","","","","","","","","","","","","","","","","","","","","","","","","","","","","","","","","","","","","","","","",""
"","rating","","html-slider-response","17","103422","0.0-16.0","0","0","DYGU0","Scenes","","3631","","","","88","137","olga-stalska-QaWRyEdlffY-unsplash.jpg","13","","","","","","","","","","","","","","","","","","","","","","","","","","","","","","","","","","","","","","","",""
"","rating","","html-slider-response","18","106001","0.0-17.0","0","0","DYGU0","Scenes","","2579","","","","75","129","kurt-cotoaga-cqbLg3lZEpk-unsplash.jpg","14","","","","","","","","","","","","","","","","","","","","","","","","","","","","","","","","","","","","","","","",""
"","rating","","html-slider-response","19","109851","0.0-18.0","0","0","DYGU0","Scenes","","3848","","","","60","117","frank-mckenna-OD9EOzfSOh0-unsplash.jpg","15","","","","","","","","","","","","","","","","","","","","","","","","","","","","","","","","","","","","","","","",""
"","rating","","html-slider-response","20","116042","0.0-19.0","0","0","DYGU0","Scenes","","6191","","","","79","123","joel-jasmin-forestbird-efuwb5eBDrI-unsplash.jpg","16","","","","","","","","","","","","","","","","","","","","","","","","","","","","","","","","","","","","","","","",""
"","rating","","html-slider-response","21","119934","0.0-20.0","0","0","DYGU0","Scenes","","3891","","","","62","121","jean-pierre-brungs-qxCqkbF7tUc-unsplash.jpg","17","","","","","","","","","","","","","","","","","","","","","","","","","","","","","","","","","","","","","","","",""
"","rating","","html-slider-response","22","122272","0.0-21.0","0","0","DYGU0","Scenes","","2337","","","","87","132","meng-ji-8BH_M-53CyA-unsplash.jpg","18","","","","","","","","","","","","","","","","","","","","","","","","","","","","","","","","","","","","","","","",""
"","rating","","html-slider-response","23","127380","0.0-22.0","0","0","DYGU0","Scenes","","5107","","","","75","130","lina-loos-04-C1NZk1hE-unsplash.jpg","19","","","","","","","","","","","","","","","","","","","","","","","","","","","","","","","","","","","","","","","",""
"","rating","","html-slider-response","24","130835","0.0-23.0","0","0","DYGU0","Scenes","","3455","","","","66","102","anisur-rahman-K2b7UDed6uQ-unsplash.jpg","20","","","","","","","","","","","","","","","","","","","","","","","","","","","","","","","","","","","","","","","",""
"","rating","","html-slider-response","25","132592","0.0-24.0","0","0","DYGU0","Scenes","","1756","","","","63","125","john-lee-oMneOBYhJxY-unsplash.jpg","21","","","","","","","","","","","","","","","","","","","","","","","","","","","","","","","","","","","","","","","",""
"","rating","","html-slider-response","26","137022","0.0-25.0","0","0","DYGU0","Scenes","","4429","","","","45","113","damian-denis-D8R_txR_0PE-unsplash.jpg","22","","","","","","","","","","","","","","","","","","","","","","","","","","","","","","","","","","","","","","","",""
"","rating","","html-slider-response","27","140649","0.0-26.0","0","0","DYGU0","Scenes","","3626","","","","69","131","luca-bravo-hFzIoD0F_i8-unsplash.jpg","23","","","","","","","","","","","","","","","","","","","","","","","","","","","","","","","","","","","","","","","",""
"","rating","","html-slider-response","28","144350","0.0-27.0","0","0","DYGU0","Scenes","","3700","","","","89","141","sebastian-unrau-v4e3JI7DDHI-unsplash.jpg","24","","","","","","","","","","","","","","","","","","","","","","","","","","","","","","","","","","","","","","","",""
"","rating","","html-slider-response","29","149667","0.0-28.0","0","0","DYGU0","Scenes","","5316","","","","95","120","jarrett-kow-1ZOyYPOBn7I-unsplash.jpg","25","","","","","","","","","","","","","","","","","","","","","","","","","","","","","","","","","","","","","","","",""
"","rating","","html-slider-response","30","152083","0.0-29.0","0","0","DYGU0","Scenes","","2416","","","","73","111","claudio-testa-U3F2o6vz3bs-unsplash.jpg","26","","","","","","","","","","","","","","","","","","","","","","","","","","","","","","","","","","","","","","","",""
"","rating","","html-slider-response","31","155634","0.0-30.0","0","0","DYGU0","Scenes","","3550","","","","45","122","jeff-king-bJHWJeiHfHc-unsplash.jpg","27","","","","","","","","","","","","","","","","","","","","","","","","","","","","","","","","","","","","","","","",""
"","rating","","html-slider-response","32","158303","0.0-31.0","0","0","DYGU0","Scenes","","2668","","","","100","145","stephen-leonardi-gyIRjKPXupE-unsplash.jpg","28","","","","","","","","","","","","","","","","","","","","","","","","","","","","","","","","","","","","","","","",""
"","rating","","html-slider-response","33","162519","0.0-32.0","0","0","DYGU0","Scenes","","4215","","","","89","142","sergey-pesterev-y-b_FOmJXdg-unsplash.jpg","29","","","","","","","","","","","","","","","","","","","","","","","","","","","","","","","","","","","","","","","",""
"","rating","","html-slider-response","34","164902","0.0-33.0","0","0","DYGU0","Scenes","","2382","","","","75","146","thomas-morse-cuKKa0vWZSY-unsplash.jpg","30","","","","","","","","","","","","","","","","","","","","","","","","","","","","","","","","","","","","","","","",""
"","rating","","html-slider-response","35","170422","0.0-34.0","0","0","DYGU0","Scenes","","5519","","","","33","149","yuriy-bogdanov-W51VK3Obcj0-unsplash.jpg","31","","","","","","","","","","","","","","","","","","","","","","","","","","","","","","","","","","","","","","","",""
"","rating","","html-slider-response","36","173253","0.0-35.0","0","0","DYGU0","Scenes","","2829","","","","52","118","henry-be-NLF6hTe4PAg-unsplash.jpg","32","","","","","","","","","","","","","","","","","","","","","","","","","","","","","","","","","","","","","","","",""
"","rating","","html-slider-response","37","176126","0.0-36.0","0","0","DYGU0","Scenes","","2873","","","","96","135","mohammad-alizade-4wzRuAb-KWs-unsplash.jpg","33","","","","","","","","","","","","","","","","","","","","","","","","","","","","","","","","","","","","","","","",""
"","rating","","html-slider-response","38","179027","0.0-37.0","0","0","DYGU0","Scenes","","2901","","","","78","143","sigurdur-fjalar-jonsson-1KxBabIntpE-unsplash.jpg","34","","","","","","","","","","","","","","","","","","","","","","","","","","","","","","","","","","","","","","","",""
"","rating","","html-slider-response","39","182999","0.0-38.0","0","0","DYGU0","Scenes","","3970","","","","98","127","kace-rodriguez-p3OzJuT_Dks-unsplash.jpg","35","","","","","","","","","","","","","","","","","","","","","","","","","","","","","","","","","","","","","","","",""
"","rating","","html-slider-response","40","185999","0.0-39.0","0","0","DYGU0","Scenes","","3000","","","","98","108","benjamin-voros-phIFdC6lA4E-unsplash.jpg","36","","","","","","","","","","","","","","","","","","","","","","","","","","","","","","","","","","","","","","","",""
"","rating","","html-slider-response","41","190831","0.0-40.0","0","0","DYGU0","Scenes","","4830","","","","80","114","daniel-sessler-z_9VmsxR8hs-unsplash.jpg","37","","","","","","","","","","","","","","","","","","","","","","","","","","","","","","","","","","","","","","","",""
"","rating","","html-slider-response","42","194845","0.0-41.0","0","0","DYGU0","Scenes","","4013","","","","71","139","samsommer-vddccTqwal8-unsplash.jpg","38","","","","","","","","","","","","","","","","","","","","","","","","","","","","","","","","","","","","","","","",""
"","rating","","html-slider-response","43","197227","0.0-42.0","0","0","DYGU0","Scenes","","2381","","","","97","148","tom-gainor-ZqLeQDjY6fY-unsplash.jpg","39","","","","","","","","","","","","","","","","","","","","","","","","","","","","","","","","","","","","","","","",""
"","rating","","html-slider-response","44","201232","0.0-43.0","0","0","DYGU0","Scenes","","4004","","","","55","105","ashim-d-silva-S2Q5mdOrrVc-unsplash.jpg","40","","","","","","","","","","","","","","","","","","","","","","","","","","","","","","","","","","","","","","","",""
"","rating","","html-slider-response","45","203751","0.0-44.0","0","0","DYGU0","Scenes","","2518","","","","89","106","ashim-d-silva-WeYamle9fDM-unsplash.jpg","41","","","","","","","","","","","","","","","","","","","","","","","","","","","","","","","","","","","","","","","",""
"","rating","","html-slider-response","46","206081","0.0-45.0","0","0","DYGU0","Scenes","","2330","","","","39","133","mickey-o-neil-xL66l--msXU-unsplash.jpg","42","","","","","","","","","","","","","","","","","","","","","","","","","","","","","","","","","","","","","","","",""
"","rating","","html-slider-response","47","208910","0.0-46.0","0","0","DYGU0","Scenes","","2827","","","","65","101","aniket-deole-T-tOgjWZ0fQ-unsplash.jpg","43","","","","","","","","","","","","","","","","","","","","","","","","","","","","","","","","","","","","","","","",""
"","rating","","html-slider-response","48","211713","0.0-47.0","0","0","DYGU0","Scenes","","2803","","","","99","124","johannes-plenio-sPt5RIjKfpk-unsplash.jpg","44","","","","","","","","","","","","","","","","","","","","","","","","","","","","","","","","","","","","","","","",""
"","rating","","html-slider-response","49","214466","0.0-48.0","0","0","DYGU0","Scenes","","2752","","","","87","126","jordan-mcqueen-PJCZOWuOxbU-unsplash.jpg","45","","","","","","","","","","","","","","","","","","","","","","","","","","","","","","","","","","","","","","","",""
"","rating","","html-slider-response","50","217185","0.0-49.0","0","0","DYGU0","Scenes","","2718","","","","98","112","cosmic-timetraveler-pYyOZ8q7AII-unsplash.jpg","46","","","","","","","","","","","","","","","","","","","","","","","","","","","","","","","","","","","","","","","",""
"","rating","","html-slider-response","51","219613","0.0-50.0","0","0","DYGU0","Scenes","","2427","","","","88","119","james-wheeler-AFC0XvICMgs-unsplash.jpg","47","","","","","","","","","","","","","","","","","","","","","","","","","","","","","","","","","","","","","","","",""
"","rating","","html-slider-response","52","222737","0.0-51.0","0","0","DYGU0","Scenes","","3122","","","","92","116","david-marcu-W5MhJ6cy1So-unsplash.jpg","48","","","","","","","","","","","","","","","","","","","","","","","","","","","","","","","","","","","","","","","",""
"","rating","","html-slider-response","53","225072","0.0-52.0","0","0","DYGU0","Scenes","","2334","","","","53","115","darrell-cassell-hoCXpPUMCoE-unsplash.jpg","49","","","","","","","","","","","","","","","","","","","","","","","","","","","","","","","","","","","","","","","",""
"","deliberation_instructions","","instructions","54","270466","0.0-53.0-0.0","0","0","DYGU0","Scenes","[{""page_index"":0,""viewing_time"":14701},{""page_index"":1,""viewing_time"":10556},{""page_index"":2,""viewing_time"":9989},{""page_index"":3,""viewing_time"":8027},{""page_index"":4,""viewing_time"":2119}]","45392","","","","","","","","","","","","","","","","","","","","","","","","","","","","","","","","","","","","","","","","","","","","","","",""
"","deliberation_comprehension_check","","survey-multi-choice","55","295798","0.0-53.0-1.0","0","0","DYGU0","Scenes","","25331","{""Q0"":""True"",""Q1"":""True"",""Q2"":""Consider carefully and take your time (up to 10 seconds)"",""Q3"":""True"",""Q4"":""K""}","1","","","","","","","","","","","","","","","","","","","","","","","","","","","","","","","","","","","","","","","","","","","","",""
"","missed_instruction_checkup","","html-keyboard-response","56","299100","0.0-53.0-2.0-0.0","0","1","DYGU0","Scenes","","3300","","","78","","","","","","","","","","","","","","","","","","","","","","","","","","","","","","","","","","","","","","","","","","","",""
"","deliberation_instructions","","instructions","57","313636","0.0-53.1-0.1","0","0","DYGU0","Scenes","[{""page_index"":0,""viewing_time"":4510},{""page_index"":1,""viewing_time"":825},{""page_index"":2,""viewing_time"":1112},{""page_index"":1,""viewing_time"":3758},{""page_index"":2,""viewing_time"":2208},{""page_index"":3,""viewing_time"":1392},{""page_index"":4,""viewing_time"":730}]","14535","","","","","","","","","","","","","","","","","","","","","","","","","","","","","","","","","","","","","","","","","","","","","","",""
"","deliberation_comprehension_check","","survey-multi-choice","58","323387","0.0-53.1-1.1","0","0","DYGU0","Scenes","","9748","{""Q0"":""True"",""Q1"":""False"",""Q2"":""Consider carefully and take your time (up to 10 seconds)"",""Q3"":""True"",""Q4"":""K""}","1","","","","","","","","","","","","","","","","","","","","","","","","","","","","","","","","","","","","","","","","","","","","",""
"","missed_instruction_checkup","","html-keyboard-response","59","325668","0.0-53.1-2.1-0.1","0","1","DYGU0","Scenes","","2281","","","78","","","","","","","","","","","","","","","","","","","","","","","","","","","","","","","","","","","","","","","","","","","",""
"","deliberation_instructions","","instructions","60","328805","0.0-53.2-0.2","0","0","DYGU0","Scenes","[{""page_index"":0,""viewing_time"":1545},{""page_index"":1,""viewing_time"":138},{""page_index"":2,""viewing_time"":140},{""page_index"":3,""viewing_time"":135},{""page_index"":4,""viewing_time"":1178}]","3136","","","","","","","","","","","","","","","","","","","","","","","","","","","","","","","","","","","","","","","","","","","","","","",""
"","deliberation_comprehension_check","","survey-multi-choice","61","369032","0.0-53.2-1.2","0","0","DYGU0","Scenes","","40225","{""Q0"":""True"",""Q1"":""False"",""Q2"":""Consider carefully and take your time (up to 10 seconds)"",""Q3"":""False"",""Q4"":""K""}","1","","","","","","","","","","","","","","","","","","","","","","","","","","","","","","","","","","","","","","","","","","","","",""
"","missed_instruction_checkup","","html-keyboard-response","62","370741","0.0-53.2-2.2-0.2","0","1","DYGU0","Scenes","","1708","","","78","","","","","","","","","","","","","","","","","","","","","","","","","","","","","","","","","","","","","","","","","","","",""
"","deliberation_instructions","","instructions","63","395385","0.0-53.3-0.3","0","0","DYGU0","Scenes","[{""page_index"":0,""viewing_time"":5672},{""page_index"":1,""viewing_time"":1195},{""page_index"":2,""viewing_time"":13315},{""page_index"":3,""viewing_time"":2586},{""page_index"":4,""viewing_time"":1875}]","24643","","","","","","","","","","","","","","","","","","","","","","","","","","","","","","","","","","","","","","","","","","","","","","",""
"","deliberation_comprehension_check","","survey-multi-choice","64","411539","0.0-53.3-1.3","0","0","DYGU0","Scenes","","16152","{""Q0"":""True"",""Q1"":""False"",""Q2"":""Consider carefully and take your time (up to 10 seconds)"",""Q3"":""True"",""Q4"":""D""}","1","","","","","","","","","","","","","","","","","","","","","","","","","","","","","","","","","","","","","","","","","","","","",""
"","missed_instruction_checkup","","html-keyboard-response","65","413345","0.0-53.3-2.3-0.3","0","1","DYGU0","Scenes","","1805","","","78","","","","","","","","","","","","","","","","","","","","","","","","","","","","","","","","","","","","","","","","","","","",""
"","deliberation_instructions","","instructions","66","417241","0.0-53.4-0.4","0","0","DYGU0","Scenes","[{""page_index"":0,""viewing_time"":2760},{""page_index"":1,""viewing_time"":232},{""page_index"":2,""viewing_time"":173},{""page_index"":3,""viewing_time"":170},{""page_index"":4,""viewing_time"":560}]","3896","","","","","","","","","","","","","","","","","","","","","","","","","","","","","","","","","","","","","","","","","","","","","","",""
"","deliberation_comprehension_check","","survey-multi-choice","67","424349","0.0-53.4-1.4","0","0","DYGU0","Scenes","","7105","{""Q0"":""True"",""Q1"":""True"",""Q2"":""Consider carefully and take your time (up to 10 seconds)"",""Q3"":""True"",""Q4"":""D""}","0","","","","","","","","","","","","","","","","","","","","","","","","","","","","","","","","","","","","","","","","","","","","",""
"","start_phase","","html-keyboard-response","68","426145","0.0-54.0","0","0","DYGU0","Scenes","","1794","","","78","","","","","","","","","","","","","","","","","","","","","","","","","","","","","","","","","","","","","","","","","","","",""
"","first_deliberation_block","","html-keyboard-response","69","426995","0.0-55.0","0","0","DYGU0","Scenes","","849","","","78","","","","","","","","","","","","","","","","","","","","","","","","","","","","","","","","","","","","","","","","","","","",""
"","fixation","","html-keyboard-response","70","427999","0.0-56.0-0.0","0","0","DYGU0","Scenes","","null","","","null","","","","","","","","","","","","","","","","","","","","","","","","","","","","","","","","","","","","","","","","","","","",""
"","deliberation","","html-keyboard-response","71","433886","0.0-56.0-1.0","0","0","DYGU0","Scenes","","5886","","","75","","","","0","147","111","1","-1","81","73","tobias-keller-73F4pKoUkM0-unsplash.jpg","claudio-testa-U3F2o6vz3bs-unsplash.jpg","1","0","111","147","","","","","","","","","","","","","","","","","","","","","","","","","","","",""
"","choice_confirmation","","html-keyboard-response","72","434402","0.0-56.0-2.0-0.0","0","0","DYGU0","Scenes","","null","","","null","","","","0","147","111","","","","","","","","","","","","","","","","","","","","","","","","","","","","","","","","","","","","","",""
"","explain_trial","","survey-text","73","454688","0.0-56.0-5.0-0.0","0","0","DYGU0","Scenes","","20285","{""Q0"":""It's brighter and more vivid gets more attention""}","","","","","","0","147","111","","","","","","","","","","","{""Q0"":""It's brighter and more vivid gets more attention""}","","","","","","","","","","","","","","","","","","","","","","","","","","",""
"","fixation","","html-keyboard-response","74","455701","0.0-57.0-0.0","0","0","DYGU0","Scenes","","null","","","null","","","","","","","","","","","","","","","","","","","","","","","","","","","","","","","","","","","","","","","","","","","",""
"","deliberation","","html-keyboard-response","75","461573","0.0-57.0-1.0","0","0","DYGU0","Scenes","","5871","","","75","","","","1","114","139","1","1","80","71","daniel-sessler-z_9VmsxR8hs-unsplash.jpg","samsommer-vddccTqwal8-unsplash.jpg","1","0","139","114","","","","","","","","","","","","","","","","","","","","","","","","","","","",""
"","choice_confirmation","","html-keyboard-response","76","462075","0.0-57.0-2.0-0.0","0","0","DYGU0","Scenes","","null","","","null","","","","1","114","139","","","","","","","","","","","","","","","","","","","","","","","","","","","","","","","","","","","","","",""
"","explain_trial","","survey-text","77","470491","0.0-57.0-5.0-0.0","0","0","DYGU0","Scenes","","8415","{""Q0"":""Unquie and looks cool""}","","","","","","1","114","139","","","","","","","","","","","{""Q0"":""Unquie and looks cool""}","","","","","","","","","","","","","","","","","","","","","","","","","","",""
"","fixation","","html-keyboard-response","78","471501","0.0-58.0-0.0","0","0","DYGU0","Scenes","","null","","","null","","","","","","","","","","","","","","","","","","","","","","","","","","","","","","","","","","","","","","","","","","","",""
"","deliberation","","html-keyboard-response","79","475996","0.0-58.0-1.0","0","0","DYGU0","Scenes","","4494","","","75","","","","2","130","110","1","1","75","75","lina-loos-04-C1NZk1hE-unsplash.jpg","bruno-van-der-kraan-qez8mNJ3ilU-unsplash.jpg","1","0","110","130","","","","","","","","","","","","","","","","","","","","","","","","","","","",""
"","choice_confirmation","","html-keyboard-response","80","476502","0.0-58.0-2.0-0.0","0","0","DYGU0","Scenes","","null","","","null","","","","2","130","110","","","","","","","","","","","","","","","","","","","","","","","","","","","","","","","","","","","","","",""
"","explain_trial","","survey-text","81","484147","0.0-58.0-5.0-0.0","0","0","DYGU0","Scenes","","7643","{""Q0"":""I like it more...""}","","","","","","2","130","110","","","","","","","","","","","{""Q0"":""I like it more...""}","","","","","","","","","","","","","","","","","","","","","","","","","","",""
"","fixation","","html-keyboard-response","82","485150","0.0-59.0-0.0","0","0","DYGU0","Scenes","","null","","","null","","","","","","","","","","","","","","","","","","","","","","","","","","","","","","","","","","","","","","","","","","","",""
"","deliberation","","html-keyboard-response","83","495173","0.0-59.0-1.0","0","0","DYGU0","Scenes","","null","","","null","","","","3","123","107","0","1","79","83","joel-jasmin-forestbird-efuwb5eBDrI-unsplash.jpg","benjamin-davies-Zm2n2O7Fph4-unsplash.jpg","1","","","","","","","","","","","","","","","","","","","","","","","","","","","","","","",""
"","deliberation_too_slow","","html-keyboard-response","84","496691","0.0-59.0-4.0-0.0","1","0","DYGU0","Scenes","","null","","","null","","","","3","","","","","","","","","","","","","","","","","","","","","","","","","","","","","","","","","","","","","","","",""
"","fixation","","html-keyboard-response","85","497697","0.0-59.1-0.1","0","0","DYGU0","Scenes","","null","","","null","","","","","","","","","","","","","","","","","","","","","","","","","","","","","","","","","","","","","","","","","","","",""
"","deliberation","","html-keyboard-response","86","499788","0.0-59.1-1.1","0","0","DYGU0","Scenes","","2090","","","68","","","","3","123","107","0","1","79","83","joel-jasmin-forestbird-efuwb5eBDrI-unsplash.jpg","benjamin-davies-Zm2n2O7Fph4-unsplash.jpg","1","1","123","107","","","","","","","","","","","","","","","","","","","","","","","","","","","",""
"","choice_confirmation","","html-keyboard-response","87","500305","0.0-59.1-2.1-0.1","0","0","DYGU0","Scenes","","null","","","null","","","","3","123","107","","","","","","","","","","","","","","","","","","","","","","","","","","","","","","","","","","","","","",""
"","fixation","","html-keyboard-response","88","501324","0.0-60.0-0.0","0","0","DYGU0","Scenes","","null","","","null","","","","","","","","","","","","","","","","","","","","","","","","","","","","","","","","","","","","","","","","","","","",""
"","deliberation","","html-keyboard-response","89","504714","0.0-60.0-1.0","0","0","DYGU0","Scenes","","3389","","","75","","","","4","138","126","1","-1","82","87","petr-vysohlid-9fqwGqGLUxc-unsplash.jpg","jordan-mcqueen-PJCZOWuOxbU-unsplash.jpg","1","0","126","138","","","","","","","","","","","","","","","","","","","","","","","","","","","",""
"","choice_confirmation","","html-keyboard-response","90","505227","0.0-60.0-2.0-0.0","0","0","DYGU0","Scenes","","null","","","null","","","","4","138","126","","","","","","","","","","","","","","","","","","","","","","","","","","","","","","","","","","","","","",""
"","explain_trial","","survey-text","91","520296","0.0-60.0-5.0-0.0","0","0","DYGU0","Scenes","","15069","{""Q0"":""Its better photo""}","","","","","","4","138","126","","","","","","","","","","","{""Q0"":""Its better photo""}","","","","","","","","","","","","","","","","","","","","","","","","","","",""
"","fixation","","html-keyboard-response","92","521303","0.0-61.0-0.0","0","0","DYGU0","Scenes","","null","","","null","","","","","","","","","","","","","","","","","","","","","","","","","","","","","","","","","","","","","","","","","","","",""
"","deliberation","","html-keyboard-response","93","526994","0.0-61.0-1.0","0","0","DYGU0","Scenes","","5691","","","68","","","","5","140","136","0","-1","71","86","samuele-errico-piccarini-JEBqFu2AOOA-unsplash.jpg","nicolas-jehly-LzVB84KkZOE-unsplash.jpg","1","1","140","136","","","","","","","","","","","","","","","","","","","","","","","","","","","",""
"","choice_confirmation","","html-keyboard-response","94","527504","0.0-61.0-2.0-0.0","0","0","DYGU0","Scenes","","null","","","null","","","","5","140","136","","","","","","","","","","","","","","","","","","","","","","","","","","","","","","","","","","","","","",""
"","fixation","","html-keyboard-response","95","528523","0.0-62.0-0.0","0","0","DYGU0","Scenes","","null","","","null","","","","","","","","","","","","","","","","","","","","","","","","","","","","","","","","","","","","","","","","","","","",""
"","deliberation","","html-keyboard-response","96","534580","0.0-62.0-1.0","0","0","DYGU0","Scenes","","6056","","","68","","","","6","144","132","0","-1","76","87","solotravelgoals-7kLufxYoqWk-unsplash.jpg","meng-ji-8BH_M-53CyA-unsplash.jpg","1","1","144","132","","","","","","","","","","","","","","","","","","","","","","","","","","","",""
"","choice_confirmation","","html-keyboard-response","97","535088","0.0-62.0-2.0-0.0","0","0","DYGU0","Scenes","","null","","","null","","","","6","144","132","","","","","","","","","","","","","","","","","","","","","","","","","","","","","","","","","","","","","",""
"","fixation","","html-keyboard-response","98","536104","0.0-63.0-0.0","0","0","DYGU0","Scenes","","null","","","null","","","","","","","","","","","","","","","","","","","","","","","","","","","","","","","","","","","","","","","","","","","",""
"","deliberation","","html-keyboard-response","99","542320","0.0-63.0-1.0","0","0","DYGU0","Scenes","","6215","","","75","","","","7","109","102","1","1","80","66","brigitta-schneiter-hXXRLtTxXCU-unsplash.jpg","anisur-rahman-K2b7UDed6uQ-unsplash.jpg","1","0","102","109","","","","","","","","","","","","","","","","","","","","","","","","","","","",""
"","choice_confirmation","","html-keyboard-response","100","542835","0.0-63.0-2.0-0.0","0","0","DYGU0","Scenes","","null","","","null","","","","7","109","102","","","","","","","","","","","","","","","","","","","","","","","","","","","","","","","","","","","","","",""
"","explain_trial","","survey-text","101","553594","0.0-63.0-5.0-0.0","0","0","DYGU0","Scenes","","10757","{""Q0"":""its got better colors""}","","","","","","7","109","102","","","","","","","","","","","{""Q0"":""its got better colors""}","","","","","","","","","","","","","","","","","","","","","","","","","","",""
"","fixation","","html-keyboard-response","102","554602","0.0-64.0-0.0","0","0","DYGU0","Scenes","","null","","","null","","","","","","","","","","","","","","","","","","","","","","","","","","","","","","","","","","","","","","","","","","","",""
"","deliberation","","html-keyboard-response","103","560985","0.0-64.0-1.0","0","0","DYGU0","Scenes","","6383","","","68","","","","8","137","146","1","1","88","75","olga-stalska-QaWRyEdlffY-unsplash.jpg","thomas-morse-cuKKa0vWZSY-unsplash.jpg","1","1","137","146","","","","","","","","","","","","","","","","","","","","","","","","","","","",""
"","choice_confirmation","","html-keyboard-response","104","561489","0.0-64.0-2.0-0.0","0","0","DYGU0","Scenes","","null","","","null","","","","8","137","146","","","","","","","","","","","","","","","","","","","","","","","","","","","","","","","","","","","","","",""
"","explain_trial","","survey-text","105","576793","0.0-64.0-5.0-0.0","0","0","DYGU0","Scenes","","15303","{""Q0"":""The lake sells me more""}","","","","","","8","137","146","","","","","","","","","","","{""Q0"":""The lake sells me more""}","","","","","","","","","","","","","","","","","","","","","","","","","","",""
"","fixation","","html-keyboard-response","106","577795","0.0-65.0-0.0","0","0","DYGU0","Scenes","","null","","","null","","","","","","","","","","","","","","","","","","","","","","","","","","","","","","","","","","","","","","","","","","","",""
"","deliberation","","html-keyboard-response","107","581227","0.0-65.0-1.0","0","0","DYGU0","Scenes","","3432","","","75","","","","9","129","131","0","1","75","69","kurt-cotoaga-cqbLg3lZEpk-unsplash.jpg","luca-bravo-hFzIoD0F_i8-unsplash.jpg","1","0","131","129","","","","","","","","","","","","","","","","","","","","","","","","","","","",""
"","choice_confirmation","","html-keyboard-response","108","581743","0.0-65.0-2.0-0.0","0","0","DYGU0","Scenes","","null","","","null","","","","9","129","131","","","","","","","","","","","","","","","","","","","","","","","","","","","","","","","","","","","","","",""
"","fixation","","html-keyboard-response","109","582757","0.0-66.0-0.0","0","0","DYGU0","Scenes","","null","","","null","","","","","","","","","","","","","","","","","","","","","","","","","","","","","","","","","","","","","","","","","","","",""
"","deliberation","","html-keyboard-response","110","586928","0.0-66.0-1.0","0","0","DYGU0","Scenes","","4170","","","68","","","","10","101","143","0","-1","65","78","aniket-deole-T-tOgjWZ0fQ-unsplash.jpg","sigurdur-fjalar-jonsson-1KxBabIntpE-unsplash.jpg","1","1","101","143","","","","","","","","","","","","","","","","","","","","","","","","","","","",""
"","choice_confirmation","","html-keyboard-response","111","587437","0.0-66.0-2.0-0.0","0","0","DYGU0","Scenes","","null","","","null","","","","10","101","143","","","","","","","","","","","","","","","","","","","","","","","","","","","","","","","","","","","","","",""
"","fixation","","html-keyboard-response","112","588453","0.0-67.0-0.0","0","0","DYGU0","Scenes","","null","","","null","","","","","","","","","","","","","","","","","","","","","","","","","","","","","","","","","","","","","","","","","","","",""
"","deliberation","","html-keyboard-response","113","594146","0.0-67.0-1.0","0","0","DYGU0","Scenes","","5693","","","75","","","","11","134","104","0","-1","87","86","milada-vigerova-pQMM63GE7fo-unsplash.jpg","artem-sapegin-XGDBdSQ70O0-unsplash.jpg","1","0","104","134","","","","","","","","","","","","","","","","","","","","","","","","","","","",""
"","choice_confirmation","","html-keyboard-response","114","594658","0.0-67.0-2.0-0.0","0","0","DYGU0","Scenes","","null","","","null","","","","11","134","104","","","","","","","","","","","","","","","","","","","","","","","","","","","","","","","","","","","","","",""
"","practice_deliberation_again","","html-keyboard-response","115","599609","0.0-67.0-6.0-0.0","0","0","DYGU0","Scenes","","4949","","","78","","","","","","","","","","","","","","","","","","","","","","","","","","","","","","","","","","","","","","","","","","","",""
"","fixation","","html-keyboard-response","116","600630","0.0-68.0-0.0","0","0","DYGU0","Scenes","","null","","","null","","","","","","","","","","","","","","","","","","","","","","","","","","","","","","","","","","","","","","","","","","","",""
"","deliberation","","html-keyboard-response","117","603187","0.0-68.0-1.0","0","0","DYGU0","Scenes","","2556","","","75","","","","12","114","139","0","1","80","71","daniel-sessler-z_9VmsxR8hs-unsplash.jpg","samsommer-vddccTqwal8-unsplash.jpg","2","0","139","114","","","","","","","","","","","","","","","","","","","","","","","","","","","",""
"","choice_confirmation","","html-keyboard-response","118","603696","0.0-68.0-2.0-0.0","0","0","DYGU0","Scenes","","null","","","null","","","","12","114","139","","","","","","","","","","","","","","","","","","","","","","","","","","","","","","","","","","","","","",""
"","fixation","","html-keyboard-response","119","604712","0.0-69.0-0.0","0","0","DYGU0","Scenes","","null","","","null","","","","","","","","","","","","","","","","","","","","","","","","","","","","","","","","","","","","","","","","","","","",""
"","deliberation","","html-keyboard-response","120","607541","0.0-69.0-1.0","0","0","DYGU0","Scenes","","2829","","","75","","","","13","147","111","0","-1","81","73","tobias-keller-73F4pKoUkM0-unsplash.jpg","claudio-testa-U3F2o6vz3bs-unsplash.jpg","2","0","111","147","","","","","","","","","","","","","","","","","","","","","","","","","","","",""
"","choice_confirmation","","html-keyboard-response","121","608058","0.0-69.0-2.0-0.0","0","0","DYGU0","Scenes","","null","","","null","","","","13","147","111","","","","","","","","","","","","","","","","","","","","","","","","","","","","","","","","","","","","","",""
"","fixation","","html-keyboard-response","122","609073","0.0-70.0-0.0","0","0","DYGU0","Scenes","","null","","","null","","","","","","","","","","","","","","","","","","","","","","","","","","","","","","","","","","","","","","","","","","","",""
"","deliberation","","html-keyboard-response","123","612677","0.0-70.0-1.0","0","0","DYGU0","Scenes","","3604","","","75","","","","14","129","131","1","1","75","69","kurt-cotoaga-cqbLg3lZEpk-unsplash.jpg","luca-bravo-hFzIoD0F_i8-unsplash.jpg","2","0","131","129","","","","","","","","","","","","","","","","","","","","","","","","","","","",""
"","choice_confirmation","","html-keyboard-response","124","613183","0.0-70.0-2.0-0.0","0","0","DYGU0","Scenes","","null","","","null","","","","14","129","131","","","","","","","","","","","","","","","","","","","","","","","","","","","","","","","","","","","","","",""
"","explain_trial","","survey-text","125","631142","0.0-70.0-5.0-0.0","0","0","DYGU0","Scenes","","17957","{""Q0"":""I like the foreground to background""}","","","","","","14","129","131","","","","","","","","","","","{""Q0"":""I like the foreground to background""}","","","","","","","","","","","","","","","","","","","","","","","","","","",""
"","fixation","","html-keyboard-response","126","632151","0.0-71.0-0.0","0","0","DYGU0","Scenes","","null","","","null","","","","","","","","","","","","","","","","","","","","","","","","","","","","","","","","","","","","","","","","","","","",""
"","deliberation","","html-keyboard-response","127","634157","0.0-71.0-1.0","0","0","DYGU0","Scenes","","2005","","","75","","","","15","138","126","0","-1","82","87","petr-vysohlid-9fqwGqGLUxc-unsplash.jpg","jordan-mcqueen-PJCZOWuOxbU-unsplash.jpg","2","0","126","138","","","","","","","","","","","","","","","","","","","","","","","","","","","",""
"","choice_confirmation","","html-keyboard-response","128","634667","0.0-71.0-2.0-0.0","0","0","DYGU0","Scenes","","null","","","null","","","","15","138","126","","","","","","","","","","","","","","","","","","","","","","","","","","","","","","","","","","","","","",""
"","fixation","","html-keyboard-response","129","635683","0.0-72.0-0.0","0","0","DYGU0","Scenes","","null","","","null","","","","","","","","","","","","","","","","","","","","","","","","","","","","","","","","","","","","","","","","","","","",""
"","deliberation","","html-keyboard-response","130","637885","0.0-72.0-1.0","0","0","DYGU0","Scenes","","2202","","","75","","","","16","109","102","0","1","80","66","brigitta-schneiter-hXXRLtTxXCU-unsplash.jpg","anisur-rahman-K2b7UDed6uQ-unsplash.jpg","2","0","102","109","","","","","","","","","","","","","","","","","","","","","","","","","","","",""
"","choice_confirmation","","html-keyboard-response","131","638399","0.0-72.0-2.0-0.0","0","0","DYGU0","Scenes","","null","","","null","","","","16","109","102","","","","","","","","","","","","","","","","","","","","","","","","","","","","","","","","","","","","","",""
"","fixation","","html-keyboard-response","132","639408","0.0-73.0-0.0","0","0","DYGU0","Scenes","","null","","","null","","","","","","","","","","","","","","","","","","","","","","","","","","","","","","","","","","","","","","","","","","","",""
"","deliberation","","html-keyboard-response","133","641719","0.0-73.0-1.0","0","0","DYGU0","Scenes","","2311","","","68","","","","17","137","146","0","1","88","75","olga-stalska-QaWRyEdlffY-unsplash.jpg","thomas-morse-cuKKa0vWZSY-unsplash.jpg","2","1","137","146","","","","","","","","","","","","","","","","","","","","","","","","","","","",""
"","choice_confirmation","","html-keyboard-response","134","642234","0.0-73.0-2.0-0.0","0","0","DYGU0","Scenes","","null","","","null","","","","17","137","146","","","","","","","","","","","","","","","","","","","","","","","","","","","","","","","","","","","","","",""
"","fixation","","html-keyboard-response","135","643246","0.0-74.0-0.0","0","0","DYGU0","Scenes","","null","","","null","","","","","","","","","","","","","","","","","","","","","","","","","","","","","","","","","","","","","","","","","","","",""
"","deliberation","","html-keyboard-response","136","647854","0.0-74.0-1.0","0","0","DYGU0","Scenes","","4607","","","68","","","","18","144","132","1","-1","76","87","solotravelgoals-7kLufxYoqWk-unsplash.jpg","meng-ji-8BH_M-53CyA-unsplash.jpg","2","1","144","132","","","","","","","","","","","","","","","","","","","","","","","","","","","",""
"","choice_confirmation","","html-keyboard-response","137","648372","0.0-74.0-2.0-0.0","0","0","DYGU0","Scenes","","null","","","null","","","","18","144","132","","","","","","","","","","","","","","","","","","","","","","","","","","","","","","","","","","","","","",""
"","explain_trial","","survey-text","138","660831","0.0-74.0-5.0-0.0","0","0","DYGU0","Scenes","","12458","{""Q0"":""Its more colors""}","","","","","","18","144","132","","","","","","","","","","","{""Q0"":""Its more colors""}","","","","","","","","","","","","","","","","","","","","","","","","","","",""
"","fixation","","html-keyboard-response","139","661833","0.0-75.0-0.0","0","0","DYGU0","Scenes","","null","","","null","","","","","","","","","","","","","","","","","","","","","","","","","","","","","","","","","","","","","","","","","","","",""
"","deliberation","","html-keyboard-response","140","664863","0.0-75.0-1.0","0","0","DYGU0","Scenes","","3028","","","68","","","","19","140","136","1","-1","71","86","samuele-errico-piccarini-JEBqFu2AOOA-unsplash.jpg","nicolas-jehly-LzVB84KkZOE-unsplash.jpg","2","1","140","136","","","","","","","","","","","","","","","","","","","","","","","","","","","",""
"","choice_confirmation","","html-keyboard-response","141","665375","0.0-75.0-2.0-0.0","0","0","DYGU0","Scenes","","null","","","null","","","","19","140","136","","","","","","","","","","","","","","","","","","","","","","","","","","","","","","","","","","","","","",""
"","explain_trial","","survey-text","142","684816","0.0-75.0-5.0-0.0","0","0","DYGU0","Scenes","","19439","{""Q0"":""The images with the reflection look great""}","","","","","","19","140","136","","","","","","","","","","","{""Q0"":""The images with the reflection look great""}","","","","","","","","","","","","","","","","","","","","","","","","","","",""
"","fixation","","html-keyboard-response","143","685823","0.0-76.0-0.0","0","0","DYGU0","Scenes","","null","","","null","","","","","","","","","","","","","","","","","","","","","","","","","","","","","","","","","","","","","","","","","","","",""
"","deliberation","","html-keyboard-response","144","688629","0.0-76.0-1.0","0","0","DYGU0","Scenes","","2804","","","75","","","","20","130","110","0","1","75","75","lina-loos-04-C1NZk1hE-unsplash.jpg","bruno-van-der-kraan-qez8mNJ3ilU-unsplash.jpg","2","0","110","130","","","","","","","","","","","","","","","","","","","","","","","","","","","",""
"","choice_confirmation","","html-keyboard-response","145","689138","0.0-76.0-2.0-0.0","0","0","DYGU0","Scenes","","null","","","null","","","","20","130","110","","","","","","","","","","","","","","","","","","","","","","","","","","","","","","","","","","","","","",""
"","fixation","","html-keyboard-response","146","690146","0.0-77.0-0.0","0","0","DYGU0","Scenes","","null","","","null","","","","","","","","","","","","","","","","","","","","","","","","","","","","","","","","","","","","","","","","","","","",""
"","deliberation","","html-keyboard-response","147","691522","0.0-77.0-1.0","0","0","DYGU0","Scenes","","1375","","","75","","","","21","134","104","1","-1","87","86","milada-vigerova-pQMM63GE7fo-unsplash.jpg","artem-sapegin-XGDBdSQ70O0-unsplash.jpg","2","0","104","134","","","","","","","","","","","","","","","","","","","","","","","","","","","",""
"","choice_confirmation","","html-keyboard-response","148","692035","0.0-77.0-2.0-0.0","0","0","DYGU0","Scenes","","null","","","null","","","","21","134","104","","","","","","","","","","","","","","","","","","","","","","","","","","","","","","","","","","","","","",""
"","explain_trial","","survey-text","149","715832","0.0-77.0-5.0-0.0","0","0","DYGU0","Scenes","","23795","{""Q0"":""The boat on the lake with fog and tower in back is awesome""}","","","","","","21","134","104","","","","","","","","","","","{""Q0"":""The boat on the lake with fog and tower in back is awesome""}","","","","","","","","","","","","","","","","","","","","","","","","","","",""
"","fixation","","html-keyboard-response","150","716839","0.0-78.0-0.0","0","0","DYGU0","Scenes","","null","","","null","","","","","","","","","","","","","","","","","","","","","","","","","","","","","","","","","","","","","","","","","","","",""
"","deliberation","","html-keyboard-response","151","723008","0.0-78.0-1.0","0","0","DYGU0","Scenes","","6169","","","68","","","","22","123","107","1","1","79","83","joel-jasmin-forestbird-efuwb5eBDrI-unsplash.jpg","benjamin-davies-Zm2n2O7Fph4-unsplash.jpg","2","1","123","107","","","","","","","","","","","","","","","","","","","","","","","","","","","",""
"","choice_confirmation","","html-keyboard-response","152","723525","0.0-78.0-2.0-0.0","0","0","DYGU0","Scenes","","null","","","null","","","","22","123","107","","","","","","","","","","","","","","","","","","","","","","","","","","","","","","","","","","","","","",""
"","explain_trial","","survey-text","153","747248","0.0-78.0-5.0-0.0","0","0","DYGU0","Scenes","","23721","{""Q0"":""The snowy aspect with the lake sells it more""}","","","","","","22","123","107","","","","","","","","","","","{""Q0"":""The snowy aspect with the lake sells it more""}","","","","","","","","","","","","","","","","","","","","","","","","","","",""
"","fixation","","html-keyboard-response","154","748255","0.0-79.0-0.0","0","0","DYGU0","Scenes","","null","","","null","","","","","","","","","","","","","","","","","","","","","","","","","","","","","","","","","","","","","","","","","","","",""
"","deliberation","","html-keyboard-response","155","750489","0.0-79.0-1.0","0","0","DYGU0","Scenes","","2232","","","68","","","","23","101","143","1","-1","65","78","aniket-deole-T-tOgjWZ0fQ-unsplash.jpg","sigurdur-fjalar-jonsson-1KxBabIntpE-unsplash.jpg","2","1","101","143","","","","","","","","","","","","","","","","","","","","","","","","","","","",""
"","choice_confirmation","","html-keyboard-response","156","750995","0.0-79.0-2.0-0.0","0","0","DYGU0","Scenes","","null","","","null","","","","23","101","143","","","","","","","","","","","","","","","","","","","","","","","","","","","","","","","","","","","","","",""
"","explain_trial","","survey-text","157","768160","0.0-79.0-5.0-0.0","0","0","DYGU0","Scenes","","17163","{""Q0"":""The mountain ranges in the back make it pop""}","","","","","","23","101","143","","","","","","","","","","","{""Q0"":""The mountain ranges in the back make it pop""}","","","","","","","","","","","","","","","","","","","","","","","","","","",""
"","start_critical_deliberation_block","","html-keyboard-response","158","771254","0.0-79.0-7.0-0.0","0","0","DYGU0","Scenes","","3093","","","78","","","","","","","","","","","","","","","","","","","","","","","","","","","","","","","","","","","","","","","","","","","",""
"","fixation","","html-keyboard-response","159","772268","0.0-80.0-0.0","0","0","DYGU0","Scenes","","null","","","null","","","","","","","","","","","","","","","","","","","","","","","","","","","","","","","","","","","","","","","","","","","",""
"","deliberation","","html-keyboard-response","160","775903","0.0-80.0-1.0","0","0","DYGU0","Scenes","","3634","","","75","","","","24","138","126","0","-1","82","87","petr-vysohlid-9fqwGqGLUxc-unsplash.jpg","jordan-mcqueen-PJCZOWuOxbU-unsplash.jpg","3","0","126","138","","","","","","","","","","","","","","","","","","","","","","","","","","","",""
"","choice_confirmation","","html-keyboard-response","161","776419","0.0-80.0-2.0-0.0","0","0","DYGU0","Scenes","","null","","","null","","","","24","138","126","","","","","","","","","","","","","","","","","","","","","","","","","","","","","","","","","","","","","",""
"","fixation","","html-keyboard-response","162","777427","0.0-81.0-0.0","0","0","DYGU0","Scenes","","null","","","null","","","","","","","","","","","","","","","","","","","","","","","","","","","","","","","","","","","","","","","","","","","",""
"","deliberation","","html-keyboard-response","163","780522","0.0-81.0-1.0","0","0","DYGU0","Scenes","","3093","","","68","","","","25","123","107","0","1","79","83","joel-jasmin-forestbird-efuwb5eBDrI-unsplash.jpg","benjamin-davies-Zm2n2O7Fph4-unsplash.jpg","3","1","123","107","","","","","","","","","","","","","","","","","","","","","","","","","","","",""
"","choice_confirmation","","html-keyboard-response","164","781028","0.0-81.0-2.0-0.0","0","0","DYGU0","Scenes","","null","","","null","","","","25","123","107","","","","","","","","","","","","","","","","","","","","","","","","","","","","","","","","","","","","","",""
"","fixation","","html-keyboard-response","165","782032","0.0-82.0-0.0","0","0","DYGU0","Scenes","","null","","","null","","","","","","","","","","","","","","","","","","","","","","","","","","","","","","","","","","","","","","","","","","","",""
"","deliberation","","html-keyboard-response","166","784977","0.0-82.0-1.0","0","0","DYGU0","Scenes","","2944","","","75","","","","26","130","110","0","1","75","75","lina-loos-04-C1NZk1hE-unsplash.jpg","bruno-van-der-kraan-qez8mNJ3ilU-unsplash.jpg","3","0","110","130","","","","","","","","","","","","","","","","","","","","","","","","","","","",""
"","choice_confirmation","","html-keyboard-response","167","785486","0.0-82.0-2.0-0.0","0","0","DYGU0","Scenes","","null","","","null","","","","26","130","110","","","","","","","","","","","","","","","","","","","","","","","","","","","","","","","","","","","","","",""
"","fixation","","html-keyboard-response","168","786502","0.0-83.0-0.0","0","0","DYGU0","Scenes","","null","","","null","","","","","","","","","","","","","","","","","","","","","","","","","","","","","","","","","","","","","","","","","","","",""
"","deliberation","","html-keyboard-response","169","788929","0.0-83.0-1.0","0","0","DYGU0","Scenes","","2427","","","75","","","","27","147","111","0","-1","81","73","tobias-keller-73F4pKoUkM0-unsplash.jpg","claudio-testa-U3F2o6vz3bs-unsplash.jpg","3","0","111","147","","","","","","","","","","","","","","","","","","","","","","","","","","","",""
"","choice_confirmation","","html-keyboard-response","170","789435","0.0-83.0-2.0-0.0","0","0","DYGU0","Scenes","","null","","","null","","","","27","147","111","","","","","","","","","","","","","","","","","","","","","","","","","","","","","","","","","","","","","",""
"","fixation","","html-keyboard-response","171","790447","0.0-84.0-0.0","0","0","DYGU0","Scenes","","null","","","null","","","","","","","","","","","","","","","","","","","","","","","","","","","","","","","","","","","","","","","","","","","",""
"","deliberation","","html-keyboard-response","172","792642","0.0-84.0-1.0","0","0","DYGU0","Scenes","","2194","","","68","","","","28","140","136","0","-1","71","86","samuele-errico-piccarini-JEBqFu2AOOA-unsplash.jpg","nicolas-jehly-LzVB84KkZOE-unsplash.jpg","3","1","140","136","","","","","","","","","","","","","","","","","","","","","","","","","","","",""
"","choice_confirmation","","html-keyboard-response","173","793153","0.0-84.0-2.0-0.0","0","0","DYGU0","Scenes","","null","","","null","","","","28","140","136","","","","","","","","","","","","","","","","","","","","","","","","","","","","","","","","","","","","","",""
"","fixation","","html-keyboard-response","174","794154","0.0-85.0-0.0","0","0","DYGU0","Scenes","","null","","","null","","","","","","","","","","","","","","","","","","","","","","","","","","","","","","","","","","","","","","","","","","","",""
"","deliberation","","html-keyboard-response","175","796788","0.0-85.0-1.0","0","0","DYGU0","Scenes","","2634","","","75","","","","29","109","102","0","1","80","66","brigitta-schneiter-hXXRLtTxXCU-unsplash.jpg","anisur-rahman-K2b7UDed6uQ-unsplash.jpg","3","0","102","109","","","","","","","","","","","","","","","","","","","","","","","","","","","",""
"","choice_confirmation","","html-keyboard-response","176","797295","0.0-85.0-2.0-0.0","0","0","DYGU0","Scenes","","null","","","null","","","","29","109","102","","","","","","","","","","","","","","","","","","","","","","","","","","","","","","","","","","","","","",""
"","fixation","","html-keyboard-response","177","798310","0.0-86.0-0.0","0","0","DYGU0","Scenes","","null","","","null","","","","","","","","","","","","","","","","","","","","","","","","","","","","","","","","","","","","","","","","","","","",""
"","deliberation","","html-keyboard-response","178","800189","0.0-86.0-1.0","0","0","DYGU0","Scenes","","1878","","","75","","","","30","134","104","0","-1","87","86","milada-vigerova-pQMM63GE7fo-unsplash.jpg","artem-sapegin-XGDBdSQ70O0-unsplash.jpg","3","0","104","134","","","","","","","","","","","","","","","","","","","","","","","","","","","",""
"","choice_confirmation","","html-keyboard-response","179","800701","0.0-86.0-2.0-0.0","0","0","DYGU0","Scenes","","null","","","null","","","","30","134","104","","","","","","","","","","","","","","","","","","","","","","","","","","","","","","","","","","","","","",""
"","fixation","","html-keyboard-response","180","801714","0.0-87.0-0.0","0","0","DYGU0","Scenes","","null","","","null","","","","","","","","","","","","","","","","","","","","","","","","","","","","","","","","","","","","","","","","","","","",""
"","deliberation","","html-keyboard-response","181","803753","0.0-87.0-1.0","0","0","DYGU0","Scenes","","2039","","","68","","","","31","144","132","0","-1","76","87","solotravelgoals-7kLufxYoqWk-unsplash.jpg","meng-ji-8BH_M-53CyA-unsplash.jpg","3","1","144","132","","","","","","","","","","","","","","","","","","","","","","","","","","","",""
"","choice_confirmation","","html-keyboard-response","182","804256","0.0-87.0-2.0-0.0","0","0","DYGU0","Scenes","","null","","","null","","","","31","144","132","","","","","","","","","","","","","","","","","","","","","","","","","","","","","","","","","","","","","",""
"","fixation","","html-keyboard-response","183","805270","0.0-88.0-0.0","0","0","DYGU0","Scenes","","null","","","null","","","","","","","","","","","","","","","","","","","","","","","","","","","","","","","","","","","","","","","","","","","",""
"","deliberation","","html-keyboard-response","184","807273","0.0-88.0-1.0","0","0","DYGU0","Scenes","","2003","","","75","","","","32","129","131","0","1","75","69","kurt-cotoaga-cqbLg3lZEpk-unsplash.jpg","luca-bravo-hFzIoD0F_i8-unsplash.jpg","3","0","131","129","","","","","","","","","","","","","","","","","","","","","","","","","","","",""
"","choice_confirmation","","html-keyboard-response","185","807785","0.0-88.0-2.0-0.0","0","0","DYGU0","Scenes","","null","","","null","","","","32","129","131","","","","","","","","","","","","","","","","","","","","","","","","","","","","","","","","","","","","","",""
"","fixation","","html-keyboard-response","186","808803","0.0-89.0-0.0","0","0","DYGU0","Scenes","","null","","","null","","","","","","","","","","","","","","","","","","","","","","","","","","","","","","","","","","","","","","","","","","","",""
"","deliberation","","html-keyboard-response","187","810615","0.0-89.0-1.0","0","0","DYGU0","Scenes","","1811","","","75","","","","33","114","139","0","1","80","71","daniel-sessler-z_9VmsxR8hs-unsplash.jpg","samsommer-vddccTqwal8-unsplash.jpg","3","0","139","114","","","","","","","","","","","","","","","","","","","","","","","","","","","",""
"","choice_confirmation","","html-keyboard-response","188","811122","0.0-89.0-2.0-0.0","0","0","DYGU0","Scenes","","null","","","null","","","","33","114","139","","","","","","","","","","","","","","","","","","","","","","","","","","","","","","","","","","","","","",""
"","fixation","","html-keyboard-response","189","812129","0.0-90.0-0.0","0","0","DYGU0","Scenes","","null","","","null","","","","","","","","","","","","","","","","","","","","","","","","","","","","","","","","","","","","","","","","","","","",""
"","deliberation","","html-keyboard-response","190","814627","0.0-90.0-1.0","0","0","DYGU0","Scenes","","2497","","","68","","","","34","137","146","0","1","88","75","olga-stalska-QaWRyEdlffY-unsplash.jpg","thomas-morse-cuKKa0vWZSY-unsplash.jpg","3","1","137","146","","","","","","","","","","","","","","","","","","","","","","","","","","","",""
"","choice_confirmation","","html-keyboard-response","191","815137","0.0-90.0-2.0-0.0","0","0","DYGU0","Scenes","","null","","","null","","","","34","137","146","","","","","","","","","","","","","","","","","","","","","","","","","","","","","","","","","","","","","",""
"","fixation","","html-keyboard-response","192","816150","0.0-91.0-0.0","0","0","DYGU0","Scenes","","null","","","null","","","","","","","","","","","","","","","","","","","","","","","","","","","","","","","","","","","","","","","","","","","",""
"","deliberation","","html-keyboard-response","193","818351","0.0-91.0-1.0","0","0","DYGU0","Scenes","","2201","","","68","","","","35","101","143","0","-1","65","78","aniket-deole-T-tOgjWZ0fQ-unsplash.jpg","sigurdur-fjalar-jonsson-1KxBabIntpE-unsplash.jpg","3","1","101","143","","","","","","","","","","","","","","","","","","","","","","","","","","","",""
"","choice_confirmation","","html-keyboard-response","194","818858","0.0-91.0-2.0-0.0","0","0","DYGU0","Scenes","","null","","","null","","","","35","101","143","","","","","","","","","","","","","","","","","","","","","","","","","","","","","","","","","","","","","",""
"","reward_learning_instructions","","instructions","195","870259","0.0-92.0-0.0","0","0","DYGU0","Scenes","[{""page_index"":0,""viewing_time"":24545},{""page_index"":1,""viewing_time"":25063},{""page_index"":2,""viewing_time"":1791}]","51399","","","","","","","","","","","","","","","","","","","","","","","","","","","","","","","","","","","","","","","","","","","","","","",""
"","reward_comprehension_check","","survey-multi-choice","196","885369","0.0-92.0-1.0","0","0","DYGU0","Scenes","","15107","{""Q0"":""True"",""Q1"":""True"",""Q2"":""Press the space bar to see its outcome"",""Q3"":""Press the relevant key while the outcome is presented""}","0","","","","","","","","","","","","","","","","","","","","","","","","","","","","","","","","","","","","","","","","","","","","",""
"","start_phase","","html-keyboard-response","197","887610","0.0-93.0","0","0","DYGU0","Scenes","","2240","","","78","","","","","","","","","","","","","","","","","","","","","","","","","","","","","","","","","","","","","","","","","","","",""
"","fixation","","html-keyboard-response","198","888616","0.0-94.0","0","0","DYGU0","Scenes","","null","","","null","","","","","","","","","","","","","","","","","","","","","","","","","","","","","","","","","","","","","","","","","","","",""
"","see_reward","","html-keyboard-response","199","889082","0.0-95.0","0","0","DYGU0","Scenes","","465","","","32","","101","","0","","","","-1","","","","","1","","","","","0","465","","","","","","","","","","","","","","","","","","","","","","","","",""
"","reward_outcome","","html-keyboard-response","200","891088","0.0-96.0","0","0","DYGU0","Scenes","","1261","","","40","","101","","0","","","","","","","","","","","","","","","","-1","1261","","","","","","","","","","","","","","","","","","","","","","",""
"","fixation","","html-keyboard-response","201","892096","0.0-99.0","0","0","DYGU0","Scenes","","null","","","null","","","","","","","","","","","","","","","","","","","","","","","","","","","","","","","","","","","","","","","","","","","",""
"","see_reward","","html-keyboard-response","202","892452","0.0-100.0","0","0","DYGU0","Scenes","","355","","","32","","104","","1","","","","-1","","","","","1","","","","","0","355","","","","","","","","","","","","","","","","","","","","","","","","",""
"","reward_outcome","","html-keyboard-response","203","894468","0.0-101.0","0","0","DYGU0","Scenes","","566","","","40","","104","","1","","","","","","","","","","","","","","","","-1","566","","","","","","","","","","","","","","","","","","","","","","",""
"","fixation","","html-keyboard-response","204","895485","0.0-104.0","0","0","DYGU0","Scenes","","null","","","null","","","","","","","","","","","","","","","","","","","","","","","","","","","","","","","","","","","","","","","","","","","",""
"","see_reward","","html-keyboard-response","205","895958","0.0-105.0","0","0","DYGU0","Scenes","","472","","","32","","144","","2","","","","-1","","","","","1","","","","","0","472","","","","","","","","","","","","","","","","","","","","","","","","",""
"","reward_outcome","","html-keyboard-response","206","897970","0.0-106.0","0","0","DYGU0","Scenes","","535","","","40","","144","","2","","","","","","","","","","","","","","","","-1","535","","","","","","","","","","","","","","","","","","","","","","",""
"","fixation","","html-keyboard-response","207","898984","0.0-109.0","0","0","DYGU0","Scenes","","null","","","null","","","","","","","","","","","","","","","","","","","","","","","","","","","","","","","","","","","","","","","","","","","",""
"","see_reward","","html-keyboard-response","208","899253","0.0-110.0","0","0","DYGU0","Scenes","","268","","","32","","139","","3","","","","1","","","","","1","","","","","156","268","","","","","","","","","","","","","","","","","","","","","","","","",""
"","reward_outcome","","html-keyboard-response","209","901263","0.0-111.0","0","0","DYGU0","Scenes","","715","","","38","","139","","3","","","","","","","","","","","","","","","","1","715","","","","","","","","","","","","","","","","","","","","","","",""
"","fixation","","html-keyboard-response","210","902277","0.0-114.0","0","0","DYGU0","Scenes","","null","","","null","","","","","","","","","","","","","","","","","","","","","","","","","","","","","","","","","","","","","","","","","","","",""
"","see_reward","","html-keyboard-response","211","902609","0.0-115.0","0","0","DYGU0","Scenes","","330","","","32","","104","","4","","","","-1","","","","","1","","","","","0","330","","","","","","","","","","","","","","","","","","","","","","","","",""
"","reward_outcome","","html-keyboard-response","212","904621","0.0-116.0","0","0","DYGU0","Scenes","","596","","","40","","104","","4","","","","","","","","","","","","","","","","-1","596","","","","","","","","","","","","","","","","","","","","","","",""
"","fixation","","html-keyboard-response","213","905637","0.0-119.0","0","0","DYGU0","Scenes","","null","","","null","","","","","","","","","","","","","","","","","","","","","","","","","","","","","","","","","","","","","","","","","","","",""
"","see_reward","","html-keyboard-response","214","906060","0.0-120.0","0","0","DYGU0","Scenes","","422","","","32","","131","","5","","","","1","","","","","1","","","","","148","422","","","","","","","","","","","","","","","","","","","","","","","","",""
"","reward_outcome","","html-keyboard-response","215","908073","0.0-121.0","0","0","DYGU0","Scenes","","427","","","38","","131","","5","","","","","","","","","","","","","","","","1","427","","","","","","","","","","","","","","","","","","","","","","",""
"","fixation","","html-keyboard-response","216","909089","0.0-124.0","0","0","DYGU0","Scenes","","null","","","null","","","","","","","","","","","","","","","","","","","","","","","","","","","","","","","","","","","","","","","","","","","",""
"","see_reward","","html-keyboard-response","217","909371","0.0-125.0","0","0","DYGU0","Scenes","","281","","","32","","144","","6","","","","-1","","","","","1","","","","","0","281","","","","","","","","","","","","","","","","","","","","","","","","",""
"","reward_outcome","","html-keyboard-response","218","911378","0.0-126.0","0","0","DYGU0","Scenes","","621","","","40","","144","","6","","","","","","","","","","","","","","","","-1","621","","","","","","","","","","","","","","","","","","","","","","",""
"","fixation","","html-keyboard-response","219","912384","0.0-129.0","0","0","DYGU0","Scenes","","null","","","null","","","","","","","","","","","","","","","","","","","","","","","","","","","","","","","","","","","","","","","","","","","",""
"","see_reward","","html-keyboard-response","220","912757","0.0-130.0","0","0","DYGU0","Scenes","","372","","","32","","102","","7","","","","1","","","","","1","","","","","151","372","","","","","","","","","","","","","","","","","","","","","","","","",""
"","reward_outcome","","html-keyboard-response","221","914771","0.0-131.0","0","0","DYGU0","Scenes","","416","","","38","","102","","7","","","","","","","","","","","","","","","","1","416","","","","","","","","","","","","","","","","","","","","","","",""
"","fixation","","html-keyboard-response","222","915785","0.0-134.0","0","0","DYGU0","Scenes","","null","","","null","","","","","","","","","","","","","","","","","","","","","","","","","","","","","","","","","","","","","","","","","","","",""
"","see_reward","","html-keyboard-response","223","916231","0.0-135.0","0","0","DYGU0","Scenes","","446","","","32","","137","","8","","","","1","","","","","1","","","","","148","446","","","","","","","","","","","","","","","","","","","","","","","","",""
"","reward_outcome","","html-keyboard-response","224","918240","0.0-136.0","0","0","DYGU0","Scenes","","461","","","38","","137","","8","","","","","","","","","","","","","","","","1","461","","","","","","","","","","","","","","","","","","","","","","",""
"","fixation","","html-keyboard-response","225","919258","0.0-139.0","0","0","DYGU0","Scenes","","null","","","null","","","","","","","","","","","","","","","","","","","","","","","","","","","","","","","","","","","","","","","","","","","",""
"","see_reward","","html-keyboard-response","226","919721","0.0-140.0","0","0","DYGU0","Scenes","","462","","","32","","126","","9","","","","-1","","","","","1","","","","","0","462","","","","","","","","","","","","","","","","","","","","","","","","",""
"","reward_outcome","","html-keyboard-response","227","921730","0.0-141.0","0","0","DYGU0","Scenes","","431","","","40","","126","","9","","","","","","","","","","","","","","","","-1","431","","","","","","","","","","","","","","","","","","","","","","",""
"","fixation","","html-keyboard-response","228","922748","0.0-144.0","0","0","DYGU0","Scenes","","null","","","null","","","","","","","","","","","","","","","","","","","","","","","","","","","","","","","","","","","","","","","","","","","",""
"","see_reward","","html-keyboard-response","229","923270","0.0-145.0","0","0","DYGU0","Scenes","","521","","","32","","137","","10","","","","1","","","","","1","","","","","148","521","","","","","","","","","","","","","","","","","","","","","","","","",""
"","reward_outcome","","html-keyboard-response","230","925282","0.0-146.0","0","0","DYGU0","Scenes","","551","","","38","","137","","10","","","","","","","","","","","","","","","","1","551","","","","","","","","","","","","","","","","","","","","","","",""
"","fixation","","html-keyboard-response","231","926295","0.0-149.0","0","0","DYGU0","Scenes","","null","","","null","","","","","","","","","","","","","","","","","","","","","","","","","","","","","","","","","","","","","","","","","","","",""
"","see_reward","","html-keyboard-response","232","927059","0.0-150.0","0","0","DYGU0","Scenes","","764","","","32","","110","","11","","","","1","","","","","1","","","","","152","764","","","","","","","","","","","","","","","","","","","","","","","","",""
"","reward_outcome","","html-keyboard-response","233","929065","0.0-151.0","0","0","DYGU0","Scenes","","591","","","38","","110","","11","","","","","","","","","","","","","","","","1","591","","","","","","","","","","","","","","","","","","","","","","",""
"","fixation","","html-keyboard-response","234","930080","0.0-154.0","0","0","DYGU0","Scenes","","null","","","null","","","","","","","","","","","","","","","","","","","","","","","","","","","","","","","","","","","","","","","","","","","",""
"","see_reward","","html-keyboard-response","235","930356","0.0-155.0","0","0","DYGU0","Scenes","","275","","","32","","139","","12","","","","1","","","","","1","","","","","156","275","","","","","","","","","","","","","","","","","","","","","","","","",""
"","reward_outcome","","html-keyboard-response","236","932360","0.0-156.0","0","0","DYGU0","Scenes","","565","","","38","","139","","12","","","","","","","","","","","","","","","","1","565","","","","","","","","","","","","","","","","","","","","","","",""
"","fixation","","html-keyboard-response","237","933376","0.0-159.0","0","0","DYGU0","Scenes","","null","","","null","","","","","","","","","","","","","","","","","","","","","","","","","","","","","","","","","","","","","","","","","","","",""
"","see_reward","","html-keyboard-response","238","933831","0.0-160.0","0","0","DYGU0","Scenes","","455","","","32","","111","","13","","","","-1","","","","","1","","","","","0","455","","","","","","","","","","","","","","","","","","","","","","","","",""
"","reward_outcome","","html-keyboard-response","239","935846","0.0-161.0","0","0","DYGU0","Scenes","","506","","","40","","111","","13","","","","","","","","","","","","","","","","-1","506","","","","","","","","","","","","","","","","","","","","","","",""
"","fixation","","html-keyboard-response","240","936860","0.0-164.0","0","0","DYGU0","Scenes","","null","","","null","","","","","","","","","","","","","","","","","","","","","","","","","","","","","","","","","","","","","","","","","","","",""
"","see_reward","","html-keyboard-response","241","937798","0.0-165.0","0","0","DYGU0","Scenes","","937","","","32","","110","","14","","","","1","","","","","1","","","","","152","937","","","","","","","","","","","","","","","","","","","","","","","","",""
"","reward_outcome","","html-keyboard-response","242","939808","0.0-166.0","0","0","DYGU0","Scenes","","636","","","38","","110","","14","","","","","","","","","","","","","","","","1","636","","","","","","","","","","","","","","","","","","","","","","",""
"","fixation","","html-keyboard-response","243","940817","0.0-169.0","0","0","DYGU0","Scenes","","null","","","null","","","","","","","","","","","","","","","","","","","","","","","","","","","","","","","","","","","","","","","","","","","",""
"","see_reward","","html-keyboard-response","244","941437","0.0-170.0","0","0","DYGU0","Scenes","","620","","","32","","131","","15","","","","1","","","","","1","","","","","148","620","","","","","","","","","","","","","","","","","","","","","","","","",""
"","reward_outcome","","html-keyboard-response","245","943449","0.0-171.0","0","0","DYGU0","Scenes","","666","","","38","","131","","15","","","","","","","","","","","","","","","","1","666","","","","","","","","","","","","","","","","","","","","","","",""
"","fixation","","html-keyboard-response","246","944464","0.0-174.0","0","0","DYGU0","Scenes","","null","","","null","","","","","","","","","","","","","","","","","","","","","","","","","","","","","","","","","","","","","","","","","","","",""
"","see_reward","","html-keyboard-response","247","944763","0.0-175.0","0","0","DYGU0","Scenes","","298","","","32","","102","","16","","","","1","","","","","1","","","","","151","298","","","","","","","","","","","","","","","","","","","","","","","","",""
"","reward_outcome","","html-keyboard-response","248","946777","0.0-176.0","0","0","DYGU0","Scenes","","597","","","38","","102","","16","","","","","","","","","","","","","","","","1","597","","","","","","","","","","","","","","","","","","","","","","",""
"","fixation","","html-keyboard-response","249","947797","0.0-179.0","0","0","DYGU0","Scenes","","null","","","null","","","","","","","","","","","","","","","","","","","","","","","","","","","","","","","","","","","","","","","","","","","",""
"","see_reward","","html-keyboard-response","250","948105","0.0-180.0","0","0","DYGU0","Scenes","","308","","","32","","101","","17","","","","-1","","","","","1","","","","","0","308","","","","","","","","","","","","","","","","","","","","","","","","",""
"","reward_outcome","","html-keyboard-response","251","950116","0.0-181.0","0","0","DYGU0","Scenes","","476","","","40","","101","","17","","","","","","","","","","","","","","","","-1","476","","","","","","","","","","","","","","","","","","","","","","",""
"","fixation","","html-keyboard-response","252","951134","0.0-184.0","0","0","DYGU0","Scenes","","null","","","null","","","","","","","","","","","","","","","","","","","","","","","","","","","","","","","","","","","","","","","","","","","",""
"","see_reward","","html-keyboard-response","253","951594","0.0-185.0","0","0","DYGU0","Scenes","","460","","","32","","123","","18","","","","1","","","","","1","","","","","150","460","","","","","","","","","","","","","","","","","","","","","","","","",""
"","reward_outcome","","html-keyboard-response","254","953602","0.0-186.0","0","0","DYGU0","Scenes","","461","","","38","","123","","18","","","","","","","","","","","","","","","","1","461","","","","","","","","","","","","","","","","","","","","","","",""
"","fixation","","html-keyboard-response","255","954617","0.0-189.0","0","0","DYGU0","Scenes","","null","","","null","","","","","","","","","","","","","","","","","","","","","","","","","","","","","","","","","","","","","","","","","","","",""
"","see_reward","","html-keyboard-response","256","955144","0.0-190.0","0","0","DYGU0","Scenes","","527","","","32","","140","","19","","","","-1","","","","","1","","","","","0","527","","","","","","","","","","","","","","","","","","","","","","","","",""
"","reward_outcome","","html-keyboard-response","257","957161","0.0-191.0","0","0","DYGU0","Scenes","","536","","","40","","140","","19","","","","","","","","","","","","","","","","-1","536","","","","","","","","","","","","","","","","","","","","","","",""
"","fixation","","html-keyboard-response","258","958175","0.0-194.0","0","0","DYGU0","Scenes","","null","","","null","","","","","","","","","","","","","","","","","","","","","","","","","","","","","","","","","","","","","","","","","","","",""
"","see_reward","","html-keyboard-response","259","958500","0.0-195.0","0","0","DYGU0","Scenes","","323","","","32","","123","","20","","","","1","","","","","1","","","","","150","323","","","","","","","","","","","","","","","","","","","","","","","","",""
"","reward_outcome","","html-keyboard-response","260","960509","0.0-196.0","0","0","DYGU0","Scenes","","536","","","38","","123","","20","","","","","","","","","","","","","","","","1","536","","","","","","","","","","","","","","","","","","","","","","",""
"","fixation","","html-keyboard-response","261","961512","0.0-199.0","0","0","DYGU0","Scenes","","null","","","null","","","","","","","","","","","","","","","","","","","","","","","","","","","","","","","","","","","","","","","","","","","",""
"","see_reward","","html-keyboard-response","262","961876","0.0-200.0","0","0","DYGU0","Scenes","","362","","","32","","126","","21","","","","-1","","","","","1","","","","","0","362","","","","","","","","","","","","","","","","","","","","","","","","",""
"","reward_outcome","","html-keyboard-response","263","963889","0.0-201.0","0","0","DYGU0","Scenes","","531","","","40","","126","","21","","","","","","","","","","","","","","","","-1","531","","","","","","","","","","","","","","","","","","","","","","",""
"","fixation","","html-keyboard-response","264","964901","0.0-204.0","0","0","DYGU0","Scenes","","null","","","null","","","","","","","","","","","","","","","","","","","","","","","","","","","","","","","","","","","","","","","","","","","",""
"","see_reward","","html-keyboard-response","265","965440","0.0-205.0","0","0","DYGU0","Scenes","","537","","","32","","111","","22","","","","-1","","","","","1","","","","","0","537","","","","","","","","","","","","","","","","","","","","","","","","",""
"","reward_outcome","","html-keyboard-response","266","967448","0.0-206.0","0","0","DYGU0","Scenes","","636","","","40","","111","","22","","","","","","","","","","","","","","","","-1","636","","","","","","","","","","","","","","","","","","","","","","",""
"","fixation","","html-keyboard-response","267","968466","0.0-209.0","0","0","DYGU0","Scenes","","null","","","null","","","","","","","","","","","","","","","","","","","","","","","","","","","","","","","","","","","","","","","","","","","",""
"","see_reward","","html-keyboard-response","268","969005","0.0-210.0","0","0","DYGU0","Scenes","","538","","","32","","140","","23","","","","-1","","","","","1","","","","","0","538","","","","","","","","","","","","","","","","","","","","","","","","",""
"","reward_outcome","","html-keyboard-response","269","971012","0.0-211.0","0","0","DYGU0","Scenes","","621","","","40","","140","","23","","","","","","","","","","","","","","","","-1","621","","","","","","","","","","","","","","","","","","","","","","",""
"","block_over","","html-keyboard-response","270","973460","0.0-213.0-0.0","0","0","DYGU0","Scenes","","2447","","","78","","","","","","","","","","","","","","","","","","","","","","","","","","","","","","","","","","","","","","","","","","","",""
"","fixation","","html-keyboard-response","271","974472","0.0-214.0","0","0","DYGU0","Scenes","","null","","","null","","","","","","","","","","","","","","","","","","","","","","","","","","","","","","","","","","","","","","","","","","","",""
"","see_reward","","html-keyboard-response","272","975225","0.0-215.0","0","0","DYGU0","Scenes","","753","","","32","","101","","24","","","","-1","","","","","2","","","","","0","753","","","","","","","","","","","","","","","","","","","","","","","","",""
"","reward_outcome","","html-keyboard-response","273","977232","0.0-216.0","0","0","DYGU0","Scenes","","656","","","40","","101","","24","","","","","","","","","","","","","","","","-1","656","","","","","","","","","","","","","","","","","","","","","","",""
"","fixation","","html-keyboard-response","274","978254","0.0-219.0","0","0","DYGU0","Scenes","","null","","","null","","","","","","","","","","","","","","","","","","","","","","","","","","","","","","","","","","","","","","","","","","","",""
"","see_reward","","html-keyboard-response","275","978318","0.0-220.0","0","0","DYGU0","Scenes","","64","","","32","","144","","25","","","","-1","","","","","2","","","","","0","64","","","","","","","","","","","","","","","","","","","","","","","","",""
"","reward_outcome","","html-keyboard-response","276","980342","0.0-221.0","0","0","DYGU0","Scenes","","1068","","","40","","144","","25","","","","","","","","","","","","","","","","-1","1068","","","","","","","","","","","","","","","","","","","","","","",""
"","fixation","","html-keyboard-response","277","981354","0.0-224.0","0","0","DYGU0","Scenes","","null","","","null","","","","","","","","","","","","","","","","","","","","","","","","","","","","","","","","","","","","","","","","","","","",""
"","see_reward","","html-keyboard-response","278","981838","0.0-225.0","0","0","DYGU0","Scenes","","482","","","32","","139","","26","","","","1","","","","","2","","","","","156","482","","","","","","","","","","","","","","","","","","","","","","","","",""
"","reward_outcome","","html-keyboard-response","279","983860","0.0-226.0","0","0","DYGU0","Scenes","","576","","","38","","139","","26","","","","","","","","","","","","","","","","1","576","","","","","","","","","","","","","","","","","","","","","","",""
"","fixation","","html-keyboard-response","280","984867","0.0-229.0","0","0","DYGU0","Scenes","","null","","","null","","","","","","","","","","","","","","","","","","","","","","","","","","","","","","","","","","","","","","","","","","","",""
"","see_reward","","html-keyboard-response","281","985328","0.0-230.0","0","0","DYGU0","Scenes","","459","","","32","","102","","27","","","","1","","","","","2","","","","","151","459","","","","","","","","","","","","","","","","","","","","","","","","",""
"","reward_outcome","","html-keyboard-response","282","987337","0.0-231.0","0","0","DYGU0","Scenes","","666","","","38","","102","","27","","","","","","","","","","","","","","","","1","666","","","","","","","","","","","","","","","","","","","","","","",""
"","fixation","","html-keyboard-response","283","988353","0.0-234.0","0","0","DYGU0","Scenes","","null","","","null","","","","","","","","","","","","","","","","","","","","","","","","","","","","","","","","","","","","","","","","","","","",""
"","see_reward","","html-keyboard-response","284","988654","0.0-235.0","0","0","DYGU0","Scenes","","300","","","32","","140","","28","","","","-1","","","","","2","","","","","0","300","","","","","","","","","","","","","","","","","","","","","","","","",""
"","reward_outcome","","html-keyboard-response","285","990667","0.0-236.0","0","0","DYGU0","Scenes","","447","","","40","","140","","28","","","","","","","","","","","","","","","","-1","447","","","","","","","","","","","","","","","","","","","","","","",""
"","fixation","","html-keyboard-response","286","991683","0.0-239.0","0","0","DYGU0","Scenes","","null","","","null","","","","","","","","","","","","","","","","","","","","","","","","","","","","","","","","","","","","","","","","","","","",""
"","see_reward","","html-keyboard-response","287","991936","0.0-240.0","0","0","DYGU0","Scenes","","251","","","32","","111","","29","","","","-1","","","","","2","","","","","0","251","","","","","","","","","","","","","","","","","","","","","","","","",""
"","reward_outcome","","html-keyboard-response","288","993950","0.0-241.0","0","0","DYGU0","Scenes","","491","","","40","","111","","29","","","","","","","","","","","","","","","","-1","491","","","","","","","","","","","","","","","","","","","","","","",""
"","fixation","","html-keyboard-response","289","994972","0.0-244.0","0","0","DYGU0","Scenes","","null","","","null","","","","","","","","","","","","","","","","","","","","","","","","","","","","","","","","","","","","","","","","","","","",""
"","see_reward","","html-keyboard-response","290","995412","0.0-245.0","0","0","DYGU0","Scenes","","439","","","32","","101","","30","","","","-1","","","","","2","","","","","0","439","","","","","","","","","","","","","","","","","","","","","","","","",""
"","reward_outcome","","html-keyboard-response","291","997423","0.0-246.0","0","0","DYGU0","Scenes","","476","","","40","","101","","30","","","","","","","","","","","","","","","","-1","476","","","","","","","","","","","","","","","","","","","","","","",""
"","fixation","","html-keyboard-response","292","998433","0.0-249.0","0","0","DYGU0","Scenes","","null","","","null","","","","","","","","","","","","","","","","","","","","","","","","","","","","","","","","","","","","","","","","","","","",""
"","see_reward","","html-keyboard-response","293","998872","0.0-250.0","0","0","DYGU0","Scenes","","437","","","32","","110","","31","","","","1","","","","","2","","","","","152","437","","","","","","","","","","","","","","","","","","","","","","","","",""
"","reward_outcome","","html-keyboard-response","294","1000879","0.0-251.0","0","0","DYGU0","Scenes","","551","","","38","","110","","31","","","","","","","","","","","","","","","","1","551","","","","","","","","","","","","","","","","","","","","","","",""
"","fixation","","html-keyboard-response","295","1001901","0.0-254.0","0","0","DYGU0","Scenes","","null","","","null","","","","","","","","","","","","","","","","","","","","","","","","","","","","","","","","","","","","","","","","","","","",""
"","see_reward","","html-keyboard-response","296","1002541","0.0-255.0","0","0","DYGU0","Scenes","","639","","","32","","110","","32","","","","1","","","","","2","","","","","152","639","","","","","","","","","","","","","","","","","","","","","","","","",""
"","reward_outcome","","html-keyboard-response","297","1004555","0.0-256.0","0","0","DYGU0","Scenes","","491","","","38","","110","","32","","","","","","","","","","","","","","","","1","491","","","","","","","","","","","","","","","","","","","","","","",""
"","fixation","","html-keyboard-response","298","1005572","0.0-259.0","0","0","DYGU0","Scenes","","null","","","null","","","","","","","","","","","","","","","","","","","","","","","","","","","","","","","","","","","","","","","","","","","",""
"","see_reward","","html-keyboard-response","299","1005856","0.0-260.0","0","0","DYGU0","Scenes","","283","","","32","","131","","33","","","","1","","","","","2","","","","","148","283","","","","","","","","","","","","","","","","","","","","","","","","",""
"","reward_outcome","","html-keyboard-response","300","1007873","0.0-261.0","0","0","DYGU0","Scenes","","546","","","38","","131","","33","","","","","","","","","","","","","","","","1","546","","","","","","","","","","","","","","","","","","","","","","",""
"","fixation","","html-keyboard-response","301","1008882","0.0-264.0","0","0","DYGU0","Scenes","","null","","","null","","","","","","","","","","","","","","","","","","","","","","","","","","","","","","","","","","","","","","","","","","","",""
"","see_reward","","html-keyboard-response","302","1009167","0.0-265.0","0","0","DYGU0","Scenes","","284","","","32","","123","","34","","","","1","","","","","2","","","","","150","284","","","","","","","","","","","","","","","","","","","","","","","","",""
"","reward_outcome","","html-keyboard-response","303","1011176","0.0-266.0","0","0","DYGU0","Scenes","","636","","","38","","123","","34","","","","","","","","","","","","","","","","1","636","","","","","","","","","","","","","","","","","","","","","","",""
"","fixation","","html-keyboard-response","304","1012183","0.0-269.0","0","0","DYGU0","Scenes","","null","","","null","","","","","","","","","","","","","","","","","","","","","","","","","","","","","","","","","","","","","","","","","","","",""
"","see_reward","","html-keyboard-response","305","1012523","0.0-270.0","0","0","DYGU0","Scenes","","338","","","32","","111","","35","","","","-1","","","","","2","","","","","0","338","","","","","","","","","","","","","","","","","","","","","","","","",""
"","reward_outcome","","html-keyboard-response","306","1014530","0.0-271.0","0","0","DYGU0","Scenes","","432","","","40","","111","","35","","","","","","","","","","","","","","","","-1","432","","","","","","","","","","","","","","","","","","","","","","",""
"","fixation","","html-keyboard-response","307","1015544","0.0-274.0","0","0","DYGU0","Scenes","","null","","","null","","","","","","","","","","","","","","","","","","","","","","","","","","","","","","","","","","","","","","","","","","","",""
"","see_reward","","html-keyboard-response","308","1015939","0.0-275.0","0","0","DYGU0","Scenes","","393","","","32","","139","","36","","","","1","","","","","2","","","","","156","393","","","","","","","","","","","","","","","","","","","","","","","","",""
"","reward_outcome","","html-keyboard-response","309","1017947","0.0-276.0","0","0","DYGU0","Scenes","","476","","","38","","139","","36","","","","","","","","","","","","","","","","1","476","","","","","","","","","","","","","","","","","","","","","","",""
"","fixation","","html-keyboard-response","310","1018960","0.0-279.0","0","0","DYGU0","Scenes","","null","","","null","","","","","","","","","","","","","","","","","","","","","","","","","","","","","","","","","","","","","","","","","","","",""
"","see_reward","","html-keyboard-response","311","1019280","0.0-280.0","0","0","DYGU0","Scenes","","318","","","32","","104","","37","","","","-1","","","","","2","","","","","0","318","","","","","","","","","","","","","","","","","","","","","","","","",""
"","reward_outcome","","html-keyboard-response","312","1021289","0.0-281.0","0","0","DYGU0","Scenes","","431","","","40","","104","","37","","","","","","","","","","","","","","","","-1","431","","","","","","","","","","","","","","","","","","","","","","",""
"","fixation","","html-keyboard-response","313","1022304","0.0-284.0","0","0","DYGU0","Scenes","","null","","","null","","","","","","","","","","","","","","","","","","","","","","","","","","","","","","","","","","","","","","","","","","","",""
"","see_reward","","html-keyboard-response","314","1022681","0.0-285.0","0","0","DYGU0","Scenes","","375","","","32","","140","","38","","","","-1","","","","","2","","","","","0","375","","","","","","","","","","","","","","","","","","","","","","","","",""
"","reward_outcome","","html-keyboard-response","315","1024693","0.0-286.0","0","0","DYGU0","Scenes","","401","","","40","","140","","38","","","","","","","","","","","","","","","","-1","401","","","","","","","","","","","","","","","","","","","","","","",""
"","fixation","","html-keyboard-response","316","1025700","0.0-289.0","0","0","DYGU0","Scenes","","null","","","null","","","","","","","","","","","","","","","","","","","","","","","","","","","","","","","","","","","","","","","","","","","",""
"","see_reward","","html-keyboard-response","317","1026320","0.0-290.0","0","0","DYGU0","Scenes","","618","","","32","","137","","39","","","","1","","","","","2","","","","","148","618","","","","","","","","","","","","","","","","","","","","","","","","",""
"","reward_outcome","","html-keyboard-response","318","1028326","0.0-291.0","0","0","DYGU0","Scenes","","521","","","38","","137","","39","","","","","","","","","","","","","","","","1","521","","","","","","","","","","","","","","","","","","","","","","",""
"","fixation","","html-keyboard-response","319","1029339","0.0-294.0","0","0","DYGU0","Scenes","","null","","","null","","","","","","","","","","","","","","","","","","","","","","","","","","","","","","","","","","","","","","","","","","","",""
"","see_reward","","html-keyboard-response","320","1029766","0.0-295.0","0","0","DYGU0","Scenes","","425","","","32","","102","","40","","","","1","","","","","2","","","","","151","425","","","","","","","","","","","","","","","","","","","","","","","","",""
"","reward_outcome","","html-keyboard-response","321","1031768","0.0-296.0","0","0","DYGU0","Scenes","","551","","","40","","102","","40","","","","","","","","","","","","","","","","-1","551","","","","","","","","","","","","","","","","","","","","","","",""
"","fixation","","html-keyboard-response","322","1032782","0.0-299.0","0","0","DYGU0","Scenes","","null","","","null","","","","","","","","","","","","","","","","","","","","","","","","","","","","","","","","","","","","","","","","","","","",""
"","see_reward","","html-keyboard-response","323","1033215","0.0-300.0","0","0","DYGU0","Scenes","","432","","","32","","131","","41","","","","1","","","","","2","","","","","148","432","","","","","","","","","","","","","","","","","","","","","","","","",""
"","reward_outcome","","html-keyboard-response","324","1035228","0.0-301.0","0","0","DYGU0","Scenes","","487","","","38","","131","","41","","","","","","","","","","","","","","","","1","487","","","","","","","","","","","","","","","","","","","","","","",""
"","fixation","","html-keyboard-response","325","1036232","0.0-304.0","0","0","DYGU0","Scenes","","null","","","null","","","","","","","","","","","","","","","","","","","","","","","","","","","","","","","","","","","","","","","","","","","",""
"","see_reward","","html-keyboard-response","326","1036496","0.0-305.0","0","0","DYGU0","Scenes","","263","","","32","","126","","42","","","","-1","","","","","2","","","","","0","263","","","","","","","","","","","","","","","","","","","","","","","","",""
"","reward_outcome","","html-keyboard-response","327","1038508","0.0-306.0","0","0","DYGU0","Scenes","","457","","","40","","126","","42","","","","","","","","","","","","","","","","-1","457","","","","","","","","","","","","","","","","","","","","","","",""
"","fixation","","html-keyboard-response","328","1039524","0.0-309.0","0","0","DYGU0","Scenes","","null","","","null","","","","","","","","","","","","","","","","","","","","","","","","","","","","","","","","","","","","","","","","","","","",""
"","see_reward","","html-keyboard-response","329","1039792","0.0-310.0","0","0","DYGU0","Scenes","","267","","","32","","144","","43","","","","-1","","","","","2","","","","","0","267","","","","","","","","","","","","","","","","","","","","","","","","",""
"","reward_outcome","","html-keyboard-response","330","1041812","0.0-311.0","0","0","DYGU0","Scenes","","665","","","40","","144","","43","","","","","","","","","","","","","","","","-1","665","","","","","","","","","","","","","","","","","","","","","","",""
"","fixation","","html-keyboard-response","331","1042828","0.0-314.0","0","0","DYGU0","Scenes","","null","","","null","","","","","","","","","","","","","","","","","","","","","","","","","","","","","","","","","","","","","","","","","","","",""
"","see_reward","","html-keyboard-response","332","1043162","0.0-315.0","0","0","DYGU0","Scenes","","333","","","32","","104","","44","","","","-1","","","","","2","","","","","0","333","","","","","","","","","","","","","","","","","","","","","","","","",""
"","reward_outcome","","html-keyboard-response","333","1045178","0.0-316.0","0","0","DYGU0","Scenes","","656","","","40","","104","","44","","","","","","","","","","","","","","","","-1","656","","","","","","","","","","","","","","","","","","","","","","",""
"","fixation","","html-keyboard-response","334","1046192","0.0-319.0","0","0","DYGU0","Scenes","","null","","","null","","","","","","","","","","","","","","","","","","","","","","","","","","","","","","","","","","","","","","","","","","","",""
"","see_reward","","html-keyboard-response","335","1046429","0.0-320.0","0","0","DYGU0","Scenes","","237","","","32","","137","","45","","","","1","","","","","2","","","","","148","237","","","","","","","","","","","","","","","","","","","","","","","","",""
"","reward_outcome","","html-keyboard-response","336","1048440","0.0-321.0","0","0","DYGU0","Scenes","","581","","","38","","137","","45","","","","","","","","","","","","","","","","1","581","","","","","","","","","","","","","","","","","","","","","","",""
"","fixation","","html-keyboard-response","337","1049451","0.0-324.0","0","0","DYGU0","Scenes","","null","","","null","","","","","","","","","","","","","","","","","","","","","","","","","","","","","","","","","","","","","","","","","","","",""
"","see_reward","","html-keyboard-response","338","1049979","0.0-325.0","0","0","DYGU0","Scenes","","527","","","32","","123","","46","","","","1","","","","","2","","","","","150","527","","","","","","","","","","","","","","","","","","","","","","","","",""
"","reward_outcome","","html-keyboard-response","339","1051985","0.0-326.0","0","0","DYGU0","Scenes","","521","","","38","","123","","46","","","","","","","","","","","","","","","","1","521","","","","","","","","","","","","","","","","","","","","","","",""
"","fixation","","html-keyboard-response","340","1052993","0.0-329.0","0","0","DYGU0","Scenes","","null","","","null","","","","","","","","","","","","","","","","","","","","","","","","","","","","","","","","","","","","","","","","","","","",""
"","see_reward","","html-keyboard-response","341","1053489","0.0-330.0","0","0","DYGU0","Scenes","","496","","","32","","126","","47","","","","-1","","","","","2","","","","","0","496","","","","","","","","","","","","","","","","","","","","","","","","",""
"","reward_outcome","","html-keyboard-response","342","1055501","0.0-331.0","0","0","DYGU0","Scenes","","711","","","40","","126","","47","","","","","","","","","","","","","","","","-1","711","","","","","","","","","","","","","","","","","","","","","","",""
"","block_over","","html-keyboard-response","343","1057258","0.0-333.0-0.0","0","0","DYGU0","Scenes","","1757","","","78","","","","","","","","","","","","","","","","","","","","","","","","","","","","","","","","","","","","","","","","","","","",""
"","fixation","","html-keyboard-response","344","1058265","0.0-334.0","0","0","DYGU0","Scenes","","null","","","null","","","","","","","","","","","","","","","","","","","","","","","","","","","","","","","","","","","","","","","","","","","",""
"","see_reward","","html-keyboard-response","345","1058819","0.0-335.0","0","0","DYGU0","Scenes","","553","","","32","","111","","48","","","","-1","","","","","3","","","","","0","553","","","","","","","","","","","","","","","","","","","","","","","","",""
"","reward_outcome","","html-keyboard-response","346","1060828","0.0-336.0","0","0","DYGU0","Scenes","","581","","","40","","111","","48","","","","","","","","","","","","","","","","-1","581","","","","","","","","","","","","","","","","","","","","","","",""
"","fixation","","html-keyboard-response","347","1061838","0.0-339.0","0","0","DYGU0","Scenes","","null","","","null","","","","","","","","","","","","","","","","","","","","","","","","","","","","","","","","","","","","","","","","","","","",""
"","see_reward","","html-keyboard-response","348","1062116","0.0-340.0","0","0","DYGU0","Scenes","","277","","","32","","101","","49","","","","-1","","","","","3","","","","","0","277","","","","","","","","","","","","","","","","","","","","","","","","",""
