"success","ttype","start_time","trial_type","trial_index","time_elapsed","internal_node_id","warning","missed_checkup","PID","stim_type","view_history","rt","responses","category","repeat_instructions","key_press","response","stimulus_id","painting","index","stimulus_left","stimulus_right","explain_trial","reward_type","rating_left","rating_right","painting_left","painting_right","block","left_chosen","chosen_obj","unchosen_obj","explain_response","reward_amount","see_reward_rt","register_reward_response","register_reward_rt","deliberation_reward_tally","stimulus_left_deliberation_ind","stimulus_right_deliberation_ind","chosen_trial","gain_left","higher_outcome_chosen","old_pair","chosen_object","rt_pairs","left_object_chosen","rt_object","old_response","new_rating","deliberated_stim","initial_rating","outcome_eval_rt","outcome_eval_response","outcome_eval_gain","outcome_eval_acc","preamble","outcome_eval_confidence","outcome_eval_confidence_rt","total_reward_tally"
"true","full_screen","d01182023hr1541","fullscreen","0","6606","0.0-0.0","0","0","9nseM","People","","","","","","","","","","","","","","","","","","","","","","","","","","","","","","","","","","","","","","","","","","","","","","","","","",""
"","rating_instructions","","instructions","1","74347","0.0-1.0-0.0","0","0","9nseM","People","[{""page_index"":0,""viewing_time"":65908},{""page_index"":1,""viewing_time"":1827}]","67736","","","","","","","","","","","","","","","","","","","","","","","","","","","","","","","","","","","","","","","","","","","","","","","",""
"","","","survey-multi-choice","2","83505","0.0-1.0-1.0","0","0","9nseM","People","","9152","{""Q0"":""True"",""Q1"":""Mouse""}","rating_comprehension_check","0","","","","","","","","","","","","","","","","","","","","","","","","","","","","","","","","","","","","","","","","","","","","",""
"","start_phase","","html-keyboard-response","3","86699","0.0-2.0","0","0","9nseM","People","","3190","","","","78","","","","","","","","","","","","","","","","","","","","","","","","","","","","","","","","","","","","","","","","","","","",""
"","rating","","html-slider-response","4","93016","0.0-3.0","0","0","9nseM","People","","6313","","","","","88","17","gleb-lukomets-paBzWCPN23k-unsplash.jpg","0","","","","","","","","","","","","","","","","","","","","","","","","","","","","","","","","","","","","","","","",""
"","rating","","html-slider-response","5","97728","0.0-4.0","0","0","9nseM","People","","4709","","","","","66","31","mathilda-khoo-vLR0YP_otCo-unsplash.jpg","1","","","","","","","","","","","","","","","","","","","","","","","","","","","","","","","","","","","","","","","",""
"","rating","","html-slider-response","6","101721","0.0-5.0","0","0","9nseM","People","","3990","","","","","66","41","prince-akachi-i2hoD-C2RUA-unsplash.jpg","2","","","","","","","","","","","","","","","","","","","","","","","","","","","","","","","","","","","","","","","",""
"","rating","","html-slider-response","7","106552","0.0-6.0","0","0","9nseM","People","","4828","","","","","95","36","ospan-ali-mGdA2fzjWLo-unsplash.jpg","3","","","","","","","","","","","","","","","","","","","","","","","","","","","","","","","","","","","","","","","",""
"","rating","","html-slider-response","8","111641","0.0-7.0","0","0","9nseM","People","","5087","","","","","26","10","charles-etoroma-95UF6LXe-Lo-unsplash.jpg","4","","","","","","","","","","","","","","","","","","","","","","","","","","","","","","","","","","","","","","","",""
"","rating","","html-slider-response","9","116608","0.0-8.0","0","0","9nseM","People","","4964","","","","","89","33","olena-sergienko-0TSd6uCKTKc-unsplash.jpg","5","","","","","","","","","","","","","","","","","","","","","","","","","","","","","","","","","","","","","","","",""
"","rating","","html-slider-response","10","120999","0.0-9.0","0","0","9nseM","People","","4388","","","","","35","42","prince-akachi-l3IHXOdMyHQ-unsplash.jpg","6","","","","","","","","","","","","","","","","","","","","","","","","","","","","","","","","","","","","","","","",""
"","rating","","html-slider-response","11","126096","0.0-10.0","0","0","9nseM","People","","5094","","","","","7","45","sarah-noltner-pL5ZzPp1zqg-unsplash.jpg","7","","","","","","","","","","","","","","","","","","","","","","","","","","","","","","","","","","","","","","","",""
"","rating","","html-slider-response","12","133498","0.0-11.0","0","0","9nseM","People","","7401","","","","","83","37","pavel-anoshin-d0peGya6R5Y-unsplash.jpg","8","","","","","","","","","","","","","","","","","","","","","","","","","","","","","","","","","","","","","","","",""
"","rating","","html-slider-response","13","138496","0.0-12.0","0","0","9nseM","People","","4995","","","","","86","46","stefan-stefancik-QXevDflbl8A-unsplash.jpg","9","","","","","","","","","","","","","","","","","","","","","","","","","","","","","","","","","","","","","","","",""
"","rating","","html-slider-response","14","143192","0.0-13.0","0","0","9nseM","People","","4694","","","","","67","3","art-hauntington-jzY0KRJopEI-unsplash.jpg","10","","","","","","","","","","","","","","","","","","","","","","","","","","","","","","","","","","","","","","","",""
"","rating","","html-slider-response","15","147920","0.0-14.0","0","0","9nseM","People","","4726","","","","","36","0","abstral-official-cyOKLSgkgCE-unsplash.jpg","11","","","","","","","","","","","","","","","","","","","","","","","","","","","","","","","","","","","","","","","",""
"","rating","","html-slider-response","16","152719","0.0-15.0","0","0","9nseM","People","","4797","","","","","70","2","arjunsyah-TBUA5KHJn6k-unsplash.jpg","12","","","","","","","","","","","","","","","","","","","","","","","","","","","","","","","","","","","","","","","",""
"","rating","","html-slider-response","17","157032","0.0-16.0","0","0","9nseM","People","","4311","","","","","16","25","joseph-gonzalez-iFgRcqHznqg-unsplash.jpg","13","","","","","","","","","","","","","","","","","","","","","","","","","","","","","","","","","","","","","","","",""
"","rating","","html-slider-response","18","161967","0.0-17.0","0","0","9nseM","People","","4932","","","","","31","8","bruce-dixon-3M9WJQVHzog-unsplash.jpg","14","","","","","","","","","","","","","","","","","","","","","","","","","","","","","","","","","","","","","","","",""
"","rating","","html-slider-response","19","166640","0.0-18.0","0","0","9nseM","People","","4672","","","","","70","43","raamin-ka-0qJBEzudn5E-unsplash.jpg","15","","","","","","","","","","","","","","","","","","","","","","","","","","","","","","","","","","","","","","","",""
"","rating","","html-slider-response","20","170857","0.0-19.0","0","0","9nseM","People","","4214","","","","","31","38","petr-sevcovic-HzDF-rxlSeM-unsplash.jpg","16","","","","","","","","","","","","","","","","","","","","","","","","","","","","","","","","","","","","","","","",""
"","rating","","html-slider-response","21","175963","0.0-20.0","0","0","9nseM","People","","5103","","","","","52","27","jurica-koletic-7YVZYZeITc8-unsplash.jpg","17","","","","","","","","","","","","","","","","","","","","","","","","","","","","","","","","","","","","","","","",""
"","rating","","html-slider-response","22","192844","0.0-21.0","0","0","9nseM","People","","16878","","","","","38","28","justin-chen-J7Cf1Gch49E-unsplash.jpg","18","","","","","","","","","","","","","","","","","","","","","","","","","","","","","","","","","","","","","","","",""
"","rating","","html-slider-response","23","199884","0.0-22.0","0","0","9nseM","People","","7036","","","","","32","22","jessica-radanavong-mrYkTuAesKE-unsplash.jpg","19","","","","","","","","","","","","","","","","","","","","","","","","","","","","","","","","","","","","","","","",""
"","rating","","html-slider-response","24","204428","0.0-23.0","0","0","9nseM","People","","4542","","","","","72","48","velizar-ivanov-7ktP9yZA1g4-unsplash.jpg","20","","","","","","","","","","","","","","","","","","","","","","","","","","","","","","","","","","","","","","","",""
"","rating","","html-slider-response","25","208795","0.0-24.0","0","0","9nseM","People","","4364","","","","","20","4","barna-bartis-2x3vfVxwR7o-unsplash.jpg","21","","","","","","","","","","","","","","","","","","","","","","","","","","","","","","","","","","","","","","","",""
"","rating","","html-slider-response","26","212693","0.0-25.0","0","0","9nseM","People","","3895","","","","","33","26","juri-gianfrancesco-9EZadYaMzk4-unsplash.jpg","22","","","","","","","","","","","","","","","","","","","","","","","","","","","","","","","","","","","","","","","",""
"","rating","","html-slider-response","27","216622","0.0-26.0","0","0","9nseM","People","","3927","","","","","75","24","joel-mott-LaK153ghdig-unsplash.jpg","23","","","","","","","","","","","","","","","","","","","","","","","","","","","","","","","","","","","","","","","",""
"","rating","","html-slider-response","28","221357","0.0-27.0","0","0","9nseM","People","","4733","","","","","71","16","giano-currie-5-9YOsmf8IQ-unsplash.jpg","24","","","","","","","","","","","","","","","","","","","","","","","","","","","","","","","","","","","","","","","",""
"","rating","","html-slider-response","29","226014","0.0-28.0","0","0","9nseM","People","","4653","","","","","23","14","freddy-kearney-o-ioeoATbIM-unsplash.jpg","25","","","","","","","","","","","","","","","","","","","","","","","","","","","","","","","","","","","","","","","",""
"","rating","","html-slider-response","30","230564","0.0-29.0","0","0","9nseM","People","","4548","","","","","75","23","joanna-nix-walkup-H4fEMshfwTE-unsplash.jpg","26","","","","","","","","","","","","","","","","","","","","","","","","","","","","","","","","","","","","","","","",""
"","rating","","html-slider-response","31","236500","0.0-30.0","0","0","9nseM","People","","5933","","","","","84","19","ha-nguy-n-OFSQ6bHjFjs-unsplash.jpg","27","","","","","","","","","","","","","","","","","","","","","","","","","","","","","","","","","","","","","","","",""
"","rating","","html-slider-response","32","244155","0.0-31.0","0","0","9nseM","People","","7654","","","","","78","15","gabriel-silverio-u3WmDyKGsrY-unsplash.jpg","28","","","","","","","","","","","","","","","","","","","","","","","","","","","","","","","","","","","","","","","",""
"","rating","","html-slider-response","33","249443","0.0-32.0","0","0","9nseM","People","","5286","","","","","82","7","brooke-cagle-HRZUzoX1e6w-unsplash.jpg","29","","","","","","","","","","","","","","","","","","","","","","","","","","","","","","","","","","","","","","","",""
"","rating","","html-slider-response","34","254659","0.0-33.0","0","0","9nseM","People","","5215","","","","","79","40","prince-akachi-4Yv84VgQkRM-unsplash.jpg","30","","","","","","","","","","","","","","","","","","","","","","","","","","","","","","","","","","","","","","","",""
"","rating","","html-slider-response","35","260290","0.0-34.0","0","0","9nseM","People","","5630","","","","","0","32","nathan-dumlao-ger61_TX6oI-unsplash.jpg","31","","","","","","","","","","","","","","","","","","","","","","","","","","","","","","","","","","","","","","","",""
"","rating","","html-slider-response","36","263940","0.0-35.0","0","0","9nseM","People","","3647","","","","","78","34","oliver-johnson-1TUIcKob7Zs-unsplash.jpg","32","","","","","","","","","","","","","","","","","","","","","","","","","","","","","","","","","","","","","","","",""
"","rating","","html-slider-response","37","267788","0.0-36.0","0","0","9nseM","People","","3846","","","","","76","29","leilani-angel-K84vnnzxmTQ-unsplash.jpg","33","","","","","","","","","","","","","","","","","","","","","","","","","","","","","","","","","","","","","","","",""
"","rating","","html-slider-response","38","272715","0.0-37.0","0","0","9nseM","People","","4924","","","","","85","21","jessica-felicio-_cvwXhGqG-o-unsplash.jpg","34","","","","","","","","","","","","","","","","","","","","","","","","","","","","","","","","","","","","","","","",""
"","rating","","html-slider-response","39","276560","0.0-38.0","0","0","9nseM","People","","3843","","","","","84","9","carlos-andres-gomez-vJuk8Y86mRw-unsplash.jpg","35","","","","","","","","","","","","","","","","","","","","","","","","","","","","","","","","","","","","","","","",""
"","rating","","html-slider-response","40","280457","0.0-39.0","0","0","9nseM","People","","3895","","","","","31","6","ben-o-bro-C5XyLljkMrY-unsplash.jpg","36","","","","","","","","","","","","","","","","","","","","","","","","","","","","","","","","","","","","","","","",""
"","rating","","html-slider-response","41","284629","0.0-40.0","0","0","9nseM","People","","4170","","","","","66","5","batel-studio-ttSRjiYG_WM-unsplash.jpg","37","","","","","","","","","","","","","","","","","","","","","","","","","","","","","","","","","","","","","","","",""
"","rating","","html-slider-response","42","288088","0.0-41.0","0","0","9nseM","People","","3457","","","","","66","18","good-faces-xmSWVeGEnJw-unsplash.jpg","38","","","","","","","","","","","","","","","","","","","","","","","","","","","","","","","","","","","","","","","",""
"","rating","","html-slider-response","43","294750","0.0-42.0","0","0","9nseM","People","","6660","","","","","81","12","daniel-rigdon-dXmXKPP2L4E-unsplash.jpg","39","","","","","","","","","","","","","","","","","","","","","","","","","","","","","","","","","","","","","","","",""
"","rating","","html-slider-response","44","300451","0.0-43.0","0","0","9nseM","People","","5699","","","","","16","39","philip-martin-5aGUyCW_PJw-unsplash.jpg","40","","","","","","","","","","","","","","","","","","","","","","","","","","","","","","","","","","","","","","","",""
"","rating","","html-slider-response","45","306066","0.0-44.0","0","0","9nseM","People","","5613","","","","","61","30","matheus-ferrero-pg_WCHWSdT8-unsplash.jpg","41","","","","","","","","","","","","","","","","","","","","","","","","","","","","","","","","","","","","","","","",""
"","rating","","html-slider-response","46","319109","0.0-45.0","0","0","9nseM","People","","13041","","","","","56","13","erik-lucatero-d2MSDujJl2g-unsplash.jpg","42","","","","","","","","","","","","","","","","","","","","","","","","","","","","","","","","","","","","","","","",""
"","rating","","html-slider-response","47","324116","0.0-46.0","0","0","9nseM","People","","5004","","","","","74","11","christian-ferrer-8vT-DgHZDG4-unsplash.jpg","43","","","","","","","","","","","","","","","","","","","","","","","","","","","","","","","","","","","","","","","",""
"","rating","","html-slider-response","48","328378","0.0-47.0","0","0","9nseM","People","","4259","","","","","100","1","aiony-haust-jmATI5Q_YgY-unsplash.jpg","44","","","","","","","","","","","","","","","","","","","","","","","","","","","","","","","","","","","","","","","",""
"","rating","","html-slider-response","49","332524","0.0-48.0","0","0","9nseM","People","","4143","","","","","56","20","houcine-ncib-B4TjXnI0Y2c-unsplash.jpg","45","","","","","","","","","","","","","","","","","","","","","","","","","","","","","","","","","","","","","","","",""
"","rating","","html-slider-response","50","337267","0.0-49.0","0","0","9nseM","People","","4740","","","","","43","49","vicky-hladynets-_gDoyVv5F4c-unsplash.jpg","46","","","","","","","","","","","","","","","","","","","","","","","","","","","","","","","","","","","","","","","",""
"","rating","","html-slider-response","51","340812","0.0-50.0","0","0","9nseM","People","","3543","","","","","63","35","oliver-ragfelt-khV4fTy6-D8-unsplash.jpg","47","","","","","","","","","","","","","","","","","","","","","","","","","","","","","","","","","","","","","","","",""
"","rating","","html-slider-response","52","344330","0.0-51.0","0","0","9nseM","People","","3515","","","","","14","47","tyler-nix-ZGa9d1a_4tA-unsplash.jpg","48","","","","","","","","","","","","","","","","","","","","","","","","","","","","","","","","","","","","","","","",""
"","rating","","html-slider-response","53","348418","0.0-52.0","0","0","9nseM","People","","4085","","","","","61","44","rikonavt-HQjfrvdTfak-unsplash.jpg","49","","","","","","","","","","","","","","","","","","","","","","","","","","","","","","","","","","","","","","","",""
"","deliberation_instructions","","instructions","54","434900","0.0-53.0-0.0","0","0","9nseM","People","[{""page_index"":0,""viewing_time"":13450},{""page_index"":1,""viewing_time"":51176},{""page_index"":2,""viewing_time"":5281},{""page_index"":3,""viewing_time"":14074},{""page_index"":4,""viewing_time"":2496}]","86478","","","","","","","","","","","","","","","","","","","","","","","","","","","","","","","","","","","","","","","","","","","","","","","",""
"","","","survey-multi-choice","55","467763","0.0-53.0-1.0","0","0","9nseM","People","","32857","{""Q0"":""True"",""Q1"":""False"",""Q2"":""Consider carefully and take your time (up to 10 seconds)"",""Q3"":""True"",""Q4"":""K""}","deliberation_comprehension_check","1","","","","","","","","","","","","","","","","","","","","","","","","","","","","","","","","","","","","","","","","","","","","",""
"","missed_instruction_checkup","","html-keyboard-response","56","470897","0.0-53.0-2.0-0.0","0","1","9nseM","People","","3131","","","","78","","","","","","","","","","","","","","","","","","","","","","","","","","","","","","","","","","","","","","","","","","","",""
"","deliberation_instructions","","instructions","57","548866","0.0-53.1-0.1","0","0","9nseM","People","[{""page_index"":0,""viewing_time"":13865},{""page_index"":1,""viewing_time"":4680},{""page_index"":2,""viewing_time"":47454},{""page_index"":3,""viewing_time"":9654},{""page_index"":4,""viewing_time"":2314}]","77967","","","","","","","","","","","","","","","","","","","","","","","","","","","","","","","","","","","","","","","","","","","","","","","",""
"","","","survey-multi-choice","58","845852","0.0-53.1-1.1","0","0","9nseM","People","","296982","{""Q0"":""True"",""Q1"":""False"",""Q2"":""Consider carefully and take your time (up to 10 seconds)"",""Q3"":""True"",""Q4"":""D""}","deliberation_comprehension_check","1","","","","","","","","","","","","","","","","","","","","","","","","","","","","","","","","","","","","","","","","","","","","",""
"","missed_instruction_checkup","","html-keyboard-response","59","848866","0.0-53.1-2.1-0.1","0","1","9nseM","People","","3013","","","","78","","","","","","","","","","","","","","","","","","","","","","","","","","","","","","","","","","","","","","","","","","","",""
"","deliberation_instructions","","instructions","60","855292","0.0-53.2-0.2","0","0","9nseM","People","[{""page_index"":0,""viewing_time"":1918},{""page_index"":1,""viewing_time"":1073},{""page_index"":2,""viewing_time"":896},{""page_index"":3,""viewing_time"":1591},{""page_index"":4,""viewing_time"":945}]","6424","","","","","","","","","","","","","","","","","","","","","","","","","","","","","","","","","","","","","","","","","","","","","","","",""
"","","","survey-multi-choice","61","881268","0.0-53.2-1.2","0","0","9nseM","People","","25972","{""Q0"":""True"",""Q1"":""True"",""Q2"":""Do it as quickly as possible"",""Q3"":""True"",""Q4"":""D""}","deliberation_comprehension_check","1","","","","","","","","","","","","","","","","","","","","","","","","","","","","","","","","","","","","","","","","","","","","",""
"","missed_instruction_checkup","","html-keyboard-response","62","883316","0.0-53.2-2.2-0.2","0","1","9nseM","People","","2047","","","","78","","","","","","","","","","","","","","","","","","","","","","","","","","","","","","","","","","","","","","","","","","","",""
"","deliberation_instructions","","instructions","63","888299","0.0-53.3-0.3","0","0","9nseM","People","[{""page_index"":0,""viewing_time"":1588},{""page_index"":1,""viewing_time"":720},{""page_index"":2,""viewing_time"":849},{""page_index"":3,""viewing_time"":969},{""page_index"":4,""viewing_time"":855}]","4981","","","","","","","","","","","","","","","","","","","","","","","","","","","","","","","","","","","","","","","","","","","","","","","",""
"","","","survey-multi-choice","64","918295","0.0-53.3-1.3","0","0","9nseM","People","","29992","{""Q0"":""False"",""Q1"":""False"",""Q2"":""Consider carefully and take your time (up to 10 seconds)"",""Q3"":""True"",""Q4"":""D""}","deliberation_comprehension_check","1","","","","","","","","","","","","","","","","","","","","","","","","","","","","","","","","","","","","","","","","","","","","",""
"","missed_instruction_checkup","","html-keyboard-response","65","920216","0.0-53.3-2.3-0.3","0","1","9nseM","People","","1919","","","","78","","","","","","","","","","","","","","","","","","","","","","","","","","","","","","","","","","","","","","","","","","","",""
"","deliberation_instructions","","instructions","66","928060","0.0-53.4-0.4","0","0","9nseM","People","[{""page_index"":0,""viewing_time"":3865},{""page_index"":1,""viewing_time"":897},{""page_index"":2,""viewing_time"":912},{""page_index"":3,""viewing_time"":599},{""page_index"":4,""viewing_time"":1570}]","7844","","","","","","","","","","","","","","","","","","","","","","","","","","","","","","","","","","","","","","","","","","","","","","","",""
"","","","survey-multi-choice","67","1323717","0.0-53.4-1.4","0","0","9nseM","People","","395650","{""Q0"":""True"",""Q1"":""False"",""Q2"":""Do it as quickly as possible"",""Q3"":""True"",""Q4"":""D""}","deliberation_comprehension_check","1","","","","","","","","","","","","","","","","","","","","","","","","","","","","","","","","","","","","","","","","","","","","",""
"","missed_instruction_checkup","","html-keyboard-response","68","1325773","0.0-53.4-2.4-0.4","0","1","9nseM","People","","2053","","","","78","","","","","","","","","","","","","","","","","","","","","","","","","","","","","","","","","","","","","","","","","","","",""
"","deliberation_instructions","","instructions","69","1358823","0.0-53.5-0.5","0","0","9nseM","People","[{""page_index"":0,""viewing_time"":8262},{""page_index"":1,""viewing_time"":8601},{""page_index"":2,""viewing_time"":5417},{""page_index"":3,""viewing_time"":5686},{""page_index"":4,""viewing_time"":5083}]","33049","","","","","","","","","","","","","","","","","","","","","","","","","","","","","","","","","","","","","","","","","","","","","","","",""
"","","","survey-multi-choice","70","1468053","0.0-53.5-1.5","0","0","9nseM","People","","109224","{""Q0"":""True"",""Q1"":""True"",""Q2"":""Consider carefully and take your time (up to 10 seconds)"",""Q3"":""True"",""Q4"":""D""}","deliberation_comprehension_check","0","","","","","","","","","","","","","","","","","","","","","","","","","","","","","","","","","","","","","","","","","","","","",""
"","start_phase","","html-keyboard-response","71","1470324","0.0-54.0","0","0","9nseM","People","","2269","","","","78","","","","","","","","","","","","","","","","","","","","","","","","","","","","","","","","","","","","","","","","","","","",""
"","first_deliberation_block","","html-keyboard-response","72","1472799","0.0-55.0","0","0","9nseM","People","","2473","","","","78","","","","","","","","","","","","","","","","","","","","","","","","","","","","","","","","","","","","","","","","","","","",""
"","fixation","","html-keyboard-response","73","1473809","0.0-56.0-0.0","0","0","9nseM","People","","null","","","","null","","","","","","","","","","","","","","","","","","","","","","","","","","","","","","","","","","","","","","","","","","","",""
"","deliberation","","html-keyboard-response","74","1477215","0.0-56.0-1.0","0","0","9nseM","People","","3389","","","","68","","","","0","3","42","0","1","67","35","art-hauntington-jzY0KRJopEI-unsplash.jpg","prince-akachi-l3IHXOdMyHQ-unsplash.jpg","1","1","3","42","","","","","","","","","","","","","","","","","","","","","","","","","","","",""
"","choice_confirmation","","html-keyboard-response","75","1477733","0.0-56.0-2.0-0.0","0","0","9nseM","People","","null","","","","null","","","","0","3","42","","","","","","","","","","","","","","","","","","","","","","","","","","","","","","","","","","","","","",""
"","fixation","","html-keyboard-response","76","1478751","0.0-57.0-0.0","0","0","9nseM","People","","null","","","","null","","","","","","","","","","","","","","","","","","","","","","","","","","","","","","","","","","","","","","","","","","","",""
"","deliberation","","html-keyboard-response","77","1480035","0.0-57.0-1.0","0","0","9nseM","People","","1276","","","","75","","","","1","15","41","0","-1","78","66","gabriel-silverio-u3WmDyKGsrY-unsplash.jpg","prince-akachi-i2hoD-C2RUA-unsplash.jpg","1","0","41","15","","","","","","","","","","","","","","","","","","","","","","","","","","","",""
"","choice_confirmation","","html-keyboard-response","78","1480543","0.0-57.0-2.0-0.0","0","0","9nseM","People","","null","","","","null","","","","1","15","41","","","","","","","","","","","","","","","","","","","","","","","","","","","","","","","","","","","","","",""
"","fixation","","html-keyboard-response","79","1481563","0.0-58.0-0.0","0","0","9nseM","People","","null","","","","null","","","","","","","","","","","","","","","","","","","","","","","","","","","","","","","","","","","","","","","","","","","",""
"","deliberation","","html-keyboard-response","80","1482694","0.0-58.0-1.0","0","0","9nseM","People","","1129","","","","75","","","","2","49","5","1","-1","43","66","vicky-hladynets-_gDoyVv5F4c-unsplash.jpg","batel-studio-ttSRjiYG_WM-unsplash.jpg","1","0","5","49","","","","","","","","","","","","","","","","","","","","","","","","","","","",""
"","choice_confirmation","","html-keyboard-response","81","1483199","0.0-58.0-2.0-0.0","0","0","9nseM","People","","null","","","","null","","","","2","49","5","","","","","","","","","","","","","","","","","","","","","","","","","","","","","","","","","","","","","",""
"","explain_trial","","survey-text","82","1503614","0.0-58.0-5.0-0.0","0","0","9nseM","People","","20411","{""Q0"":""I like it smile""}","","","","","","","2","49","5","","","","","","","","","","","{""Q0"":""I like it smile""}","","","","","","","","","","","","","","","","","","","","","","","","","","",""
"","fixation","","html-keyboard-response","83","1504640","0.0-59.0-0.0","0","0","9nseM","People","","null","","","","null","","","","","","","","","","","","","","","","","","","","","","","","","","","","","","","","","","","","","","","","","","","",""
"","deliberation","","html-keyboard-response","84","1508952","0.0-59.0-1.0","0","0","9nseM","People","","4310","","","","68","","","","3","18","0","1","-1","66","36","good-faces-xmSWVeGEnJw-unsplash.jpg","abstral-official-cyOKLSgkgCE-unsplash.jpg","1","1","18","0","","","","","","","","","","","","","","","","","","","","","","","","","","","",""
"","choice_confirmation","","html-keyboard-response","85","1509456","0.0-59.0-2.0-0.0","0","0","9nseM","People","","null","","","","null","","","","3","18","0","","","","","","","","","","","","","","","","","","","","","","","","","","","","","","","","","","","","","",""
"","explain_trial","","survey-text","86","1529430","0.0-59.0-5.0-0.0","0","0","9nseM","People","","19972","{""Q0"":""It look nice""}","","","","","","","3","18","0","","","","","","","","","","","{""Q0"":""It look nice""}","","","","","","","","","","","","","","","","","","","","","","","","","","",""
"","fixation","","html-keyboard-response","87","1530435","0.0-60.0-0.0","0","0","9nseM","People","","null","","","","null","","","","","","","","","","","","","","","","","","","","","","","","","","","","","","","","","","","","","","","","","","","",""
"","deliberation","","html-keyboard-response","88","1532650","0.0-60.0-1.0","0","0","9nseM","People","","2213","","","","68","","","","4","2","11","0","1","70","74","arjunsyah-TBUA5KHJn6k-unsplash.jpg","christian-ferrer-8vT-DgHZDG4-unsplash.jpg","1","1","2","11","","","","","","","","","","","","","","","","","","","","","","","","","","","",""
"","choice_confirmation","","html-keyboard-response","89","1533161","0.0-60.0-2.0-0.0","0","0","9nseM","People","","null","","","","null","","","","4","2","11","","","","","","","","","","","","","","","","","","","","","","","","","","","","","","","","","","","","","",""
"","fixation","","html-keyboard-response","90","1534169","0.0-61.0-0.0","0","0","9nseM","People","","null","","","","null","","","","","","","","","","","","","","","","","","","","","","","","","","","","","","","","","","","","","","","","","","","",""
"","deliberation","","html-keyboard-response","91","1536915","0.0-61.0-1.0","0","0","9nseM","People","","2734","","","","75","","","","5","29","23","1","1","76","75","leilani-angel-K84vnnzxmTQ-unsplash.jpg","joanna-nix-walkup-H4fEMshfwTE-unsplash.jpg","1","0","23","29","","","","","","","","","","","","","","","","","","","","","","","","","","","",""
"","choice_confirmation","","html-keyboard-response","92","1537420","0.0-61.0-2.0-0.0","0","0","9nseM","People","","null","","","","null","","","","5","29","23","","","","","","","","","","","","","","","","","","","","","","","","","","","","","","","","","","","","","",""
"","explain_trial","","survey-text","93","1557102","0.0-61.0-5.0-0.0","0","0","9nseM","People","","19679","{""Q0"":""It look nice""}","","","","","","","5","29","23","","","","","","","","","","","{""Q0"":""It look nice""}","","","","","","","","","","","","","","","","","","","","","","","","","","",""
"","fixation","","html-keyboard-response","94","1558113","0.0-62.0-0.0","0","0","9nseM","People","","null","","","","null","","","","","","","","","","","","","","","","","","","","","","","","","","","","","","","","","","","","","","","","","","","",""
"","deliberation","","html-keyboard-response","95","1559647","0.0-62.0-1.0","0","0","9nseM","People","","1533","","","","75","","","","6","44","27","0","1","61","52","rikonavt-HQjfrvdTfak-unsplash.jpg","jurica-koletic-7YVZYZeITc8-unsplash.jpg","1","0","27","44","","","","","","","","","","","","","","","","","","","","","","","","","","","",""
"","choice_confirmation","","html-keyboard-response","96","1560159","0.0-62.0-2.0-0.0","0","0","9nseM","People","","null","","","","null","","","","6","44","27","","","","","","","","","","","","","","","","","","","","","","","","","","","","","","","","","","","","","",""
"","fixation","","html-keyboard-response","97","1561169","0.0-63.0-0.0","0","0","9nseM","People","","null","","","","null","","","","","","","","","","","","","","","","","","","","","","","","","","","","","","","","","","","","","","","","","","","",""
"","deliberation","","html-keyboard-response","98","1564203","0.0-63.0-1.0","0","0","9nseM","People","","3032","","","","75","","","","7","31","24","1","-1","66","75","mathilda-khoo-vLR0YP_otCo-unsplash.jpg","joel-mott-LaK153ghdig-unsplash.jpg","1","0","24","31","","","","","","","","","","","","","","","","","","","","","","","","","","","",""
"","choice_confirmation","","html-keyboard-response","99","1564705","0.0-63.0-2.0-0.0","0","0","9nseM","People","","null","","","","null","","","","7","31","24","","","","","","","","","","","","","","","","","","","","","","","","","","","","","","","","","","","","","",""
"","explain_trial","","survey-text","100","1590887","0.0-63.0-5.0-0.0","0","0","9nseM","People","","26179","{""Q0"":""She look beautiful""}","","","","","","","7","31","24","","","","","","","","","","","{""Q0"":""She look beautiful""}","","","","","","","","","","","","","","","","","","","","","","","","","","",""
"","fixation","","html-keyboard-response","101","1591904","0.0-64.0-0.0","0","0","9nseM","People","","null","","","","null","","","","","","","","","","","","","","","","","","","","","","","","","","","","","","","","","","","","","","","","","","","",""
"","deliberation","","html-keyboard-response","102","1595825","0.0-64.0-1.0","0","0","9nseM","People","","3904","","","","68","","","","8","28","13","1","-1","38","56","justin-chen-J7Cf1Gch49E-unsplash.jpg","erik-lucatero-d2MSDujJl2g-unsplash.jpg","1","1","28","13","","","","","","","","","","","","","","","","","","","","","","","","","","","",""
"","choice_confirmation","","html-keyboard-response","103","1596330","0.0-64.0-2.0-0.0","0","0","9nseM","People","","null","","","","null","","","","8","28","13","","","","","","","","","","","","","","","","","","","","","","","","","","","","","","","","","","","","","",""
"","explain_trial","","survey-text","104","1640421","0.0-64.0-5.0-0.0","0","0","9nseM","People","","44088","{""Q0"":""Good hair style""}","","","","","","","8","28","13","","","","","","","","","","","{""Q0"":""Good hair style""}","","","","","","","","","","","","","","","","","","","","","","","","","","",""
"","fixation","","html-keyboard-response","105","1641422","0.0-65.0-0.0","0","0","9nseM","People","","null","","","","null","","","","","","","","","","","","","","","","","","","","","","","","","","","","","","","","","","","","","","","","","","","",""
"","deliberation","","html-keyboard-response","106","1644538","0.0-65.0-1.0","0","0","9nseM","People","","3115","","","","75","","","","9","35","16","0","1","63","71","oliver-ragfelt-khV4fTy6-D8-unsplash.jpg","giano-currie-5-9YOsmf8IQ-unsplash.jpg","1","0","16","35","","","","","","","","","","","","","","","","","","","","","","","","","","","",""
"","choice_confirmation","","html-keyboard-response","107","1645047","0.0-65.0-2.0-0.0","0","0","9nseM","People","","null","","","","null","","","","9","35","16","","","","","","","","","","","","","","","","","","","","","","","","","","","","","","","","","","","","","",""
"","fixation","","html-keyboard-response","108","1646059","0.0-66.0-0.0","0","0","9nseM","People","","null","","","","null","","","","","","","","","","","","","","","","","","","","","","","","","","","","","","","","","","","","","","","","","","","",""
"","deliberation","","html-keyboard-response","109","1649491","0.0-66.0-1.0","0","0","9nseM","People","","3421","","","","68","","","","10","20","48","0","1","56","72","houcine-ncib-B4TjXnI0Y2c-unsplash.jpg","velizar-ivanov-7ktP9yZA1g4-unsplash.jpg","1","1","20","48","","","","","","","","","","","","","","","","","","","","","","","","","","","",""
"","choice_confirmation","","html-keyboard-response","110","1650009","0.0-66.0-2.0-0.0","0","0","9nseM","People","","null","","","","null","","","","10","20","48","","","","","","","","","","","","","","","","","","","","","","","","","","","","","","","","","","","","","",""
"","fixation","","html-keyboard-response","111","1651031","0.0-67.0-0.0","0","0","9nseM","People","","null","","","","null","","","","","","","","","","","","","","","","","","","","","","","","","","","","","","","","","","","","","","","","","","","",""
"","deliberation","","html-keyboard-response","112","1653838","0.0-67.0-1.0","0","0","9nseM","People","","2805","","","","68","","","","11","43","30","1","-1","70","61","raamin-ka-0qJBEzudn5E-unsplash.jpg","matheus-ferrero-pg_WCHWSdT8-unsplash.jpg","1","1","43","30","","","","","","","","","","","","","","","","","","","","","","","","","","","",""
"","choice_confirmation","","html-keyboard-response","113","1654352","0.0-67.0-2.0-0.0","0","0","9nseM","People","","null","","","","null","","","","11","43","30","","","","","","","","","","","","","","","","","","","","","","","","","","","","","","","","","","","","","",""
"","explain_trial","","survey-text","114","1676892","0.0-67.0-5.0-0.0","0","0","9nseM","People","","22538","{""Q0"":""look beautiful""}","","","","","","","11","43","30","","","","","","","","","","","{""Q0"":""look beautiful""}","","","","","","","","","","","","","","","","","","","","","","","","","","",""
"","practice_deliberation_again","","html-keyboard-response","115","1679704","0.0-67.0-6.0-0.0","0","0","9nseM","People","","2811","","","","78","","","","","","","","","","","","","","","","","","","","","","","","","","","","","","","","","","","","","","","","","","","",""
"","fixation","","html-keyboard-response","116","1680711","0.0-68.0-0.0","0","0","9nseM","People","","null","","","","null","","","","","","","","","","","","","","","","","","","","","","","","","","","","","","","","","","","","","","","","","","","",""
"","deliberation","","html-keyboard-response","117","1683117","0.0-68.0-1.0","0","0","9nseM","People","","2406","","","","68","","","","12","43","30","0","-1","70","61","raamin-ka-0qJBEzudn5E-unsplash.jpg","matheus-ferrero-pg_WCHWSdT8-unsplash.jpg","2","1","43","30","","","","","","","","","","","","","","","","","","","","","","","","","","","",""
"","choice_confirmation","","html-keyboard-response","118","1683623","0.0-68.0-2.0-0.0","0","0","9nseM","People","","null","","","","null","","","","12","43","30","","","","","","","","","","","","","","","","","","","","","","","","","","","","","","","","","","","","","",""
"","fixation","","html-keyboard-response","119","1684631","0.0-69.0-0.0","0","0","9nseM","People","","null","","","","null","","","","","","","","","","","","","","","","","","","","","","","","","","","","","","","","","","","","","","","","","","","",""
"","deliberation","","html-keyboard-response","120","1686850","0.0-69.0-1.0","0","0","9nseM","People","","2217","","","","68","","","","13","29","23","0","1","76","75","leilani-angel-K84vnnzxmTQ-unsplash.jpg","joanna-nix-walkup-H4fEMshfwTE-unsplash.jpg","2","1","29","23","","","","","","","","","","","","","","","","","","","","","","","","","","","",""
"","choice_confirmation","","html-keyboard-response","121","1687356","0.0-69.0-2.0-0.0","0","0","9nseM","People","","null","","","","null","","","","13","29","23","","","","","","","","","","","","","","","","","","","","","","","","","","","","","","","","","","","","","",""
"","fixation","","html-keyboard-response","122","1688374","0.0-70.0-0.0","0","0","9nseM","People","","null","","","","null","","","","","","","","","","","","","","","","","","","","","","","","","","","","","","","","","","","","","","","","","","","",""
"","deliberation","","html-keyboard-response","123","1692118","0.0-70.0-1.0","0","0","9nseM","People","","3743","","","","68","","","","14","49","5","0","-1","43","66","vicky-hladynets-_gDoyVv5F4c-unsplash.jpg","batel-studio-ttSRjiYG_WM-unsplash.jpg","2","1","49","5","","","","","","","","","","","","","","","","","","","","","","","","","","","",""
"","choice_confirmation","","html-keyboard-response","124","1692623","0.0-70.0-2.0-0.0","0","0","9nseM","People","","null","","","","null","","","","14","49","5","","","","","","","","","","","","","","","","","","","","","","","","","","","","","","","","","","","","","",""
"","fixation","","html-keyboard-response","125","1693638","0.0-71.0-0.0","0","0","9nseM","People","","null","","","","null","","","","","","","","","","","","","","","","","","","","","","","","","","","","","","","","","","","","","","","","","","","",""
"","deliberation","","html-keyboard-response","126","1697761","0.0-71.0-1.0","0","0","9nseM","People","","4108","","","","75","","","","15","18","0","0","-1","66","36","good-faces-xmSWVeGEnJw-unsplash.jpg","abstral-official-cyOKLSgkgCE-unsplash.jpg","2","0","0","18","","","","","","","","","","","","","","","","","","","","","","","","","","","",""
"","choice_confirmation","","html-keyboard-response","127","1698279","0.0-71.0-2.0-0.0","0","0","9nseM","People","","null","","","","null","","","","15","18","0","","","","","","","","","","","","","","","","","","","","","","","","","","","","","","","","","","","","","",""
"","fixation","","html-keyboard-response","128","1699288","0.0-72.0-0.0","0","0","9nseM","People","","null","","","","null","","","","","","","","","","","","","","","","","","","","","","","","","","","","","","","","","","","","","","","","","","","",""
"","deliberation","","html-keyboard-response","129","1703717","0.0-72.0-1.0","0","0","9nseM","People","","4427","","","","75","","","","16","2","11","1","1","70","74","arjunsyah-TBUA5KHJn6k-unsplash.jpg","christian-ferrer-8vT-DgHZDG4-unsplash.jpg","2","0","11","2","","","","","","","","","","","","","","","","","","","","","","","","","","","",""
"","choice_confirmation","","html-keyboard-response","130","1704225","0.0-72.0-2.0-0.0","0","0","9nseM","People","","null","","","","null","","","","16","2","11","","","","","","","","","","","","","","","","","","","","","","","","","","","","","","","","","","","","","",""
"","explain_trial","","survey-text","131","1727534","0.0-72.0-5.0-0.0","0","0","9nseM","People","","23307","{""Q0"":""she look very beautiful""}","","","","","","","16","2","11","","","","","","","","","","","{""Q0"":""she look very beautiful""}","","","","","","","","","","","","","","","","","","","","","","","","","","",""
"","fixation","","html-keyboard-response","132","1728545","0.0-73.0-0.0","0","0","9nseM","People","","null","","","","null","","","","","","","","","","","","","","","","","","","","","","","","","","","","","","","","","","","","","","","","","","","",""
"","deliberation","","html-keyboard-response","133","1730666","0.0-73.0-1.0","0","0","9nseM","People","","2120","","","","75","","","","17","44","27","1","1","61","52","rikonavt-HQjfrvdTfak-unsplash.jpg","jurica-koletic-7YVZYZeITc8-unsplash.jpg","2","0","27","44","","","","","","","","","","","","","","","","","","","","","","","","","","","",""
"","choice_confirmation","","html-keyboard-response","134","1731193","0.0-73.0-2.0-0.0","0","0","9nseM","People","","null","","","","null","","","","17","44","27","","","","","","","","","","","","","","","","","","","","","","","","","","","","","","","","","","","","","",""
"","explain_trial","","survey-text","135","1748437","0.0-73.0-5.0-0.0","0","0","9nseM","People","","17242","{""Q0"":""Nice Simile""}","","","","","","","17","44","27","","","","","","","","","","","{""Q0"":""Nice Simile""}","","","","","","","","","","","","","","","","","","","","","","","","","","",""
"","fixation","","html-keyboard-response","136","1749439","0.0-74.0-0.0","0","0","9nseM","People","","null","","","","null","","","","","","","","","","","","","","","","","","","","","","","","","","","","","","","","","","","","","","","","","","","",""
"","deliberation","","html-keyboard-response","137","1752979","0.0-74.0-1.0","0","0","9nseM","People","","3538","","","","68","","","","18","3","42","1","1","67","35","art-hauntington-jzY0KRJopEI-unsplash.jpg","prince-akachi-l3IHXOdMyHQ-unsplash.jpg","2","1","3","42","","","","","","","","","","","","","","","","","","","","","","","","","","","",""
"","choice_confirmation","","html-keyboard-response","138","1753483","0.0-74.0-2.0-0.0","0","0","9nseM","People","","null","","","","null","","","","18","3","42","","","","","","","","","","","","","","","","","","","","","","","","","","","","","","","","","","","","","",""
"","explain_trial","","survey-text","139","1786085","0.0-74.0-5.0-0.0","0","0","9nseM","People","","32599","{""Q0"":""Look beautiful""}","","","","","","","18","3","42","","","","","","","","","","","{""Q0"":""Look beautiful""}","","","","","","","","","","","","","","","","","","","","","","","","","","",""
"","fixation","","html-keyboard-response","140","1787091","0.0-75.0-0.0","0","0","9nseM","People","","null","","","","null","","","","","","","","","","","","","","","","","","","","","","","","","","","","","","","","","","","","","","","","","","","",""
"","deliberation","","html-keyboard-response","141","1789323","0.0-75.0-1.0","0","0","9nseM","People","","2231","","","","68","","","","19","28","13","0","-1","38","56","justin-chen-J7Cf1Gch49E-unsplash.jpg","erik-lucatero-d2MSDujJl2g-unsplash.jpg","2","1","28","13","","","","","","","","","","","","","","","","","","","","","","","","","","","",""
"","choice_confirmation","","html-keyboard-response","142","1789839","0.0-75.0-2.0-0.0","0","0","9nseM","People","","null","","","","null","","","","19","28","13","","","","","","","","","","","","","","","","","","","","","","","","","","","","","","","","","","","","","",""
"","fixation","","html-keyboard-response","143","1790847","0.0-76.0-0.0","0","0","9nseM","People","","null","","","","null","","","","","","","","","","","","","","","","","","","","","","","","","","","","","","","","","","","","","","","","","","","",""
"","deliberation","","html-keyboard-response","144","1793480","0.0-76.0-1.0","0","0","9nseM","People","","2626","","","","68","","","","20","15","41","1","-1","78","66","gabriel-silverio-u3WmDyKGsrY-unsplash.jpg","prince-akachi-i2hoD-C2RUA-unsplash.jpg","2","1","15","41","","","","","","","","","","","","","","","","","","","","","","","","","","","",""
"","choice_confirmation","","html-keyboard-response","145","1793987","0.0-76.0-2.0-0.0","0","0","9nseM","People","","null","","","","null","","","","20","15","41","","","","","","","","","","","","","","","","","","","","","","","","","","","","","","","","","","","","","",""
"","explain_trial","","survey-text","146","1804447","0.0-76.0-5.0-0.0","0","0","9nseM","People","","10457","{""Q0"":""She happy""}","","","","","","","20","15","41","","","","","","","","","","","{""Q0"":""She happy""}","","","","","","","","","","","","","","","","","","","","","","","","","","",""
"","fixation","","html-keyboard-response","147","1805467","0.0-77.0-0.0","0","0","9nseM","People","","null","","","","null","","","","","","","","","","","","","","","","","","","","","","","","","","","","","","","","","","","","","","","","","","","",""
"","deliberation","","html-keyboard-response","148","1808136","0.0-77.0-1.0","0","0","9nseM","People","","2667","","","","68","","","","21","20","48","1","1","56","72","houcine-ncib-B4TjXnI0Y2c-unsplash.jpg","velizar-ivanov-7ktP9yZA1g4-unsplash.jpg","2","1","20","48","","","","","","","","","","","","","","","","","","","","","","","","","","","",""
"","choice_confirmation","","html-keyboard-response","149","1808638","0.0-77.0-2.0-0.0","0","0","9nseM","People","","null","","","","null","","","","21","20","48","","","","","","","","","","","","","","","","","","","","","","","","","","","","","","","","","","","","","",""
"","explain_trial","","survey-text","150","1820435","0.0-77.0-5.0-0.0","0","0","9nseM","People","","11794","{""Q0"":""Nice look""}","","","","","","","21","20","48","","","","","","","","","","","{""Q0"":""Nice look""}","","","","","","","","","","","","","","","","","","","","","","","","","","",""
"","fixation","","html-keyboard-response","151","1821451","0.0-78.0-0.0","0","0","9nseM","People","","null","","","","null","","","","","","","","","","","","","","","","","","","","","","","","","","","","","","","","","","","","","","","","","","","",""
"","deliberation","","html-keyboard-response","152","1825734","0.0-78.0-1.0","0","0","9nseM","People","","4282","","","","75","","","","22","31","24","0","-1","66","75","mathilda-khoo-vLR0YP_otCo-unsplash.jpg","joel-mott-LaK153ghdig-unsplash.jpg","2","0","24","31","","","","","","","","","","","","","","","","","","","","","","","","","","","",""
"","choice_confirmation","","html-keyboard-response","153","1826242","0.0-78.0-2.0-0.0","0","0","9nseM","People","","null","","","","null","","","","22","31","24","","","","","","","","","","","","","","","","","","","","","","","","","","","","","","","","","","","","","",""
"","fixation","","html-keyboard-response","154","1827248","0.0-79.0-0.0","0","0","9nseM","People","","null","","","","null","","","","","","","","","","","","","","","","","","","","","","","","","","","","","","","","","","","","","","","","","","","",""
"","deliberation","","html-keyboard-response","155","1828726","0.0-79.0-1.0","0","0","9nseM","People","","1468","","","","75","","","","23","35","16","1","1","63","71","oliver-ragfelt-khV4fTy6-D8-unsplash.jpg","giano-currie-5-9YOsmf8IQ-unsplash.jpg","2","0","16","35","","","","","","","","","","","","","","","","","","","","","","","","","","","",""
"","choice_confirmation","","html-keyboard-response","156","1829249","0.0-79.0-2.0-0.0","0","0","9nseM","People","","null","","","","null","","","","23","35","16","","","","","","","","","","","","","","","","","","","","","","","","","","","","","","","","","","","","","",""
"","explain_trial","","survey-text","157","1838207","0.0-79.0-5.0-0.0","0","0","9nseM","People","","8956","{""Q0"":""Nice look""}","","","","","","","23","35","16","","","","","","","","","","","{""Q0"":""Nice look""}","","","","","","","","","","","","","","","","","","","","","","","","","","",""
"","start_critical_deliberation_block","","html-keyboard-response","158","1842157","0.0-79.0-7.0-0.0","0","0","9nseM","People","","3949","","","","78","","","","","","","","","","","","","","","","","","","","","","","","","","","","","","","","","","","","","","","","","","","",""
"","fixation","","html-keyboard-response","159","1843176","0.0-80.0-0.0","0","0","9nseM","People","","null","","","","null","","","","","","","","","","","","","","","","","","","","","","","","","","","","","","","","","","","","","","","","","","","",""
"","deliberation","","html-keyboard-response","160","1844964","0.0-80.0-1.0","0","0","9nseM","People","","1773","","","","68","","","","24","15","41","0","-1","78","66","gabriel-silverio-u3WmDyKGsrY-unsplash.jpg","prince-akachi-i2hoD-C2RUA-unsplash.jpg","3","1","15","41","","","","","","","","","","","","","","","","","","","","","","","","","","","",""
"","choice_confirmation","","html-keyboard-response","161","1845482","0.0-80.0-2.0-0.0","0","0","9nseM","People","","null","","","","null","","","","24","15","41","","","","","","","","","","","","","","","","","","","","","","","","","","","","","","","","","","","","","",""
"","fixation","","html-keyboard-response","162","1846497","0.0-81.0-0.0","0","0","9nseM","People","","null","","","","null","","","","","","","","","","","","","","","","","","","","","","","","","","","","","","","","","","","","","","","","","","","",""
"","deliberation","","html-keyboard-response","163","1848204","0.0-81.0-1.0","0","0","9nseM","People","","1701","","","","68","","","","25","20","48","0","1","56","72","houcine-ncib-B4TjXnI0Y2c-unsplash.jpg","velizar-ivanov-7ktP9yZA1g4-unsplash.jpg","3","1","20","48","","","","","","","","","","","","","","","","","","","","","","","","","","","",""
"","choice_confirmation","","html-keyboard-response","164","1848716","0.0-81.0-2.0-0.0","0","0","9nseM","People","","null","","","","null","","","","25","20","48","","","","","","","","","","","","","","","","","","","","","","","","","","","","","","","","","","","","","",""
"","fixation","","html-keyboard-response","165","1849723","0.0-82.0-0.0","0","0","9nseM","People","","null","","","","null","","","","","","","","","","","","","","","","","","","","","","","","","","","","","","","","","","","","","","","","","","","",""
"","deliberation","","html-keyboard-response","166","1851214","0.0-82.0-1.0","0","0","9nseM","People","","1490","","","","75","","","","26","49","5","0","-1","43","66","vicky-hladynets-_gDoyVv5F4c-unsplash.jpg","batel-studio-ttSRjiYG_WM-unsplash.jpg","3","0","5","49","","","","","","","","","","","","","","","","","","","","","","","","","","","",""
"","choice_confirmation","","html-keyboard-response","167","1851732","0.0-82.0-2.0-0.0","0","0","9nseM","People","","null","","","","null","","","","26","49","5","","","","","","","","","","","","","","","","","","","","","","","","","","","","","","","","","","","","","",""
"","fixation","","html-keyboard-response","168","1852748","0.0-83.0-0.0","0","0","9nseM","People","","null","","","","null","","","","","","","","","","","","","","","","","","","","","","","","","","","","","","","","","","","","","","","","","","","",""
"","deliberation","","html-keyboard-response","169","1854073","0.0-83.0-1.0","0","0","9nseM","People","","1323","","","","68","","","","27","44","27","0","1","61","52","rikonavt-HQjfrvdTfak-unsplash.jpg","jurica-koletic-7YVZYZeITc8-unsplash.jpg","3","1","44","27","","","","","","","","","","","","","","","","","","","","","","","","","","","",""
"","choice_confirmation","","html-keyboard-response","170","1854592","0.0-83.0-2.0-0.0","0","0","9nseM","People","","null","","","","null","","","","27","44","27","","","","","","","","","","","","","","","","","","","","","","","","","","","","","","","","","","","","","",""
"","fixation","","html-keyboard-response","171","1855601","0.0-84.0-0.0","0","0","9nseM","People","","null","","","","null","","","","","","","","","","","","","","","","","","","","","","","","","","","","","","","","","","","","","","","","","","","",""
"","deliberation","","html-keyboard-response","172","1856625","0.0-84.0-1.0","0","0","9nseM","People","","1022","","","","75","","","","28","35","16","0","1","63","71","oliver-ragfelt-khV4fTy6-D8-unsplash.jpg","giano-currie-5-9YOsmf8IQ-unsplash.jpg","3","0","16","35","","","","","","","","","","","","","","","","","","","","","","","","","","","",""
"","choice_confirmation","","html-keyboard-response","173","1857127","0.0-84.0-2.0-0.0","0","0","9nseM","People","","null","","","","null","","","","28","35","16","","","","","","","","","","","","","","","","","","","","","","","","","","","","","","","","","","","","","",""
"","fixation","","html-keyboard-response","174","1858137","0.0-85.0-0.0","0","0","9nseM","People","","null","","","","null","","","","","","","","","","","","","","","","","","","","","","","","","","","","","","","","","","","","","","","","","","","",""
"","deliberation","","html-keyboard-response","175","1859214","0.0-85.0-1.0","0","0","9nseM","People","","1075","","","","75","","","","29","2","11","0","1","70","74","arjunsyah-TBUA5KHJn6k-unsplash.jpg","christian-ferrer-8vT-DgHZDG4-unsplash.jpg","3","0","11","2","","","","","","","","","","","","","","","","","","","","","","","","","","","",""
"","choice_confirmation","","html-keyboard-response","176","1859720","0.0-85.0-2.0-0.0","0","0","9nseM","People","","null","","","","null","","","","29","2","11","","","","","","","","","","","","","","","","","","","","","","","","","","","","","","","","","","","","","",""
"","fixation","","html-keyboard-response","177","1860728","0.0-86.0-0.0","0","0","9nseM","People","","null","","","","null","","","","","","","","","","","","","","","","","","","","","","","","","","","","","","","","","","","","","","","","","","","",""
"","deliberation","","html-keyboard-response","178","1861785","0.0-86.0-1.0","0","0","9nseM","People","","1054","","","","68","","","","30","3","42","0","1","67","35","art-hauntington-jzY0KRJopEI-unsplash.jpg","prince-akachi-l3IHXOdMyHQ-unsplash.jpg","3","1","3","42","","","","","","","","","","","","","","","","","","","","","","","","","","","",""
"","choice_confirmation","","html-keyboard-response","179","1862288","0.0-86.0-2.0-0.0","0","0","9nseM","People","","null","","","","null","","","","30","3","42","","","","","","","","","","","","","","","","","","","","","","","","","","","","","","","","","","","","","",""
"","fixation","","html-keyboard-response","180","1863297","0.0-87.0-0.0","0","0","9nseM","People","","null","","","","null","","","","","","","","","","","","","","","","","","","","","","","","","","","","","","","","","","","","","","","","","","","",""
"","deliberation","","html-keyboard-response","181","1864250","0.0-87.0-1.0","0","0","9nseM","People","","951","","","","75","","","","31","31","24","0","-1","66","75","mathilda-khoo-vLR0YP_otCo-unsplash.jpg","joel-mott-LaK153ghdig-unsplash.jpg","3","0","24","31","","","","","","","","","","","","","","","","","","","","","","","","","","","",""
"","choice_confirmation","","html-keyboard-response","182","1864752","0.0-87.0-2.0-0.0","0","0","9nseM","People","","null","","","","null","","","","31","31","24","","","","","","","","","","","","","","","","","","","","","","","","","","","","","","","","","","","","","",""
"","fixation","","html-keyboard-response","183","1865760","0.0-88.0-0.0","0","0","9nseM","People","","null","","","","null","","","","","","","","","","","","","","","","","","","","","","","","","","","","","","","","","","","","","","","","","","","",""
"","deliberation","","html-keyboard-response","184","1866879","0.0-88.0-1.0","0","0","9nseM","People","","1117","","","","68","","","","32","43","30","0","-1","70","61","raamin-ka-0qJBEzudn5E-unsplash.jpg","matheus-ferrero-pg_WCHWSdT8-unsplash.jpg","3","1","43","30","","","","","","","","","","","","","","","","","","","","","","","","","","","",""
"","choice_confirmation","","html-keyboard-response","185","1867384","0.0-88.0-2.0-0.0","0","0","9nseM","People","","null","","","","null","","","","32","43","30","","","","","","","","","","","","","","","","","","","","","","","","","","","","","","","","","","","","","",""
"","fixation","","html-keyboard-response","186","1868393","0.0-89.0-0.0","0","0","9nseM","People","","null","","","","null","","","","","","","","","","","","","","","","","","","","","","","","","","","","","","","","","","","","","","","","","","","",""
"","deliberation","","html-keyboard-response","187","1869546","0.0-89.0-1.0","0","0","9nseM","People","","1152","","","","68","","","","33","18","0","0","-1","66","36","good-faces-xmSWVeGEnJw-unsplash.jpg","abstral-official-cyOKLSgkgCE-unsplash.jpg","3","1","18","0","","","","","","","","","","","","","","","","","","","","","","","","","","","",""
"","choice_confirmation","","html-keyboard-response","188","1870061","0.0-89.0-2.0-0.0","0","0","9nseM","People","","null","","","","null","","","","33","18","0","","","","","","","","","","","","","","","","","","","","","","","","","","","","","","","","","","","","","",""
"","fixation","","html-keyboard-response","189","1871075","0.0-90.0-0.0","0","0","9nseM","People","","null","","","","null","","","","","","","","","","","","","","","","","","","","","","","","","","","","","","","","","","","","","","","","","","","",""
"","deliberation","","html-keyboard-response","190","1871998","0.0-90.0-1.0","0","0","9nseM","People","","921","","","","75","","","","34","28","13","0","-1","38","56","justin-chen-J7Cf1Gch49E-unsplash.jpg","erik-lucatero-d2MSDujJl2g-unsplash.jpg","3","0","13","28","","","","","","","","","","","","","","","","","","","","","","","","","","","",""
"","choice_confirmation","","html-keyboard-response","191","1872522","0.0-90.0-2.0-0.0","0","0","9nseM","People","","null","","","","null","","","","34","28","13","","","","","","","","","","","","","","","","","","","","","","","","","","","","","","","","","","","","","",""
"","fixation","","html-keyboard-response","192","1873530","0.0-91.0-0.0","0","0","9nseM","People","","null","","","","null","","","","","","","","","","","","","","","","","","","","","","","","","","","","","","","","","","","","","","","","","","","",""
"","deliberation","","html-keyboard-response","193","1874567","0.0-91.0-1.0","0","0","9nseM","People","","1028","","","","75","","","","35","29","23","0","1","76","75","leilani-angel-K84vnnzxmTQ-unsplash.jpg","joanna-nix-walkup-H4fEMshfwTE-unsplash.jpg","3","0","23","29","","","","","","","","","","","","","","","","","","","","","","","","","","","",""
"","choice_confirmation","","html-keyboard-response","194","1875088","0.0-91.0-2.0-0.0","0","0","9nseM","People","","null","","","","null","","","","35","29","23","","","","","","","","","","","","","","","","","","","","","","","","","","","","","","","","","","","","","",""
"","reward_learning_instructions","","instructions","195","1910981","0.0-92.0-0.0","0","0","9nseM","People","[{""page_index"":0,""viewing_time"":25380},{""page_index"":1,""viewing_time"":9017},{""page_index"":2,""viewing_time"":1495}]","35892","","","","","","","","","","","","","","","","","","","","","","","","","","","","","","","","","","","","","","","","","","","","","","","",""
"","","","survey-multi-choice","196","1930743","0.0-92.0-1.0","0","0","9nseM","People","","19758","{""Q0"":""True"",""Q1"":""True"",""Q2"":""Press the space bar to see its outcome"",""Q3"":""Press the relevant key while the outcome is presented""}","reward_comprehension_check","0","","","","","","","","","","","","","","","","","","","","","","","","","","","","","","","","","","","","","","","","","","","","",""
"","start_phase","","html-keyboard-response","197","1933265","0.0-93.0","0","0","9nseM","People","","2521","","","","78","","","","","","","","","","","","","","","","","","","","","","","","","","","","","","","","","","","","","","","","","","","",""
"","fixation","","html-keyboard-response","198","1934278","0.0-94.0","0","0","9nseM","People","","null","","","","null","","","","","","","","","","","","","","","","","","","","","","","","","","","","","","","","","","","","","","","","","","","",""
"","see_reward","","html-keyboard-response","199","1937669","0.0-95.0","0","0","9nseM","People","","3375","","","","32","","20","","0","","","","1","","","","","1","","","","","150","3375","","","","","","","","","","","","","","","","","","","","","","","","",""
"","reward_outcome","","html-keyboard-response","200","1939685","0.0-96.0","0","0","9nseM","People","","null","","","","null","","20","","0","","","","","","","","","","","","","","","","NaN","null","","","","","","","","","","","","","","","","","","","","","","",""
"","respond_faster","","html-keyboard-response","201","1941201","0.0-97.0-0.0","1","0","9nseM","People","","null","","","","null","","","","","","","","","","","","","","","","","","","","","","","","","","","","","","","","","","","","","","","","","","","",""
"","fixation","","html-keyboard-response","202","1942215","0.0-99.0","0","0","9nseM","People","","null","","","","null","","","","","","","","","","","","","","","","","","","","","","","","","","","","","","","","","","","","","","","","","","","",""
"","see_reward","","html-keyboard-response","203","1943242","0.0-100.0","0","0","9nseM","People","","1025","","","","32","","44","","1","","","","1","","","","","1","","","","","141","1025","","","","","","","","","","","","","","","","","","","","","","","","",""
"","reward_outcome","","html-keyboard-response","204","1945251","0.0-101.0","0","0","9nseM","People","","737","","","","38","","44","","1","","","","","","","","","","","","","","","","1","737","","","","","","","","","","","","","","","","","","","","","","",""
"","fixation","","html-keyboard-response","205","1946265","0.0-104.0","0","0","9nseM","People","","null","","","","null","","","","","","","","","","","","","","","","","","","","","","","","","","","","","","","","","","","","","","","","","","","",""
"","see_reward","","html-keyboard-response","206","1947456","0.0-105.0","0","0","9nseM","People","","1189","","","","32","","24","","2","","","","-1","","","","","1","","","","","0","1189","","","","","","","","","","","","","","","","","","","","","","","","",""
"","reward_outcome","","html-keyboard-response","207","1949466","0.0-106.0","0","0","9nseM","People","","478","","","","38","","24","","2","","","","","","","","","","","","","","","","1","478","","","","","","","","","","","","","","","","","","","","","","",""
"","fixation","","html-keyboard-response","208","1950481","0.0-109.0","0","0","9nseM","People","","null","","","","null","","","","","","","","","","","","","","","","","","","","","","","","","","","","","","","","","","","","","","","","","","","",""
"","see_reward","","html-keyboard-response","209","1968038","0.0-110.0","0","0","9nseM","People","","17546","","","","32","","13","","3","","","","-1","","","","","1","","","","","0","17546","","","","","","","","","","","","","","","","","","","","","","","","",""
"","reward_outcome","","html-keyboard-response","210","1970045","0.0-111.0","0","0","9nseM","People","","818","","","","40","","13","","3","","","","","","","","","","","","","","","","-1","818","","","","","","","","","","","","","","","","","","","","","","",""
"","fixation","","html-keyboard-response","211","1971060","0.0-114.0","0","0","9nseM","People","","null","","","","null","","","","","","","","","","","","","","","","","","","","","","","","","","","","","","","","","","","","","","","","","","","",""
"","see_reward","","html-keyboard-response","212","1972066","0.0-115.0","0","0","9nseM","People","","999","","","","32","","11","","4","","","","1","","","","","1","","","","","160","999","","","","","","","","","","","","","","","","","","","","","","","","",""
"","reward_outcome","","html-keyboard-response","213","1974075","0.0-116.0","0","0","9nseM","People","","753","","","","38","","11","","4","","","","","","","","","","","","","","","","1","753","","","","","","","","","","","","","","","","","","","","","","",""
"","fixation","","html-keyboard-response","214","1975093","0.0-119.0","0","0","9nseM","People","","null","","","","null","","","","","","","","","","","","","","","","","","","","","","","","","","","","","","","","","","","","","","","","","","","",""
"","see_reward","","html-keyboard-response","215","1976040","0.0-120.0","0","0","9nseM","People","","934","","","","32","","43","","5","","","","-1","","","","","1","","","","","0","934","","","","","","","","","","","","","","","","","","","","","","","","",""
"","reward_outcome","","html-keyboard-response","216","1978061","0.0-121.0","0","0","9nseM","People","","816","","","","40","","43","","5","","","","","","","","","","","","","","","","-1","816","","","","","","","","","","","","","","","","","","","","","","",""
"","fixation","","html-keyboard-response","217","1979076","0.0-124.0","0","0","9nseM","People","","null","","","","null","","","","","","","","","","","","","","","","","","","","","","","","","","","","","","","","","","","","","","","","","","","",""
"","see_reward","","html-keyboard-response","218","1979953","0.0-125.0","0","0","9nseM","People","","873","","","","32","","20","","6","","","","1","","","","","1","","","","","150","873","","","","","","","","","","","","","","","","","","","","","","","","",""
"","reward_outcome","","html-keyboard-response","219","1981966","0.0-126.0","0","0","9nseM","People","","762","","","","38","","20","","6","","","","","","","","","","","","","","","","1","762","","","","","","","","","","","","","","","","","","","","","","",""
"","fixation","","html-keyboard-response","220","1982983","0.0-129.0","0","0","9nseM","People","","null","","","","null","","","","","","","","","","","","","","","","","","","","","","","","","","","","","","","","","","","","","","","","","","","",""
"","see_reward","","html-keyboard-response","221","1983860","0.0-130.0","0","0","9nseM","People","","872","","","","32","","11","","7","","","","1","","","","","1","","","","","160","872","","","","","","","","","","","","","","","","","","","","","","","","",""
"","reward_outcome","","html-keyboard-response","222","1985864","0.0-131.0","0","0","9nseM","People","","854","","","","38","","11","","7","","","","","","","","","","","","","","","","1","854","","","","","","","","","","","","","","","","","","","","","","",""
"","fixation","","html-keyboard-response","223","1986873","0.0-134.0","0","0","9nseM","People","","null","","","","null","","","","","","","","","","","","","","","","","","","","","","","","","","","","","","","","","","","","","","","","","","","",""
"","see_reward","","html-keyboard-response","224","1987821","0.0-135.0","0","0","9nseM","People","","935","","","","32","","15","","8","","","","-1","","","","","1","","","","","0","935","","","","","","","","","","","","","","","","","","","","","","","","",""
"","reward_outcome","","html-keyboard-response","225","1989826","0.0-136.0","0","0","9nseM","People","","832","","","","40","","15","","8","","","","","","","","","","","","","","","","-1","832","","","","","","","","","","","","","","","","","","","","","","",""
"","fixation","","html-keyboard-response","226","1990842","0.0-139.0","0","0","9nseM","People","","null","","","","null","","","","","","","","","","","","","","","","","","","","","","","","","","","","","","","","","","","","","","","","","","","",""
"","see_reward","","html-keyboard-response","227","1991797","0.0-140.0","0","0","9nseM","People","","951","","","","32","","3","","9","","","","1","","","","","1","","","","","160","951","","","","","","","","","","","","","","","","","","","","","","","","",""
"","reward_outcome","","html-keyboard-response","228","1993810","0.0-141.0","0","0","9nseM","People","","776","","","","38","","3","","9","","","","","","","","","","","","","","","","1","776","","","","","","","","","","","","","","","","","","","","","","",""
"","fixation","","html-keyboard-response","229","1994831","0.0-144.0","0","0","9nseM","People","","null","","","","null","","","","","","","","","","","","","","","","","","","","","","","","","","","","","","","","","","","","","","","","","","","",""
"","see_reward","","html-keyboard-response","230","1997490","0.0-145.0","0","0","9nseM","People","","2650","","","","32","","23","","10","","","","1","","","","","1","","","","","157","2650","","","","","","","","","","","","","","","","","","","","","","","","",""
"","reward_outcome","","html-keyboard-response","231","1999501","0.0-146.0","0","0","9nseM","People","","912","","","","38","","23","","10","","","","","","","","","","","","","","","","1","912","","","","","","","","","","","","","","","","","","","","","","",""
"","fixation","","html-keyboard-response","232","2000518","0.0-149.0","0","0","9nseM","People","","null","","","","null","","","","","","","","","","","","","","","","","","","","","","","","","","","","","","","","","","","","","","","","","","","",""
"","see_reward","","html-keyboard-response","233","2001440","0.0-150.0","0","0","9nseM","People","","916","","","","32","","15","","11","","","","-1","","","","","1","","","","","0","916","","","","","","","","","","","","","","","","","","","","","","","","",""
"","reward_outcome","","html-keyboard-response","234","2003451","0.0-151.0","0","0","9nseM","People","","869","","","","40","","15","","11","","","","","","","","","","","","","","","","-1","869","","","","","","","","","","","","","","","","","","","","","","",""
"","fixation","","html-keyboard-response","235","2004468","0.0-154.0","0","0","9nseM","People","","null","","","","null","","","","","","","","","","","","","","","","","","","","","","","","","","","","","","","","","","","","","","","","","","","",""
"","see_reward","","html-keyboard-response","236","2005204","0.0-155.0","0","0","9nseM","People","","733","","","","32","","23","","12","","","","1","","","","","1","","","","","157","733","","","","","","","","","","","","","","","","","","","","","","","","",""
"","reward_outcome","","html-keyboard-response","237","2007211","0.0-156.0","0","0","9nseM","People","","713","","","","38","","23","","12","","","","","","","","","","","","","","","","1","713","","","","","","","","","","","","","","","","","","","","","","",""
"","fixation","","html-keyboard-response","238","2008219","0.0-159.0","0","0","9nseM","People","","null","","","","null","","","","","","","","","","","","","","","","","","","","","","","","","","","","","","","","","","","","","","","","","","","",""
"","see_reward","","html-keyboard-response","239","2009133","0.0-160.0","0","0","9nseM","People","","901","","","","32","","44","","13","","","","1","","","","","1","","","","","141","901","","","","","","","","","","","","","","","","","","","","","","","","",""
"","reward_outcome","","html-keyboard-response","240","2011138","0.0-161.0","0","0","9nseM","People","","847","","","","38","","44","","13","","","","","","","","","","","","","","","","1","847","","","","","","","","","","","","","","","","","","","","","","",""
"","fixation","","html-keyboard-response","241","2012143","0.0-164.0","0","0","9nseM","People","","null","","","","null","","","","","","","","","","","","","","","","","","","","","","","","","","","","","","","","","","","","","","","","","","","",""
"","see_reward","","html-keyboard-response","242","2012953","0.0-165.0","0","0","9nseM","People","","807","","","","32","","24","","14","","","","-1","","","","","1","","","","","0","807","","","","","","","","","","","","","","","","","","","","","","","","",""
"","reward_outcome","","html-keyboard-response","243","2014967","0.0-166.0","0","0","9nseM","People","","858","","","","40","","24","","14","","","","","","","","","","","","","","","","-1","858","","","","","","","","","","","","","","","","","","","","","","",""
"","fixation","","html-keyboard-response","244","2015982","0.0-169.0","0","0","9nseM","People","","null","","","","null","","","","","","","","","","","","","","","","","","","","","","","","","","","","","","","","","","","","","","","","","","","",""
"","see_reward","","html-keyboard-response","245","2016822","0.0-170.0","0","0","9nseM","People","","827","","","","32","","43","","15","","","","-1","","","","","1","","","","","0","827","","","","","","","","","","","","","","","","","","","","","","","","",""
"","reward_outcome","","html-keyboard-response","246","2018825","0.0-171.0","0","0","9nseM","People","","861","","","","40","","43","","15","","","","","","","","","","","","","","","","-1","861","","","","","","","","","","","","","","","","","","","","","","",""
"","fixation","","html-keyboard-response","247","2019842","0.0-174.0","0","0","9nseM","People","","null","","","","null","","","","","","","","","","","","","","","","","","","","","","","","","","","","","","","","","","","","","","","","","","","",""
"","see_reward","","html-keyboard-response","248","2020526","0.0-175.0","0","0","9nseM","People","","671","","","","32","","13","","16","","","","-1","","","","","1","","","","","0","671","","","","","","","","","","","","","","","","","","","","","","","","",""
"","reward_outcome","","html-keyboard-response","249","2022530","0.0-176.0","0","0","9nseM","People","","751","","","","40","","13","","16","","","","","","","","","","","","","","","","-1","751","","","","","","","","","","","","","","","","","","","","","","",""
"","fixation","","html-keyboard-response","250","2023543","0.0-179.0","0","0","9nseM","People","","null","","","","null","","","","","","","","","","","","","","","","","","","","","","","","","","","","","","","","","","","","","","","","","","","",""
"","see_reward","","html-keyboard-response","251","2024608","0.0-180.0","0","0","9nseM","People","","1052","","","","32","","16","","17","","","","1","","","","","1","","","","","142","1052","","","","","","","","","","","","","","","","","","","","","","","","",""
"","reward_outcome","","html-keyboard-response","252","2026617","0.0-181.0","0","0","9nseM","People","","679","","","","38","","16","","17","","","","","","","","","","","","","","","","1","679","","","","","","","","","","","","","","","","","","","","","","",""
"","fixation","","html-keyboard-response","253","2027625","0.0-184.0","0","0","9nseM","People","","null","","","","null","","","","","","","","","","","","","","","","","","","","","","","","","","","","","","","","","","","","","","","","","","","",""
"","see_reward","","html-keyboard-response","254","2028550","0.0-185.0","0","0","9nseM","People","","924","","","","32","","5","","18","","","","-1","","","","","1","","","","","0","924","","","","","","","","","","","","","","","","","","","","","","","","",""
"","reward_outcome","","html-keyboard-response","255","2030559","0.0-186.0","0","0","9nseM","People","","681","","","","40","","5","","18","","","","","","","","","","","","","","","","-1","681","","","","","","","","","","","","","","","","","","","","","","",""
"","fixation","","html-keyboard-response","256","2031585","0.0-189.0","0","0","9nseM","People","","null","","","","null","","","","","","","","","","","","","","","","","","","","","","","","","","","","","","","","","","","","","","","","","","","",""
"","see_reward","","html-keyboard-response","257","2032298","0.0-190.0","0","0","9nseM","People","","712","","","","32","","3","","19","","","","1","","","","","1","","","","","160","712","","","","","","","","","","","","","","","","","","","","","","","","",""
"","reward_outcome","","html-keyboard-response","258","2034302","0.0-191.0","0","0","9nseM","People","","708","","","","38","","3","","19","","","","","","","","","","","","","","","","1","708","","","","","","","","","","","","","","","","","","","","","","",""
"","fixation","","html-keyboard-response","259","2035311","0.0-194.0","0","0","9nseM","People","","null","","","","null","","","","","","","","","","","","","","","","","","","","","","","","","","","","","","","","","","","","","","","","","","","",""
"","see_reward","","html-keyboard-response","260","2036035","0.0-195.0","0","0","9nseM","People","","722","","","","32","","18","","20","","","","-1","","","","","1","","","","","0","722","","","","","","","","","","","","","","","","","","","","","","","","",""
"","reward_outcome","","html-keyboard-response","261","2038057","0.0-196.0","0","0","9nseM","People","","791","","","","40","","18","","20","","","","","","","","","","","","","","","","-1","791","","","","","","","","","","","","","","","","","","","","","","",""
"","fixation","","html-keyboard-response","262","2039095","0.0-199.0","0","0","9nseM","People","","null","","","","null","","","","","","","","","","","","","","","","","","","","","","","","","","","","","","","","","","","","","","","","","","","",""
"","see_reward","","html-keyboard-response","263","2040342","0.0-200.0","0","0","9nseM","People","","1245","","","","32","","18","","21","","","","-1","","","","","1","","","","","0","1245","","","","","","","","","","","","","","","","","","","","","","","","",""
"","reward_outcome","","html-keyboard-response","264","2042376","0.0-201.0","0","0","9nseM","People","","559","","","","40","","18","","21","","","","","","","","","","","","","","","","-1","559","","","","","","","","","","","","","","","","","","","","","","",""
"","fixation","","html-keyboard-response","265","2043385","0.0-204.0","0","0","9nseM","People","","null","","","","null","","","","","","","","","","","","","","","","","","","","","","","","","","","","","","","","","","","","","","","","","","","",""
"","see_reward","","html-keyboard-response","266","2044642","0.0-205.0","0","0","9nseM","People","","1250","","","","32","","5","","22","","","","-1","","","","","1","","","","","0","1250","","","","","","","","","","","","","","","","","","","","","","","","",""
"","reward_outcome","","html-keyboard-response","267","2046652","0.0-206.0","0","0","9nseM","People","","697","","","","40","","5","","22","","","","","","","","","","","","","","","","-1","697","","","","","","","","","","","","","","","","","","","","","","",""
"","fixation","","html-keyboard-response","268","2047674","0.0-209.0","0","0","9nseM","People","","null","","","","null","","","","","","","","","","","","","","","","","","","","","","","","","","","","","","","","","","","","","","","","","","","",""
"","see_reward","","html-keyboard-response","269","2048674","0.0-210.0","0","0","9nseM","People","","994","","","","32","","16","","23","","","","1","","","","","1","","","","","142","994","","","","","","","","","","","","","","","","","","","","","","","","",""
"","reward_outcome","","html-keyboard-response","270","2050684","0.0-211.0","0","0","9nseM","People","","586","","","","38","","16","","23","","","","","","","","","","","","","","","","1","586","","","","","","","","","","","","","","","","","","","","","","",""
"","block_over","","html-keyboard-response","271","2054828","0.0-213.0-0.0","0","0","9nseM","People","","4139","","","","78","","","","","","","","","","","","","","","","","","","","","","","","","","","","","","","","","","","","","","","","","","","",""
"","fixation","","html-keyboard-response","272","2055842","0.0-214.0","0","0","9nseM","People","","null","","","","null","","","","","","","","","","","","","","","","","","","","","","","","","","","","","","","","","","","","","","","","","","","",""
"","see_reward","","html-keyboard-response","273","2056889","0.0-215.0","0","0","9nseM","People","","1032","","","","32","","24","","24","","","","-1","","","","","2","","","","","0","1032","","","","","","","","","","","","","","","","","","","","","","","","",""
"","reward_outcome","","html-keyboard-response","274","2058899","0.0-216.0","0","0","9nseM","People","","620","","","","40","","24","","24","","","","","","","","","","","","","","","","-1","620","","","","","","","","","","","","","","","","","","","","","","",""
"","fixation","","html-keyboard-response","275","2059918","0.0-219.0","0","0","9nseM","People","","null","","","","null","","","","","","","","","","","","","","","","","","","","","","","","","","","","","","","","","","","","","","","","","","","",""
"","see_reward","","html-keyboard-response","276","2060802","0.0-220.0","0","0","9nseM","People","","873","","","","32","","16","","25","","","","1","","","","","2","","","","","142","873","","","","","","","","","","","","","","","","","","","","","","","","",""
"","reward_outcome","","html-keyboard-response","277","2062821","0.0-221.0","0","0","9nseM","People","","604","","","","38","","16","","25","","","","","","","","","","","","","","","","1","604","","","","","","","","","","","","","","","","","","","","","","",""
"","fixation","","html-keyboard-response","278","2063825","0.0-224.0","0","0","9nseM","People","","null","","","","null","","","","","","","","","","","","","","","","","","","","","","","","","","","","","","","","","","","","","","","","","","","",""
"","see_reward","","html-keyboard-response","279","2064950","0.0-225.0","0","0","9nseM","People","","1125","","","","32","","13","","26","","","","-1","","","","","2","","","","","0","1125","","","","","","","","","","","","","","","","","","","","","","","","",""
"","reward_outcome","","html-keyboard-response","280","2066958","0.0-226.0","0","0","9nseM","People","","741","","","","40","","13","","26","","","","","","","","","","","","","","","","-1","741","","","","","","","","","","","","","","","","","","","","","","",""
"","fixation","","html-keyboard-response","281","2068055","0.0-229.0","0","0","9nseM","People","","null","","","","null","","","","","","","","","","","","","","","","","","","","","","","","","","","","","","","","","","","","","","","","","","","",""
"","see_reward","","html-keyboard-response","282","2068931","0.0-230.0","0","0","9nseM","People","","876","","","","32","","15","","27","","","","-1","","","","","2","","","","","0","876","","","","","","","","","","","","","","","","","","","","","","","","",""
"","reward_outcome","","html-keyboard-response","283","2070936","0.0-231.0","0","0","9nseM","People","","639","","","","40","","15","","27","","","","","","","","","","","","","","","","-1","639","","","","","","","","","","","","","","","","","","","","","","",""
"","fixation","","html-keyboard-response","284","2071944","0.0-234.0","0","0","9nseM","People","","null","","","","null","","","","","","","","","","","","","","","","","","","","","","","","","","","","","","","","","","","","","","","","","","","",""
"","see_reward","","html-keyboard-response","285","2072670","0.0-235.0","0","0","9nseM","People","","725","","","","32","","20","","28","","","","1","","","","","2","","","","","150","725","","","","","","","","","","","","","","","","","","","","","","","","",""
"","reward_outcome","","html-keyboard-response","286","2074693","0.0-236.0","0","0","9nseM","People","","632","","","","38","","20","","28","","","","","","","","","","","","","","","","1","632","","","","","","","","","","","","","","","","","","","","","","",""
"","fixation","","html-keyboard-response","287","2075695","0.0-239.0","0","0","9nseM","People","","null","","","","null","","","","","","","","","","","","","","","","","","","","","","","","","","","","","","","","","","","","","","","","","","","",""
"","see_reward","","html-keyboard-response","288","2076703","0.0-240.0","0","0","9nseM","People","","1004","","","","32","","13","","29","","","","-1","","","","","2","","","","","0","1004","","","","","","","","","","","","","","","","","","","","","","","","",""
"","reward_outcome","","html-keyboard-response","289","2078717","0.0-241.0","0","0","9nseM","People","","590","","","","40","","13","","29","","","","","","","","","","","","","","","","-1","590","","","","","","","","","","","","","","","","","","","","","","",""
"","fixation","","html-keyboard-response","290","2079733","0.0-244.0","0","0","9nseM","People","","null","","","","null","","","","","","","","","","","","","","","","","","","","","","","","","","","","","","","","","","","","","","","","","","","",""
"","see_reward","","html-keyboard-response","291","2080427","0.0-245.0","0","0","9nseM","People","","685","","","","32","","23","","30","","","","1","","","","","2","","","","","157","685","","","","","","","","","","","","","","","","","","","","","","","","",""
"","reward_outcome","","html-keyboard-response","292","2082436","0.0-246.0","0","0","9nseM","People","","614","","","","38","","23","","30","","","","","","","","","","","","","","","","1","614","","","","","","","","","","","","","","","","","","","","","","",""
"","fixation","","html-keyboard-response","293","2083447","0.0-249.0","0","0","9nseM","People","","null","","","","null","","","","","","","","","","","","","","","","","","","","","","","","","","","","","","","","","","","","","","","","","","","",""
"","see_reward","","html-keyboard-response","294","2084277","0.0-250.0","0","0","9nseM","People","","829","","","","32","","44","","31","","","","1","","","","","2","","","","","141","829","","","","","","","","","","","","","","","","","","","","","","","","",""
"","reward_outcome","","html-keyboard-response","295","2086294","0.0-251.0","0","0","9nseM","People","","561","","","","38","","44","","31","","","","","","","","","","","","","","","","1","561","","","","","","","","","","","","","","","","","","","","","","",""
"","fixation","","html-keyboard-response","296","2087309","0.0-254.0","0","0","9nseM","People","","null","","","","null","","","","","","","","","","","","","","","","","","","","","","","","","","","","","","","","","","","","","","","","","","","",""
"","see_reward","","html-keyboard-response","297","2088276","0.0-255.0","0","0","9nseM","People","","952","","","","32","","11","","32","","","","1","","","","","2","","","","","160","952","","","","","","","","","","","","","","","","","","","","","","","","",""
"","reward_outcome","","html-keyboard-response","298","2090294","0.0-256.0","0","0","9nseM","People","","1000","","","","38","","11","","32","","","","","","","","","","","","","","","","1","1000","","","","","","","","","","","","","","","","","","","","","","",""
"","fixation","","html-keyboard-response","299","2091310","0.0-259.0","0","0","9nseM","People","","null","","","","null","","","","","","","","","","","","","","","","","","","","","","","","","","","","","","","","","","","","","","","","","","","",""
"","see_reward","","html-keyboard-response","300","2092229","0.0-260.0","0","0","9nseM","People","","903","","","","32","","43","","33","","","","-1","","","","","2","","","","","0","903","","","","","","","","","","","","","","","","","","","","","","","","",""
"","reward_outcome","","html-keyboard-response","301","2094232","0.0-261.0","0","0","9nseM","People","","954","","","","40","","43","","33","","","","","","","","","","","","","","","","-1","954","","","","","","","","","","","","","","","","","","","","","","",""
"","fixation","","html-keyboard-response","302","2095239","0.0-264.0","0","0","9nseM","People","","null","","","","null","","","","","","","","","","","","","","","","","","","","","","","","","","","","","","","","","","","","","","","","","","","",""
"","see_reward","","html-keyboard-response","303","2096000","0.0-265.0","0","0","9nseM","People","","756","","","","32","","23","","34","","","","1","","","","","2","","","","","157","756","","","","","","","","","","","","","","","","","","","","","","","","",""
"","reward_outcome","","html-keyboard-response","304","2098017","0.0-266.0","0","0","9nseM","People","","527","","","","38","","23","","34","","","","","","","","","","","","","","","","1","527","","","","","","","","","","","","","","","","","","","","","","",""
"","fixation","","html-keyboard-response","305","2099028","0.0-269.0","0","0","9nseM","People","","null","","","","null","","","","","","","","","","","","","","","","","","","","","","","","","","","","","","","","","","","","","","","","","","","",""
"","see_reward","","html-keyboard-response","306","2100028","0.0-270.0","0","0","9nseM","People","","999","","","","32","","43","","35","","","","-1","","","","","2","","","","","0","999","","","","","","","","","","","","","","","","","","","","","","","","",""
"","reward_outcome","","html-keyboard-response","307","2102045","0.0-271.0","0","0","9nseM","People","","420","","","","40","","43","","35","","","","","","","","","","","","","","","","-1","420","","","","","","","","","","","","","","","","","","","","","","",""
"","fixation","","html-keyboard-response","308","2103047","0.0-274.0","0","0","9nseM","People","","null","","","","null","","","","","","","","","","","","","","","","","","","","","","","","","","","","","","","","","","","","","","","","","","","",""
"","see_reward","","html-keyboard-response","309","2103945","0.0-275.0","0","0","9nseM","People","","887","","","","32","","20","","36","","","","1","","","","","2","","","","","150","887","","","","","","","","","","","","","","","","","","","","","","","","",""
"","reward_outcome","","html-keyboard-response","310","2105961","0.0-276.0","0","0","9nseM","People","","364","","","","38","","20","","36","","","","","","","","","","","","","","","","1","364","","","","","","","","","","","","","","","","","","","","","","",""
"","fixation","","html-keyboard-response","311","2106967","0.0-279.0","0","0","9nseM","People","","null","","","","null","","","","","","","","","","","","","","","","","","","","","","","","","","","","","","","","","","","","","","","","","","","",""
"","see_reward","","html-keyboard-response","312","2107939","0.0-280.0","0","0","9nseM","People","","967","","","","32","","3","","37","","","","1","","","","","2","","","","","160","967","","","","","","","","","","","","","","","","","","","","","","","","",""
"","reward_outcome","","html-keyboard-response","313","2109949","0.0-281.0","0","0","9nseM","People","","460","","","","38","","3","","37","","","","","","","","","","","","","","","","1","460","","","","","","","","","","","","","","","","","","","","","","",""
"","fixation","","html-keyboard-response","314","2110966","0.0-284.0","0","0","9nseM","People","","null","","","","null","","","","","","","","","","","","","","","","","","","","","","","","","","","","","","","","","","","","","","","","","","","",""
"","see_reward","","html-keyboard-response","315","2111838","0.0-285.0","0","0","9nseM","People","","869","","","","32","","44","","38","","","","1","","","","","2","","","","","141","869","","","","","","","","","","","","","","","","","","","","","","","","",""
"","reward_outcome","","html-keyboard-response","316","2113841","0.0-286.0","0","0","9nseM","People","","576","","","","40","","44","","38","","","","","","","","","","","","","","","","-1","576","","","","","","","","","","","","","","","","","","","","","","",""
"","fixation","","html-keyboard-response","317","2114859","0.0-289.0","0","0","9nseM","People","","null","","","","null","","","","","","","","","","","","","","","","","","","","","","","","","","","","","","","","","","","","","","","","","","","",""
"","see_reward","","html-keyboard-response","318","2115704","0.0-290.0","0","0","9nseM","People","","842","","","","32","","3","","39","","","","1","","","","","2","","","","","160","842","","","","","","","","","","","","","","","","","","","","","","","","",""
"","reward_outcome","","html-keyboard-response","319","2117713","0.0-291.0","0","0","9nseM","People","","588","","","","38","","3","","39","","","","","","","","","","","","","","","","1","588","","","","","","","","","","","","","","","","","","","","","","",""
"","fixation","","html-keyboard-response","320","2118731","0.0-294.0","0","0","9nseM","People","","null","","","","null","","","","","","","","","","","","","","","","","","","","","","","","","","","","","","","","","","","","","","","","","","","",""
"","see_reward","","html-keyboard-response","321","2119906","0.0-295.0","0","0","9nseM","People","","1171","","","","32","","5","","40","","","","-1","","","","","2","","","","","0","1171","","","","","","","","","","","","","","","","","","","","","","","","",""
"","reward_outcome","","html-keyboard-response","322","2121919","0.0-296.0","0","0","9nseM","People","","761","","","","40","","5","","40","","","","","","","","","","","","","","","","-1","761","","","","","","","","","","","","","","","","","","","","","","",""
"","fixation","","html-keyboard-response","323","2122949","0.0-299.0","0","0","9nseM","People","","null","","","","null","","","","","","","","","","","","","","","","","","","","","","","","","","","","","","","","","","","","","","","","","","","",""
"","see_reward","","html-keyboard-response","324","2123907","0.0-300.0","0","0","9nseM","People","","954","","","","32","","18","","41","","","","-1","","","","","2","","","","","0","954","","","","","","","","","","","","","","","","","","","","","","","","",""
"","reward_outcome","","html-keyboard-response","325","2125942","0.0-301.0","0","0","9nseM","People","","570","","","","40","","18","","41","","","","","","","","","","","","","","","","-1","570","","","","","","","","","","","","","","","","","","","","","","",""
"","fixation","","html-keyboard-response","326","2126951","0.0-304.0","0","0","9nseM","People","","null","","","","null","","","","","","","","","","","","","","","","","","","","","","","","","","","","","","","","","","","","","","","","","","","",""
"","see_reward","","html-keyboard-response","327","2127850","0.0-305.0","0","0","9nseM","People","","898","","","","32","","18","","42","","","","-1","","","","","2","","","","","0","898","","","","","","","","","","","","","","","","","","","","","","","","",""
"","reward_outcome","","html-keyboard-response","328","2129856","0.0-306.0","0","0","9nseM","People","","415","","","","40","","18","","42","","","","","","","","","","","","","","","","-1","415","","","","","","","","","","","","","","","","","","","","","","",""
"","fixation","","html-keyboard-response","329","2130875","0.0-309.0","0","0","9nseM","People","","null","","","","null","","","","","","","","","","","","","","","","","","","","","","","","","","","","","","","","","","","","","","","","","","","",""
"","see_reward","","html-keyboard-response","330","2132142","0.0-310.0","0","0","9nseM","People","","1259","","","","32","","11","","43","","","","1","","","","","2","","","","","160","1259","","","","","","","","","","","","","","","","","","","","","","","","",""
"","reward_outcome","","html-keyboard-response","331","2134151","0.0-311.0","0","0","9nseM","People","","433","","","","38","","11","","43","","","","","","","","","","","","","","","","1","433","","","","","","","","","","","","","","","","","","","","","","",""
"","fixation","","html-keyboard-response","332","2135170","0.0-314.0","0","0","9nseM","People","","null","","","","null","","","","","","","","","","","","","","","","","","","","","","","","","","","","","","","","","","","","","","","","","","","",""
"","see_reward","","html-keyboard-response","333","2135841","0.0-315.0","0","0","9nseM","People","","655","","","","32","","16","","44","","","","1","","","","","2","","","","","142","655","","","","","","","","","","","","","","","","","","","","","","","","",""
"","reward_outcome","","html-keyboard-response","334","2137858","0.0-316.0","0","0","9nseM","People","","437","","","","38","","16","","44","","","","","","","","","","","","","","","","1","437","","","","","","","","","","","","","","","","","","","","","","",""
"","fixation","","html-keyboard-response","335","2138872","0.0-319.0","0","0","9nseM","People","","null","","","","null","","","","","","","","","","","","","","","","","","","","","","","","","","","","","","","","","","","","","","","","","","","",""
"","see_reward","","html-keyboard-response","336","2139827","0.0-320.0","0","0","9nseM","People","","952","","","","32","","24","","45","","","","-1","","","","","2","","","","","0","952","","","","","","","","","","","","","","","","","","","","","","","","",""
"","reward_outcome","","html-keyboard-response","337","2141858","0.0-321.0","0","0","9nseM","People","","488","","","","40","","24","","45","","","","","","","","","","","","","","","","-1","488","","","","","","","","","","","","","","","","","","","","","","",""
"","fixation","","html-keyboard-response","338","2142873","0.0-324.0","0","0","9nseM","People","","null","","","","null","","","","","","","","","","","","","","","","","","","","","","","","","","","","","","","","","","","","","","","","","","","",""
"","see_reward","","html-keyboard-response","339","2143951","0.0-325.0","0","0","9nseM","People","","1076","","","","32","","15","","46","","","","-1","","","","","2","","","","","0","1076","","","","","","","","","","","","","","","","","","","","","","","","",""
"","reward_outcome","","html-keyboard-response","340","2145960","0.0-326.0","0","0","9nseM","People","","406","","","","40","","15","","46","","","","","","","","","","","","","","","","-1","406","","","","","","","","","","","","","","","","","","","","","","",""
"","fixation","","html-keyboard-response","341","2146969","0.0-329.0","0","0","9nseM","People","","null","","","","null","","","","","","","","","","","","","","","","","","","","","","","","","","","","","","","","","","","","","","","","","","","",""
"","see_reward","","html-keyboard-response","342","2147766","0.0-330.0","0","0","9nseM","People","","796","","","","32","","5","","47","","","","-1","","","","","2","","","","","0","796","","","","","","","","","","","","","","","","","","","","","","","","",""
"","reward_outcome","","html-keyboard-response","343","2149767","0.0-331.0","0","0","9nseM","People","","374","","","","40","","5","","47","","","","","","","","","","","","","","","","-1","374","","","","","","","","","","","","","","","","","","","","","","",""
"","block_over","","html-keyboard-response","344","2151756","0.0-333.0-0.0","0","0","9nseM","People","","1973","","","","78","","","","","","","","","","","","","","","","","","","","","","","","","","","","","","","","","","","","","","","","","","","",""
"","fixation","","html-keyboard-response","345","2152763","0.0-334.0","0","0","9nseM","People","","null","","","","null","","","","","","","","","","","","","","","","","","","","","","","","","","","","","","","","","","","","","","","","","","","",""
"","see_reward","","html-keyboard-response","346","2153883","0.0-335.0","0","0","9nseM","People","","1107","","","","32","","3","","48","","","","1","","","","","3","","","","","160","1107","","","","","","","","","","","","","","","","","","","","","","","","",""
"","reward_outcome","","html-keyboard-response","347","2155889","0.0-336.0","0","0","9nseM","People","","238","","","","38","","3","","48","","","","","","","","","","","","","","","","1","238","","","","","","","","","","","","","","","","","","","","","","",""
