"success","ttype","start_time","trial_type","trial_index","time_elapsed","internal_node_id","warning","missed_checkup","PID","stim_type","view_history","rt","responses","category","repeat_instructions","key_press","response","stimulus_id","painting","index","stimulus_left","stimulus_right","explain_trial","reward_type","rating_left","rating_right","painting_left","painting_right","block","left_chosen","chosen_obj","unchosen_obj","explain_response","reward_amount","see_reward_rt","register_reward_response","register_reward_rt","deliberation_reward_tally","stimulus_left_deliberation_ind","stimulus_right_deliberation_ind","chosen_trial","gain_left","higher_outcome_chosen","old_pair","chosen_object","rt_pairs","left_object_chosen","rt_object","old_response","new_rating","deliberated_stim","initial_rating","outcome_eval_rt","outcome_eval_response","outcome_eval_gain","outcome_eval_acc","preamble","outcome_eval_confidence","outcome_eval_confidence_rt","total_reward_tally"
"true","full_screen","d01182023hr1735","fullscreen","0","64315","0.0-0.0","0","0","l0I2Q","People","","","","","","","","","","","","","","","","","","","","","","","","","","","","","","","","","","","","","","","","","","","","","","","","","",""
"","rating_instructions","","instructions","1","84978","0.0-1.0-0.0","0","0","l0I2Q","People","[{""page_index"":0,""viewing_time"":14379},{""page_index"":1,""viewing_time"":6280}]","20660","","","","","","","","","","","","","","","","","","","","","","","","","","","","","","","","","","","","","","","","","","","","","","","",""
"","","","survey-multi-choice","2","94714","0.0-1.0-1.0","0","0","l0I2Q","People","","9731","{""Q0"":""True"",""Q1"":""Mouse""}","rating_comprehension_check","0","","","","","","","","","","","","","","","","","","","","","","","","","","","","","","","","","","","","","","","","","","","","",""
"","start_phase","","html-keyboard-response","3","97889","0.0-2.0","0","0","l0I2Q","People","","3172","","","","78","","","","","","","","","","","","","","","","","","","","","","","","","","","","","","","","","","","","","","","","","","","",""
"","rating","","html-slider-response","4","112345","0.0-3.0","0","0","l0I2Q","People","","14453","","","","","72","8","bruce-dixon-3M9WJQVHzog-unsplash.jpg","0","","","","","","","","","","","","","","","","","","","","","","","","","","","","","","","","","","","","","","","",""
"","rating","","html-slider-response","5","121971","0.0-4.0","0","0","l0I2Q","People","","9623","","","","","89","26","juri-gianfrancesco-9EZadYaMzk4-unsplash.jpg","1","","","","","","","","","","","","","","","","","","","","","","","","","","","","","","","","","","","","","","","",""
"","rating","","html-slider-response","6","131278","0.0-5.0","0","0","l0I2Q","People","","9303","","","","","87","43","raamin-ka-0qJBEzudn5E-unsplash.jpg","2","","","","","","","","","","","","","","","","","","","","","","","","","","","","","","","","","","","","","","","",""
"","rating","","html-slider-response","7","142537","0.0-6.0","0","0","l0I2Q","People","","11256","","","","","70","21","jessica-felicio-_cvwXhGqG-o-unsplash.jpg","3","","","","","","","","","","","","","","","","","","","","","","","","","","","","","","","","","","","","","","","",""
"","rating","","html-slider-response","8","152254","0.0-7.0","0","0","l0I2Q","People","","9715","","","","","89","31","mathilda-khoo-vLR0YP_otCo-unsplash.jpg","4","","","","","","","","","","","","","","","","","","","","","","","","","","","","","","","","","","","","","","","",""
"","rating","","html-slider-response","9","160057","0.0-8.0","0","0","l0I2Q","People","","7800","","","","","99","11","christian-ferrer-8vT-DgHZDG4-unsplash.jpg","5","","","","","","","","","","","","","","","","","","","","","","","","","","","","","","","","","","","","","","","",""
"","rating","","html-slider-response","10","169487","0.0-9.0","0","0","l0I2Q","People","","9428","","","","","21","23","joanna-nix-walkup-H4fEMshfwTE-unsplash.jpg","6","","","","","","","","","","","","","","","","","","","","","","","","","","","","","","","","","","","","","","","",""
"","rating","","html-slider-response","11","177641","0.0-10.0","0","0","l0I2Q","People","","8151","","","","","65","30","matheus-ferrero-pg_WCHWSdT8-unsplash.jpg","7","","","","","","","","","","","","","","","","","","","","","","","","","","","","","","","","","","","","","","","",""
"","rating","","html-slider-response","12","185265","0.0-11.0","0","0","l0I2Q","People","","7621","","","","","57","39","philip-martin-5aGUyCW_PJw-unsplash.jpg","8","","","","","","","","","","","","","","","","","","","","","","","","","","","","","","","","","","","","","","","",""
"","rating","","html-slider-response","13","192113","0.0-12.0","0","0","l0I2Q","People","","6846","","","","","63","42","prince-akachi-l3IHXOdMyHQ-unsplash.jpg","9","","","","","","","","","","","","","","","","","","","","","","","","","","","","","","","","","","","","","","","",""
"","rating","","html-slider-response","14","200353","0.0-13.0","0","0","l0I2Q","People","","8238","","","","","33","10","charles-etoroma-95UF6LXe-Lo-unsplash.jpg","10","","","","","","","","","","","","","","","","","","","","","","","","","","","","","","","","","","","","","","","",""
"","rating","","html-slider-response","15","207872","0.0-14.0","0","0","l0I2Q","People","","7516","","","","","80","2","arjunsyah-TBUA5KHJn6k-unsplash.jpg","11","","","","","","","","","","","","","","","","","","","","","","","","","","","","","","","","","","","","","","","",""
"","rating","","html-slider-response","16","215777","0.0-15.0","0","0","l0I2Q","People","","7903","","","","","97","20","houcine-ncib-B4TjXnI0Y2c-unsplash.jpg","12","","","","","","","","","","","","","","","","","","","","","","","","","","","","","","","","","","","","","","","",""
"","rating","","html-slider-response","17","222457","0.0-16.0","0","0","l0I2Q","People","","6677","","","","","80","12","daniel-rigdon-dXmXKPP2L4E-unsplash.jpg","13","","","","","","","","","","","","","","","","","","","","","","","","","","","","","","","","","","","","","","","",""
"","rating","","html-slider-response","18","229267","0.0-17.0","0","0","l0I2Q","People","","6807","","","","","73","41","prince-akachi-i2hoD-C2RUA-unsplash.jpg","14","","","","","","","","","","","","","","","","","","","","","","","","","","","","","","","","","","","","","","","",""
"","rating","","html-slider-response","19","236106","0.0-18.0","0","0","l0I2Q","People","","6836","","","","","98","45","sarah-noltner-pL5ZzPp1zqg-unsplash.jpg","15","","","","","","","","","","","","","","","","","","","","","","","","","","","","","","","","","","","","","","","",""
"","rating","","html-slider-response","20","245351","0.0-19.0","0","0","l0I2Q","People","","9242","","","","","93","47","tyler-nix-ZGa9d1a_4tA-unsplash.jpg","16","","","","","","","","","","","","","","","","","","","","","","","","","","","","","","","","","","","","","","","",""
"","rating","","html-slider-response","21","253288","0.0-20.0","0","0","l0I2Q","People","","7934","","","","","87","33","olena-sergienko-0TSd6uCKTKc-unsplash.jpg","17","","","","","","","","","","","","","","","","","","","","","","","","","","","","","","","","","","","","","","","",""
"","rating","","html-slider-response","22","261500","0.0-21.0","0","0","l0I2Q","People","","8209","","","","","94","38","petr-sevcovic-HzDF-rxlSeM-unsplash.jpg","18","","","","","","","","","","","","","","","","","","","","","","","","","","","","","","","","","","","","","","","",""
"","rating","","html-slider-response","23","268744","0.0-22.0","0","0","l0I2Q","People","","7241","","","","","84","34","oliver-johnson-1TUIcKob7Zs-unsplash.jpg","19","","","","","","","","","","","","","","","","","","","","","","","","","","","","","","","","","","","","","","","",""
"","rating","","html-slider-response","24","276826","0.0-23.0","0","0","l0I2Q","People","","8078","","","","","31","9","carlos-andres-gomez-vJuk8Y86mRw-unsplash.jpg","20","","","","","","","","","","","","","","","","","","","","","","","","","","","","","","","","","","","","","","","",""
"","rating","","html-slider-response","25","283415","0.0-24.0","0","0","l0I2Q","People","","6587","","","","","80","24","joel-mott-LaK153ghdig-unsplash.jpg","21","","","","","","","","","","","","","","","","","","","","","","","","","","","","","","","","","","","","","","","",""
"","rating","","html-slider-response","26","289888","0.0-25.0","0","0","l0I2Q","People","","6471","","","","","64","19","ha-nguy-n-OFSQ6bHjFjs-unsplash.jpg","22","","","","","","","","","","","","","","","","","","","","","","","","","","","","","","","","","","","","","","","",""
"","rating","","html-slider-response","27","296242","0.0-26.0","0","0","l0I2Q","People","","6352","","","","","66","6","ben-o-bro-C5XyLljkMrY-unsplash.jpg","23","","","","","","","","","","","","","","","","","","","","","","","","","","","","","","","","","","","","","","","",""
"","rating","","html-slider-response","28","303234","0.0-27.0","0","0","l0I2Q","People","","6988","","","","","83","44","rikonavt-HQjfrvdTfak-unsplash.jpg","24","","","","","","","","","","","","","","","","","","","","","","","","","","","","","","","","","","","","","","","",""
"","rating","","html-slider-response","29","309012","0.0-28.0","0","0","l0I2Q","People","","5775","","","","","91","17","gleb-lukomets-paBzWCPN23k-unsplash.jpg","25","","","","","","","","","","","","","","","","","","","","","","","","","","","","","","","","","","","","","","","",""
"","rating","","html-slider-response","30","317146","0.0-29.0","0","0","l0I2Q","People","","8131","","","","","85","15","gabriel-silverio-u3WmDyKGsrY-unsplash.jpg","26","","","","","","","","","","","","","","","","","","","","","","","","","","","","","","","","","","","","","","","",""
"","rating","","html-slider-response","31","324145","0.0-30.0","0","0","l0I2Q","People","","6995","","","","","71","49","vicky-hladynets-_gDoyVv5F4c-unsplash.jpg","27","","","","","","","","","","","","","","","","","","","","","","","","","","","","","","","","","","","","","","","",""
"","rating","","html-slider-response","32","331969","0.0-31.0","0","0","l0I2Q","People","","7821","","","","","65","29","leilani-angel-K84vnnzxmTQ-unsplash.jpg","28","","","","","","","","","","","","","","","","","","","","","","","","","","","","","","","","","","","","","","","",""
"","rating","","html-slider-response","33","339092","0.0-32.0","0","0","l0I2Q","People","","7121","","","","","35","4","barna-bartis-2x3vfVxwR7o-unsplash.jpg","29","","","","","","","","","","","","","","","","","","","","","","","","","","","","","","","","","","","","","","","",""
"","rating","","html-slider-response","34","346562","0.0-33.0","0","0","l0I2Q","People","","7467","","","","","67","27","jurica-koletic-7YVZYZeITc8-unsplash.jpg","30","","","","","","","","","","","","","","","","","","","","","","","","","","","","","","","","","","","","","","","",""
"","rating","","html-slider-response","35","354265","0.0-34.0","0","0","l0I2Q","People","","7702","","","","","90","1","aiony-haust-jmATI5Q_YgY-unsplash.jpg","31","","","","","","","","","","","","","","","","","","","","","","","","","","","","","","","","","","","","","","","",""
"","rating","","html-slider-response","36","359571","0.0-35.0","0","0","l0I2Q","People","","5303","","","","","76","0","abstral-official-cyOKLSgkgCE-unsplash.jpg","32","","","","","","","","","","","","","","","","","","","","","","","","","","","","","","","","","","","","","","","",""
"","rating","","html-slider-response","37","365604","0.0-36.0","0","0","l0I2Q","People","","6030","","","","","98","35","oliver-ragfelt-khV4fTy6-D8-unsplash.jpg","33","","","","","","","","","","","","","","","","","","","","","","","","","","","","","","","","","","","","","","","",""
"","rating","","html-slider-response","38","371619","0.0-37.0","0","0","l0I2Q","People","","6012","","","","","85","5","batel-studio-ttSRjiYG_WM-unsplash.jpg","34","","","","","","","","","","","","","","","","","","","","","","","","","","","","","","","","","","","","","","","",""
"","rating","","html-slider-response","39","381018","0.0-38.0","0","0","l0I2Q","People","","9396","","","","","74","28","justin-chen-J7Cf1Gch49E-unsplash.jpg","35","","","","","","","","","","","","","","","","","","","","","","","","","","","","","","","","","","","","","","","",""
"","rating","","html-slider-response","40","390426","0.0-39.0","0","0","l0I2Q","People","","9406","","","","","65","14","freddy-kearney-o-ioeoATbIM-unsplash.jpg","36","","","","","","","","","","","","","","","","","","","","","","","","","","","","","","","","","","","","","","","",""
"","rating","","html-slider-response","41","397425","0.0-40.0","0","0","l0I2Q","People","","6997","","","","","95","46","stefan-stefancik-QXevDflbl8A-unsplash.jpg","37","","","","","","","","","","","","","","","","","","","","","","","","","","","","","","","","","","","","","","","",""
"","rating","","html-slider-response","42","404974","0.0-41.0","0","0","l0I2Q","People","","7547","","","","","99","16","giano-currie-5-9YOsmf8IQ-unsplash.jpg","38","","","","","","","","","","","","","","","","","","","","","","","","","","","","","","","","","","","","","","","",""
"","rating","","html-slider-response","43","410383","0.0-42.0","0","0","l0I2Q","People","","5406","","","","","79","36","ospan-ali-mGdA2fzjWLo-unsplash.jpg","39","","","","","","","","","","","","","","","","","","","","","","","","","","","","","","","","","","","","","","","",""
"","rating","","html-slider-response","44","420024","0.0-43.0","0","0","l0I2Q","People","","9639","","","","","89","40","prince-akachi-4Yv84VgQkRM-unsplash.jpg","40","","","","","","","","","","","","","","","","","","","","","","","","","","","","","","","","","","","","","","","",""
"","rating","","html-slider-response","45","427330","0.0-44.0","0","0","l0I2Q","People","","7304","","","","","99","48","velizar-ivanov-7ktP9yZA1g4-unsplash.jpg","41","","","","","","","","","","","","","","","","","","","","","","","","","","","","","","","","","","","","","","","",""
"","rating","","html-slider-response","46","434594","0.0-45.0","0","0","l0I2Q","People","","7261","","","","","40","13","erik-lucatero-d2MSDujJl2g-unsplash.jpg","42","","","","","","","","","","","","","","","","","","","","","","","","","","","","","","","","","","","","","","","",""
"","rating","","html-slider-response","47","440523","0.0-46.0","0","0","l0I2Q","People","","5925","","","","","43","37","pavel-anoshin-d0peGya6R5Y-unsplash.jpg","43","","","","","","","","","","","","","","","","","","","","","","","","","","","","","","","","","","","","","","","",""
"","rating","","html-slider-response","48","447362","0.0-47.0","0","0","l0I2Q","People","","6836","","","","","59","18","good-faces-xmSWVeGEnJw-unsplash.jpg","44","","","","","","","","","","","","","","","","","","","","","","","","","","","","","","","","","","","","","","","",""
"","rating","","html-slider-response","49","454694","0.0-48.0","0","0","l0I2Q","People","","7330","","","","","58","7","brooke-cagle-HRZUzoX1e6w-unsplash.jpg","45","","","","","","","","","","","","","","","","","","","","","","","","","","","","","","","","","","","","","","","",""
"","rating","","html-slider-response","50","460466","0.0-49.0","0","0","l0I2Q","People","","5768","","","","","70","25","joseph-gonzalez-iFgRcqHznqg-unsplash.jpg","46","","","","","","","","","","","","","","","","","","","","","","","","","","","","","","","","","","","","","","","",""
"","rating","","html-slider-response","51","467331","0.0-50.0","0","0","l0I2Q","People","","6863","","","","","73","3","art-hauntington-jzY0KRJopEI-unsplash.jpg","47","","","","","","","","","","","","","","","","","","","","","","","","","","","","","","","","","","","","","","","",""
"","rating","","html-slider-response","52","475596","0.0-51.0","0","0","l0I2Q","People","","8263","","","","","39","32","nathan-dumlao-ger61_TX6oI-unsplash.jpg","48","","","","","","","","","","","","","","","","","","","","","","","","","","","","","","","","","","","","","","","",""
"","rating","","html-slider-response","53","481738","0.0-52.0","0","0","l0I2Q","People","","6140","","","","","38","22","jessica-radanavong-mrYkTuAesKE-unsplash.jpg","49","","","","","","","","","","","","","","","","","","","","","","","","","","","","","","","","","","","","","","","",""
"","deliberation_instructions","","instructions","54","1001363","0.0-53.0-0.0","0","0","l0I2Q","People","[{""page_index"":0,""viewing_time"":417401},{""page_index"":1,""viewing_time"":26428},{""page_index"":2,""viewing_time"":35828},{""page_index"":3,""viewing_time"":36258},{""page_index"":4,""viewing_time"":3705}]","519621","","","","","","","","","","","","","","","","","","","","","","","","","","","","","","","","","","","","","","","","","","","","","","","",""
"","","","survey-multi-choice","55","1035132","0.0-53.0-1.0","0","0","l0I2Q","People","","33763","{""Q0"":""True"",""Q1"":""False"",""Q2"":""Consider carefully and take your time (up to 10 seconds)"",""Q3"":""True"",""Q4"":""D""}","deliberation_comprehension_check","1","","","","","","","","","","","","","","","","","","","","","","","","","","","","","","","","","","","","","","","","","","","","",""
"","missed_instruction_checkup","","html-keyboard-response","56","1038342","0.0-53.0-2.0-0.0","0","1","l0I2Q","People","","3204","","","","78","","","","","","","","","","","","","","","","","","","","","","","","","","","","","","","","","","","","","","","","","","","",""
"","deliberation_instructions","","instructions","57","1124474","0.0-53.1-0.1","0","0","l0I2Q","People","[{""page_index"":0,""viewing_time"":45787},{""page_index"":1,""viewing_time"":11855},{""page_index"":2,""viewing_time"":12240},{""page_index"":3,""viewing_time"":14241},{""page_index"":4,""viewing_time"":2006}]","86130","","","","","","","","","","","","","","","","","","","","","","","","","","","","","","","","","","","","","","","","","","","","","","","",""
"","","","survey-multi-choice","58","1356303","0.0-53.1-1.1","0","0","l0I2Q","People","","231824","{""Q0"":""True"",""Q1"":""True"",""Q2"":""Do it as quickly as possible"",""Q3"":""True"",""Q4"":""D""}","deliberation_comprehension_check","1","","","","","","","","","","","","","","","","","","","","","","","","","","","","","","","","","","","","","","","","","","","","",""
"","missed_instruction_checkup","","html-keyboard-response","59","1360197","0.0-53.1-2.1-0.1","0","1","l0I2Q","People","","3892","","","","78","","","","","","","","","","","","","","","","","","","","","","","","","","","","","","","","","","","","","","","","","","","",""
"","deliberation_instructions","","instructions","60","1376718","0.0-53.2-0.2","0","0","l0I2Q","People","[{""page_index"":0,""viewing_time"":3014},{""page_index"":1,""viewing_time"":6120},{""page_index"":2,""viewing_time"":1894},{""page_index"":3,""viewing_time"":2948},{""page_index"":4,""viewing_time"":2543}]","16520","","","","","","","","","","","","","","","","","","","","","","","","","","","","","","","","","","","","","","","","","","","","","","","",""
"","","","survey-multi-choice","61","1514711","0.0-53.2-1.2","0","0","l0I2Q","People","","137990","{""Q0"":""True"",""Q1"":""True"",""Q2"":""Consider carefully and take your time (up to 10 seconds)"",""Q3"":""True"",""Q4"":""K""}","deliberation_comprehension_check","1","","","","","","","","","","","","","","","","","","","","","","","","","","","","","","","","","","","","","","","","","","","","",""
"","missed_instruction_checkup","","html-keyboard-response","62","1518366","0.0-53.2-2.2-0.2","0","1","l0I2Q","People","","3652","","","","78","","","","","","","","","","","","","","","","","","","","","","","","","","","","","","","","","","","","","","","","","","","",""
"","deliberation_instructions","","instructions","63","1523118","0.0-53.3-0.3","0","0","l0I2Q","People","[{""page_index"":0,""viewing_time"":1360},{""page_index"":1,""viewing_time"":855},{""page_index"":2,""viewing_time"":714},{""page_index"":3,""viewing_time"":1077},{""page_index"":4,""viewing_time"":744}]","4751","","","","","","","","","","","","","","","","","","","","","","","","","","","","","","","","","","","","","","","","","","","","","","","",""
"","","","survey-multi-choice","64","1531529","0.0-53.3-1.3","0","0","l0I2Q","People","","8400","{""Q0"":""True"",""Q1"":""True"",""Q2"":""Consider carefully and take your time (up to 10 seconds)"",""Q3"":""True"",""Q4"":""D""}","deliberation_comprehension_check","0","","","","","","","","","","","","","","","","","","","","","","","","","","","","","","","","","","","","","","","","","","","","",""
"","start_phase","","html-keyboard-response","65","1542837","0.0-54.0","0","0","l0I2Q","People","","11306","","","","78","","","","","","","","","","","","","","","","","","","","","","","","","","","","","","","","","","","","","","","","","","","",""
"","first_deliberation_block","","html-keyboard-response","66","1547701","0.0-55.0","0","0","l0I2Q","People","","4862","","","","78","","","","","","","","","","","","","","","","","","","","","","","","","","","","","","","","","","","","","","","","","","","",""
"","fixation","","html-keyboard-response","67","1548716","0.0-56.0-0.0","0","0","l0I2Q","People","","null","","","","null","","","","","","","","","","","","","","","","","","","","","","","","","","","","","","","","","","","","","","","","","","","",""
"","deliberation","","html-keyboard-response","68","1550494","0.0-56.0-1.0","0","0","l0I2Q","People","","1768","","","","68","","","","0","24","26","1","1","80","89","joel-mott-LaK153ghdig-unsplash.jpg","juri-gianfrancesco-9EZadYaMzk4-unsplash.jpg","1","1","24","26","","","","","","","","","","","","","","","","","","","","","","","","","","","",""
"","choice_confirmation","","html-keyboard-response","69","1551013","0.0-56.0-2.0-0.0","0","0","l0I2Q","People","","null","","","","null","","","","0","24","26","","","","","","","","","","","","","","","","","","","","","","","","","","","","","","","","","","","","","",""
"","explain_trial","","survey-text","70","1593711","0.0-56.0-5.0-0.0","0","0","l0I2Q","People","","42692","{""Q0"":""This was really good everyone like this smile of future with natural beauty""}","","","","","","","0","24","26","","","","","","","","","","","{""Q0"":""This was really good everyone like this smile of future with natural beauty""}","","","","","","","","","","","","","","","","","","","","","","","","","","",""
"","fixation","","html-keyboard-response","71","1594783","0.0-57.0-0.0","0","0","l0I2Q","People","","null","","","","null","","","","","","","","","","","","","","","","","","","","","","","","","","","","","","","","","","","","","","","","","","","",""
"","deliberation","","html-keyboard-response","72","1596427","0.0-57.0-1.0","0","0","l0I2Q","People","","1643","","","","75","","","","1","28","49","0","-1","74","71","justin-chen-J7Cf1Gch49E-unsplash.jpg","vicky-hladynets-_gDoyVv5F4c-unsplash.jpg","1","0","49","28","","","","","","","","","","","","","","","","","","","","","","","","","","","",""
"","choice_confirmation","","html-keyboard-response","73","1596933","0.0-57.0-2.0-0.0","0","0","l0I2Q","People","","null","","","","null","","","","1","28","49","","","","","","","","","","","","","","","","","","","","","","","","","","","","","","","","","","","","","",""
"","fixation","","html-keyboard-response","74","1597948","0.0-58.0-0.0","0","0","l0I2Q","People","","null","","","","null","","","","","","","","","","","","","","","","","","","","","","","","","","","","","","","","","","","","","","","","","","","",""
"","deliberation","","html-keyboard-response","75","1600054","0.0-58.0-1.0","0","0","l0I2Q","People","","2104","","","","68","","","","2","36","5","1","1","79","85","ospan-ali-mGdA2fzjWLo-unsplash.jpg","batel-studio-ttSRjiYG_WM-unsplash.jpg","1","1","36","5","","","","","","","","","","","","","","","","","","","","","","","","","","","",""
"","choice_confirmation","","html-keyboard-response","76","1600559","0.0-58.0-2.0-0.0","0","0","l0I2Q","People","","null","","","","null","","","","2","36","5","","","","","","","","","","","","","","","","","","","","","","","","","","","","","","","","","","","","","",""
"","explain_trial","","survey-text","77","1638471","0.0-58.0-5.0-0.0","0","0","l0I2Q","People","","37910","{""Q0"":""This photograph was totally black in background with a girl in traditional look.""}","","","","","","","2","36","5","","","","","","","","","","","{""Q0"":""This photograph was totally black in background with a girl in traditional look.""}","","","","","","","","","","","","","","","","","","","","","","","","","","",""
"","fixation","","html-keyboard-response","78","1639479","0.0-59.0-0.0","0","0","l0I2Q","People","","null","","","","null","","","","","","","","","","","","","","","","","","","","","","","","","","","","","","","","","","","","","","","","","","","",""
"","deliberation","","html-keyboard-response","79","1640991","0.0-59.0-1.0","0","0","l0I2Q","People","","1510","","","","68","","","","3","27","3","1","1","67","73","jurica-koletic-7YVZYZeITc8-unsplash.jpg","art-hauntington-jzY0KRJopEI-unsplash.jpg","1","1","27","3","","","","","","","","","","","","","","","","","","","","","","","","","","","",""
"","choice_confirmation","","html-keyboard-response","80","1641504","0.0-59.0-2.0-0.0","0","0","l0I2Q","People","","null","","","","null","","","","3","27","3","","","","","","","","","","","","","","","","","","","","","","","","","","","","","","","","","","","","","",""
"","explain_trial","","survey-text","81","1683416","0.0-59.0-5.0-0.0","0","0","l0I2Q","People","","41910","{""Q0"":""This photograph was make more impression compare to other photograph because the way of looking is really great with confidence""}","","","","","","","3","27","3","","","","","","","","","","","{""Q0"":""This photograph was make more impression compare to other photograph because the way of looking is really great with confidence""}","","","","","","","","","","","","","","","","","","","","","","","","","","",""
"","fixation","","html-keyboard-response","82","1684431","0.0-60.0-0.0","0","0","l0I2Q","People","","null","","","","null","","","","","","","","","","","","","","","","","","","","","","","","","","","","","","","","","","","","","","","","","","","",""
"","deliberation","","html-keyboard-response","83","1687021","0.0-60.0-1.0","0","0","l0I2Q","People","","2583","","","","75","","","","4","25","44","0","1","70","83","joseph-gonzalez-iFgRcqHznqg-unsplash.jpg","rikonavt-HQjfrvdTfak-unsplash.jpg","1","0","44","25","","","","","","","","","","","","","","","","","","","","","","","","","","","",""
"","choice_confirmation","","html-keyboard-response","84","1687529","0.0-60.0-2.0-0.0","0","0","l0I2Q","People","","null","","","","null","","","","4","25","44","","","","","","","","","","","","","","","","","","","","","","","","","","","","","","","","","","","","","",""
"","fixation","","html-keyboard-response","85","1688533","0.0-61.0-0.0","0","0","l0I2Q","People","","null","","","","null","","","","","","","","","","","","","","","","","","","","","","","","","","","","","","","","","","","","","","","","","","","",""
"","deliberation","","html-keyboard-response","86","1690580","0.0-61.0-1.0","0","0","l0I2Q","People","","2041","","","","68","","","","5","43","8","0","-1","87","72","raamin-ka-0qJBEzudn5E-unsplash.jpg","bruce-dixon-3M9WJQVHzog-unsplash.jpg","1","1","43","8","","","","","","","","","","","","","","","","","","","","","","","","","","","",""
"","choice_confirmation","","html-keyboard-response","87","1691087","0.0-61.0-2.0-0.0","0","0","l0I2Q","People","","null","","","","null","","","","5","43","8","","","","","","","","","","","","","","","","","","","","","","","","","","","","","","","","","","","","","",""
"","fixation","","html-keyboard-response","88","1692098","0.0-62.0-0.0","0","0","l0I2Q","People","","null","","","","null","","","","","","","","","","","","","","","","","","","","","","","","","","","","","","","","","","","","","","","","","","","",""
"","deliberation","","html-keyboard-response","89","1693839","0.0-62.0-1.0","0","0","l0I2Q","People","","1735","","","","68","","","","6","41","6","0","-1","73","66","prince-akachi-i2hoD-C2RUA-unsplash.jpg","ben-o-bro-C5XyLljkMrY-unsplash.jpg","1","1","41","6","","","","","","","","","","","","","","","","","","","","","","","","","","","",""
"","choice_confirmation","","html-keyboard-response","90","1694349","0.0-62.0-2.0-0.0","0","0","l0I2Q","People","","null","","","","null","","","","6","41","6","","","","","","","","","","","","","","","","","","","","","","","","","","","","","","","","","","","","","",""
"","fixation","","html-keyboard-response","91","1695358","0.0-63.0-0.0","0","0","l0I2Q","People","","null","","","","null","","","","","","","","","","","","","","","","","","","","","","","","","","","","","","","","","","","","","","","","","","","",""
"","deliberation","","html-keyboard-response","92","1697660","0.0-63.0-1.0","0","0","l0I2Q","People","","2292","","","","68","","","","7","2","30","1","-1","80","65","arjunsyah-TBUA5KHJn6k-unsplash.jpg","matheus-ferrero-pg_WCHWSdT8-unsplash.jpg","1","1","2","30","","","","","","","","","","","","","","","","","","","","","","","","","","","",""
"","choice_confirmation","","html-keyboard-response","93","1698164","0.0-63.0-2.0-0.0","0","0","l0I2Q","People","","null","","","","null","","","","7","2","30","","","","","","","","","","","","","","","","","","","","","","","","","","","","","","","","","","","","","",""
"","explain_trial","","survey-text","94","1751914","0.0-63.0-5.0-0.0","0","0","l0I2Q","People","","53746","{""Q0"":""This photograph have more uniqueness because totally have lot of colorful in the photograph with naturally great""}","","","","","","","7","2","30","","","","","","","","","","","{""Q0"":""This photograph have more uniqueness because totally have lot of colorful in the photograph with naturally great""}","","","","","","","","","","","","","","","","","","","","","","","","","","",""
"","fixation","","html-keyboard-response","95","1752925","0.0-64.0-0.0","0","0","l0I2Q","People","","null","","","","null","","","","","","","","","","","","","","","","","","","","","","","","","","","","","","","","","","","","","","","","","","","",""
"","deliberation","","html-keyboard-response","96","1754630","0.0-64.0-1.0","0","0","l0I2Q","People","","1704","","","","75","","","","8","34","12","0","1","84","80","oliver-johnson-1TUIcKob7Zs-unsplash.jpg","daniel-rigdon-dXmXKPP2L4E-unsplash.jpg","1","0","12","34","","","","","","","","","","","","","","","","","","","","","","","","","","","",""
"","choice_confirmation","","html-keyboard-response","97","1755136","0.0-64.0-2.0-0.0","0","0","l0I2Q","People","","null","","","","null","","","","8","34","12","","","","","","","","","","","","","","","","","","","","","","","","","","","","","","","","","","","","","",""
"","fixation","","html-keyboard-response","98","1756144","0.0-65.0-0.0","0","0","l0I2Q","People","","null","","","","null","","","","","","","","","","","","","","","","","","","","","","","","","","","","","","","","","","","","","","","","","","","",""
"","deliberation","","html-keyboard-response","99","1758255","0.0-65.0-1.0","0","0","l0I2Q","People","","2104","","","","75","","","","9","15","21","1","-1","85","70","gabriel-silverio-u3WmDyKGsrY-unsplash.jpg","jessica-felicio-_cvwXhGqG-o-unsplash.jpg","1","0","21","15","","","","","","","","","","","","","","","","","","","","","","","","","","","",""
"","choice_confirmation","","html-keyboard-response","100","1758762","0.0-65.0-2.0-0.0","0","0","l0I2Q","People","","null","","","","null","","","","9","15","21","","","","","","","","","","","","","","","","","","","","","","","","","","","","","","","","","","","","","",""
"","explain_trial","","survey-text","101","1813490","0.0-65.0-5.0-0.0","0","0","l0I2Q","People","","54726","{""Q0"":""This photograph have more unique compare to others because a girl looking a great with unique style the way of photograph really good.""}","","","","","","","9","15","21","","","","","","","","","","","{""Q0"":""This photograph have more unique compare to others because a girl looking a great with unique style the way of photograph really good.""}","","","","","","","","","","","","","","","","","","","","","","","","","","",""
"","fixation","","html-keyboard-response","102","1814511","0.0-66.0-0.0","0","0","l0I2Q","People","","null","","","","null","","","","","","","","","","","","","","","","","","","","","","","","","","","","","","","","","","","","","","","","","","","",""
"","deliberation","","html-keyboard-response","103","1816318","0.0-66.0-1.0","0","0","l0I2Q","People","","1806","","","","68","","","","10","14","0","0","1","65","76","freddy-kearney-o-ioeoATbIM-unsplash.jpg","abstral-official-cyOKLSgkgCE-unsplash.jpg","1","1","14","0","","","","","","","","","","","","","","","","","","","","","","","","","","","",""
"","choice_confirmation","","html-keyboard-response","104","1816828","0.0-66.0-2.0-0.0","0","0","l0I2Q","People","","null","","","","null","","","","10","14","0","","","","","","","","","","","","","","","","","","","","","","","","","","","","","","","","","","","","","",""
"","fixation","","html-keyboard-response","105","1817836","0.0-67.0-0.0","0","0","l0I2Q","People","","null","","","","null","","","","","","","","","","","","","","","","","","","","","","","","","","","","","","","","","","","","","","","","","","","",""
"","deliberation","","html-keyboard-response","106","1819950","0.0-67.0-1.0","0","0","l0I2Q","People","","2108","","","","75","","","","11","29","33","1","-1","65","87","leilani-angel-K84vnnzxmTQ-unsplash.jpg","olena-sergienko-0TSd6uCKTKc-unsplash.jpg","1","0","33","29","","","","","","","","","","","","","","","","","","","","","","","","","","","",""
"","choice_confirmation","","html-keyboard-response","107","1820457","0.0-67.0-2.0-0.0","0","0","l0I2Q","People","","null","","","","null","","","","11","29","33","","","","","","","","","","","","","","","","","","","","","","","","","","","","","","","","","","","","","",""
"","explain_trial","","survey-text","108","1869787","0.0-67.0-5.0-0.0","0","0","l0I2Q","People","","49328","{""Q0"":""when seeing a photograph was awesome with great look more likes will follow on this photograph""}","","","","","","","11","29","33","","","","","","","","","","","{""Q0"":""when seeing a photograph was awesome with great look more likes will follow on this photograph""}","","","","","","","","","","","","","","","","","","","","","","","","","","",""
"","practice_deliberation_again","","html-keyboard-response","109","1877110","0.0-67.0-6.0-0.0","0","0","l0I2Q","People","","7316","","","","78","","","","","","","","","","","","","","","","","","","","","","","","","","","","","","","","","","","","","","","","","","","",""
"","fixation","","html-keyboard-response","110","1878119","0.0-68.0-0.0","0","0","l0I2Q","People","","null","","","","null","","","","","","","","","","","","","","","","","","","","","","","","","","","","","","","","","","","","","","","","","","","",""
"","deliberation","","html-keyboard-response","111","1879608","0.0-68.0-1.0","0","0","l0I2Q","People","","1480","","","","75","","","","12","25","44","1","1","70","83","joseph-gonzalez-iFgRcqHznqg-unsplash.jpg","rikonavt-HQjfrvdTfak-unsplash.jpg","2","0","44","25","","","","","","","","","","","","","","","","","","","","","","","","","","","",""
"","choice_confirmation","","html-keyboard-response","112","1880119","0.0-68.0-2.0-0.0","0","0","l0I2Q","People","","null","","","","null","","","","12","25","44","","","","","","","","","","","","","","","","","","","","","","","","","","","","","","","","","","","","","",""
"","explain_trial","","survey-text","113","1920020","0.0-68.0-5.0-0.0","0","0","l0I2Q","People","","39899","{""Q0"":""This photograph never seen before like this to capture more likeable and more strong in black lives people will sell this more and more good.""}","","","","","","","12","25","44","","","","","","","","","","","{""Q0"":""This photograph never seen before like this to capture more likeable and more strong in black lives people will sell this more and more good.""}","","","","","","","","","","","","","","","","","","","","","","","","","","",""
"","fixation","","html-keyboard-response","114","1921032","0.0-69.0-0.0","0","0","l0I2Q","People","","null","","","","null","","","","","","","","","","","","","","","","","","","","","","","","","","","","","","","","","","","","","","","","","","","",""
"","deliberation","","html-keyboard-response","115","1922545","0.0-69.0-1.0","0","0","l0I2Q","People","","1511","","","","75","","","","13","2","30","0","-1","80","65","arjunsyah-TBUA5KHJn6k-unsplash.jpg","matheus-ferrero-pg_WCHWSdT8-unsplash.jpg","2","0","30","2","","","","","","","","","","","","","","","","","","","","","","","","","","","",""
"","choice_confirmation","","html-keyboard-response","116","1923053","0.0-69.0-2.0-0.0","0","0","l0I2Q","People","","null","","","","null","","","","13","2","30","","","","","","","","","","","","","","","","","","","","","","","","","","","","","","","","","","","","","",""
"","fixation","","html-keyboard-response","117","1924063","0.0-70.0-0.0","0","0","l0I2Q","People","","null","","","","null","","","","","","","","","","","","","","","","","","","","","","","","","","","","","","","","","","","","","","","","","","","",""
"","deliberation","","html-keyboard-response","118","1926327","0.0-70.0-1.0","0","0","l0I2Q","People","","2258","","","","68","","","","14","14","0","1","1","65","76","freddy-kearney-o-ioeoATbIM-unsplash.jpg","abstral-official-cyOKLSgkgCE-unsplash.jpg","2","1","14","0","","","","","","","","","","","","","","","","","","","","","","","","","","","",""
"","choice_confirmation","","html-keyboard-response","119","1926835","0.0-70.0-2.0-0.0","0","0","l0I2Q","People","","null","","","","null","","","","14","14","0","","","","","","","","","","","","","","","","","","","","","","","","","","","","","","","","","","","","","",""
"","explain_trial","","survey-text","120","1957747","0.0-70.0-5.0-0.0","0","0","l0I2Q","People","","30910","{""Q0"":""This photograph shows that in the old age you never fall down you want to run more and more.""}","","","","","","","14","14","0","","","","","","","","","","","{""Q0"":""This photograph shows that in the old age you never fall down you want to run more and more.""}","","","","","","","","","","","","","","","","","","","","","","","","","","",""
"","fixation","","html-keyboard-response","121","1958758","0.0-71.0-0.0","0","0","l0I2Q","People","","null","","","","null","","","","","","","","","","","","","","","","","","","","","","","","","","","","","","","","","","","","","","","","","","","",""
"","deliberation","","html-keyboard-response","122","1960536","0.0-71.0-1.0","0","0","l0I2Q","People","","1777","","","","68","","","","15","34","12","1","1","84","80","oliver-johnson-1TUIcKob7Zs-unsplash.jpg","daniel-rigdon-dXmXKPP2L4E-unsplash.jpg","2","1","34","12","","","","","","","","","","","","","","","","","","","","","","","","","","","",""
"","choice_confirmation","","html-keyboard-response","123","1961047","0.0-71.0-2.0-0.0","0","0","l0I2Q","People","","null","","","","null","","","","15","34","12","","","","","","","","","","","","","","","","","","","","","","","","","","","","","","","","","","","","","",""
"","explain_trial","","survey-text","124","1988035","0.0-71.0-5.0-0.0","0","0","l0I2Q","People","","26985","{""Q0"":""this photograph is more likeable have unique beauty and awesome.""}","","","","","","","15","34","12","","","","","","","","","","","{""Q0"":""this photograph is more likeable have unique beauty and awesome.""}","","","","","","","","","","","","","","","","","","","","","","","","","","",""
"","fixation","","html-keyboard-response","125","1989044","0.0-72.0-0.0","0","0","l0I2Q","People","","null","","","","null","","","","","","","","","","","","","","","","","","","","","","","","","","","","","","","","","","","","","","","","","","","",""
"","deliberation","","html-keyboard-response","126","1991032","0.0-72.0-1.0","0","0","l0I2Q","People","","1986","","","","68","","","","16","28","49","1","-1","74","71","justin-chen-J7Cf1Gch49E-unsplash.jpg","vicky-hladynets-_gDoyVv5F4c-unsplash.jpg","2","1","28","49","","","","","","","","","","","","","","","","","","","","","","","","","","","",""
"","choice_confirmation","","html-keyboard-response","127","1991535","0.0-72.0-2.0-0.0","0","0","l0I2Q","People","","null","","","","null","","","","16","28","49","","","","","","","","","","","","","","","","","","","","","","","","","","","","","","","","","","","","","",""
"","explain_trial","","survey-text","128","2054292","0.0-72.0-5.0-0.0","0","0","l0I2Q","People","","62755","{""Q0"":""In this photograph have more uniqueness and awesome more effort with beauty the way of capture the photograph ""}","","","","","","","16","28","49","","","","","","","","","","","{""Q0"":""In this photograph have more uniqueness and awesome more effort with beauty the way of capture the photograph ""}","","","","","","","","","","","","","","","","","","","","","","","","","","",""
"","fixation","","html-keyboard-response","129","2055319","0.0-73.0-0.0","0","0","l0I2Q","People","","null","","","","null","","","","","","","","","","","","","","","","","","","","","","","","","","","","","","","","","","","","","","","","","","","",""
"","deliberation","","html-keyboard-response","130","2057225","0.0-73.0-1.0","0","0","l0I2Q","People","","1905","","","","68","","","","17","29","33","0","-1","65","87","leilani-angel-K84vnnzxmTQ-unsplash.jpg","olena-sergienko-0TSd6uCKTKc-unsplash.jpg","2","1","29","33","","","","","","","","","","","","","","","","","","","","","","","","","","","",""
"","choice_confirmation","","html-keyboard-response","131","2057733","0.0-73.0-2.0-0.0","0","0","l0I2Q","People","","null","","","","null","","","","17","29","33","","","","","","","","","","","","","","","","","","","","","","","","","","","","","","","","","","","","","",""
"","fixation","","html-keyboard-response","132","2058743","0.0-74.0-0.0","0","0","l0I2Q","People","","null","","","","null","","","","","","","","","","","","","","","","","","","","","","","","","","","","","","","","","","","","","","","","","","","",""
"","deliberation","","html-keyboard-response","133","2060361","0.0-74.0-1.0","0","0","l0I2Q","People","","1615","","","","68","","","","18","15","21","0","-1","85","70","gabriel-silverio-u3WmDyKGsrY-unsplash.jpg","jessica-felicio-_cvwXhGqG-o-unsplash.jpg","2","1","15","21","","","","","","","","","","","","","","","","","","","","","","","","","","","",""
"","choice_confirmation","","html-keyboard-response","134","2060876","0.0-74.0-2.0-0.0","0","0","l0I2Q","People","","null","","","","null","","","","18","15","21","","","","","","","","","","","","","","","","","","","","","","","","","","","","","","","","","","","","","",""
"","fixation","","html-keyboard-response","135","2061887","0.0-75.0-0.0","0","0","l0I2Q","People","","null","","","","null","","","","","","","","","","","","","","","","","","","","","","","","","","","","","","","","","","","","","","","","","","","",""
"","deliberation","","html-keyboard-response","136","2064266","0.0-75.0-1.0","0","0","l0I2Q","People","","2369","","","","75","","","","19","36","5","0","1","79","85","ospan-ali-mGdA2fzjWLo-unsplash.jpg","batel-studio-ttSRjiYG_WM-unsplash.jpg","2","0","5","36","","","","","","","","","","","","","","","","","","","","","","","","","","","",""
"","choice_confirmation","","html-keyboard-response","137","2064775","0.0-75.0-2.0-0.0","0","0","l0I2Q","People","","null","","","","null","","","","19","36","5","","","","","","","","","","","","","","","","","","","","","","","","","","","","","","","","","","","","","",""
"","fixation","","html-keyboard-response","138","2065796","0.0-76.0-0.0","0","0","l0I2Q","People","","null","","","","null","","","","","","","","","","","","","","","","","","","","","","","","","","","","","","","","","","","","","","","","","","","",""
"","deliberation","","html-keyboard-response","139","2067890","0.0-76.0-1.0","0","0","l0I2Q","People","","2083","","","","75","","","","20","27","3","0","1","67","73","jurica-koletic-7YVZYZeITc8-unsplash.jpg","art-hauntington-jzY0KRJopEI-unsplash.jpg","2","0","3","27","","","","","","","","","","","","","","","","","","","","","","","","","","","",""
"","choice_confirmation","","html-keyboard-response","140","2068396","0.0-76.0-2.0-0.0","0","0","l0I2Q","People","","null","","","","null","","","","20","27","3","","","","","","","","","","","","","","","","","","","","","","","","","","","","","","","","","","","","","",""
"","fixation","","html-keyboard-response","141","2069406","0.0-77.0-0.0","0","0","l0I2Q","People","","null","","","","null","","","","","","","","","","","","","","","","","","","","","","","","","","","","","","","","","","","","","","","","","","","",""
"","deliberation","","html-keyboard-response","142","2072345","0.0-77.0-1.0","0","0","l0I2Q","People","","2935","","","","68","","","","21","43","8","1","-1","87","72","raamin-ka-0qJBEzudn5E-unsplash.jpg","bruce-dixon-3M9WJQVHzog-unsplash.jpg","2","1","43","8","","","","","","","","","","","","","","","","","","","","","","","","","","","",""
"","choice_confirmation","","html-keyboard-response","143","2072851","0.0-77.0-2.0-0.0","0","0","l0I2Q","People","","null","","","","null","","","","21","43","8","","","","","","","","","","","","","","","","","","","","","","","","","","","","","","","","","","","","","",""
"","explain_trial","","survey-text","144","2111662","0.0-77.0-5.0-0.0","0","0","l0I2Q","People","","38809","{""Q0"":""This photograph make more happy always get more happiness when ever you see the photograph always give a smile.""}","","","","","","","21","43","8","","","","","","","","","","","{""Q0"":""This photograph make more happy always get more happiness when ever you see the photograph always give a smile.""}","","","","","","","","","","","","","","","","","","","","","","","","","","",""
"","fixation","","html-keyboard-response","145","2112671","0.0-78.0-0.0","0","0","l0I2Q","People","","null","","","","null","","","","","","","","","","","","","","","","","","","","","","","","","","","","","","","","","","","","","","","","","","","",""
"","deliberation","","html-keyboard-response","146","2115195","0.0-78.0-1.0","0","0","l0I2Q","People","","2522","","","","68","","","","22","41","6","1","-1","73","66","prince-akachi-i2hoD-C2RUA-unsplash.jpg","ben-o-bro-C5XyLljkMrY-unsplash.jpg","2","1","41","6","","","","","","","","","","","","","","","","","","","","","","","","","","","",""
"","choice_confirmation","","html-keyboard-response","147","2115703","0.0-78.0-2.0-0.0","0","0","l0I2Q","People","","null","","","","null","","","","22","41","6","","","","","","","","","","","","","","","","","","","","","","","","","","","","","","","","","","","","","",""
"","explain_trial","","survey-text","148","2153952","0.0-78.0-5.0-0.0","0","0","l0I2Q","People","","38245","{""Q0"":""saw this photograph it gives more happy for everything even you in harder life.""}","","","","","","","22","41","6","","","","","","","","","","","{""Q0"":""saw this photograph it gives more happy for everything even you in harder life.""}","","","","","","","","","","","","","","","","","","","","","","","","","","",""
"","fixation","","html-keyboard-response","149","2154967","0.0-79.0-0.0","0","0","l0I2Q","People","","null","","","","null","","","","","","","","","","","","","","","","","","","","","","","","","","","","","","","","","","","","","","","","","","","",""
"","deliberation","","html-keyboard-response","150","2156491","0.0-79.0-1.0","0","0","l0I2Q","People","","1522","","","","75","","","","23","24","26","0","1","80","89","joel-mott-LaK153ghdig-unsplash.jpg","juri-gianfrancesco-9EZadYaMzk4-unsplash.jpg","2","0","26","24","","","","","","","","","","","","","","","","","","","","","","","","","","","",""
"","choice_confirmation","","html-keyboard-response","151","2156996","0.0-79.0-2.0-0.0","0","0","l0I2Q","People","","null","","","","null","","","","23","24","26","","","","","","","","","","","","","","","","","","","","","","","","","","","","","","","","","","","","","",""
"","start_critical_deliberation_block","","html-keyboard-response","152","2246459","0.0-79.0-7.0-0.0","0","0","l0I2Q","People","","89459","","","","78","","","","","","","","","","","","","","","","","","","","","","","","","","","","","","","","","","","","","","","","","","","",""
"","fixation","","html-keyboard-response","153","2247474","0.0-80.0-0.0","0","0","l0I2Q","People","","null","","","","null","","","","","","","","","","","","","","","","","","","","","","","","","","","","","","","","","","","","","","","","","","","",""
"","deliberation","","html-keyboard-response","154","2249392","0.0-80.0-1.0","0","0","l0I2Q","People","","1906","","","","75","","","","24","2","30","0","-1","80","65","arjunsyah-TBUA5KHJn6k-unsplash.jpg","matheus-ferrero-pg_WCHWSdT8-unsplash.jpg","3","0","30","2","","","","","","","","","","","","","","","","","","","","","","","","","","","",""
"","choice_confirmation","","html-keyboard-response","155","2249907","0.0-80.0-2.0-0.0","0","0","l0I2Q","People","","null","","","","null","","","","24","2","30","","","","","","","","","","","","","","","","","","","","","","","","","","","","","","","","","","","","","",""
"","fixation","","html-keyboard-response","156","2250932","0.0-81.0-0.0","0","0","l0I2Q","People","","null","","","","null","","","","","","","","","","","","","","","","","","","","","","","","","","","","","","","","","","","","","","","","","","","",""
"","deliberation","","html-keyboard-response","157","2252708","0.0-81.0-1.0","0","0","l0I2Q","People","","1773","","","","68","","","","25","36","5","0","1","79","85","ospan-ali-mGdA2fzjWLo-unsplash.jpg","batel-studio-ttSRjiYG_WM-unsplash.jpg","3","1","36","5","","","","","","","","","","","","","","","","","","","","","","","","","","","",""
"","choice_confirmation","","html-keyboard-response","158","2253214","0.0-81.0-2.0-0.0","0","0","l0I2Q","People","","null","","","","null","","","","25","36","5","","","","","","","","","","","","","","","","","","","","","","","","","","","","","","","","","","","","","",""
"","fixation","","html-keyboard-response","159","2254226","0.0-82.0-0.0","0","0","l0I2Q","People","","null","","","","null","","","","","","","","","","","","","","","","","","","","","","","","","","","","","","","","","","","","","","","","","","","",""
"","deliberation","","html-keyboard-response","160","2255651","0.0-82.0-1.0","0","0","l0I2Q","People","","1422","","","","68","","","","26","15","21","0","-1","85","70","gabriel-silverio-u3WmDyKGsrY-unsplash.jpg","jessica-felicio-_cvwXhGqG-o-unsplash.jpg","3","1","15","21","","","","","","","","","","","","","","","","","","","","","","","","","","","",""
"","choice_confirmation","","html-keyboard-response","161","2256164","0.0-82.0-2.0-0.0","0","0","l0I2Q","People","","null","","","","null","","","","26","15","21","","","","","","","","","","","","","","","","","","","","","","","","","","","","","","","","","","","","","",""
"","fixation","","html-keyboard-response","162","2257175","0.0-83.0-0.0","0","0","l0I2Q","People","","null","","","","null","","","","","","","","","","","","","","","","","","","","","","","","","","","","","","","","","","","","","","","","","","","",""
"","deliberation","","html-keyboard-response","163","2258459","0.0-83.0-1.0","0","0","l0I2Q","People","","1282","","","","68","","","","27","43","8","0","-1","87","72","raamin-ka-0qJBEzudn5E-unsplash.jpg","bruce-dixon-3M9WJQVHzog-unsplash.jpg","3","1","43","8","","","","","","","","","","","","","","","","","","","","","","","","","","","",""
"","choice_confirmation","","html-keyboard-response","164","2258969","0.0-83.0-2.0-0.0","0","0","l0I2Q","People","","null","","","","null","","","","27","43","8","","","","","","","","","","","","","","","","","","","","","","","","","","","","","","","","","","","","","",""
"","fixation","","html-keyboard-response","165","2259977","0.0-84.0-0.0","0","0","l0I2Q","People","","null","","","","null","","","","","","","","","","","","","","","","","","","","","","","","","","","","","","","","","","","","","","","","","","","",""
"","deliberation","","html-keyboard-response","166","2261164","0.0-84.0-1.0","0","0","l0I2Q","People","","1176","","","","68","","","","28","41","6","0","-1","73","66","prince-akachi-i2hoD-C2RUA-unsplash.jpg","ben-o-bro-C5XyLljkMrY-unsplash.jpg","3","1","41","6","","","","","","","","","","","","","","","","","","","","","","","","","","","",""
"","choice_confirmation","","html-keyboard-response","167","2261670","0.0-84.0-2.0-0.0","0","0","l0I2Q","People","","null","","","","null","","","","28","41","6","","","","","","","","","","","","","","","","","","","","","","","","","","","","","","","","","","","","","",""
"","fixation","","html-keyboard-response","168","2262684","0.0-85.0-0.0","0","0","l0I2Q","People","","null","","","","null","","","","","","","","","","","","","","","","","","","","","","","","","","","","","","","","","","","","","","","","","","","",""
"","deliberation","","html-keyboard-response","169","2264244","0.0-85.0-1.0","0","0","l0I2Q","People","","1559","","","","68","","","","29","14","0","0","1","65","76","freddy-kearney-o-ioeoATbIM-unsplash.jpg","abstral-official-cyOKLSgkgCE-unsplash.jpg","3","1","14","0","","","","","","","","","","","","","","","","","","","","","","","","","","","",""
"","choice_confirmation","","html-keyboard-response","170","2264757","0.0-85.0-2.0-0.0","0","0","l0I2Q","People","","null","","","","null","","","","29","14","0","","","","","","","","","","","","","","","","","","","","","","","","","","","","","","","","","","","","","",""
"","fixation","","html-keyboard-response","171","2265771","0.0-86.0-0.0","0","0","l0I2Q","People","","null","","","","null","","","","","","","","","","","","","","","","","","","","","","","","","","","","","","","","","","","","","","","","","","","",""
"","deliberation","","html-keyboard-response","172","2266941","0.0-86.0-1.0","0","0","l0I2Q","People","","1160","","","","75","","","","30","28","49","0","-1","74","71","justin-chen-J7Cf1Gch49E-unsplash.jpg","vicky-hladynets-_gDoyVv5F4c-unsplash.jpg","3","0","49","28","","","","","","","","","","","","","","","","","","","","","","","","","","","",""
"","choice_confirmation","","html-keyboard-response","173","2267443","0.0-86.0-2.0-0.0","0","0","l0I2Q","People","","null","","","","null","","","","30","28","49","","","","","","","","","","","","","","","","","","","","","","","","","","","","","","","","","","","","","",""
"","fixation","","html-keyboard-response","174","2268451","0.0-87.0-0.0","0","0","l0I2Q","People","","null","","","","null","","","","","","","","","","","","","","","","","","","","","","","","","","","","","","","","","","","","","","","","","","","",""
"","deliberation","","html-keyboard-response","175","2269691","0.0-87.0-1.0","0","0","l0I2Q","People","","1232","","","","75","","","","31","25","44","0","1","70","83","joseph-gonzalez-iFgRcqHznqg-unsplash.jpg","rikonavt-HQjfrvdTfak-unsplash.jpg","3","0","44","25","","","","","","","","","","","","","","","","","","","","","","","","","","","",""
"","choice_confirmation","","html-keyboard-response","176","2270193","0.0-87.0-2.0-0.0","0","0","l0I2Q","People","","null","","","","null","","","","31","25","44","","","","","","","","","","","","","","","","","","","","","","","","","","","","","","","","","","","","","",""
"","fixation","","html-keyboard-response","177","2271198","0.0-88.0-0.0","0","0","l0I2Q","People","","null","","","","null","","","","","","","","","","","","","","","","","","","","","","","","","","","","","","","","","","","","","","","","","","","",""
"","deliberation","","html-keyboard-response","178","2272644","0.0-88.0-1.0","0","0","l0I2Q","People","","1436","","","","68","","","","32","27","3","0","1","67","73","jurica-koletic-7YVZYZeITc8-unsplash.jpg","art-hauntington-jzY0KRJopEI-unsplash.jpg","3","1","27","3","","","","","","","","","","","","","","","","","","","","","","","","","","","",""
"","choice_confirmation","","html-keyboard-response","179","2273149","0.0-88.0-2.0-0.0","0","0","l0I2Q","People","","null","","","","null","","","","32","27","3","","","","","","","","","","","","","","","","","","","","","","","","","","","","","","","","","","","","","",""
"","fixation","","html-keyboard-response","180","2274157","0.0-89.0-0.0","0","0","l0I2Q","People","","null","","","","null","","","","","","","","","","","","","","","","","","","","","","","","","","","","","","","","","","","","","","","","","","","",""
"","deliberation","","html-keyboard-response","181","2275732","0.0-89.0-1.0","0","0","l0I2Q","People","","1563","","","","75","","","","33","24","26","0","1","80","89","joel-mott-LaK153ghdig-unsplash.jpg","juri-gianfrancesco-9EZadYaMzk4-unsplash.jpg","3","0","26","24","","","","","","","","","","","","","","","","","","","","","","","","","","","",""
"","choice_confirmation","","html-keyboard-response","182","2276244","0.0-89.0-2.0-0.0","0","0","l0I2Q","People","","null","","","","null","","","","33","24","26","","","","","","","","","","","","","","","","","","","","","","","","","","","","","","","","","","","","","",""
"","fixation","","html-keyboard-response","183","2277257","0.0-90.0-0.0","0","0","l0I2Q","People","","null","","","","null","","","","","","","","","","","","","","","","","","","","","","","","","","","","","","","","","","","","","","","","","","","",""
"","deliberation","","html-keyboard-response","184","2278563","0.0-90.0-1.0","0","0","l0I2Q","People","","1304","","","","68","","","","34","29","33","0","-1","65","87","leilani-angel-K84vnnzxmTQ-unsplash.jpg","olena-sergienko-0TSd6uCKTKc-unsplash.jpg","3","1","29","33","","","","","","","","","","","","","","","","","","","","","","","","","","","",""
"","choice_confirmation","","html-keyboard-response","185","2279075","0.0-90.0-2.0-0.0","0","0","l0I2Q","People","","null","","","","null","","","","34","29","33","","","","","","","","","","","","","","","","","","","","","","","","","","","","","","","","","","","","","",""
"","fixation","","html-keyboard-response","186","2280091","0.0-91.0-0.0","0","0","l0I2Q","People","","null","","","","null","","","","","","","","","","","","","","","","","","","","","","","","","","","","","","","","","","","","","","","","","","","",""
"","deliberation","","html-keyboard-response","187","2281235","0.0-91.0-1.0","0","0","l0I2Q","People","","1141","","","","68","","","","35","34","12","0","1","84","80","oliver-johnson-1TUIcKob7Zs-unsplash.jpg","daniel-rigdon-dXmXKPP2L4E-unsplash.jpg","3","1","34","12","","","","","","","","","","","","","","","","","","","","","","","","","","","",""
"","choice_confirmation","","html-keyboard-response","188","2281747","0.0-91.0-2.0-0.0","0","0","l0I2Q","People","","null","","","","null","","","","35","34","12","","","","","","","","","","","","","","","","","","","","","","","","","","","","","","","","","","","","","",""
"","reward_learning_instructions","","instructions","189","2401203","0.0-92.0-0.0","0","0","l0I2Q","People","[{""page_index"":0,""viewing_time"":83432},{""page_index"":1,""viewing_time"":33523},{""page_index"":2,""viewing_time"":2498}]","119453","","","","","","","","","","","","","","","","","","","","","","","","","","","","","","","","","","","","","","","","","","","","","","","",""
"","","","survey-multi-choice","190","2431772","0.0-92.0-1.0","0","0","l0I2Q","People","","30562","{""Q0"":""True"",""Q1"":""True"",""Q2"":""Press the space bar to see its outcome"",""Q3"":""Just look at it""}","reward_comprehension_check","1","","","","","","","","","","","","","","","","","","","","","","","","","","","","","","","","","","","","","","","","","","","","",""
"","missed_instruction_checkup","","html-keyboard-response","191","2434373","0.0-92.0-2.0-0.0","0","1","l0I2Q","People","","2599","","","","78","","","","","","","","","","","","","","","","","","","","","","","","","","","","","","","","","","","","","","","","","","","",""
"","reward_learning_instructions","","instructions","192","2486856","0.0-92.1-0.1","0","0","l0I2Q","People","[{""page_index"":0,""viewing_time"":31299},{""page_index"":1,""viewing_time"":19352},{""page_index"":2,""viewing_time"":1830}]","52482","","","","","","","","","","","","","","","","","","","","","","","","","","","","","","","","","","","","","","","","","","","","","","","",""
"","","","survey-multi-choice","193","2883531","0.0-92.1-1.1","0","0","l0I2Q","People","","396669","{""Q0"":""True"",""Q1"":""True"",""Q2"":""Press the space bar to see its outcome"",""Q3"":""Press the relevant key while the outcome is presented""}","reward_comprehension_check","0","","","","","","","","","","","","","","","","","","","","","","","","","","","","","","","","","","","","","","","","","","","","",""
"","start_phase","","html-keyboard-response","194","2892159","0.0-93.0","0","0","l0I2Q","People","","8627","","","","78","","","","","","","","","","","","","","","","","","","","","","","","","","","","","","","","","","","","","","","","","","","",""
"","fixation","","html-keyboard-response","195","2893164","0.0-94.0","0","0","l0I2Q","People","","null","","","","null","","","","","","","","","","","","","","","","","","","","","","","","","","","","","","","","","","","","","","","","","","","",""
"","see_reward","","html-keyboard-response","196","2895220","0.0-95.0","0","0","l0I2Q","People","","2027","","","","32","","29","","0","","","","-1","","","","","1","","","","","0","2027","","","","","","","","","","","","","","","","","","","","","","","","",""
"","reward_outcome","","html-keyboard-response","197","2897228","0.0-96.0","0","0","l0I2Q","People","","null","","","","null","","29","","0","","","","","","","","","","","","","","","","NaN","null","","","","","","","","","","","","","","","","","","","","","","",""
"","respond_faster","","html-keyboard-response","198","2898739","0.0-97.0-0.0","1","0","l0I2Q","People","","null","","","","null","","","","","","","","","","","","","","","","","","","","","","","","","","","","","","","","","","","","","","","","","","","",""
"","fixation","","html-keyboard-response","199","2899748","0.0-99.0","0","0","l0I2Q","People","","null","","","","null","","","","","","","","","","","","","","","","","","","","","","","","","","","","","","","","","","","","","","","","","","","",""
"","see_reward","","html-keyboard-response","200","2902015","0.0-100.0","0","0","l0I2Q","People","","2264","","","","32","","15","","1","","","","-1","","","","","1","","","","","0","2264","","","","","","","","","","","","","","","","","","","","","","","","",""
"","reward_outcome","","html-keyboard-response","201","2904021","0.0-101.0","0","0","l0I2Q","People","","null","","","","null","","15","","1","","","","","","","","","","","","","","","","NaN","null","","","","","","","","","","","","","","","","","","","","","","",""
"","respond_faster","","html-keyboard-response","202","2905526","0.0-102.0-0.0","1","0","l0I2Q","People","","null","","","","null","","","","","","","","","","","","","","","","","","","","","","","","","","","","","","","","","","","","","","","","","","","",""
"","fixation","","html-keyboard-response","203","2906532","0.0-104.0","0","0","l0I2Q","People","","null","","","","null","","","","","","","","","","","","","","","","","","","","","","","","","","","","","","","","","","","","","","","","","","","",""
"","see_reward","","html-keyboard-response","204","2907469","0.0-105.0","0","0","l0I2Q","People","","930","","","","32","","34","","2","","","","1","","","","","1","","","","","159","930","","","","","","","","","","","","","","","","","","","","","","","","",""
"","reward_outcome","","html-keyboard-response","205","2909477","0.0-106.0","0","0","l0I2Q","People","","379","","","","38","","34","","2","","","","","","","","","","","","","","","","1","379","","","","","","","","","","","","","","","","","","","","","","",""
"","fixation","","html-keyboard-response","206","2910484","0.0-109.0","0","0","l0I2Q","People","","null","","","","null","","","","","","","","","","","","","","","","","","","","","","","","","","","","","","","","","","","","","","","","","","","",""
"","see_reward","","html-keyboard-response","207","2911402","0.0-110.0","0","0","l0I2Q","People","","910","","","","32","","27","","3","","","","1","","","","","1","","","","","160","910","","","","","","","","","","","","","","","","","","","","","","","","",""
"","reward_outcome","","html-keyboard-response","208","2913432","0.0-111.0","0","0","l0I2Q","People","","499","","","","40","","27","","3","","","","","","","","","","","","","","","","-1","499","","","","","","","","","","","","","","","","","","","","","","",""
"","fixation","","html-keyboard-response","209","2914438","0.0-114.0","0","0","l0I2Q","People","","null","","","","null","","","","","","","","","","","","","","","","","","","","","","","","","","","","","","","","","","","","","","","","","","","",""
"","see_reward","","html-keyboard-response","210","2915324","0.0-115.0","0","0","l0I2Q","People","","875","","","","32","","15","","4","","","","-1","","","","","1","","","","","0","875","","","","","","","","","","","","","","","","","","","","","","","","",""
"","reward_outcome","","html-keyboard-response","211","2917336","0.0-116.0","0","0","l0I2Q","People","","null","","","","null","","15","","4","","","","","","","","","","","","","","","","NaN","null","","","","","","","","","","","","","","","","","","","","","","",""
"","respond_faster","","html-keyboard-response","212","2918844","0.0-117.0-0.0","1","0","l0I2Q","People","","null","","","","null","","","","","","","","","","","","","","","","","","","","","","","","","","","","","","","","","","","","","","","","","","","",""
"","fixation","","html-keyboard-response","213","2919893","0.0-119.0","0","0","l0I2Q","People","","null","","","","null","","","","","","","","","","","","","","","","","","","","","","","","","","","","","","","","","","","","","","","","","","","",""
"","see_reward","","html-keyboard-response","214","2920521","0.0-120.0","0","0","l0I2Q","People","","622","","","","32","","44","","5","","","","1","","","","","1","","","","","149","622","","","","","","","","","","","","","","","","","","","","","","","","",""
"","reward_outcome","","html-keyboard-response","215","2922530","0.0-121.0","0","0","l0I2Q","People","","135","","","","38","","44","","5","","","","","","","","","","","","","","","","1","135","","","","","","","","","","","","","","","","","","","","","","",""
"","fixation","","html-keyboard-response","216","2923533","0.0-124.0","0","0","l0I2Q","People","","null","","","","null","","","","","","","","","","","","","","","","","","","","","","","","","","","","","","","","","","","","","","","","","","","",""
"","see_reward","","html-keyboard-response","217","2924178","0.0-125.0","0","0","l0I2Q","People","","636","","","","32","","41","","6","","","","-1","","","","","1","","","","","0","636","","","","","","","","","","","","","","","","","","","","","","","","",""
"","reward_outcome","","html-keyboard-response","218","2926186","0.0-126.0","0","0","l0I2Q","People","","133","","","","38","","41","","6","","","","","","","","","","","","","","","","1","133","","","","","","","","","","","","","","","","","","","","","","",""
"","fixation","","html-keyboard-response","219","2927194","0.0-129.0","0","0","l0I2Q","People","","null","","","","null","","","","","","","","","","","","","","","","","","","","","","","","","","","","","","","","","","","","","","","","","","","",""
"","see_reward","","html-keyboard-response","220","2927835","0.0-130.0","0","0","l0I2Q","People","","637","","","","32","","43","","7","","","","-1","","","","","1","","","","","0","637","","","","","","","","","","","","","","","","","","","","","","","","",""
"","reward_outcome","","html-keyboard-response","221","2929846","0.0-131.0","0","0","l0I2Q","People","","225","","","","40","","43","","7","","","","","","","","","","","","","","","","-1","225","","","","","","","","","","","","","","","","","","","","","","",""
"","fixation","","html-keyboard-response","222","2930852","0.0-134.0","0","0","l0I2Q","People","","null","","","","null","","","","","","","","","","","","","","","","","","","","","","","","","","","","","","","","","","","","","","","","","","","",""
"","see_reward","","html-keyboard-response","223","2931498","0.0-135.0","0","0","l0I2Q","People","","643","","","","32","","30","","8","","","","-1","","","","","1","","","","","0","643","","","","","","","","","","","","","","","","","","","","","","","","",""
"","reward_outcome","","html-keyboard-response","224","2933500","0.0-136.0","0","0","l0I2Q","People","","177","","","","38","","30","","8","","","","","","","","","","","","","","","","1","177","","","","","","","","","","","","","","","","","","","","","","",""
"","fixation","","html-keyboard-response","225","2934517","0.0-139.0","0","0","l0I2Q","People","","null","","","","null","","","","","","","","","","","","","","","","","","","","","","","","","","","","","","","","","","","","","","","","","","","",""
"","see_reward","","html-keyboard-response","226","2935136","0.0-140.0","0","0","l0I2Q","People","","616","","","","32","","43","","9","","","","-1","","","","","1","","","","","0","616","","","","","","","","","","","","","","","","","","","","","","","","",""
"","reward_outcome","","html-keyboard-response","227","2937142","0.0-141.0","0","0","l0I2Q","People","","232","","","","40","","43","","9","","","","","","","","","","","","","","","","-1","232","","","","","","","","","","","","","","","","","","","","","","",""
"","fixation","","html-keyboard-response","228","2938153","0.0-144.0","0","0","l0I2Q","People","","null","","","","null","","","","","","","","","","","","","","","","","","","","","","","","","","","","","","","","","","","","","","","","","","","",""
"","see_reward","","html-keyboard-response","229","2938770","0.0-145.0","0","0","l0I2Q","People","","611","","","","32","","44","","10","","","","1","","","","","1","","","","","149","611","","","","","","","","","","","","","","","","","","","","","","","","",""
"","reward_outcome","","html-keyboard-response","230","2940784","0.0-146.0","0","0","l0I2Q","People","","219","","","","38","","44","","10","","","","","","","","","","","","","","","","1","219","","","","","","","","","","","","","","","","","","","","","","",""
"","fixation","","html-keyboard-response","231","2941794","0.0-149.0","0","0","l0I2Q","People","","null","","","","null","","","","","","","","","","","","","","","","","","","","","","","","","","","","","","","","","","","","","","","","","","","",""
"","see_reward","","html-keyboard-response","232","2942557","0.0-150.0","0","0","l0I2Q","People","","751","","","","32","","36","","11","","","","1","","","","","1","","","","","150","751","","","","","","","","","","","","","","","","","","","","","","","","",""
"","reward_outcome","","html-keyboard-response","233","2944573","0.0-151.0","0","0","l0I2Q","People","","259","","","","38","","36","","11","","","","","","","","","","","","","","","","1","259","","","","","","","","","","","","","","","","","","","","","","",""
"","fixation","","html-keyboard-response","234","2945585","0.0-154.0","0","0","l0I2Q","People","","null","","","","null","","","","","","","","","","","","","","","","","","","","","","","","","","","","","","","","","","","","","","","","","","","",""
"","see_reward","","html-keyboard-response","235","2946188","0.0-155.0","0","0","l0I2Q","People","","597","","","","32","","30","","12","","","","-1","","","","","1","","","","","0","597","","","","","","","","","","","","","","","","","","","","","","","","",""
"","reward_outcome","","html-keyboard-response","236","2948205","0.0-156.0","0","0","l0I2Q","People","","274","","","","40","","30","","12","","","","","","","","","","","","","","","","-1","274","","","","","","","","","","","","","","","","","","","","","","",""
"","fixation","","html-keyboard-response","237","2949217","0.0-159.0","0","0","l0I2Q","People","","null","","","","null","","","","","","","","","","","","","","","","","","","","","","","","","","","","","","","","","","","","","","","","","","","",""
"","see_reward","","html-keyboard-response","238","2949796","0.0-160.0","0","0","l0I2Q","People","","577","","","","32","","34","","13","","","","1","","","","","1","","","","","159","577","","","","","","","","","","","","","","","","","","","","","","","","",""
"","reward_outcome","","html-keyboard-response","239","2951815","0.0-161.0","0","0","l0I2Q","People","","204","","","","38","","34","","13","","","","","","","","","","","","","","","","1","204","","","","","","","","","","","","","","","","","","","","","","",""
"","fixation","","html-keyboard-response","240","2952830","0.0-164.0","0","0","l0I2Q","People","","null","","","","null","","","","","","","","","","","","","","","","","","","","","","","","","","","","","","","","","","","","","","","","","","","",""
"","see_reward","","html-keyboard-response","241","2953443","0.0-165.0","0","0","l0I2Q","People","","611","","","","32","","36","","14","","","","1","","","","","1","","","","","150","611","","","","","","","","","","","","","","","","","","","","","","","","",""
"","reward_outcome","","html-keyboard-response","242","2955455","0.0-166.0","0","0","l0I2Q","People","","317","","","","38","","36","","14","","","","","","","","","","","","","","","","1","317","","","","","","","","","","","","","","","","","","","","","","",""
"","fixation","","html-keyboard-response","243","2956468","0.0-169.0","0","0","l0I2Q","People","","null","","","","null","","","","","","","","","","","","","","","","","","","","","","","","","","","","","","","","","","","","","","","","","","","",""
"","see_reward","","html-keyboard-response","244","2957018","0.0-170.0","0","0","l0I2Q","People","","548","","","","32","","49","","15","","","","-1","","","","","1","","","","","0","548","","","","","","","","","","","","","","","","","","","","","","","","",""
"","reward_outcome","","html-keyboard-response","245","2959021","0.0-171.0","0","0","l0I2Q","People","","389","","","","38","","49","","15","","","","","","","","","","","","","","","","1","389","","","","","","","","","","","","","","","","","","","","","","",""
"","fixation","","html-keyboard-response","246","2960028","0.0-174.0","0","0","l0I2Q","People","","null","","","","null","","","","","","","","","","","","","","","","","","","","","","","","","","","","","","","","","","","","","","","","","","","",""
"","see_reward","","html-keyboard-response","247","2960596","0.0-175.0","0","0","l0I2Q","People","","566","","","","32","","27","","16","","","","1","","","","","1","","","","","160","566","","","","","","","","","","","","","","","","","","","","","","","","",""
"","reward_outcome","","html-keyboard-response","248","2962620","0.0-176.0","0","0","l0I2Q","People","","267","","","","40","","27","","16","","","","","","","","","","","","","","","","-1","267","","","","","","","","","","","","","","","","","","","","","","",""
"","fixation","","html-keyboard-response","249","2963632","0.0-179.0","0","0","l0I2Q","People","","null","","","","null","","","","","","","","","","","","","","","","","","","","","","","","","","","","","","","","","","","","","","","","","","","",""
"","see_reward","","html-keyboard-response","250","2964268","0.0-180.0","0","0","l0I2Q","People","","628","","","","32","","26","","17","","","","1","","","","","1","","","","","142","628","","","","","","","","","","","","","","","","","","","","","","","","",""
"","reward_outcome","","html-keyboard-response","251","2966280","0.0-181.0","0","0","l0I2Q","People","","313","","","","38","","26","","17","","","","","","","","","","","","","","","","1","313","","","","","","","","","","","","","","","","","","","","","","",""
"","fixation","","html-keyboard-response","252","2967287","0.0-184.0","0","0","l0I2Q","People","","null","","","","null","","","","","","","","","","","","","","","","","","","","","","","","","","","","","","","","","","","","","","","","","","","",""
"","see_reward","","html-keyboard-response","253","2967897","0.0-185.0","0","0","l0I2Q","People","","607","","","","32","","14","","18","","","","1","","","","","1","","","","","157","607","","","","","","","","","","","","","","","","","","","","","","","","",""
"","reward_outcome","","html-keyboard-response","254","2969900","0.0-186.0","0","0","l0I2Q","People","","308","","","","38","","14","","18","","","","","","","","","","","","","","","","1","308","","","","","","","","","","","","","","","","","","","","","","",""
"","fixation","","html-keyboard-response","255","2970914","0.0-189.0","0","0","l0I2Q","People","","null","","","","null","","","","","","","","","","","","","","","","","","","","","","","","","","","","","","","","","","","","","","","","","","","",""
"","see_reward","","html-keyboard-response","256","2971546","0.0-190.0","0","0","l0I2Q","People","","628","","","","32","","14","","19","","","","1","","","","","1","","","","","157","628","","","","","","","","","","","","","","","","","","","","","","","","",""
"","reward_outcome","","html-keyboard-response","257","2973555","0.0-191.0","0","0","l0I2Q","People","","237","","","","38","","14","","19","","","","","","","","","","","","","","","","1","237","","","","","","","","","","","","","","","","","","","","","","",""
"","fixation","","html-keyboard-response","258","2974565","0.0-194.0","0","0","l0I2Q","People","","null","","","","null","","","","","","","","","","","","","","","","","","","","","","","","","","","","","","","","","","","","","","","","","","","",""
"","see_reward","","html-keyboard-response","259","2975137","0.0-195.0","0","0","l0I2Q","People","","568","","","","32","","49","","20","","","","-1","","","","","1","","","","","0","568","","","","","","","","","","","","","","","","","","","","","","","","",""
"","reward_outcome","","html-keyboard-response","260","2977144","0.0-196.0","0","0","l0I2Q","People","","251","","","","40","","49","","20","","","","","","","","","","","","","","","","-1","251","","","","","","","","","","","","","","","","","","","","","","",""
"","fixation","","html-keyboard-response","261","2978146","0.0-199.0","0","0","l0I2Q","People","","null","","","","null","","","","","","","","","","","","","","","","","","","","","","","","","","","","","","","","","","","","","","","","","","","",""
"","see_reward","","html-keyboard-response","262","2978905","0.0-200.0","0","0","l0I2Q","People","","754","","","","32","","29","","21","","","","-1","","","","","1","","","","","0","754","","","","","","","","","","","","","","","","","","","","","","","","",""
"","reward_outcome","","html-keyboard-response","263","2980924","0.0-201.0","0","0","l0I2Q","People","","557","","","","38","","29","","21","","","","","","","","","","","","","","","","1","557","","","","","","","","","","","","","","","","","","","","","","",""
"","fixation","","html-keyboard-response","264","2981938","0.0-204.0","0","0","l0I2Q","People","","null","","","","null","","","","","","","","","","","","","","","","","","","","","","","","","","","","","","","","","","","","","","","","","","","",""
"","see_reward","","html-keyboard-response","265","2982507","0.0-205.0","0","0","l0I2Q","People","","567","","","","32","","41","","22","","","","-1","","","","","1","","","","","0","567","","","","","","","","","","","","","","","","","","","","","","","","",""
"","reward_outcome","","html-keyboard-response","266","2984515","0.0-206.0","0","0","l0I2Q","People","","369","","","","38","","41","","22","","","","","","","","","","","","","","","","1","369","","","","","","","","","","","","","","","","","","","","","","",""
"","fixation","","html-keyboard-response","267","2985524","0.0-209.0","0","0","l0I2Q","People","","null","","","","null","","","","","","","","","","","","","","","","","","","","","","","","","","","","","","","","","","","","","","","","","","","",""
"","see_reward","","html-keyboard-response","268","2986131","0.0-210.0","0","0","l0I2Q","People","","605","","","","32","","26","","23","","","","1","","","","","1","","","","","142","605","","","","","","","","","","","","","","","","","","","","","","","","",""
"","reward_outcome","","html-keyboard-response","269","2988147","0.0-211.0","0","0","l0I2Q","People","","318","","","","38","","26","","23","","","","","","","","","","","","","","","","1","318","","","","","","","","","","","","","","","","","","","","","","",""
"","block_over","","html-keyboard-response","270","2997314","0.0-213.0-0.0","0","0","l0I2Q","People","","9158","","","","78","","","","","","","","","","","","","","","","","","","","","","","","","","","","","","","","","","","","","","","","","","","",""
"","fixation","","html-keyboard-response","271","2998323","0.0-214.0","0","0","l0I2Q","People","","null","","","","null","","","","","","","","","","","","","","","","","","","","","","","","","","","","","","","","","","","","","","","","","","","",""
"","see_reward","","html-keyboard-response","272","2999202","0.0-215.0","0","0","l0I2Q","People","","874","","","","32","","43","","24","","","","-1","","","","","2","","","","","0","874","","","","","","","","","","","","","","","","","","","","","","","","",""
"","reward_outcome","","html-keyboard-response","273","3001220","0.0-216.0","0","0","l0I2Q","People","","370","","","","38","","43","","24","","","","","","","","","","","","","","","","1","370","","","","","","","","","","","","","","","","","","","","","","",""
"","fixation","","html-keyboard-response","274","3002229","0.0-219.0","0","0","l0I2Q","People","","null","","","","null","","","","","","","","","","","","","","","","","","","","","","","","","","","","","","","","","","","","","","","","","","","",""
"","see_reward","","html-keyboard-response","275","3002811","0.0-220.0","0","0","l0I2Q","People","","580","","","","32","","14","","25","","","","1","","","","","2","","","","","157","580","","","","","","","","","","","","","","","","","","","","","","","","",""
"","reward_outcome","","html-keyboard-response","276","3004826","0.0-221.0","0","0","l0I2Q","People","","189","","","","40","","14","","25","","","","","","","","","","","","","","","","-1","189","","","","","","","","","","","","","","","","","","","","","","",""
"","fixation","","html-keyboard-response","277","3005837","0.0-224.0","0","0","l0I2Q","People","","null","","","","null","","","","","","","","","","","","","","","","","","","","","","","","","","","","","","","","","","","","","","","","","","","",""
"","see_reward","","html-keyboard-response","278","3006449","0.0-225.0","0","0","l0I2Q","People","","605","","","","32","","29","","26","","","","-1","","","","","2","","","","","0","605","","","","","","","","","","","","","","","","","","","","","","","","",""
"","reward_outcome","","html-keyboard-response","279","3008451","0.0-226.0","0","0","l0I2Q","People","","236","","","","38","","29","","26","","","","","","","","","","","","","","","","1","236","","","","","","","","","","","","","","","","","","","","","","",""
"","fixation","","html-keyboard-response","280","3009460","0.0-229.0","0","0","l0I2Q","People","","null","","","","null","","","","","","","","","","","","","","","","","","","","","","","","","","","","","","","","","","","","","","","","","","","",""
"","see_reward","","html-keyboard-response","281","3010179","0.0-230.0","0","0","l0I2Q","People","","717","","","","32","","49","","27","","","","-1","","","","","2","","","","","0","717","","","","","","","","","","","","","","","","","","","","","","","","",""
"","reward_outcome","","html-keyboard-response","282","3012190","0.0-231.0","0","0","l0I2Q","People","","290","","","","40","","49","","27","","","","","","","","","","","","","","","","-1","290","","","","","","","","","","","","","","","","","","","","","","",""
"","fixation","","html-keyboard-response","283","3013202","0.0-234.0","0","0","l0I2Q","People","","null","","","","null","","","","","","","","","","","","","","","","","","","","","","","","","","","","","","","","","","","","","","","","","","","",""
"","see_reward","","html-keyboard-response","284","3013772","0.0-235.0","0","0","l0I2Q","People","","566","","","","32","","34","","28","","","","1","","","","","2","","","","","159","566","","","","","","","","","","","","","","","","","","","","","","","","",""
"","reward_outcome","","html-keyboard-response","285","3015786","0.0-236.0","0","0","l0I2Q","People","","207","","","","38","","34","","28","","","","","","","","","","","","","","","","1","207","","","","","","","","","","","","","","","","","","","","","","",""
"","fixation","","html-keyboard-response","286","3016799","0.0-239.0","0","0","l0I2Q","People","","null","","","","null","","","","","","","","","","","","","","","","","","","","","","","","","","","","","","","","","","","","","","","","","","","",""
"","see_reward","","html-keyboard-response","287","3017396","0.0-240.0","0","0","l0I2Q","People","","590","","","","32","","27","","29","","","","1","","","","","2","","","","","160","590","","","","","","","","","","","","","","","","","","","","","","","","",""
"","reward_outcome","","html-keyboard-response","288","3019404","0.0-241.0","0","0","l0I2Q","People","","212","","","","38","","27","","29","","","","","","","","","","","","","","","","1","212","","","","","","","","","","","","","","","","","","","","","","",""
"","fixation","","html-keyboard-response","289","3020406","0.0-244.0","0","0","l0I2Q","People","","null","","","","null","","","","","","","","","","","","","","","","","","","","","","","","","","","","","","","","","","","","","","","","","","","",""
"","see_reward","","html-keyboard-response","290","3021011","0.0-245.0","0","0","l0I2Q","People","","594","","","","32","","34","","30","","","","1","","","","","2","","","","","159","594","","","","","","","","","","","","","","","","","","","","","","","","",""
"","reward_outcome","","html-keyboard-response","291","3023024","0.0-246.0","0","0","l0I2Q","People","","156","","","","38","","34","","30","","","","","","","","","","","","","","","","1","156","","","","","","","","","","","","","","","","","","","","","","",""
"","fixation","","html-keyboard-response","292","3024037","0.0-249.0","0","0","l0I2Q","People","","null","","","","null","","","","","","","","","","","","","","","","","","","","","","","","","","","","","","","","","","","","","","","","","","","",""
"","see_reward","","html-keyboard-response","293","3024674","0.0-250.0","0","0","l0I2Q","People","","626","","","","32","","15","","31","","","","-1","","","","","2","","","","","0","626","","","","","","","","","","","","","","","","","","","","","","","","",""
"","reward_outcome","","html-keyboard-response","294","3026686","0.0-251.0","0","0","l0I2Q","People","","177","","","","40","","15","","31","","","","","","","","","","","","","","","","-1","177","","","","","","","","","","","","","","","","","","","","","","",""
"","fixation","","html-keyboard-response","295","3027697","0.0-254.0","0","0","l0I2Q","People","","null","","","","null","","","","","","","","","","","","","","","","","","","","","","","","","","","","","","","","","","","","","","","","","","","",""
"","see_reward","","html-keyboard-response","296","3028292","0.0-255.0","0","0","l0I2Q","People","","593","","","","32","","30","","32","","","","-1","","","","","2","","","","","0","593","","","","","","","","","","","","","","","","","","","","","","","","",""
"","reward_outcome","","html-keyboard-response","297","3030309","0.0-256.0","0","0","l0I2Q","People","","205","","","","38","","30","","32","","","","","","","","","","","","","","","","1","205","","","","","","","","","","","","","","","","","","","","","","",""
"","fixation","","html-keyboard-response","298","3031323","0.0-259.0","0","0","l0I2Q","People","","null","","","","null","","","","","","","","","","","","","","","","","","","","","","","","","","","","","","","","","","","","","","","","","","","",""
"","see_reward","","html-keyboard-response","299","3031947","0.0-260.0","0","0","l0I2Q","People","","619","","","","32","","36","","33","","","","1","","","","","2","","","","","150","619","","","","","","","","","","","","","","","","","","","","","","","","",""
"","reward_outcome","","html-keyboard-response","300","3033961","0.0-261.0","0","0","l0I2Q","People","","481","","","","38","","36","","33","","","","","","","","","","","","","","","","1","481","","","","","","","","","","","","","","","","","","","","","","",""
"","fixation","","html-keyboard-response","301","3034967","0.0-264.0","0","0","l0I2Q","People","","null","","","","null","","","","","","","","","","","","","","","","","","","","","","","","","","","","","","","","","","","","","","","","","","","",""
"","see_reward","","html-keyboard-response","302","3035581","0.0-265.0","0","0","l0I2Q","People","","612","","","","32","","27","","34","","","","1","","","","","2","","","","","160","612","","","","","","","","","","","","","","","","","","","","","","","","",""
"","reward_outcome","","html-keyboard-response","303","3037587","0.0-266.0","0","0","l0I2Q","People","","220","","","","40","","27","","34","","","","","","","","","","","","","","","","-1","220","","","","","","","","","","","","","","","","","","","","","","",""
"","fixation","","html-keyboard-response","304","3038595","0.0-269.0","0","0","l0I2Q","People","","null","","","","null","","","","","","","","","","","","","","","","","","","","","","","","","","","","","","","","","","","","","","","","","","","",""
"","see_reward","","html-keyboard-response","305","3039211","0.0-270.0","0","0","l0I2Q","People","","614","","","","32","","26","","35","","","","1","","","","","2","","","","","142","614","","","","","","","","","","","","","","","","","","","","","","","","",""
"","reward_outcome","","html-keyboard-response","306","3041220","0.0-271.0","0","0","l0I2Q","People","","158","","","","38","","26","","35","","","","","","","","","","","","","","","","1","158","","","","","","","","","","","","","","","","","","","","","","",""
"","fixation","","html-keyboard-response","307","3042228","0.0-274.0","0","0","l0I2Q","People","","null","","","","null","","","","","","","","","","","","","","","","","","","","","","","","","","","","","","","","","","","","","","","","","","","",""
"","see_reward","","html-keyboard-response","308","3042844","0.0-275.0","0","0","l0I2Q","People","","615","","","","32","","15","","36","","","","-1","","","","","2","","","","","0","615","","","","","","","","","","","","","","","","","","","","","","","","",""
"","reward_outcome","","html-keyboard-response","309","3044852","0.0-276.0","0","0","l0I2Q","People","","133","","","","40","","15","","36","","","","","","","","","","","","","","","","-1","133","","","","","","","","","","","","","","","","","","","","","","",""
"","fixation","","html-keyboard-response","310","3045858","0.0-279.0","0","0","l0I2Q","People","","null","","","","null","","","","","","","","","","","","","","","","","","","","","","","","","","","","","","","","","","","","","","","","","","","",""
"","see_reward","","html-keyboard-response","311","3046469","0.0-280.0","0","0","l0I2Q","People","","609","","","","32","","44","","37","","","","1","","","","","2","","","","","149","609","","","","","","","","","","","","","","","","","","","","","","","","",""
"","reward_outcome","","html-keyboard-response","312","3048493","0.0-281.0","0","0","l0I2Q","People","","116","","","","38","","44","","37","","","","","","","","","","","","","","","","1","116","","","","","","","","","","","","","","","","","","","","","","",""
"","fixation","","html-keyboard-response","313","3049507","0.0-284.0","0","0","l0I2Q","People","","null","","","","null","","","","","","","","","","","","","","","","","","","","","","","","","","","","","","","","","","","","","","","","","","","",""
"","see_reward","","html-keyboard-response","314","3050507","0.0-285.0","0","0","l0I2Q","People","","991","","","","32","","49","","38","","","","-1","","","","","2","","","","","0","991","","","","","","","","","","","","","","","","","","","","","","","","",""
"","reward_outcome","","html-keyboard-response","315","3052515","0.0-286.0","0","0","l0I2Q","People","","134","","","","38","","49","","38","","","","","","","","","","","","","","","","1","134","","","","","","","","","","","","","","","","","","","","","","",""
"","fixation","","html-keyboard-response","316","3053561","0.0-289.0","0","0","l0I2Q","People","","null","","","","null","","","","","","","","","","","","","","","","","","","","","","","","","","","","","","","","","","","","","","","","","","","",""
"","see_reward","","html-keyboard-response","317","3054148","0.0-290.0","0","0","l0I2Q","People","","585","","","","32","","14","","39","","","","1","","","","","2","","","","","157","585","","","","","","","","","","","","","","","","","","","","","","","","",""
"","reward_outcome","","html-keyboard-response","318","3056168","0.0-291.0","0","0","l0I2Q","People","","245","","","","40","","14","","39","","","","","","","","","","","","","","","","-1","245","","","","","","","","","","","","","","","","","","","","","","",""
"","fixation","","html-keyboard-response","319","3057178","0.0-294.0","0","0","l0I2Q","People","","null","","","","null","","","","","","","","","","","","","","","","","","","","","","","","","","","","","","","","","","","","","","","","","","","",""
"","see_reward","","html-keyboard-response","320","3058644","0.0-295.0","0","0","l0I2Q","People","","1463","","","","32","","44","","40","","","","1","","","","","2","","","","","149","1463","","","","","","","","","","","","","","","","","","","","","","","","",""
"","reward_outcome","","html-keyboard-response","321","3060654","0.0-296.0","0","0","l0I2Q","People","","638","","","","38","","44","","40","","","","","","","","","","","","","","","","1","638","","","","","","","","","","","","","","","","","","","","","","",""
"","fixation","","html-keyboard-response","322","3061660","0.0-299.0","0","0","l0I2Q","People","","null","","","","null","","","","","","","","","","","","","","","","","","","","","","","","","","","","","","","","","","","","","","","","","","","",""
"","see_reward","","html-keyboard-response","323","3062278","0.0-300.0","0","0","l0I2Q","People","","609","","","","32","","41","","41","","","","-1","","","","","2","","","","","0","609","","","","","","","","","","","","","","","","","","","","","","","","",""
"","reward_outcome","","html-keyboard-response","324","3064284","0.0-301.0","0","0","l0I2Q","People","","204","","","","40","","41","","41","","","","","","","","","","","","","","","","-1","204","","","","","","","","","","","","","","","","","","","","","","",""
"","fixation","","html-keyboard-response","325","3065346","0.0-304.0","0","0","l0I2Q","People","","null","","","","null","","","","","","","","","","","","","","","","","","","","","","","","","","","","","","","","","","","","","","","","","","","",""
"","see_reward","","html-keyboard-response","326","3065915","0.0-305.0","0","0","l0I2Q","People","","560","","","","32","","36","","42","","","","1","","","","","2","","","","","150","560","","","","","","","","","","","","","","","","","","","","","","","","",""
"","reward_outcome","","html-keyboard-response","327","3067931","0.0-306.0","0","0","l0I2Q","People","","150","","","","38","","36","","42","","","","","","","","","","","","","","","","1","150","","","","","","","","","","","","","","","","","","","","","","",""
"","fixation","","html-keyboard-response","328","3068948","0.0-309.0","0","0","l0I2Q","People","","null","","","","null","","","","","","","","","","","","","","","","","","","","","","","","","","","","","","","","","","","","","","","","","","","",""
"","see_reward","","html-keyboard-response","329","3069565","0.0-310.0","0","0","l0I2Q","People","","614","","","","32","","29","","43","","","","-1","","","","","2","","","","","0","614","","","","","","","","","","","","","","","","","","","","","","","","",""
"","reward_outcome","","html-keyboard-response","330","3071570","0.0-311.0","0","0","l0I2Q","People","","156","","","","38","","29","","43","","","","","","","","","","","","","","","","1","156","","","","","","","","","","","","","","","","","","","","","","",""
"","fixation","","html-keyboard-response","331","3072586","0.0-314.0","0","0","l0I2Q","People","","null","","","","null","","","","","","","","","","","","","","","","","","","","","","","","","","","","","","","","","","","","","","","","","","","",""
"","see_reward","","html-keyboard-response","332","3073211","0.0-315.0","0","0","l0I2Q","People","","618","","","","32","","30","","44","","","","-1","","","","","2","","","","","0","618","","","","","","","","","","","","","","","","","","","","","","","","",""
"","reward_outcome","","html-keyboard-response","333","3075224","0.0-316.0","0","0","l0I2Q","People","","478","","","","40","","30","","44","","","","","","","","","","","","","","","","-1","478","","","","","","","","","","","","","","","","","","","","","","",""
"","fixation","","html-keyboard-response","334","3076227","0.0-319.0","0","0","l0I2Q","People","","null","","","","null","","","","","","","","","","","","","","","","","","","","","","","","","","","","","","","","","","","","","","","","","","","",""
"","see_reward","","html-keyboard-response","335","3076835","0.0-320.0","0","0","l0I2Q","People","","599","","","","32","","41","","45","","","","-1","","","","","2","","","","","0","599","","","","","","","","","","","","","","","","","","","","","","","","",""
"","reward_outcome","","html-keyboard-response","336","3078851","0.0-321.0","0","0","l0I2Q","People","","173","","","","38","","41","","45","","","","","","","","","","","","","","","","1","173","","","","","","","","","","","","","","","","","","","","","","",""
"","fixation","","html-keyboard-response","337","3079860","0.0-324.0","0","0","l0I2Q","People","","null","","","","null","","","","","","","","","","","","","","","","","","","","","","","","","","","","","","","","","","","","","","","","","","","",""
"","see_reward","","html-keyboard-response","338","3080475","0.0-325.0","0","0","l0I2Q","People","","605","","","","32","","26","","46","","","","1","","","","","2","","","","","142","605","","","","","","","","","","","","","","","","","","","","","","","","",""
"","reward_outcome","","html-keyboard-response","339","3082482","0.0-326.0","0","0","l0I2Q","People","","162","","","","38","","26","","46","","","","","","","","","","","","","","","","1","162","","","","","","","","","","","","","","","","","","","","","","",""
"","fixation","","html-keyboard-response","340","3083504","0.0-329.0","0","0","l0I2Q","People","","null","","","","null","","","","","","","","","","","","","","","","","","","","","","","","","","","","","","","","","","","","","","","","","","","",""
