"success","ttype","start_time","trial_type","trial_index","time_elapsed","internal_node_id","warning","missed_checkup","PID","stim_type","view_history","rt","responses","category","repeat_instructions","key_press","response","stimulus_id","painting","index","stimulus_left","stimulus_right","explain_trial","reward_type","rating_left","rating_right","painting_left","painting_right","block","left_chosen","chosen_obj","unchosen_obj","explain_response","reward_amount","see_reward_rt","register_reward_response","register_reward_rt","deliberation_reward_tally","stimulus_left_deliberation_ind","stimulus_right_deliberation_ind","chosen_trial","gain_left","higher_outcome_chosen","old_pair","chosen_object","rt_pairs","left_object_chosen","rt_object","old_response","new_rating","deliberated_stim","initial_rating","outcome_eval_rt","outcome_eval_response","outcome_eval_gain","outcome_eval_acc","preamble","outcome_eval_confidence","outcome_eval_confidence_rt","total_reward_tally"
"true","full_screen","d01182023hr1649","fullscreen","0","17988439","0.0-0.0","0","0","QGgHx","People","","","","","","","","","","","","","","","","","","","","","","","","","","","","","","","","","","","","","","","","","","","","","","","","","",""
"","rating_instructions","","instructions","1","17998616","0.0-1.0-0.0","0","0","QGgHx","People","[{""page_index"":0,""viewing_time"":8049},{""page_index"":1,""viewing_time"":2120}]","10170","","","","","","","","","","","","","","","","","","","","","","","","","","","","","","","","","","","","","","","","","","","","","","","",""
"","","","survey-multi-choice","2","18007606","0.0-1.0-1.0","0","0","QGgHx","People","","8983","{""Q0"":""True"",""Q1"":""Mouse""}","rating_comprehension_check","0","","","","","","","","","","","","","","","","","","","","","","","","","","","","","","","","","","","","","","","","","","","","",""
"","start_phase","","html-keyboard-response","3","18036391","0.0-2.0","0","0","QGgHx","People","","28778","","","","78","","","","","","","","","","","","","","","","","","","","","","","","","","","","","","","","","","","","","","","","","","","",""
"","rating","","html-slider-response","4","18040810","0.0-3.0","0","0","QGgHx","People","","4414","","","","","72","6","ben-o-bro-C5XyLljkMrY-unsplash.jpg","0","","","","","","","","","","","","","","","","","","","","","","","","","","","","","","","","","","","","","","","",""
"","rating","","html-slider-response","5","18045136","0.0-4.0","0","0","QGgHx","People","","4321","","","","","85","43","raamin-ka-0qJBEzudn5E-unsplash.jpg","1","","","","","","","","","","","","","","","","","","","","","","","","","","","","","","","","","","","","","","","",""
"","rating","","html-slider-response","6","18049242","0.0-5.0","0","0","QGgHx","People","","4101","","","","","76","33","olena-sergienko-0TSd6uCKTKc-unsplash.jpg","2","","","","","","","","","","","","","","","","","","","","","","","","","","","","","","","","","","","","","","","",""
"","rating","","html-slider-response","7","18052301","0.0-6.0","0","0","QGgHx","People","","3055","","","","","63","1","aiony-haust-jmATI5Q_YgY-unsplash.jpg","3","","","","","","","","","","","","","","","","","","","","","","","","","","","","","","","","","","","","","","","",""
"","rating","","html-slider-response","8","18056077","0.0-7.0","0","0","QGgHx","People","","3771","","","","","79","5","batel-studio-ttSRjiYG_WM-unsplash.jpg","4","","","","","","","","","","","","","","","","","","","","","","","","","","","","","","","","","","","","","","","",""
"","rating","","html-slider-response","9","18059317","0.0-8.0","0","0","QGgHx","People","","3235","","","","","59","41","prince-akachi-i2hoD-C2RUA-unsplash.jpg","5","","","","","","","","","","","","","","","","","","","","","","","","","","","","","","","","","","","","","","","",""
"","rating","","html-slider-response","10","18063816","0.0-9.0","0","0","QGgHx","People","","4494","","","","","34","30","matheus-ferrero-pg_WCHWSdT8-unsplash.jpg","6","","","","","","","","","","","","","","","","","","","","","","","","","","","","","","","","","","","","","","","",""
"","rating","","html-slider-response","11","18067902","0.0-10.0","0","0","QGgHx","People","","4082","","","","","26","8","bruce-dixon-3M9WJQVHzog-unsplash.jpg","7","","","","","","","","","","","","","","","","","","","","","","","","","","","","","","","","","","","","","","","",""
"","rating","","html-slider-response","12","18071848","0.0-11.0","0","0","QGgHx","People","","3942","","","","","42","24","joel-mott-LaK153ghdig-unsplash.jpg","8","","","","","","","","","","","","","","","","","","","","","","","","","","","","","","","","","","","","","","","",""
"","rating","","html-slider-response","13","18075371","0.0-12.0","0","0","QGgHx","People","","3519","","","","","33","32","nathan-dumlao-ger61_TX6oI-unsplash.jpg","9","","","","","","","","","","","","","","","","","","","","","","","","","","","","","","","","","","","","","","","",""
"","rating","","html-slider-response","14","18079942","0.0-13.0","0","0","QGgHx","People","","4564","","","","","39","25","joseph-gonzalez-iFgRcqHznqg-unsplash.jpg","10","","","","","","","","","","","","","","","","","","","","","","","","","","","","","","","","","","","","","","","",""
"","rating","","html-slider-response","15","18082960","0.0-14.0","0","0","QGgHx","People","","3014","","","","","29","2","arjunsyah-TBUA5KHJn6k-unsplash.jpg","11","","","","","","","","","","","","","","","","","","","","","","","","","","","","","","","","","","","","","","","",""
"","rating","","html-slider-response","16","18085970","0.0-15.0","0","0","QGgHx","People","","3005","","","","","35","19","ha-nguy-n-OFSQ6bHjFjs-unsplash.jpg","12","","","","","","","","","","","","","","","","","","","","","","","","","","","","","","","","","","","","","","","",""
"","rating","","html-slider-response","17","18088818","0.0-16.0","0","0","QGgHx","People","","2844","","","","","24","4","barna-bartis-2x3vfVxwR7o-unsplash.jpg","13","","","","","","","","","","","","","","","","","","","","","","","","","","","","","","","","","","","","","","","",""
"","rating","","html-slider-response","18","18091969","0.0-17.0","0","0","QGgHx","People","","3145","","","","","81","44","rikonavt-HQjfrvdTfak-unsplash.jpg","14","","","","","","","","","","","","","","","","","","","","","","","","","","","","","","","","","","","","","","","",""
"","rating","","html-slider-response","19","18095613","0.0-18.0","0","0","QGgHx","People","","3640","","","","","63","45","sarah-noltner-pL5ZzPp1zqg-unsplash.jpg","15","","","","","","","","","","","","","","","","","","","","","","","","","","","","","","","","","","","","","","","",""
"","rating","","html-slider-response","20","18100153","0.0-19.0","0","0","QGgHx","People","","4536","","","","","60","39","philip-martin-5aGUyCW_PJw-unsplash.jpg","16","","","","","","","","","","","","","","","","","","","","","","","","","","","","","","","","","","","","","","","",""
"","rating","","html-slider-response","21","18105207","0.0-20.0","0","0","QGgHx","People","","5049","","","","","62","31","mathilda-khoo-vLR0YP_otCo-unsplash.jpg","17","","","","","","","","","","","","","","","","","","","","","","","","","","","","","","","","","","","","","","","",""
"","rating","","html-slider-response","22","18108711","0.0-21.0","0","0","QGgHx","People","","3499","","","","","31","26","juri-gianfrancesco-9EZadYaMzk4-unsplash.jpg","18","","","","","","","","","","","","","","","","","","","","","","","","","","","","","","","","","","","","","","","",""
"","rating","","html-slider-response","23","18111943","0.0-22.0","0","0","QGgHx","People","","3227","","","","","40","27","jurica-koletic-7YVZYZeITc8-unsplash.jpg","19","","","","","","","","","","","","","","","","","","","","","","","","","","","","","","","","","","","","","","","",""
"","rating","","html-slider-response","24","18117068","0.0-23.0","0","0","QGgHx","People","","5120","","","","","68","35","oliver-ragfelt-khV4fTy6-D8-unsplash.jpg","20","","","","","","","","","","","","","","","","","","","","","","","","","","","","","","","","","","","","","","","",""
"","rating","","html-slider-response","25","18123616","0.0-24.0","0","0","QGgHx","People","","6545","","","","","32","49","vicky-hladynets-_gDoyVv5F4c-unsplash.jpg","21","","","","","","","","","","","","","","","","","","","","","","","","","","","","","","","","","","","","","","","",""
"","rating","","html-slider-response","26","18127981","0.0-25.0","0","0","QGgHx","People","","4361","","","","","58","3","art-hauntington-jzY0KRJopEI-unsplash.jpg","22","","","","","","","","","","","","","","","","","","","","","","","","","","","","","","","","","","","","","","","",""
"","rating","","html-slider-response","27","18131384","0.0-26.0","0","0","QGgHx","People","","3397","","","","","34","22","jessica-radanavong-mrYkTuAesKE-unsplash.jpg","23","","","","","","","","","","","","","","","","","","","","","","","","","","","","","","","","","","","","","","","",""
"","rating","","html-slider-response","28","18134898","0.0-27.0","0","0","QGgHx","People","","3509","","","","","40","40","prince-akachi-4Yv84VgQkRM-unsplash.jpg","24","","","","","","","","","","","","","","","","","","","","","","","","","","","","","","","","","","","","","","","",""
"","rating","","html-slider-response","29","18138371","0.0-28.0","0","0","QGgHx","People","","3469","","","","","61","16","giano-currie-5-9YOsmf8IQ-unsplash.jpg","25","","","","","","","","","","","","","","","","","","","","","","","","","","","","","","","","","","","","","","","",""
"","rating","","html-slider-response","30","18142862","0.0-29.0","0","0","QGgHx","People","","4487","","","","","34","17","gleb-lukomets-paBzWCPN23k-unsplash.jpg","26","","","","","","","","","","","","","","","","","","","","","","","","","","","","","","","","","","","","","","","",""
"","rating","","html-slider-response","31","18146848","0.0-30.0","0","0","QGgHx","People","","3981","","","","","32","42","prince-akachi-l3IHXOdMyHQ-unsplash.jpg","27","","","","","","","","","","","","","","","","","","","","","","","","","","","","","","","","","","","","","","","",""
"","rating","","html-slider-response","32","18152647","0.0-31.0","0","0","QGgHx","People","","5795","","","","","31","29","leilani-angel-K84vnnzxmTQ-unsplash.jpg","28","","","","","","","","","","","","","","","","","","","","","","","","","","","","","","","","","","","","","","","",""
"","rating","","html-slider-response","33","18157350","0.0-32.0","0","0","QGgHx","People","","4697","","","","","35","47","tyler-nix-ZGa9d1a_4tA-unsplash.jpg","29","","","","","","","","","","","","","","","","","","","","","","","","","","","","","","","","","","","","","","","",""
"","rating","","html-slider-response","34","18161548","0.0-33.0","0","0","QGgHx","People","","4195","","","","","90","46","stefan-stefancik-QXevDflbl8A-unsplash.jpg","30","","","","","","","","","","","","","","","","","","","","","","","","","","","","","","","","","","","","","","","",""
"","rating","","html-slider-response","35","18167892","0.0-34.0","0","0","QGgHx","People","","6340","","","","","39","10","charles-etoroma-95UF6LXe-Lo-unsplash.jpg","31","","","","","","","","","","","","","","","","","","","","","","","","","","","","","","","","","","","","","","","",""
"","rating","","html-slider-response","36","18172432","0.0-35.0","0","0","QGgHx","People","","4536","","","","","65","36","ospan-ali-mGdA2fzjWLo-unsplash.jpg","32","","","","","","","","","","","","","","","","","","","","","","","","","","","","","","","","","","","","","","","",""
"","rating","","html-slider-response","37","18177666","0.0-36.0","0","0","QGgHx","People","","5229","","","","","63","18","good-faces-xmSWVeGEnJw-unsplash.jpg","33","","","","","","","","","","","","","","","","","","","","","","","","","","","","","","","","","","","","","","","",""
"","rating","","html-slider-response","38","18186843","0.0-37.0","0","0","QGgHx","People","","9172","","","","","39","38","petr-sevcovic-HzDF-rxlSeM-unsplash.jpg","34","","","","","","","","","","","","","","","","","","","","","","","","","","","","","","","","","","","","","","","",""
"","rating","","html-slider-response","39","18190820","0.0-38.0","0","0","QGgHx","People","","3973","","","","","30","34","oliver-johnson-1TUIcKob7Zs-unsplash.jpg","35","","","","","","","","","","","","","","","","","","","","","","","","","","","","","","","","","","","","","","","",""
"","rating","","html-slider-response","40","18197812","0.0-39.0","0","0","QGgHx","People","","6987","","","","","36","9","carlos-andres-gomez-vJuk8Y86mRw-unsplash.jpg","36","","","","","","","","","","","","","","","","","","","","","","","","","","","","","","","","","","","","","","","",""
"","rating","","html-slider-response","41","18201385","0.0-40.0","0","0","QGgHx","People","","3568","","","","","28","14","freddy-kearney-o-ioeoATbIM-unsplash.jpg","37","","","","","","","","","","","","","","","","","","","","","","","","","","","","","","","","","","","","","","","",""
"","rating","","html-slider-response","42","18205724","0.0-41.0","0","0","QGgHx","People","","4334","","","","","44","21","jessica-felicio-_cvwXhGqG-o-unsplash.jpg","38","","","","","","","","","","","","","","","","","","","","","","","","","","","","","","","","","","","","","","","",""
"","rating","","html-slider-response","43","18209418","0.0-42.0","0","0","QGgHx","People","","3690","","","","","30","7","brooke-cagle-HRZUzoX1e6w-unsplash.jpg","39","","","","","","","","","","","","","","","","","","","","","","","","","","","","","","","","","","","","","","","",""
"","rating","","html-slider-response","44","18212483","0.0-43.0","0","0","QGgHx","People","","3061","","","","","29","28","justin-chen-J7Cf1Gch49E-unsplash.jpg","40","","","","","","","","","","","","","","","","","","","","","","","","","","","","","","","","","","","","","","","",""
"","rating","","html-slider-response","45","18217320","0.0-44.0","0","0","QGgHx","People","","4832","","","","","34","11","christian-ferrer-8vT-DgHZDG4-unsplash.jpg","41","","","","","","","","","","","","","","","","","","","","","","","","","","","","","","","","","","","","","","","",""
"","rating","","html-slider-response","46","18221678","0.0-45.0","0","0","QGgHx","People","","4354","","","","","67","20","houcine-ncib-B4TjXnI0Y2c-unsplash.jpg","42","","","","","","","","","","","","","","","","","","","","","","","","","","","","","","","","","","","","","","","",""
"","rating","","html-slider-response","47","18226252","0.0-46.0","0","0","QGgHx","People","","4570","","","","","44","0","abstral-official-cyOKLSgkgCE-unsplash.jpg","43","","","","","","","","","","","","","","","","","","","","","","","","","","","","","","","","","","","","","","","",""
"","rating","","html-slider-response","48","18229419","0.0-47.0","0","0","QGgHx","People","","3163","","","","","39","15","gabriel-silverio-u3WmDyKGsrY-unsplash.jpg","44","","","","","","","","","","","","","","","","","","","","","","","","","","","","","","","","","","","","","","","",""
"","rating","","html-slider-response","49","18233337","0.0-48.0","0","0","QGgHx","People","","3912","","","","","37","13","erik-lucatero-d2MSDujJl2g-unsplash.jpg","45","","","","","","","","","","","","","","","","","","","","","","","","","","","","","","","","","","","","","","","",""
"","rating","","html-slider-response","50","18237368","0.0-49.0","0","0","QGgHx","People","","4027","","","","","31","48","velizar-ivanov-7ktP9yZA1g4-unsplash.jpg","46","","","","","","","","","","","","","","","","","","","","","","","","","","","","","","","","","","","","","","","",""
"","rating","","html-slider-response","51","18241147","0.0-50.0","0","0","QGgHx","People","","3775","","","","","32","37","pavel-anoshin-d0peGya6R5Y-unsplash.jpg","47","","","","","","","","","","","","","","","","","","","","","","","","","","","","","","","","","","","","","","","",""
"","rating","","html-slider-response","52","18244106","0.0-51.0","0","0","QGgHx","People","","2953","","","","","38","12","daniel-rigdon-dXmXKPP2L4E-unsplash.jpg","48","","","","","","","","","","","","","","","","","","","","","","","","","","","","","","","","","","","","","","","",""
"","rating","","html-slider-response","53","18247789","0.0-52.0","0","0","QGgHx","People","","3679","","","","","40","23","joanna-nix-walkup-H4fEMshfwTE-unsplash.jpg","49","","","","","","","","","","","","","","","","","","","","","","","","","","","","","","","","","","","","","","","",""
"","deliberation_instructions","","instructions","54","18322156","0.0-53.0-0.0","0","0","QGgHx","People","[{""page_index"":0,""viewing_time"":7923},{""page_index"":1,""viewing_time"":12051},{""page_index"":2,""viewing_time"":14713},{""page_index"":3,""viewing_time"":37356},{""page_index"":4,""viewing_time"":2318}]","74361","","","","","","","","","","","","","","","","","","","","","","","","","","","","","","","","","","","","","","","","","","","","","","","",""
"","","","survey-multi-choice","55","18349698","0.0-53.0-1.0","0","0","QGgHx","People","","27535","{""Q0"":""True"",""Q1"":""True"",""Q2"":""Consider carefully and take your time (up to 10 seconds)"",""Q3"":""True"",""Q4"":""D""}","deliberation_comprehension_check","0","","","","","","","","","","","","","","","","","","","","","","","","","","","","","","","","","","","","","","","","","","","","",""
"","start_phase","","html-keyboard-response","56","18352327","0.0-54.0","0","0","QGgHx","People","","2625","","","","78","","","","","","","","","","","","","","","","","","","","","","","","","","","","","","","","","","","","","","","","","","","",""
"","first_deliberation_block","","html-keyboard-response","57","18355956","0.0-55.0","0","0","QGgHx","People","","3625","","","","78","","","","","","","","","","","","","","","","","","","","","","","","","","","","","","","","","","","","","","","","","","","",""
"","fixation","","html-keyboard-response","58","18356960","0.0-56.0-0.0","0","0","QGgHx","People","","null","","","","null","","","","","","","","","","","","","","","","","","","","","","","","","","","","","","","","","","","","","","","","","","","",""
"","deliberation","","html-keyboard-response","59","18358061","0.0-56.0-1.0","0","0","QGgHx","People","","1097","","","","68","","","","0","23","9","0","1","40","36","joanna-nix-walkup-H4fEMshfwTE-unsplash.jpg","carlos-andres-gomez-vJuk8Y86mRw-unsplash.jpg","1","1","23","9","","","","","","","","","","","","","","","","","","","","","","","","","","","",""
"","choice_confirmation","","html-keyboard-response","60","18358568","0.0-56.0-2.0-0.0","0","0","QGgHx","People","","null","","","","null","","","","0","23","9","","","","","","","","","","","","","","","","","","","","","","","","","","","","","","","","","","","","","",""
"","fixation","","html-keyboard-response","61","18359576","0.0-57.0-0.0","0","0","QGgHx","People","","null","","","","null","","","","","","","","","","","","","","","","","","","","","","","","","","","","","","","","","","","","","","","","","","","",""
"","deliberation","","html-keyboard-response","62","18360885","0.0-57.0-1.0","0","0","QGgHx","People","","1305","","","","68","","","","1","15","39","1","1","39","60","gabriel-silverio-u3WmDyKGsrY-unsplash.jpg","philip-martin-5aGUyCW_PJw-unsplash.jpg","1","1","15","39","","","","","","","","","","","","","","","","","","","","","","","","","","","",""
"","choice_confirmation","","html-keyboard-response","63","18361392","0.0-57.0-2.0-0.0","0","0","QGgHx","People","","null","","","","null","","","","1","15","39","","","","","","","","","","","","","","","","","","","","","","","","","","","","","","","","","","","","","",""
"","explain_trial","","survey-text","64","18417949","0.0-57.0-5.0-0.0","0","0","QGgHx","People","","56552","{""Q0"":""I chose to sell this photograph because the female individual in the image captures the attention of the viewer through her vibrant smile and rich red hair color to compliment the red lipstick that she is wearing. ""}","","","","","","","1","15","39","","","","","","","","","","","{""Q0"":""I chose to sell this photograph because the female individual in the image captures the attention of the viewer through her vibrant smile and rich red hair color to compliment the red lipstick that she is wearing. ""}","","","","","","","","","","","","","","","","","","","","","","","","","","",""
"","fixation","","html-keyboard-response","65","18418960","0.0-58.0-0.0","0","0","QGgHx","People","","null","","","","null","","","","","","","","","","","","","","","","","","","","","","","","","","","","","","","","","","","","","","","","","","","",""
"","deliberation","","html-keyboard-response","66","18420470","0.0-58.0-1.0","0","0","QGgHx","People","","1506","","","","68","","","","2","12","41","1","1","38","59","daniel-rigdon-dXmXKPP2L4E-unsplash.jpg","prince-akachi-i2hoD-C2RUA-unsplash.jpg","1","1","12","41","","","","","","","","","","","","","","","","","","","","","","","","","","","",""
"","choice_confirmation","","html-keyboard-response","67","18420976","0.0-58.0-2.0-0.0","0","0","QGgHx","People","","null","","","","null","","","","2","12","41","","","","","","","","","","","","","","","","","","","","","","","","","","","","","","","","","","","","","",""
"","explain_trial","","survey-text","68","18479527","0.0-58.0-5.0-0.0","0","0","QGgHx","People","","58546","{""Q0"":""The female individual featured in this image appears to be posing for the picture. In addition, she has clearly taken time to do her hair and makeup because her hair falls nicely and her skin is flawless.""}","","","","","","","2","12","41","","","","","","","","","","","{""Q0"":""The female individual featured in this image appears to be posing for the picture. In addition, she has clearly taken time to do her hair and makeup because her hair falls nicely and her skin is flawless.""}","","","","","","","","","","","","","","","","","","","","","","","","","","",""
"","fixation","","html-keyboard-response","69","18480536","0.0-59.0-0.0","0","0","QGgHx","People","","null","","","","null","","","","","","","","","","","","","","","","","","","","","","","","","","","","","","","","","","","","","","","","","","","",""
"","deliberation","","html-keyboard-response","70","18481950","0.0-59.0-1.0","0","0","QGgHx","People","","1411","","","","75","","","","3","30","3","0","1","34","58","matheus-ferrero-pg_WCHWSdT8-unsplash.jpg","art-hauntington-jzY0KRJopEI-unsplash.jpg","1","0","3","30","","","","","","","","","","","","","","","","","","","","","","","","","","","",""
"","choice_confirmation","","html-keyboard-response","71","18482456","0.0-59.0-2.0-0.0","0","0","QGgHx","People","","null","","","","null","","","","3","30","3","","","","","","","","","","","","","","","","","","","","","","","","","","","","","","","","","","","","","",""
"","fixation","","html-keyboard-response","72","18483463","0.0-60.0-0.0","0","0","QGgHx","People","","null","","","","null","","","","","","","","","","","","","","","","","","","","","","","","","","","","","","","","","","","","","","","","","","","",""
"","deliberation","","html-keyboard-response","73","18485007","0.0-60.0-1.0","0","0","QGgHx","People","","1541","","","","68","","","","4","13","47","0","1","37","35","erik-lucatero-d2MSDujJl2g-unsplash.jpg","tyler-nix-ZGa9d1a_4tA-unsplash.jpg","1","1","13","47","","","","","","","","","","","","","","","","","","","","","","","","","","","",""
"","choice_confirmation","","html-keyboard-response","74","18485512","0.0-60.0-2.0-0.0","0","0","QGgHx","People","","null","","","","null","","","","4","13","47","","","","","","","","","","","","","","","","","","","","","","","","","","","","","","","","","","","","","",""
"","fixation","","html-keyboard-response","75","18486520","0.0-61.0-0.0","0","0","QGgHx","People","","null","","","","null","","","","","","","","","","","","","","","","","","","","","","","","","","","","","","","","","","","","","","","","","","","",""
"","deliberation","","html-keyboard-response","76","18488049","0.0-61.0-1.0","0","0","QGgHx","People","","1526","","","","68","","","","5","0","10","0","-1","44","39","abstral-official-cyOKLSgkgCE-unsplash.jpg","charles-etoroma-95UF6LXe-Lo-unsplash.jpg","1","1","0","10","","","","","","","","","","","","","","","","","","","","","","","","","","","",""
"","choice_confirmation","","html-keyboard-response","77","18488560","0.0-61.0-2.0-0.0","0","0","QGgHx","People","","null","","","","null","","","","5","0","10","","","","","","","","","","","","","","","","","","","","","","","","","","","","","","","","","","","","","",""
"","fixation","","html-keyboard-response","78","18489568","0.0-62.0-0.0","0","0","QGgHx","People","","null","","","","null","","","","","","","","","","","","","","","","","","","","","","","","","","","","","","","","","","","","","","","","","","","",""
"","deliberation","","html-keyboard-response","79","18491016","0.0-62.0-1.0","0","0","QGgHx","People","","1444","","","","68","","","","6","40","38","1","-1","40","39","prince-akachi-4Yv84VgQkRM-unsplash.jpg","petr-sevcovic-HzDF-rxlSeM-unsplash.jpg","1","1","40","38","","","","","","","","","","","","","","","","","","","","","","","","","","","",""
"","choice_confirmation","","html-keyboard-response","80","18491520","0.0-62.0-2.0-0.0","0","0","QGgHx","People","","null","","","","null","","","","6","40","38","","","","","","","","","","","","","","","","","","","","","","","","","","","","","","","","","","","","","",""
"","explain_trial","","survey-text","81","18530516","0.0-62.0-5.0-0.0","0","0","QGgHx","People","","38991","{""Q0"":""This image presents a like able and friendly individual that is displaying a subtly comical gesture in order to welcome the viewer.""}","","","","","","","6","40","38","","","","","","","","","","","{""Q0"":""This image presents a like able and friendly individual that is displaying a subtly comical gesture in order to welcome the viewer.""}","","","","","","","","","","","","","","","","","","","","","","","","","","",""
"","fixation","","html-keyboard-response","82","18531528","0.0-63.0-0.0","0","0","QGgHx","People","","null","","","","null","","","","","","","","","","","","","","","","","","","","","","","","","","","","","","","","","","","","","","","","","","","",""
"","deliberation","","html-keyboard-response","83","18533156","0.0-63.0-1.0","0","0","QGgHx","People","","1624","","","","68","","","","7","27","22","1","1","40","34","jurica-koletic-7YVZYZeITc8-unsplash.jpg","jessica-radanavong-mrYkTuAesKE-unsplash.jpg","1","1","27","22","","","","","","","","","","","","","","","","","","","","","","","","","","","",""
"","choice_confirmation","","html-keyboard-response","84","18533664","0.0-63.0-2.0-0.0","0","0","QGgHx","People","","null","","","","null","","","","7","27","22","","","","","","","","","","","","","","","","","","","","","","","","","","","","","","","","","","","","","",""
"","explain_trial","","survey-text","85","18566667","0.0-63.0-5.0-0.0","0","0","QGgHx","People","","32998","{""Q0"":""This image provides a close up and high definition shot of the individual captured. The high definition of the individual's face makes for a sharper appeal overall.""}","","","","","","","7","27","22","","","","","","","","","","","{""Q0"":""This image provides a close up and high definition shot of the individual captured. The high definition of the individual's face makes for a sharper appeal overall.""}","","","","","","","","","","","","","","","","","","","","","","","","","","",""
"","fixation","","html-keyboard-response","86","18567672","0.0-64.0-0.0","0","0","QGgHx","People","","null","","","","null","","","","","","","","","","","","","","","","","","","","","","","","","","","","","","","","","","","","","","","","","","","",""
"","deliberation","","html-keyboard-response","87","18569361","0.0-64.0-1.0","0","0","QGgHx","People","","1686","","","","68","","","","8","17","21","0","-1","34","44","gleb-lukomets-paBzWCPN23k-unsplash.jpg","jessica-felicio-_cvwXhGqG-o-unsplash.jpg","1","1","17","21","","","","","","","","","","","","","","","","","","","","","","","","","","","",""
"","choice_confirmation","","html-keyboard-response","88","18569872","0.0-64.0-2.0-0.0","0","0","QGgHx","People","","null","","","","null","","","","8","17","21","","","","","","","","","","","","","","","","","","","","","","","","","","","","","","","","","","","","","",""
"","fixation","","html-keyboard-response","89","18570879","0.0-65.0-0.0","0","0","QGgHx","People","","null","","","","null","","","","","","","","","","","","","","","","","","","","","","","","","","","","","","","","","","","","","","","","","","","",""
"","deliberation","","html-keyboard-response","90","18572181","0.0-65.0-1.0","0","0","QGgHx","People","","1297","","","","75","","","","9","25","24","1","-1","39","42","joseph-gonzalez-iFgRcqHznqg-unsplash.jpg","joel-mott-LaK153ghdig-unsplash.jpg","1","0","24","25","","","","","","","","","","","","","","","","","","","","","","","","","","","",""
"","choice_confirmation","","html-keyboard-response","91","18572688","0.0-65.0-2.0-0.0","0","0","QGgHx","People","","null","","","","null","","","","9","25","24","","","","","","","","","","","","","","","","","","","","","","","","","","","","","","","","","","","","","",""
"","explain_trial","","survey-text","92","18610548","0.0-65.0-5.0-0.0","0","0","QGgHx","People","","37856","{""Q0"":""The background and smile of the individual featured in the image makes the scene appear as though something fun is going on, which captures the attention of the viewer. ""}","","","","","","","9","25","24","","","","","","","","","","","{""Q0"":""The background and smile of the individual featured in the image makes the scene appear as though something fun is going on, which captures the attention of the viewer. ""}","","","","","","","","","","","","","","","","","","","","","","","","","","",""
"","fixation","","html-keyboard-response","93","18611560","0.0-66.0-0.0","0","0","QGgHx","People","","null","","","","null","","","","","","","","","","","","","","","","","","","","","","","","","","","","","","","","","","","","","","","","","","","",""
"","deliberation","","html-keyboard-response","94","18612712","0.0-66.0-1.0","0","0","QGgHx","People","","1148","","","","68","","","","10","32","11","1","-1","33","34","nathan-dumlao-ger61_TX6oI-unsplash.jpg","christian-ferrer-8vT-DgHZDG4-unsplash.jpg","1","1","32","11","","","","","","","","","","","","","","","","","","","","","","","","","","","",""
"","choice_confirmation","","html-keyboard-response","95","18613224","0.0-66.0-2.0-0.0","0","0","QGgHx","People","","null","","","","null","","","","10","32","11","","","","","","","","","","","","","","","","","","","","","","","","","","","","","","","","","","","","","",""
"","explain_trial","","survey-text","96","18665717","0.0-66.0-5.0-0.0","0","0","QGgHx","People","","52488","{""Q0"":""The close-up capture in this image catches the attention of the viewer due to the sharp, but friendly stare exuding from the male subject pictured.""}","","","","","","","10","32","11","","","","","","","","","","","{""Q0"":""The close-up capture in this image catches the attention of the viewer due to the sharp, but friendly stare exuding from the male subject pictured.""}","","","","","","","","","","","","","","","","","","","","","","","","","","",""
"","fixation","","html-keyboard-response","97","18666728","0.0-67.0-0.0","0","0","QGgHx","People","","null","","","","null","","","","","","","","","","","","","","","","","","","","","","","","","","","","","","","","","","","","","","","","","","","",""
"","deliberation","","html-keyboard-response","98","18668222","0.0-67.0-1.0","0","0","QGgHx","People","","1490","","","","68","","","","11","16","19","0","-1","61","35","giano-currie-5-9YOsmf8IQ-unsplash.jpg","ha-nguy-n-OFSQ6bHjFjs-unsplash.jpg","1","1","16","19","","","","","","","","","","","","","","","","","","","","","","","","","","","",""
"","choice_confirmation","","html-keyboard-response","99","18668728","0.0-67.0-2.0-0.0","0","0","QGgHx","People","","null","","","","null","","","","11","16","19","","","","","","","","","","","","","","","","","","","","","","","","","","","","","","","","","","","","","",""
"","practice_deliberation_again","","html-keyboard-response","100","18670641","0.0-67.0-6.0-0.0","0","0","QGgHx","People","","1909","","","","78","","","","","","","","","","","","","","","","","","","","","","","","","","","","","","","","","","","","","","","","","","","",""
"","fixation","","html-keyboard-response","101","18671648","0.0-68.0-0.0","0","0","QGgHx","People","","null","","","","null","","","","","","","","","","","","","","","","","","","","","","","","","","","","","","","","","","","","","","","","","","","",""
"","deliberation","","html-keyboard-response","102","18672471","0.0-68.0-1.0","0","0","QGgHx","People","","818","","","","68","","","","12","16","19","1","-1","61","35","giano-currie-5-9YOsmf8IQ-unsplash.jpg","ha-nguy-n-OFSQ6bHjFjs-unsplash.jpg","2","1","16","19","","","","","","","","","","","","","","","","","","","","","","","","","","","",""
"","choice_confirmation","","html-keyboard-response","103","18672976","0.0-68.0-2.0-0.0","0","0","QGgHx","People","","null","","","","null","","","","12","16","19","","","","","","","","","","","","","","","","","","","","","","","","","","","","","","","","","","","","","",""
"","explain_trial","","survey-text","104","18705401","0.0-68.0-5.0-0.0","0","0","QGgHx","People","","32421","{""Q0"":""The model in the photo has taken the time to prepare her hair and makeup for this capture. Overall, her appearance is professional and visually appealing. ""}","","","","","","","12","16","19","","","","","","","","","","","{""Q0"":""The model in the photo has taken the time to prepare her hair and makeup for this capture. Overall, her appearance is professional and visually appealing. ""}","","","","","","","","","","","","","","","","","","","","","","","","","","",""
"","fixation","","html-keyboard-response","105","18706408","0.0-69.0-0.0","0","0","QGgHx","People","","null","","","","null","","","","","","","","","","","","","","","","","","","","","","","","","","","","","","","","","","","","","","","","","","","",""
"","deliberation","","html-keyboard-response","106","18707699","0.0-69.0-1.0","0","0","QGgHx","People","","1288","","","","75","","","","13","30","3","1","1","34","58","matheus-ferrero-pg_WCHWSdT8-unsplash.jpg","art-hauntington-jzY0KRJopEI-unsplash.jpg","2","0","3","30","","","","","","","","","","","","","","","","","","","","","","","","","","","",""
"","choice_confirmation","","html-keyboard-response","107","18708208","0.0-69.0-2.0-0.0","0","0","QGgHx","People","","null","","","","null","","","","13","30","3","","","","","","","","","","","","","","","","","","","","","","","","","","","","","","","","","","","","","",""
"","explain_trial","","survey-text","108","18760533","0.0-69.0-5.0-0.0","0","0","QGgHx","People","","52321","{""Q0"":""The close up capture provides an emphasis on every feature of the female individual captured in this photo. Overall, this makes for a sharp photo.""}","","","","","","","13","30","3","","","","","","","","","","","{""Q0"":""The close up capture provides an emphasis on every feature of the female individual captured in this photo. Overall, this makes for a sharp photo.""}","","","","","","","","","","","","","","","","","","","","","","","","","","",""
"","fixation","","html-keyboard-response","109","18761544","0.0-70.0-0.0","0","0","QGgHx","People","","null","","","","null","","","","","","","","","","","","","","","","","","","","","","","","","","","","","","","","","","","","","","","","","","","",""
"","deliberation","","html-keyboard-response","110","18762758","0.0-70.0-1.0","0","0","QGgHx","People","","1211","","","","68","","","","14","13","47","1","1","37","35","erik-lucatero-d2MSDujJl2g-unsplash.jpg","tyler-nix-ZGa9d1a_4tA-unsplash.jpg","2","1","13","47","","","","","","","","","","","","","","","","","","","","","","","","","","","",""
"","choice_confirmation","","html-keyboard-response","111","18763264","0.0-70.0-2.0-0.0","0","0","QGgHx","People","","null","","","","null","","","","14","13","47","","","","","","","","","","","","","","","","","","","","","","","","","","","","","","","","","","","","","",""
"","explain_trial","","survey-text","112","18815785","0.0-70.0-5.0-0.0","0","0","QGgHx","People","","52517","{""Q0"":""The blurry background aids in emphasizing the close-up feature of the male individual's curious stare. This basic detail captures the viewers attention towards the stare of the male subject pictured. ""}","","","","","","","14","13","47","","","","","","","","","","","{""Q0"":""The blurry background aids in emphasizing the close-up feature of the male individual's curious stare. This basic detail captures the viewers attention towards the stare of the male subject pictured. ""}","","","","","","","","","","","","","","","","","","","","","","","","","","",""
"","fixation","","html-keyboard-response","113","18816792","0.0-71.0-0.0","0","0","QGgHx","People","","null","","","","null","","","","","","","","","","","","","","","","","","","","","","","","","","","","","","","","","","","","","","","","","","","",""
"","deliberation","","html-keyboard-response","114","18818051","0.0-71.0-1.0","0","0","QGgHx","People","","1254","","","","68","","","","15","12","41","0","1","38","59","daniel-rigdon-dXmXKPP2L4E-unsplash.jpg","prince-akachi-i2hoD-C2RUA-unsplash.jpg","2","1","12","41","","","","","","","","","","","","","","","","","","","","","","","","","","","",""
"","choice_confirmation","","html-keyboard-response","115","18818560","0.0-71.0-2.0-0.0","0","0","QGgHx","People","","null","","","","null","","","","15","12","41","","","","","","","","","","","","","","","","","","","","","","","","","","","","","","","","","","","","","",""
"","fixation","","html-keyboard-response","116","18819568","0.0-72.0-0.0","0","0","QGgHx","People","","null","","","","null","","","","","","","","","","","","","","","","","","","","","","","","","","","","","","","","","","","","","","","","","","","",""
"","deliberation","","html-keyboard-response","117","18820445","0.0-72.0-1.0","0","0","QGgHx","People","","874","","","","68","","","","16","27","22","0","1","40","34","jurica-koletic-7YVZYZeITc8-unsplash.jpg","jessica-radanavong-mrYkTuAesKE-unsplash.jpg","2","1","27","22","","","","","","","","","","","","","","","","","","","","","","","","","","","",""
"","choice_confirmation","","html-keyboard-response","118","18820952","0.0-72.0-2.0-0.0","0","0","QGgHx","People","","null","","","","null","","","","16","27","22","","","","","","","","","","","","","","","","","","","","","","","","","","","","","","","","","","","","","",""
"","fixation","","html-keyboard-response","119","18821960","0.0-73.0-0.0","0","0","QGgHx","People","","null","","","","null","","","","","","","","","","","","","","","","","","","","","","","","","","","","","","","","","","","","","","","","","","","",""
"","deliberation","","html-keyboard-response","120","18822920","0.0-73.0-1.0","0","0","QGgHx","People","","957","","","","68","","","","17","17","21","1","-1","34","44","gleb-lukomets-paBzWCPN23k-unsplash.jpg","jessica-felicio-_cvwXhGqG-o-unsplash.jpg","2","1","17","21","","","","","","","","","","","","","","","","","","","","","","","","","","","",""
"","choice_confirmation","","html-keyboard-response","121","18823432","0.0-73.0-2.0-0.0","0","0","QGgHx","People","","null","","","","null","","","","17","17","21","","","","","","","","","","","","","","","","","","","","","","","","","","","","","","","","","","","","","",""
"","explain_trial","","survey-text","122","18848680","0.0-73.0-5.0-0.0","0","0","QGgHx","People","","25243","{""Q0"":""There is a certain essence of antiquity that is present in the scene of this photo which makes it appear as a classic. ""}","","","","","","","17","17","21","","","","","","","","","","","{""Q0"":""There is a certain essence of antiquity that is present in the scene of this photo which makes it appear as a classic. ""}","","","","","","","","","","","","","","","","","","","","","","","","","","",""
"","fixation","","html-keyboard-response","123","18849688","0.0-74.0-0.0","0","0","QGgHx","People","","null","","","","null","","","","","","","","","","","","","","","","","","","","","","","","","","","","","","","","","","","","","","","","","","","",""
"","deliberation","","html-keyboard-response","124","18850619","0.0-74.0-1.0","0","0","QGgHx","People","","928","","","","68","","","","18","40","38","0","-1","40","39","prince-akachi-4Yv84VgQkRM-unsplash.jpg","petr-sevcovic-HzDF-rxlSeM-unsplash.jpg","2","1","40","38","","","","","","","","","","","","","","","","","","","","","","","","","","","",""
"","choice_confirmation","","html-keyboard-response","125","18851128","0.0-74.0-2.0-0.0","0","0","QGgHx","People","","null","","","","null","","","","18","40","38","","","","","","","","","","","","","","","","","","","","","","","","","","","","","","","","","","","","","",""
"","fixation","","html-keyboard-response","126","18852135","0.0-75.0-0.0","0","0","QGgHx","People","","null","","","","null","","","","","","","","","","","","","","","","","","","","","","","","","","","","","","","","","","","","","","","","","","","",""
"","deliberation","","html-keyboard-response","127","18853013","0.0-75.0-1.0","0","0","QGgHx","People","","874","","","","75","","","","19","25","24","0","-1","39","42","joseph-gonzalez-iFgRcqHznqg-unsplash.jpg","joel-mott-LaK153ghdig-unsplash.jpg","2","0","24","25","","","","","","","","","","","","","","","","","","","","","","","","","","","",""
"","choice_confirmation","","html-keyboard-response","128","18853520","0.0-75.0-2.0-0.0","0","0","QGgHx","People","","null","","","","null","","","","19","25","24","","","","","","","","","","","","","","","","","","","","","","","","","","","","","","","","","","","","","",""
"","fixation","","html-keyboard-response","129","18854528","0.0-76.0-0.0","0","0","QGgHx","People","","null","","","","null","","","","","","","","","","","","","","","","","","","","","","","","","","","","","","","","","","","","","","","","","","","",""
"","deliberation","","html-keyboard-response","130","18855750","0.0-76.0-1.0","0","0","QGgHx","People","","1219","","","","68","","","","20","0","10","1","-1","44","39","abstral-official-cyOKLSgkgCE-unsplash.jpg","charles-etoroma-95UF6LXe-Lo-unsplash.jpg","2","1","0","10","","","","","","","","","","","","","","","","","","","","","","","","","","","",""
"","choice_confirmation","","html-keyboard-response","131","18856255","0.0-76.0-2.0-0.0","0","0","QGgHx","People","","null","","","","null","","","","20","0","10","","","","","","","","","","","","","","","","","","","","","","","","","","","","","","","","","","","","","",""
"","explain_trial","","survey-text","132","18898667","0.0-76.0-5.0-0.0","0","0","QGgHx","People","","42407","{""Q0"":""This image provides a close-up of the general facial expression of the older male individual that represents the elderly general public population.""}","","","","","","","20","0","10","","","","","","","","","","","{""Q0"":""This image provides a close-up of the general facial expression of the older male individual that represents the elderly general public population.""}","","","","","","","","","","","","","","","","","","","","","","","","","","",""
"","fixation","","html-keyboard-response","133","18899679","0.0-77.0-0.0","0","0","QGgHx","People","","null","","","","null","","","","","","","","","","","","","","","","","","","","","","","","","","","","","","","","","","","","","","","","","","","",""
"","deliberation","","html-keyboard-response","134","18900881","0.0-77.0-1.0","0","0","QGgHx","People","","1197","","","","68","","","","21","23","9","1","1","40","36","joanna-nix-walkup-H4fEMshfwTE-unsplash.jpg","carlos-andres-gomez-vJuk8Y86mRw-unsplash.jpg","2","1","23","9","","","","","","","","","","","","","","","","","","","","","","","","","","","",""
"","choice_confirmation","","html-keyboard-response","135","18901392","0.0-77.0-2.0-0.0","0","0","QGgHx","People","","null","","","","null","","","","21","23","9","","","","","","","","","","","","","","","","","","","","","","","","","","","","","","","","","","","","","",""
"","explain_trial","","survey-text","136","18956127","0.0-77.0-5.0-0.0","0","0","QGgHx","People","","54730","{""Q0"":""The female individual pictured is posing in such a way that is gripping through her curious stare. The background of the image is also subtly blurred in order to bring more emphasized attention towards the woman's expression.""}","","","","","","","21","23","9","","","","","","","","","","","{""Q0"":""The female individual pictured is posing in such a way that is gripping through her curious stare. The background of the image is also subtly blurred in order to bring more emphasized attention towards the woman's expression.""}","","","","","","","","","","","","","","","","","","","","","","","","","","",""
"","fixation","","html-keyboard-response","137","18957136","0.0-78.0-0.0","0","0","QGgHx","People","","null","","","","null","","","","","","","","","","","","","","","","","","","","","","","","","","","","","","","","","","","","","","","","","","","",""
"","deliberation","","html-keyboard-response","138","18958407","0.0-78.0-1.0","0","0","QGgHx","People","","1266","","","","68","","","","22","15","39","0","1","39","60","gabriel-silverio-u3WmDyKGsrY-unsplash.jpg","philip-martin-5aGUyCW_PJw-unsplash.jpg","2","1","15","39","","","","","","","","","","","","","","","","","","","","","","","","","","","",""
"","choice_confirmation","","html-keyboard-response","139","18958912","0.0-78.0-2.0-0.0","0","0","QGgHx","People","","null","","","","null","","","","22","15","39","","","","","","","","","","","","","","","","","","","","","","","","","","","","","","","","","","","","","",""
"","fixation","","html-keyboard-response","140","18959920","0.0-79.0-0.0","0","0","QGgHx","People","","null","","","","null","","","","","","","","","","","","","","","","","","","","","","","","","","","","","","","","","","","","","","","","","","","",""
"","deliberation","","html-keyboard-response","141","18960651","0.0-79.0-1.0","0","0","QGgHx","People","","727","","","","68","","","","23","32","11","0","-1","33","34","nathan-dumlao-ger61_TX6oI-unsplash.jpg","christian-ferrer-8vT-DgHZDG4-unsplash.jpg","2","1","32","11","","","","","","","","","","","","","","","","","","","","","","","","","","","",""
"","choice_confirmation","","html-keyboard-response","142","18961160","0.0-79.0-2.0-0.0","0","0","QGgHx","People","","null","","","","null","","","","23","32","11","","","","","","","","","","","","","","","","","","","","","","","","","","","","","","","","","","","","","",""
"","start_critical_deliberation_block","","html-keyboard-response","143","18962423","0.0-79.0-7.0-0.0","0","0","QGgHx","People","","1260","","","","78","","","","","","","","","","","","","","","","","","","","","","","","","","","","","","","","","","","","","","","","","","","",""
"","fixation","","html-keyboard-response","144","18963432","0.0-80.0-0.0","0","0","QGgHx","People","","null","","","","null","","","","","","","","","","","","","","","","","","","","","","","","","","","","","","","","","","","","","","","","","","","",""
"","deliberation","","html-keyboard-response","145","18964044","0.0-80.0-1.0","0","0","QGgHx","People","","608","","","","68","","","","24","32","11","0","-1","33","34","nathan-dumlao-ger61_TX6oI-unsplash.jpg","christian-ferrer-8vT-DgHZDG4-unsplash.jpg","3","1","32","11","","","","","","","","","","","","","","","","","","","","","","","","","","","",""
"","choice_confirmation","","html-keyboard-response","146","18964560","0.0-80.0-2.0-0.0","0","0","QGgHx","People","","null","","","","null","","","","24","32","11","","","","","","","","","","","","","","","","","","","","","","","","","","","","","","","","","","","","","",""
"","fixation","","html-keyboard-response","147","18965568","0.0-81.0-0.0","0","0","QGgHx","People","","null","","","","null","","","","","","","","","","","","","","","","","","","","","","","","","","","","","","","","","","","","","","","","","","","",""
"","deliberation","","html-keyboard-response","148","18966193","0.0-81.0-1.0","0","0","QGgHx","People","","622","","","","68","","","","25","40","38","0","-1","40","39","prince-akachi-4Yv84VgQkRM-unsplash.jpg","petr-sevcovic-HzDF-rxlSeM-unsplash.jpg","3","1","40","38","","","","","","","","","","","","","","","","","","","","","","","","","","","",""
"","choice_confirmation","","html-keyboard-response","149","18966704","0.0-81.0-2.0-0.0","0","0","QGgHx","People","","null","","","","null","","","","25","40","38","","","","","","","","","","","","","","","","","","","","","","","","","","","","","","","","","","","","","",""
"","fixation","","html-keyboard-response","150","18967712","0.0-82.0-0.0","0","0","QGgHx","People","","null","","","","null","","","","","","","","","","","","","","","","","","","","","","","","","","","","","","","","","","","","","","","","","","","",""
"","deliberation","","html-keyboard-response","151","18968400","0.0-82.0-1.0","0","0","QGgHx","People","","685","","","","68","","","","26","27","22","0","1","40","34","jurica-koletic-7YVZYZeITc8-unsplash.jpg","jessica-radanavong-mrYkTuAesKE-unsplash.jpg","3","1","27","22","","","","","","","","","","","","","","","","","","","","","","","","","","","",""
"","choice_confirmation","","html-keyboard-response","152","18968912","0.0-82.0-2.0-0.0","0","0","QGgHx","People","","null","","","","null","","","","26","27","22","","","","","","","","","","","","","","","","","","","","","","","","","","","","","","","","","","","","","",""
"","fixation","","html-keyboard-response","153","18969920","0.0-83.0-0.0","0","0","QGgHx","People","","null","","","","null","","","","","","","","","","","","","","","","","","","","","","","","","","","","","","","","","","","","","","","","","","","",""
"","deliberation","","html-keyboard-response","154","18970597","0.0-83.0-1.0","0","0","QGgHx","People","","674","","","","68","","","","27","13","47","0","1","37","35","erik-lucatero-d2MSDujJl2g-unsplash.jpg","tyler-nix-ZGa9d1a_4tA-unsplash.jpg","3","1","13","47","","","","","","","","","","","","","","","","","","","","","","","","","","","",""
"","choice_confirmation","","html-keyboard-response","155","18971104","0.0-83.0-2.0-0.0","0","0","QGgHx","People","","null","","","","null","","","","27","13","47","","","","","","","","","","","","","","","","","","","","","","","","","","","","","","","","","","","","","",""
"","fixation","","html-keyboard-response","156","18972112","0.0-84.0-0.0","0","0","QGgHx","People","","null","","","","null","","","","","","","","","","","","","","","","","","","","","","","","","","","","","","","","","","","","","","","","","","","",""
"","deliberation","","html-keyboard-response","157","18972663","0.0-84.0-1.0","0","0","QGgHx","People","","547","","","","68","","","","28","23","9","0","1","40","36","joanna-nix-walkup-H4fEMshfwTE-unsplash.jpg","carlos-andres-gomez-vJuk8Y86mRw-unsplash.jpg","3","1","23","9","","","","","","","","","","","","","","","","","","","","","","","","","","","",""
"","choice_confirmation","","html-keyboard-response","158","18973168","0.0-84.0-2.0-0.0","0","0","QGgHx","People","","null","","","","null","","","","28","23","9","","","","","","","","","","","","","","","","","","","","","","","","","","","","","","","","","","","","","",""
"","fixation","","html-keyboard-response","159","18974176","0.0-85.0-0.0","0","0","QGgHx","People","","null","","","","null","","","","","","","","","","","","","","","","","","","","","","","","","","","","","","","","","","","","","","","","","","","",""
"","deliberation","","html-keyboard-response","160","18974806","0.0-85.0-1.0","0","0","QGgHx","People","","626","","","","68","","","","29","16","19","0","-1","61","35","giano-currie-5-9YOsmf8IQ-unsplash.jpg","ha-nguy-n-OFSQ6bHjFjs-unsplash.jpg","3","1","16","19","","","","","","","","","","","","","","","","","","","","","","","","","","","",""
"","choice_confirmation","","html-keyboard-response","161","18975312","0.0-85.0-2.0-0.0","0","0","QGgHx","People","","null","","","","null","","","","29","16","19","","","","","","","","","","","","","","","","","","","","","","","","","","","","","","","","","","","","","",""
"","fixation","","html-keyboard-response","162","18976320","0.0-86.0-0.0","0","0","QGgHx","People","","null","","","","null","","","","","","","","","","","","","","","","","","","","","","","","","","","","","","","","","","","","","","","","","","","",""
"","deliberation","","html-keyboard-response","163","18977052","0.0-86.0-1.0","0","0","QGgHx","People","","728","","","","68","","","","30","17","21","0","-1","34","44","gleb-lukomets-paBzWCPN23k-unsplash.jpg","jessica-felicio-_cvwXhGqG-o-unsplash.jpg","3","1","17","21","","","","","","","","","","","","","","","","","","","","","","","","","","","",""
"","choice_confirmation","","html-keyboard-response","164","18977560","0.0-86.0-2.0-0.0","0","0","QGgHx","People","","null","","","","null","","","","30","17","21","","","","","","","","","","","","","","","","","","","","","","","","","","","","","","","","","","","","","",""
"","fixation","","html-keyboard-response","165","18978568","0.0-87.0-0.0","0","0","QGgHx","People","","null","","","","null","","","","","","","","","","","","","","","","","","","","","","","","","","","","","","","","","","","","","","","","","","","",""
"","deliberation","","html-keyboard-response","166","18979257","0.0-87.0-1.0","0","0","QGgHx","People","","686","","","","68","","","","31","15","39","0","1","39","60","gabriel-silverio-u3WmDyKGsrY-unsplash.jpg","philip-martin-5aGUyCW_PJw-unsplash.jpg","3","1","15","39","","","","","","","","","","","","","","","","","","","","","","","","","","","",""
"","choice_confirmation","","html-keyboard-response","167","18979767","0.0-87.0-2.0-0.0","0","0","QGgHx","People","","null","","","","null","","","","31","15","39","","","","","","","","","","","","","","","","","","","","","","","","","","","","","","","","","","","","","",""
"","fixation","","html-keyboard-response","168","18980776","0.0-88.0-0.0","0","0","QGgHx","People","","null","","","","null","","","","","","","","","","","","","","","","","","","","","","","","","","","","","","","","","","","","","","","","","","","",""
"","deliberation","","html-keyboard-response","169","18981389","0.0-88.0-1.0","0","0","QGgHx","People","","610","","","","68","","","","32","12","41","0","1","38","59","daniel-rigdon-dXmXKPP2L4E-unsplash.jpg","prince-akachi-i2hoD-C2RUA-unsplash.jpg","3","1","12","41","","","","","","","","","","","","","","","","","","","","","","","","","","","",""
"","choice_confirmation","","html-keyboard-response","170","18981896","0.0-88.0-2.0-0.0","0","0","QGgHx","People","","null","","","","null","","","","32","12","41","","","","","","","","","","","","","","","","","","","","","","","","","","","","","","","","","","","","","",""
"","fixation","","html-keyboard-response","171","18982903","0.0-89.0-0.0","0","0","QGgHx","People","","null","","","","null","","","","","","","","","","","","","","","","","","","","","","","","","","","","","","","","","","","","","","","","","","","",""
"","deliberation","","html-keyboard-response","172","18983780","0.0-89.0-1.0","0","0","QGgHx","People","","874","","","","68","","","","33","0","10","0","-1","44","39","abstral-official-cyOKLSgkgCE-unsplash.jpg","charles-etoroma-95UF6LXe-Lo-unsplash.jpg","3","1","0","10","","","","","","","","","","","","","","","","","","","","","","","","","","","",""
"","choice_confirmation","","html-keyboard-response","173","18984288","0.0-89.0-2.0-0.0","0","0","QGgHx","People","","null","","","","null","","","","33","0","10","","","","","","","","","","","","","","","","","","","","","","","","","","","","","","","","","","","","","",""
"","fixation","","html-keyboard-response","174","18985296","0.0-90.0-0.0","0","0","QGgHx","People","","null","","","","null","","","","","","","","","","","","","","","","","","","","","","","","","","","","","","","","","","","","","","","","","","","",""
"","deliberation","","html-keyboard-response","175","18986299","0.0-90.0-1.0","0","0","QGgHx","People","","1000","","","","75","","","","34","30","3","0","1","34","58","matheus-ferrero-pg_WCHWSdT8-unsplash.jpg","art-hauntington-jzY0KRJopEI-unsplash.jpg","3","0","3","30","","","","","","","","","","","","","","","","","","","","","","","","","","","",""
"","choice_confirmation","","html-keyboard-response","176","18986807","0.0-90.0-2.0-0.0","0","0","QGgHx","People","","null","","","","null","","","","34","30","3","","","","","","","","","","","","","","","","","","","","","","","","","","","","","","","","","","","","","",""
"","fixation","","html-keyboard-response","177","18987815","0.0-91.0-0.0","0","0","QGgHx","People","","null","","","","null","","","","","","","","","","","","","","","","","","","","","","","","","","","","","","","","","","","","","","","","","","","",""
"","deliberation","","html-keyboard-response","178","18988786","0.0-91.0-1.0","0","0","QGgHx","People","","968","","","","75","","","","35","25","24","0","-1","39","42","joseph-gonzalez-iFgRcqHznqg-unsplash.jpg","joel-mott-LaK153ghdig-unsplash.jpg","3","0","24","25","","","","","","","","","","","","","","","","","","","","","","","","","","","",""
"","choice_confirmation","","html-keyboard-response","179","18989303","0.0-91.0-2.0-0.0","0","0","QGgHx","People","","null","","","","null","","","","35","25","24","","","","","","","","","","","","","","","","","","","","","","","","","","","","","","","","","","","","","",""
"","reward_learning_instructions","","instructions","180","19040933","0.0-92.0-0.0","0","0","QGgHx","People","[{""page_index"":0,""viewing_time"":11819},{""page_index"":1,""viewing_time"":13507},{""page_index"":0,""viewing_time"":8315},{""page_index"":1,""viewing_time"":16423},{""page_index"":2,""viewing_time"":1563}]","51628","","","","","","","","","","","","","","","","","","","","","","","","","","","","","","","","","","","","","","","","","","","","","","","",""
"","","","survey-multi-choice","181","19055486","0.0-92.0-1.0","0","0","QGgHx","People","","14544","{""Q0"":""True"",""Q1"":""True"",""Q2"":""Press the space bar to see its outcome"",""Q3"":""Press the relevant key while the outcome is presented""}","reward_comprehension_check","0","","","","","","","","","","","","","","","","","","","","","","","","","","","","","","","","","","","","","","","","","","","","",""
"","start_phase","","html-keyboard-response","182","19057236","0.0-93.0","0","0","QGgHx","People","","1745","","","","78","","","","","","","","","","","","","","","","","","","","","","","","","","","","","","","","","","","","","","","","","","","",""
"","fixation","","html-keyboard-response","183","19058240","0.0-94.0","0","0","QGgHx","People","","null","","","","null","","","","","","","","","","","","","","","","","","","","","","","","","","","","","","","","","","","","","","","","","","","",""
"","see_reward","","html-keyboard-response","184","19058946","0.0-95.0","0","0","QGgHx","People","","700","","","","32","","24","","0","","","","-1","","","","","1","","","","","0","700","","","","","","","","","","","","","","","","","","","","","","","","",""
"","reward_outcome","","html-keyboard-response","185","19060952","0.0-96.0","0","0","QGgHx","People","","1164","","","","40","","24","","0","","","","","","","","","","","","","","","","-1","1164","","","","","","","","","","","","","","","","","","","","","","",""
"","fixation","","html-keyboard-response","186","19061960","0.0-99.0","0","0","QGgHx","People","","null","","","","null","","","","","","","","","","","","","","","","","","","","","","","","","","","","","","","","","","","","","","","","","","","",""
"","see_reward","","html-keyboard-response","187","19062493","0.0-100.0","0","0","QGgHx","People","","530","","","","32","","0","","1","","","","-1","","","","","1","","","","","0","530","","","","","","","","","","","","","","","","","","","","","","","","",""
"","reward_outcome","","html-keyboard-response","188","19064504","0.0-101.0","0","0","QGgHx","People","","791","","","","40","","0","","1","","","","","","","","","","","","","","","","-1","791","","","","","","","","","","","","","","","","","","","","","","",""
"","fixation","","html-keyboard-response","189","19065512","0.0-104.0","0","0","QGgHx","People","","null","","","","null","","","","","","","","","","","","","","","","","","","","","","","","","","","","","","","","","","","","","","","","","","","",""
"","see_reward","","html-keyboard-response","190","19066149","0.0-105.0","0","0","QGgHx","People","","633","","","","32","","24","","2","","","","-1","","","","","1","","","","","0","633","","","","","","","","","","","","","","","","","","","","","","","","",""
"","reward_outcome","","html-keyboard-response","191","19068160","0.0-106.0","0","0","QGgHx","People","","855","","","","40","","24","","2","","","","","","","","","","","","","","","","-1","855","","","","","","","","","","","","","","","","","","","","","","",""
"","fixation","","html-keyboard-response","192","19069168","0.0-109.0","0","0","QGgHx","People","","null","","","","null","","","","","","","","","","","","","","","","","","","","","","","","","","","","","","","","","","","","","","","","","","","",""
"","see_reward","","html-keyboard-response","193","19069800","0.0-110.0","0","0","QGgHx","People","","629","","","","32","","15","","3","","","","1","","","","","1","","","","","150","629","","","","","","","","","","","","","","","","","","","","","","","","",""
"","reward_outcome","","html-keyboard-response","194","19071808","0.0-111.0","0","0","QGgHx","People","","1115","","","","38","","15","","3","","","","","","","","","","","","","","","","1","1115","","","","","","","","","","","","","","","","","","","","","","",""
"","fixation","","html-keyboard-response","195","19072815","0.0-114.0","0","0","QGgHx","People","","null","","","","null","","","","","","","","","","","","","","","","","","","","","","","","","","","","","","","","","","","","","","","","","","","",""
"","see_reward","","html-keyboard-response","196","19074116","0.0-115.0","0","0","QGgHx","People","","1297","","","","32","","13","","4","","","","1","","","","","1","","","","","158","1297","","","","","","","","","","","","","","","","","","","","","","","","",""
"","reward_outcome","","html-keyboard-response","197","19076128","0.0-116.0","0","0","QGgHx","People","","1087","","","","38","","13","","4","","","","","","","","","","","","","","","","1","1087","","","","","","","","","","","","","","","","","","","","","","",""
"","fixation","","html-keyboard-response","198","19077136","0.0-119.0","0","0","QGgHx","People","","null","","","","null","","","","","","","","","","","","","","","","","","","","","","","","","","","","","","","","","","","","","","","","","","","",""
"","see_reward","","html-keyboard-response","199","19077901","0.0-120.0","0","0","QGgHx","People","","761","","","","32","","12","","5","","","","1","","","","","1","","","","","145","761","","","","","","","","","","","","","","","","","","","","","","","","",""
"","reward_outcome","","html-keyboard-response","200","19079912","0.0-121.0","0","0","QGgHx","People","","905","","","","38","","12","","5","","","","","","","","","","","","","","","","1","905","","","","","","","","","","","","","","","","","","","","","","",""
"","fixation","","html-keyboard-response","201","19080920","0.0-124.0","0","0","QGgHx","People","","null","","","","null","","","","","","","","","","","","","","","","","","","","","","","","","","","","","","","","","","","","","","","","","","","",""
"","see_reward","","html-keyboard-response","202","19081683","0.0-125.0","0","0","QGgHx","People","","759","","","","32","","40","","6","","","","-1","","","","","1","","","","","0","759","","","","","","","","","","","","","","","","","","","","","","","","",""
"","reward_outcome","","html-keyboard-response","203","19083688","0.0-126.0","0","0","QGgHx","People","","770","","","","40","","40","","6","","","","","","","","","","","","","","","","-1","770","","","","","","","","","","","","","","","","","","","","","","",""
"","fixation","","html-keyboard-response","204","19084696","0.0-129.0","0","0","QGgHx","People","","null","","","","null","","","","","","","","","","","","","","","","","","","","","","","","","","","","","","","","","","","","","","","","","","","",""
"","see_reward","","html-keyboard-response","205","19085461","0.0-130.0","0","0","QGgHx","People","","761","","","","32","","27","","7","","","","1","","","","","1","","","","","160","761","","","","","","","","","","","","","","","","","","","","","","","","",""
"","reward_outcome","","html-keyboard-response","206","19087472","0.0-131.0","0","0","QGgHx","People","","735","","","","38","","27","","7","","","","","","","","","","","","","","","","1","735","","","","","","","","","","","","","","","","","","","","","","",""
"","fixation","","html-keyboard-response","207","19088480","0.0-134.0","0","0","QGgHx","People","","null","","","","null","","","","","","","","","","","","","","","","","","","","","","","","","","","","","","","","","","","","","","","","","","","",""
"","see_reward","","html-keyboard-response","208","19089091","0.0-135.0","0","0","QGgHx","People","","607","","","","32","","23","","8","","","","1","","","","","1","","","","","148","607","","","","","","","","","","","","","","","","","","","","","","","","",""
"","reward_outcome","","html-keyboard-response","209","19091096","0.0-136.0","0","0","QGgHx","People","","830","","","","38","","23","","8","","","","","","","","","","","","","","","","1","830","","","","","","","","","","","","","","","","","","","","","","",""
"","fixation","","html-keyboard-response","210","19092103","0.0-139.0","0","0","QGgHx","People","","null","","","","null","","","","","","","","","","","","","","","","","","","","","","","","","","","","","","","","","","","","","","","","","","","",""
"","see_reward","","html-keyboard-response","211","19092987","0.0-140.0","0","0","QGgHx","People","","880","","","","32","","0","","9","","","","-1","","","","","1","","","","","0","880","","","","","","","","","","","","","","","","","","","","","","","","",""
"","reward_outcome","","html-keyboard-response","212","19094992","0.0-141.0","0","0","QGgHx","People","","639","","","","40","","0","","9","","","","","","","","","","","","","","","","-1","639","","","","","","","","","","","","","","","","","","","","","","",""
"","fixation","","html-keyboard-response","213","19096000","0.0-144.0","0","0","QGgHx","People","","null","","","","null","","","","","","","","","","","","","","","","","","","","","","","","","","","","","","","","","","","","","","","","","","","",""
"","see_reward","","html-keyboard-response","214","19096798","0.0-145.0","0","0","QGgHx","People","","795","","","","32","","15","","10","","","","1","","","","","1","","","","","150","795","","","","","","","","","","","","","","","","","","","","","","","","",""
"","reward_outcome","","html-keyboard-response","215","19098808","0.0-146.0","0","0","QGgHx","People","","709","","","","38","","15","","10","","","","","","","","","","","","","","","","1","709","","","","","","","","","","","","","","","","","","","","","","",""
"","fixation","","html-keyboard-response","216","19099816","0.0-149.0","0","0","QGgHx","People","","null","","","","null","","","","","","","","","","","","","","","","","","","","","","","","","","","","","","","","","","","","","","","","","","","",""
"","see_reward","","html-keyboard-response","217","19100429","0.0-150.0","0","0","QGgHx","People","","610","","","","32","","12","","11","","","","1","","","","","1","","","","","145","610","","","","","","","","","","","","","","","","","","","","","","","","",""
"","reward_outcome","","html-keyboard-response","218","19102440","0.0-151.0","0","0","QGgHx","People","","599","","","","38","","12","","11","","","","","","","","","","","","","","","","1","599","","","","","","","","","","","","","","","","","","","","","","",""
"","fixation","","html-keyboard-response","219","19103448","0.0-154.0","0","0","QGgHx","People","","null","","","","null","","","","","","","","","","","","","","","","","","","","","","","","","","","","","","","","","","","","","","","","","","","",""
"","see_reward","","html-keyboard-response","220","19104096","0.0-155.0","0","0","QGgHx","People","","645","","","","32","","3","","12","","","","1","","","","","1","","","","","157","645","","","","","","","","","","","","","","","","","","","","","","","","",""
"","reward_outcome","","html-keyboard-response","221","19106104","0.0-156.0","0","0","QGgHx","People","","534","","","","38","","3","","12","","","","","","","","","","","","","","","","1","534","","","","","","","","","","","","","","","","","","","","","","",""
"","fixation","","html-keyboard-response","222","19107112","0.0-159.0","0","0","QGgHx","People","","null","","","","null","","","","","","","","","","","","","","","","","","","","","","","","","","","","","","","","","","","","","","","","","","","",""
"","see_reward","","html-keyboard-response","223","19107803","0.0-160.0","0","0","QGgHx","People","","687","","","","32","","40","","13","","","","-1","","","","","1","","","","","0","687","","","","","","","","","","","","","","","","","","","","","","","","",""
"","reward_outcome","","html-keyboard-response","224","19109808","0.0-161.0","0","0","QGgHx","People","","762","","","","40","","40","","13","","","","","","","","","","","","","","","","-1","762","","","","","","","","","","","","","","","","","","","","","","",""
"","fixation","","html-keyboard-response","225","19110816","0.0-164.0","0","0","QGgHx","People","","null","","","","null","","","","","","","","","","","","","","","","","","","","","","","","","","","","","","","","","","","","","","","","","","","",""
"","see_reward","","html-keyboard-response","226","19111378","0.0-165.0","0","0","QGgHx","People","","559","","","","32","","16","","14","","","","-1","","","","","1","","","","","0","559","","","","","","","","","","","","","","","","","","","","","","","","",""
"","reward_outcome","","html-keyboard-response","227","19113384","0.0-166.0","0","0","QGgHx","People","","716","","","","40","","16","","14","","","","","","","","","","","","","","","","-1","716","","","","","","","","","","","","","","","","","","","","","","",""
"","fixation","","html-keyboard-response","228","19114392","0.0-169.0","0","0","QGgHx","People","","null","","","","null","","","","","","","","","","","","","","","","","","","","","","","","","","","","","","","","","","","","","","","","","","","",""
"","see_reward","","html-keyboard-response","229","19114895","0.0-170.0","0","0","QGgHx","People","","500","","","","32","","17","","15","","","","-1","","","","","1","","","","","0","500","","","","","","","","","","","","","","","","","","","","","","","","",""
"","reward_outcome","","html-keyboard-response","230","19116904","0.0-171.0","0","0","QGgHx","People","","729","","","","40","","17","","15","","","","","","","","","","","","","","","","-1","729","","","","","","","","","","","","","","","","","","","","","","",""
"","fixation","","html-keyboard-response","231","19117912","0.0-174.0","0","0","QGgHx","People","","null","","","","null","","","","","","","","","","","","","","","","","","","","","","","","","","","","","","","","","","","","","","","","","","","",""
"","see_reward","","html-keyboard-response","232","19118610","0.0-175.0","0","0","QGgHx","People","","695","","","","32","","3","","16","","","","1","","","","","1","","","","","157","695","","","","","","","","","","","","","","","","","","","","","","","","",""
"","reward_outcome","","html-keyboard-response","233","19120616","0.0-176.0","0","0","QGgHx","People","","836","","","","38","","3","","16","","","","","","","","","","","","","","","","1","836","","","","","","","","","","","","","","","","","","","","","","",""
"","fixation","","html-keyboard-response","234","19121624","0.0-179.0","0","0","QGgHx","People","","null","","","","null","","","","","","","","","","","","","","","","","","","","","","","","","","","","","","","","","","","","","","","","","","","",""
"","see_reward","","html-keyboard-response","235","19122164","0.0-180.0","0","0","QGgHx","People","","536","","","","32","","23","","17","","","","1","","","","","1","","","","","148","536","","","","","","","","","","","","","","","","","","","","","","","","",""
"","reward_outcome","","html-keyboard-response","236","19124168","0.0-181.0","0","0","QGgHx","People","","620","","","","38","","23","","17","","","","","","","","","","","","","","","","1","620","","","","","","","","","","","","","","","","","","","","","","",""
"","fixation","","html-keyboard-response","237","19125176","0.0-184.0","0","0","QGgHx","People","","null","","","","null","","","","","","","","","","","","","","","","","","","","","","","","","","","","","","","","","","","","","","","","","","","",""
"","see_reward","","html-keyboard-response","238","19125846","0.0-185.0","0","0","QGgHx","People","","667","","","","32","","32","","18","","","","-1","","","","","1","","","","","0","667","","","","","","","","","","","","","","","","","","","","","","","","",""
"","reward_outcome","","html-keyboard-response","239","19127856","0.0-186.0","0","0","QGgHx","People","","671","","","","40","","32","","18","","","","","","","","","","","","","","","","-1","671","","","","","","","","","","","","","","","","","","","","","","",""
"","fixation","","html-keyboard-response","240","19128864","0.0-189.0","0","0","QGgHx","People","","null","","","","null","","","","","","","","","","","","","","","","","","","","","","","","","","","","","","","","","","","","","","","","","","","",""
"","see_reward","","html-keyboard-response","241","19129434","0.0-190.0","0","0","QGgHx","People","","566","","","","32","","16","","19","","","","-1","","","","","1","","","","","0","566","","","","","","","","","","","","","","","","","","","","","","","","",""
"","reward_outcome","","html-keyboard-response","242","19131440","0.0-191.0","0","0","QGgHx","People","","384","","","","40","","16","","19","","","","","","","","","","","","","","","","-1","384","","","","","","","","","","","","","","","","","","","","","","",""
"","fixation","","html-keyboard-response","243","19132448","0.0-194.0","0","0","QGgHx","People","","null","","","","null","","","","","","","","","","","","","","","","","","","","","","","","","","","","","","","","","","","","","","","","","","","",""
"","see_reward","","html-keyboard-response","244","19133105","0.0-195.0","0","0","QGgHx","People","","654","","","","32","","13","","20","","","","1","","","","","1","","","","","158","654","","","","","","","","","","","","","","","","","","","","","","","","",""
"","reward_outcome","","html-keyboard-response","245","19135112","0.0-196.0","0","0","QGgHx","People","","793","","","","38","","13","","20","","","","","","","","","","","","","","","","1","793","","","","","","","","","","","","","","","","","","","","","","",""
"","fixation","","html-keyboard-response","246","19136120","0.0-199.0","0","0","QGgHx","People","","null","","","","null","","","","","","","","","","","","","","","","","","","","","","","","","","","","","","","","","","","","","","","","","","","",""
"","see_reward","","html-keyboard-response","247","19136664","0.0-200.0","0","0","QGgHx","People","","540","","","","32","","17","","21","","","","-1","","","","","1","","","","","0","540","","","","","","","","","","","","","","","","","","","","","","","","",""
"","reward_outcome","","html-keyboard-response","248","19138672","0.0-201.0","0","0","QGgHx","People","","528","","","","40","","17","","21","","","","","","","","","","","","","","","","-1","528","","","","","","","","","","","","","","","","","","","","","","",""
"","fixation","","html-keyboard-response","249","19139680","0.0-204.0","0","0","QGgHx","People","","null","","","","null","","","","","","","","","","","","","","","","","","","","","","","","","","","","","","","","","","","","","","","","","","","",""
"","see_reward","","html-keyboard-response","250","19140313","0.0-205.0","0","0","QGgHx","People","","629","","","","32","","27","","22","","","","1","","","","","1","","","","","160","629","","","","","","","","","","","","","","","","","","","","","","","","",""
"","reward_outcome","","html-keyboard-response","251","19142320","0.0-206.0","0","0","QGgHx","People","","454","","","","38","","27","","22","","","","","","","","","","","","","","","","1","454","","","","","","","","","","","","","","","","","","","","","","",""
"","fixation","","html-keyboard-response","252","19143328","0.0-209.0","0","0","QGgHx","People","","null","","","","null","","","","","","","","","","","","","","","","","","","","","","","","","","","","","","","","","","","","","","","","","","","",""
"","see_reward","","html-keyboard-response","253","19143704","0.0-210.0","0","0","QGgHx","People","","372","","","","32","","32","","23","","","","-1","","","","","1","","","","","0","372","","","","","","","","","","","","","","","","","","","","","","","","",""
"","reward_outcome","","html-keyboard-response","254","19145712","0.0-211.0","0","0","QGgHx","People","","534","","","","40","","32","","23","","","","","","","","","","","","","","","","-1","534","","","","","","","","","","","","","","","","","","","","","","",""
"","block_over","","html-keyboard-response","255","19147443","0.0-213.0-0.0","0","0","QGgHx","People","","1728","","","","78","","","","","","","","","","","","","","","","","","","","","","","","","","","","","","","","","","","","","","","","","","","",""
"","fixation","","html-keyboard-response","256","19148448","0.0-214.0","0","0","QGgHx","People","","null","","","","null","","","","","","","","","","","","","","","","","","","","","","","","","","","","","","","","","","","","","","","","","","","",""
"","see_reward","","html-keyboard-response","257","19149497","0.0-215.0","0","0","QGgHx","People","","1045","","","","32","","13","","24","","","","1","","","","","2","","","","","158","1045","","","","","","","","","","","","","","","","","","","","","","","","",""
"","reward_outcome","","html-keyboard-response","258","19151504","0.0-216.0","0","0","QGgHx","People","","975","","","","38","","13","","24","","","","","","","","","","","","","","","","1","975","","","","","","","","","","","","","","","","","","","","","","",""
"","fixation","","html-keyboard-response","259","19152511","0.0-219.0","0","0","QGgHx","People","","null","","","","null","","","","","","","","","","","","","","","","","","","","","","","","","","","","","","","","","","","","","","","","","","","",""
"","see_reward","","html-keyboard-response","260","19153094","0.0-220.0","0","0","QGgHx","People","","580","","","","32","","15","","25","","","","1","","","","","2","","","","","150","580","","","","","","","","","","","","","","","","","","","","","","","","",""
"","reward_outcome","","html-keyboard-response","261","19155103","0.0-221.0","0","0","QGgHx","People","","628","","","","38","","15","","25","","","","","","","","","","","","","","","","1","628","","","","","","","","","","","","","","","","","","","","","","",""
"","fixation","","html-keyboard-response","262","19156107","0.0-224.0","0","0","QGgHx","People","","null","","","","null","","","","","","","","","","","","","","","","","","","","","","","","","","","","","","","","","","","","","","","","","","","",""
"","see_reward","","html-keyboard-response","263","19156619","0.0-225.0","0","0","QGgHx","People","","509","","","","32","","12","","26","","","","1","","","","","2","","","","","145","509","","","","","","","","","","","","","","","","","","","","","","","","",""
"","reward_outcome","","html-keyboard-response","264","19158624","0.0-226.0","0","0","QGgHx","People","","555","","","","38","","12","","26","","","","","","","","","","","","","","","","1","555","","","","","","","","","","","","","","","","","","","","","","",""
"","fixation","","html-keyboard-response","265","19159631","0.0-229.0","0","0","QGgHx","People","","null","","","","null","","","","","","","","","","","","","","","","","","","","","","","","","","","","","","","","","","","","","","","","","","","",""
"","see_reward","","html-keyboard-response","266","19160560","0.0-230.0","0","0","QGgHx","People","","924","","","","32","","16","","27","","","","-1","","","","","2","","","","","0","924","","","","","","","","","","","","","","","","","","","","","","","","",""
"","reward_outcome","","html-keyboard-response","267","19162567","0.0-231.0","0","0","QGgHx","People","","376","","","","40","","16","","27","","","","","","","","","","","","","","","","-1","376","","","","","","","","","","","","","","","","","","","","","","",""
"","fixation","","html-keyboard-response","268","19163575","0.0-234.0","0","0","QGgHx","People","","null","","","","null","","","","","","","","","","","","","","","","","","","","","","","","","","","","","","","","","","","","","","","","","","","",""
"","see_reward","","html-keyboard-response","269","19164137","0.0-235.0","0","0","QGgHx","People","","558","","","","32","","0","","28","","","","-1","","","","","2","","","","","0","558","","","","","","","","","","","","","","","","","","","","","","","","",""
"","reward_outcome","","html-keyboard-response","270","19166144","0.0-236.0","0","0","QGgHx","People","","701","","","","40","","0","","28","","","","","","","","","","","","","","","","-1","701","","","","","","","","","","","","","","","","","","","","","","",""
"","fixation","","html-keyboard-response","271","19167152","0.0-239.0","0","0","QGgHx","People","","null","","","","null","","","","","","","","","","","","","","","","","","","","","","","","","","","","","","","","","","","","","","","","","","","",""
"","see_reward","","html-keyboard-response","272","19167696","0.0-240.0","0","0","QGgHx","People","","541","","","","32","","3","","29","","","","1","","","","","2","","","","","157","541","","","","","","","","","","","","","","","","","","","","","","","","",""
"","reward_outcome","","html-keyboard-response","273","19169704","0.0-241.0","0","0","QGgHx","People","","632","","","","38","","3","","29","","","","","","","","","","","","","","","","1","632","","","","","","","","","","","","","","","","","","","","","","",""
"","fixation","","html-keyboard-response","274","19170712","0.0-244.0","0","0","QGgHx","People","","null","","","","null","","","","","","","","","","","","","","","","","","","","","","","","","","","","","","","","","","","","","","","","","","","",""
"","see_reward","","html-keyboard-response","275","19171949","0.0-245.0","0","0","QGgHx","People","","1233","","","","32","","23","","30","","","","1","","","","","2","","","","","148","1233","","","","","","","","","","","","","","","","","","","","","","","","",""
"","reward_outcome","","html-keyboard-response","276","19173960","0.0-246.0","0","0","QGgHx","People","","830","","","","40","","23","","30","","","","","","","","","","","","","","","","-1","830","","","","","","","","","","","","","","","","","","","","","","",""
"","fixation","","html-keyboard-response","277","19174967","0.0-249.0","0","0","QGgHx","People","","null","","","","null","","","","","","","","","","","","","","","","","","","","","","","","","","","","","","","","","","","","","","","","","","","",""
"","see_reward","","html-keyboard-response","278","19175693","0.0-250.0","0","0","QGgHx","People","","722","","","","32","","32","","31","","","","-1","","","","","2","","","","","0","722","","","","","","","","","","","","","","","","","","","","","","","","",""
"","reward_outcome","","html-keyboard-response","279","19177704","0.0-251.0","0","0","QGgHx","People","","665","","","","40","","32","","31","","","","","","","","","","","","","","","","-1","665","","","","","","","","","","","","","","","","","","","","","","",""
"","fixation","","html-keyboard-response","280","19178712","0.0-254.0","0","0","QGgHx","People","","null","","","","null","","","","","","","","","","","","","","","","","","","","","","","","","","","","","","","","","","","","","","","","","","","",""
"","see_reward","","html-keyboard-response","281","19179837","0.0-255.0","0","0","QGgHx","People","","1118","","","","32","","32","","32","","","","-1","","","","","2","","","","","0","1118","","","","","","","","","","","","","","","","","","","","","","","","",""
"","reward_outcome","","html-keyboard-response","282","19181848","0.0-256.0","0","0","QGgHx","People","","548","","","","40","","32","","32","","","","","","","","","","","","","","","","-1","548","","","","","","","","","","","","","","","","","","","","","","",""
"","fixation","","html-keyboard-response","283","19182856","0.0-259.0","0","0","QGgHx","People","","null","","","","null","","","","","","","","","","","","","","","","","","","","","","","","","","","","","","","","","","","","","","","","","","","",""
"","see_reward","","html-keyboard-response","284","19183445","0.0-260.0","0","0","QGgHx","People","","586","","","","32","","12","","33","","","","1","","","","","2","","","","","145","586","","","","","","","","","","","","","","","","","","","","","","","","",""
"","reward_outcome","","html-keyboard-response","285","19185456","0.0-261.0","0","0","QGgHx","People","","390","","","","38","","12","","33","","","","","","","","","","","","","","","","1","390","","","","","","","","","","","","","","","","","","","","","","",""
"","fixation","","html-keyboard-response","286","19186464","0.0-264.0","0","0","QGgHx","People","","null","","","","null","","","","","","","","","","","","","","","","","","","","","","","","","","","","","","","","","","","","","","","","","","","",""
"","see_reward","","html-keyboard-response","287","19187207","0.0-265.0","0","0","QGgHx","People","","739","","","","32","","27","","34","","","","1","","","","","2","","","","","160","739","","","","","","","","","","","","","","","","","","","","","","","","",""
"","reward_outcome","","html-keyboard-response","288","19189216","0.0-266.0","0","0","QGgHx","People","","355","","","","38","","27","","34","","","","","","","","","","","","","","","","1","355","","","","","","","","","","","","","","","","","","","","","","",""
"","fixation","","html-keyboard-response","289","19190224","0.0-269.0","0","0","QGgHx","People","","null","","","","null","","","","","","","","","","","","","","","","","","","","","","","","","","","","","","","","","","","","","","","","","","","",""
"","see_reward","","html-keyboard-response","290","19190524","0.0-270.0","0","0","QGgHx","People","","296","","","","32","","27","","35","","","","1","","","","","2","","","","","160","296","","","","","","","","","","","","","","","","","","","","","","","","",""
"","reward_outcome","","html-keyboard-response","291","19192535","0.0-271.0","0","0","QGgHx","People","","406","","","","38","","27","","35","","","","","","","","","","","","","","","","1","406","","","","","","","","","","","","","","","","","","","","","","",""
"","fixation","","html-keyboard-response","292","19193544","0.0-274.0","0","0","QGgHx","People","","null","","","","null","","","","","","","","","","","","","","","","","","","","","","","","","","","","","","","","","","","","","","","","","","","",""
"","see_reward","","html-keyboard-response","293","19194307","0.0-275.0","0","0","QGgHx","People","","760","","","","32","","3","","36","","","","1","","","","","2","","","","","157","760","","","","","","","","","","","","","","","","","","","","","","","","",""
"","reward_outcome","","html-keyboard-response","294","19196312","0.0-276.0","0","0","QGgHx","People","","490","","","","38","","3","","36","","","","","","","","","","","","","","","","1","490","","","","","","","","","","","","","","","","","","","","","","",""
"","fixation","","html-keyboard-response","295","19197320","0.0-279.0","0","0","QGgHx","People","","null","","","","null","","","","","","","","","","","","","","","","","","","","","","","","","","","","","","","","","","","","","","","","","","","",""
"","see_reward","","html-keyboard-response","296","19197615","0.0-280.0","0","0","QGgHx","People","","292","","","","32","","23","","37","","","","1","","","","","2","","","","","148","292","","","","","","","","","","","","","","","","","","","","","","","","",""
"","reward_outcome","","html-keyboard-response","297","19199624","0.0-281.0","0","0","QGgHx","People","","481","","","","38","","23","","37","","","","","","","","","","","","","","","","1","481","","","","","","","","","","","","","","","","","","","","","","",""
"","fixation","","html-keyboard-response","298","19200632","0.0-284.0","0","0","QGgHx","People","","null","","","","null","","","","","","","","","","","","","","","","","","","","","","","","","","","","","","","","","","","","","","","","","","","",""
"","see_reward","","html-keyboard-response","299","19201209","0.0-285.0","0","0","QGgHx","People","","573","","","","32","","16","","38","","","","-1","","","","","2","","","","","0","573","","","","","","","","","","","","","","","","","","","","","","","","",""
"","reward_outcome","","html-keyboard-response","300","19203214","0.0-286.0","0","0","QGgHx","People","","366","","","","40","","16","","38","","","","","","","","","","","","","","","","-1","366","","","","","","","","","","","","","","","","","","","","","","",""
"","fixation","","html-keyboard-response","301","19204224","0.0-289.0","0","0","QGgHx","People","","null","","","","null","","","","","","","","","","","","","","","","","","","","","","","","","","","","","","","","","","","","","","","","","","","",""
"","see_reward","","html-keyboard-response","302","19204558","0.0-290.0","0","0","QGgHx","People","","331","","","","32","","15","","39","","","","1","","","","","2","","","","","150","331","","","","","","","","","","","","","","","","","","","","","","","","",""
"","reward_outcome","","html-keyboard-response","303","19206568","0.0-291.0","0","0","QGgHx","People","","377","","","","38","","15","","39","","","","","","","","","","","","","","","","1","377","","","","","","","","","","","","","","","","","","","","","","",""
"","fixation","","html-keyboard-response","304","19207576","0.0-294.0","0","0","QGgHx","People","","null","","","","null","","","","","","","","","","","","","","","","","","","","","","","","","","","","","","","","","","","","","","","","","","","",""
"","see_reward","","html-keyboard-response","305","19208347","0.0-295.0","0","0","QGgHx","People","","768","","","","32","","13","","40","","","","1","","","","","2","","","","","158","768","","","","","","","","","","","","","","","","","","","","","","","","",""
"","reward_outcome","","html-keyboard-response","306","19210352","0.0-296.0","0","0","QGgHx","People","","328","","","","38","","13","","40","","","","","","","","","","","","","","","","1","328","","","","","","","","","","","","","","","","","","","","","","",""
"","fixation","","html-keyboard-response","307","19211360","0.0-299.0","0","0","QGgHx","People","","null","","","","null","","","","","","","","","","","","","","","","","","","","","","","","","","","","","","","","","","","","","","","","","","","",""
"","see_reward","","html-keyboard-response","308","19212037","0.0-300.0","0","0","QGgHx","People","","674","","","","32","","40","","41","","","","-1","","","","","2","","","","","0","674","","","","","","","","","","","","","","","","","","","","","","","","",""
"","reward_outcome","","html-keyboard-response","309","19214048","0.0-301.0","0","0","QGgHx","People","","246","","","","40","","40","","41","","","","","","","","","","","","","","","","-1","246","","","","","","","","","","","","","","","","","","","","","","",""
"","fixation","","html-keyboard-response","310","19215056","0.0-304.0","0","0","QGgHx","People","","null","","","","null","","","","","","","","","","","","","","","","","","","","","","","","","","","","","","","","","","","","","","","","","","","",""
"","see_reward","","html-keyboard-response","311","19215677","0.0-305.0","0","0","QGgHx","People","","616","","","","32","","0","","42","","","","-1","","","","","2","","","","","0","616","","","","","","","","","","","","","","","","","","","","","","","","",""
"","reward_outcome","","html-keyboard-response","312","19217684","0.0-306.0","0","0","QGgHx","People","","176","","","","40","","0","","42","","","","","","","","","","","","","","","","-1","176","","","","","","","","","","","","","","","","","","","","","","",""
"","fixation","","html-keyboard-response","313","19218688","0.0-309.0","0","0","QGgHx","People","","null","","","","null","","","","","","","","","","","","","","","","","","","","","","","","","","","","","","","","","","","","","","","","","","","",""
"","see_reward","","html-keyboard-response","314","19219876","0.0-310.0","0","0","QGgHx","People","","1184","","","","32","","40","","43","","","","-1","","","","","2","","","","","0","1184","","","","","","","","","","","","","","","","","","","","","","","","",""
"","reward_outcome","","html-keyboard-response","315","19221888","0.0-311.0","0","0","QGgHx","People","","196","","","","40","","40","","43","","","","","","","","","","","","","","","","-1","196","","","","","","","","","","","","","","","","","","","","","","",""
"","fixation","","html-keyboard-response","316","19222896","0.0-314.0","0","0","QGgHx","People","","null","","","","null","","","","","","","","","","","","","","","","","","","","","","","","","","","","","","","","","","","","","","","","","","","",""
"","see_reward","","html-keyboard-response","317","19223570","0.0-315.0","0","0","QGgHx","People","","671","","","","32","","17","","44","","","","-1","","","","","2","","","","","0","671","","","","","","","","","","","","","","","","","","","","","","","","",""
"","reward_outcome","","html-keyboard-response","318","19225576","0.0-316.0","0","0","QGgHx","People","","208","","","","40","","17","","44","","","","","","","","","","","","","","","","-1","208","","","","","","","","","","","","","","","","","","","","","","",""
"","fixation","","html-keyboard-response","319","19226584","0.0-319.0","0","0","QGgHx","People","","null","","","","null","","","","","","","","","","","","","","","","","","","","","","","","","","","","","","","","","","","","","","","","","","","",""
"","see_reward","","html-keyboard-response","320","19227173","0.0-320.0","0","0","QGgHx","People","","585","","","","32","","17","","45","","","","-1","","","","","2","","","","","0","585","","","","","","","","","","","","","","","","","","","","","","","","",""
"","reward_outcome","","html-keyboard-response","321","19229184","0.0-321.0","0","0","QGgHx","People","","217","","","","40","","17","","45","","","","","","","","","","","","","","","","-1","217","","","","","","","","","","","","","","","","","","","","","","",""
"","fixation","","html-keyboard-response","322","19230192","0.0-324.0","0","0","QGgHx","People","","null","","","","null","","","","","","","","","","","","","","","","","","","","","","","","","","","","","","","","","","","","","","","","","","","",""
"","see_reward","","html-keyboard-response","323","19230896","0.0-325.0","0","0","QGgHx","People","","700","","","","32","","24","","46","","","","-1","","","","","2","","","","","0","700","","","","","","","","","","","","","","","","","","","","","","","","",""
"","reward_outcome","","html-keyboard-response","324","19232904","0.0-326.0","0","0","QGgHx","People","","374","","","","40","","24","","46","","","","","","","","","","","","","","","","-1","374","","","","","","","","","","","","","","","","","","","","","","",""
"","fixation","","html-keyboard-response","325","19233912","0.0-329.0","0","0","QGgHx","People","","null","","","","null","","","","","","","","","","","","","","","","","","","","","","","","","","","","","","","","","","","","","","","","","","","",""
"","see_reward","","html-keyboard-response","326","19234763","0.0-330.0","0","0","QGgHx","People","","848","","","","32","","24","","47","","","","-1","","","","","2","","","","","0","848","","","","","","","","","","","","","","","","","","","","","","","","",""
"","reward_outcome","","html-keyboard-response","327","19236768","0.0-331.0","0","0","QGgHx","People","","388","","","","40","","24","","47","","","","","","","","","","","","","","","","-1","388","","","","","","","","","","","","","","","","","","","","","","",""
"","block_over","","html-keyboard-response","328","19238129","0.0-333.0-0.0","0","0","QGgHx","People","","1358","","","","78","","","","","","","","","","","","","","","","","","","","","","","","","","","","","","","","","","","","","","","","","","","",""
"","fixation","","html-keyboard-response","329","19239136","0.0-334.0","0","0","QGgHx","People","","null","","","","null","","","","","","","","","","","","","","","","","","","","","","","","","","","","","","","","","","","","","","","","","","","",""
"","see_reward","","html-keyboard-response","330","19239869","0.0-335.0","0","0","QGgHx","People","","729","","","","32","","12","","48","","","","1","","","","","3","","","","","145","729","","","","","","","","","","","","","","","","","","","","","","","","",""
"","reward_outcome","","html-keyboard-response","331","19241879","0.0-336.0","0","0","QGgHx","People","","225","","","","38","","12","","48","","","","","","","","","","","","","","","","1","225","","","","","","","","","","","","","","","","","","","","","","",""
"","fixation","","html-keyboard-response","332","19242888","0.0-339.0","0","0","QGgHx","People","","null","","","","null","","","","","","","","","","","","","","","","","","","","","","","","","","","","","","","","","","","","","","","","","","","",""
"","see_reward","","html-keyboard-response","333","19243429","0.0-340.0","0","0","QGgHx","People","","536","","","","32","","40","","49","","","","-1","","","","","3","","","","","0","536","","","","","","","","","","","","","","","","","","","","","","","","",""
"","reward_outcome","","html-keyboard-response","334","19245440","0.0-341.0","0","0","QGgHx","People","","218","","","","40","","40","","49","","","","","","","","","","","","","","","","-1","218","","","","","","","","","","","","","","","","","","","","","","",""
"","fixation","","html-keyboard-response","335","19246448","0.0-344.0","0","0","QGgHx","People","","null","","","","null","","","","","","","","","","","","","","","","","","","","","","","","","","","","","","","","","","","","","","","","","","","",""
"","see_reward","","html-keyboard-response","336","19247307","0.0-345.0","0","0","QGgHx","People","","856","","","","32","","27","","50","","","","1","","","","","3","","","","","160","856","","","","","","","","","","","","","","","","","","","","","","","","",""
"","reward_outcome","","html-keyboard-response","337","19249312","0.0-346.0","0","0","QGgHx","People","","328","","","","38","","27","","50","","","","","","","","","","","","","","","","1","328","","","","","","","","","","","","","","","","","","","","","","",""
