"success","ttype","start_time","trial_type","trial_index","time_elapsed","internal_node_id","warning","missed_checkup","PID","stim_type","view_history","rt","responses","repeat_instructions","key_press","response","stimulus_id","painting","index","stimulus_left","stimulus_right","explain_trial","reward_type","rating_left","rating_right","painting_left","painting_right","block","left_chosen","chosen_obj","unchosen_obj","explain_response","reward_amount","see_reward_rt","register_reward_response","register_reward_rt","deliberation_reward_tally","stimulus_left_deliberation_ind","stimulus_right_deliberation_ind","chosen_trial","gain_left","higher_outcome_chosen","old_pair","chosen_object","rt_pairs","left_object_chosen","rt_object","old_response","new_rating","deliberated_stim","initial_rating","outcome_eval_rt","outcome_eval_response","outcome_eval_gain","outcome_eval_acc","preamble","outcome_eval_confidence","outcome_eval_confidence_rt","total_reward_tally"
"true","full_screen","d01192023hr2134","fullscreen","0","730769","0.0-0.0","0","0","Fmgl1","Scenes","","","","","","","","","","","","","","","","","","","","","","","","","","","","","","","","","","","","","","","","","","","","","","","","",""
"","rating_instructions","","instructions","1","785088","0.0-1.0-0.0","0","0","Fmgl1","Scenes","[{""page_index"":0,""viewing_time"":47254},{""page_index"":1,""viewing_time"":4027},{""page_index"":0,""viewing_time"":2444},{""page_index"":1,""viewing_time"":589}]","54315","","","","","","","","","","","","","","","","","","","","","","","","","","","","","","","","","","","","","","","","","","","","","","",""
"","rating_comprehension_check","","survey-multi-choice","2","791507","0.0-1.0-1.0","0","0","Fmgl1","Scenes","","6413","{""Q0"":""True"",""Q1"":""Mouse""}","0","","","","","","","","","","","","","","","","","","","","","","","","","","","","","","","","","","","","","","","","","","","","",""
"","start_phase","","html-keyboard-response","3","796009","0.0-2.0","0","0","Fmgl1","Scenes","","4497","","","78","","","","","","","","","","","","","","","","","","","","","","","","","","","","","","","","","","","","","","","","","","","",""
"","rating","","html-slider-response","4","800590","0.0-3.0","0","0","Fmgl1","Scenes","","4578","","","","81","123","joel-jasmin-forestbird-efuwb5eBDrI-unsplash.jpg","0","","","","","","","","","","","","","","","","","","","","","","","","","","","","","","","","","","","","","","","",""
"","rating","","html-slider-response","5","804261","0.0-4.0","0","0","Fmgl1","Scenes","","3668","","","","100","147","tobias-keller-73F4pKoUkM0-unsplash.jpg","1","","","","","","","","","","","","","","","","","","","","","","","","","","","","","","","","","","","","","","","",""
"","rating","","html-slider-response","6","809048","0.0-5.0","0","0","Fmgl1","Scenes","","4784","","","","83","116","david-marcu-W5MhJ6cy1So-unsplash.jpg","2","","","","","","","","","","","","","","","","","","","","","","","","","","","","","","","","","","","","","","","",""
"","rating","","html-slider-response","7","813626","0.0-6.0","0","0","Fmgl1","Scenes","","4576","","","","79","103","anton-darius-FBJugtbHsWU-unsplash.jpg","3","","","","","","","","","","","","","","","","","","","","","","","","","","","","","","","","","","","","","","","",""
"","rating","","html-slider-response","8","819459","0.0-7.0","0","0","Fmgl1","Scenes","","5831","","","","88","108","benjamin-voros-phIFdC6lA4E-unsplash.jpg","4","","","","","","","","","","","","","","","","","","","","","","","","","","","","","","","","","","","","","","","",""
"","rating","","html-slider-response","9","824141","0.0-8.0","0","0","Fmgl1","Scenes","","4679","","","","67","113","damian-denis-D8R_txR_0PE-unsplash.jpg","5","","","","","","","","","","","","","","","","","","","","","","","","","","","","","","","","","","","","","","","",""
"","rating","","html-slider-response","10","829039","0.0-9.0","0","0","Fmgl1","Scenes","","4895","","","","100","100","aleksandra-boguslawska-MS7KD9Ti7FQ-unsplash.jpg","6","","","","","","","","","","","","","","","","","","","","","","","","","","","","","","","","","","","","","","","",""
"","rating","","html-slider-response","11","836382","0.0-10.0","0","0","Fmgl1","Scenes","","7339","","","","71","104","artem-sapegin-XGDBdSQ70O0-unsplash.jpg","7","","","","","","","","","","","","","","","","","","","","","","","","","","","","","","","","","","","","","","","",""
"","rating","","html-slider-response","12","841112","0.0-11.0","0","0","Fmgl1","Scenes","","4728","","","","100","114","daniel-sessler-z_9VmsxR8hs-unsplash.jpg","8","","","","","","","","","","","","","","","","","","","","","","","","","","","","","","","","","","","","","","","",""
"","rating","","html-slider-response","13","844179","0.0-12.0","0","0","Fmgl1","Scenes","","3064","","","","100","139","samsommer-vddccTqwal8-unsplash.jpg","9","","","","","","","","","","","","","","","","","","","","","","","","","","","","","","","","","","","","","","","",""
"","rating","","html-slider-response","14","849030","0.0-13.0","0","0","Fmgl1","Scenes","","4847","","","","90","136","nicolas-jehly-LzVB84KkZOE-unsplash.jpg","10","","","","","","","","","","","","","","","","","","","","","","","","","","","","","","","","","","","","","","","",""
"","rating","","html-slider-response","15","853745","0.0-14.0","0","0","Fmgl1","Scenes","","4713","","","","97","137","olga-stalska-QaWRyEdlffY-unsplash.jpg","11","","","","","","","","","","","","","","","","","","","","","","","","","","","","","","","","","","","","","","","",""
"","rating","","html-slider-response","16","858121","0.0-15.0","0","0","Fmgl1","Scenes","","4372","","","","94","101","aniket-deole-T-tOgjWZ0fQ-unsplash.jpg","12","","","","","","","","","","","","","","","","","","","","","","","","","","","","","","","","","","","","","","","",""
"","rating","","html-slider-response","17","861966","0.0-16.0","0","0","Fmgl1","Scenes","","3842","","","","76","131","luca-bravo-hFzIoD0F_i8-unsplash.jpg","13","","","","","","","","","","","","","","","","","","","","","","","","","","","","","","","","","","","","","","","",""
"","rating","","html-slider-response","18","865792","0.0-17.0","0","0","Fmgl1","Scenes","","3824","","","","58","111","claudio-testa-U3F2o6vz3bs-unsplash.jpg","14","","","","","","","","","","","","","","","","","","","","","","","","","","","","","","","","","","","","","","","",""
"","rating","","html-slider-response","19","869673","0.0-18.0","0","0","Fmgl1","Scenes","","3878","","","","99","130","lina-loos-04-C1NZk1hE-unsplash.jpg","15","","","","","","","","","","","","","","","","","","","","","","","","","","","","","","","","","","","","","","","",""
"","rating","","html-slider-response","20","874380","0.0-19.0","0","0","Fmgl1","Scenes","","4704","","","","99","148","tom-gainor-ZqLeQDjY6fY-unsplash.jpg","16","","","","","","","","","","","","","","","","","","","","","","","","","","","","","","","","","","","","","","","",""
"","rating","","html-slider-response","21","880155","0.0-20.0","0","0","Fmgl1","Scenes","","5771","","","","93","125","john-lee-oMneOBYhJxY-unsplash.jpg","17","","","","","","","","","","","","","","","","","","","","","","","","","","","","","","","","","","","","","","","",""
"","rating","","html-slider-response","22","884925","0.0-21.0","0","0","Fmgl1","Scenes","","4768","","","","88","133","mickey-o-neil-xL66l--msXU-unsplash.jpg","18","","","","","","","","","","","","","","","","","","","","","","","","","","","","","","","","","","","","","","","",""
"","rating","","html-slider-response","23","893304","0.0-22.0","0","0","Fmgl1","Scenes","","8377","","","","90","119","james-wheeler-AFC0XvICMgs-unsplash.jpg","19","","","","","","","","","","","","","","","","","","","","","","","","","","","","","","","","","","","","","","","",""
"","rating","","html-slider-response","24","919058","0.0-23.0","0","0","Fmgl1","Scenes","","25751","","","","97","127","kace-rodriguez-p3OzJuT_Dks-unsplash.jpg","20","","","","","","","","","","","","","","","","","","","","","","","","","","","","","","","","","","","","","","","",""
"","rating","","html-slider-response","25","925787","0.0-24.0","0","0","Fmgl1","Scenes","","6727","","","","97","115","darrell-cassell-hoCXpPUMCoE-unsplash.jpg","21","","","","","","","","","","","","","","","","","","","","","","","","","","","","","","","","","","","","","","","",""
"","rating","","html-slider-response","26","931301","0.0-25.0","0","0","Fmgl1","Scenes","","5511","","","","44","112","cosmic-timetraveler-pYyOZ8q7AII-unsplash.jpg","22","","","","","","","","","","","","","","","","","","","","","","","","","","","","","","","","","","","","","","","",""
"","rating","","html-slider-response","27","936411","0.0-26.0","0","0","Fmgl1","Scenes","","5108","","","","100","132","meng-ji-8BH_M-53CyA-unsplash.jpg","23","","","","","","","","","","","","","","","","","","","","","","","","","","","","","","","","","","","","","","","",""
"","rating","","html-slider-response","28","942800","0.0-27.0","0","0","Fmgl1","Scenes","","6387","","","","86","146","thomas-morse-cuKKa0vWZSY-unsplash.jpg","24","","","","","","","","","","","","","","","","","","","","","","","","","","","","","","","","","","","","","","","",""
"","rating","","html-slider-response","29","950727","0.0-28.0","0","0","Fmgl1","Scenes","","7923","","","","82","110","bruno-van-der-kraan-qez8mNJ3ilU-unsplash.jpg","25","","","","","","","","","","","","","","","","","","","","","","","","","","","","","","","","","","","","","","","",""
"","rating","","html-slider-response","30","956451","0.0-29.0","0","0","Fmgl1","Scenes","","5721","","","","88","135","mohammad-alizade-4wzRuAb-KWs-unsplash.jpg","26","","","","","","","","","","","","","","","","","","","","","","","","","","","","","","","","","","","","","","","",""
"","rating","","html-slider-response","31","963566","0.0-30.0","0","0","Fmgl1","Scenes","","7113","","","","70","143","sigurdur-fjalar-jonsson-1KxBabIntpE-unsplash.jpg","27","","","","","","","","","","","","","","","","","","","","","","","","","","","","","","","","","","","","","","","",""
"","rating","","html-slider-response","32","967893","0.0-31.0","0","0","Fmgl1","Scenes","","4324","","","","66","126","jordan-mcqueen-PJCZOWuOxbU-unsplash.jpg","28","","","","","","","","","","","","","","","","","","","","","","","","","","","","","","","","","","","","","","","",""
"","rating","","html-slider-response","33","976030","0.0-32.0","0","0","Fmgl1","Scenes","","8134","","","","88","109","brigitta-schneiter-hXXRLtTxXCU-unsplash.jpg","29","","","","","","","","","","","","","","","","","","","","","","","","","","","","","","","","","","","","","","","",""
"","rating","","html-slider-response","34","983217","0.0-33.0","0","0","Fmgl1","Scenes","","7184","","","","43","149","yuriy-bogdanov-W51VK3Obcj0-unsplash.jpg","30","","","","","","","","","","","","","","","","","","","","","","","","","","","","","","","","","","","","","","","",""
"","rating","","html-slider-response","35","989052","0.0-34.0","0","0","Fmgl1","Scenes","","5833","","","","34","144","solotravelgoals-7kLufxYoqWk-unsplash.jpg","31","","","","","","","","","","","","","","","","","","","","","","","","","","","","","","","","","","","","","","","",""
"","rating","","html-slider-response","36","994698","0.0-35.0","0","0","Fmgl1","Scenes","","5644","","","","85","140","samuele-errico-piccarini-JEBqFu2AOOA-unsplash.jpg","32","","","","","","","","","","","","","","","","","","","","","","","","","","","","","","","","","","","","","","","",""
"","rating","","html-slider-response","37","1004202","0.0-36.0","0","0","Fmgl1","Scenes","","9500","","","","67","106","ashim-d-silva-WeYamle9fDM-unsplash.jpg","33","","","","","","","","","","","","","","","","","","","","","","","","","","","","","","","","","","","","","","","",""
"","rating","","html-slider-response","38","1008553","0.0-37.0","0","0","Fmgl1","Scenes","","4348","","","","67","105","ashim-d-silva-S2Q5mdOrrVc-unsplash.jpg","34","","","","","","","","","","","","","","","","","","","","","","","","","","","","","","","","","","","","","","","",""
"","rating","","html-slider-response","39","1017625","0.0-38.0","0","0","Fmgl1","Scenes","","9070","","","","50","117","frank-mckenna-OD9EOzfSOh0-unsplash.jpg","35","","","","","","","","","","","","","","","","","","","","","","","","","","","","","","","","","","","","","","","",""
"","rating","","html-slider-response","40","1021548","0.0-39.0","0","0","Fmgl1","Scenes","","3920","","","","60","122","jeff-king-bJHWJeiHfHc-unsplash.jpg","36","","","","","","","","","","","","","","","","","","","","","","","","","","","","","","","","","","","","","","","",""
"","rating","","html-slider-response","41","1025698","0.0-40.0","0","0","Fmgl1","Scenes","","4147","","","","92","134","milada-vigerova-pQMM63GE7fo-unsplash.jpg","37","","","","","","","","","","","","","","","","","","","","","","","","","","","","","","","","","","","","","","","",""
"","rating","","html-slider-response","42","1032569","0.0-41.0","0","0","Fmgl1","Scenes","","6867","","","","81","129","kurt-cotoaga-cqbLg3lZEpk-unsplash.jpg","38","","","","","","","","","","","","","","","","","","","","","","","","","","","","","","","","","","","","","","","",""
"","rating","","html-slider-response","43","1036071","0.0-42.0","0","0","Fmgl1","Scenes","","3500","","","","100","142","sergey-pesterev-y-b_FOmJXdg-unsplash.jpg","39","","","","","","","","","","","","","","","","","","","","","","","","","","","","","","","","","","","","","","","",""
"","rating","","html-slider-response","44","1041951","0.0-43.0","0","0","Fmgl1","Scenes","","5877","","","","37","102","anisur-rahman-K2b7UDed6uQ-unsplash.jpg","40","","","","","","","","","","","","","","","","","","","","","","","","","","","","","","","","","","","","","","","",""
"","rating","","html-slider-response","45","1047936","0.0-44.0","0","0","Fmgl1","Scenes","","5983","","","","50","141","sebastian-unrau-v4e3JI7DDHI-unsplash.jpg","41","","","","","","","","","","","","","","","","","","","","","","","","","","","","","","","","","","","","","","","",""
"","rating","","html-slider-response","46","1052780","0.0-45.0","0","0","Fmgl1","Scenes","","4841","","","","92","120","jarrett-kow-1ZOyYPOBn7I-unsplash.jpg","42","","","","","","","","","","","","","","","","","","","","","","","","","","","","","","","","","","","","","","","",""
"","rating","","html-slider-response","47","1056817","0.0-46.0","0","0","Fmgl1","Scenes","","4033","","","","59","145","stephen-leonardi-gyIRjKPXupE-unsplash.jpg","43","","","","","","","","","","","","","","","","","","","","","","","","","","","","","","","","","","","","","","","",""
"","rating","","html-slider-response","48","1063283","0.0-47.0","0","0","Fmgl1","Scenes","","6464","","","","17","124","johannes-plenio-sPt5RIjKfpk-unsplash.jpg","44","","","","","","","","","","","","","","","","","","","","","","","","","","","","","","","","","","","","","","","",""
"","rating","","html-slider-response","49","1067967","0.0-48.0","0","0","Fmgl1","Scenes","","4681","","","","54","128","karsten-wurth-jS0zC2PJ17A-unsplash.jpg","45","","","","","","","","","","","","","","","","","","","","","","","","","","","","","","","","","","","","","","","",""
"","rating","","html-slider-response","50","1071117","0.0-49.0","0","0","Fmgl1","Scenes","","3148","","","","63","121","jean-pierre-brungs-qxCqkbF7tUc-unsplash.jpg","46","","","","","","","","","","","","","","","","","","","","","","","","","","","","","","","","","","","","","","","",""
"","rating","","html-slider-response","51","1074595","0.0-50.0","0","0","Fmgl1","Scenes","","3476","","","","40","107","benjamin-davies-Zm2n2O7Fph4-unsplash.jpg","47","","","","","","","","","","","","","","","","","","","","","","","","","","","","","","","","","","","","","","","",""
"","rating","","html-slider-response","52","1078349","0.0-51.0","0","0","Fmgl1","Scenes","","3750","","","","59","138","petr-vysohlid-9fqwGqGLUxc-unsplash.jpg","48","","","","","","","","","","","","","","","","","","","","","","","","","","","","","","","","","","","","","","","",""
"","rating","","html-slider-response","53","1082481","0.0-52.0","0","0","Fmgl1","Scenes","","4130","","","","64","118","henry-be-NLF6hTe4PAg-unsplash.jpg","49","","","","","","","","","","","","","","","","","","","","","","","","","","","","","","","","","","","","","","","",""
"","deliberation_instructions","","instructions","54","1199176","0.0-53.0-0.0","0","0","Fmgl1","Scenes","[{""page_index"":0,""viewing_time"":18672},{""page_index"":1,""viewing_time"":44329},{""page_index"":2,""viewing_time"":22644},{""page_index"":3,""viewing_time"":28505},{""page_index"":4,""viewing_time"":2536}]","116687","","","","","","","","","","","","","","","","","","","","","","","","","","","","","","","","","","","","","","","","","","","","","","",""
"","deliberation_comprehension_check","","survey-multi-choice","55","1230652","0.0-53.0-1.0","0","0","Fmgl1","Scenes","","31465","{""Q0"":""True"",""Q1"":""True"",""Q2"":""Consider carefully and take your time (up to 10 seconds)"",""Q3"":""True"",""Q4"":""D""}","0","","","","","","","","","","","","","","","","","","","","","","","","","","","","","","","","","","","","","","","","","","","","",""
"","start_phase","","html-keyboard-response","56","1234753","0.0-54.0","0","0","Fmgl1","Scenes","","4095","","","78","","","","","","","","","","","","","","","","","","","","","","","","","","","","","","","","","","","","","","","","","","","",""
"","first_deliberation_block","","html-keyboard-response","57","1246030","0.0-55.0","0","0","Fmgl1","Scenes","","11275","","","78","","","","","","","","","","","","","","","","","","","","","","","","","","","","","","","","","","","","","","","","","","","",""
"","fixation","","html-keyboard-response","58","1247035","0.0-56.0-0.0","0","0","Fmgl1","Scenes","","null","","","null","","","","","","","","","","","","","","","","","","","","","","","","","","","","","","","","","","","","","","","","","","","",""
"","deliberation","","html-keyboard-response","59","1254652","0.0-56.0-1.0","0","0","Fmgl1","Scenes","","7610","","","68","","","","0","143","131","0","-1","70","76","sigurdur-fjalar-jonsson-1KxBabIntpE-unsplash.jpg","luca-bravo-hFzIoD0F_i8-unsplash.jpg","1","1","143","131","","","","","","","","","","","","","","","","","","","","","","","","","","","",""
"","choice_confirmation","","html-keyboard-response","60","1255156","0.0-56.0-2.0-0.0","0","0","Fmgl1","Scenes","","null","","","null","","","","0","143","131","","","","","","","","","","","","","","","","","","","","","","","","","","","","","","","","","","","","","",""
"","fixation","","html-keyboard-response","61","1256164","0.0-57.0-0.0","0","0","Fmgl1","Scenes","","null","","","null","","","","","","","","","","","","","","","","","","","","","","","","","","","","","","","","","","","","","","","","","","","",""
"","deliberation","","html-keyboard-response","62","1261055","0.0-57.0-1.0","0","0","Fmgl1","Scenes","","4889","","","75","","","","1","146","113","1","1","86","67","thomas-morse-cuKKa0vWZSY-unsplash.jpg","damian-denis-D8R_txR_0PE-unsplash.jpg","1","0","113","146","","","","","","","","","","","","","","","","","","","","","","","","","","","",""
"","choice_confirmation","","html-keyboard-response","63","1261564","0.0-57.0-2.0-0.0","0","0","Fmgl1","Scenes","","null","","","null","","","","1","146","113","","","","","","","","","","","","","","","","","","","","","","","","","","","","","","","","","","","","","",""
"","explain_trial","","survey-text","64","1309010","0.0-57.0-5.0-0.0","0","0","Fmgl1","Scenes","","47442","{""Q0"":""It feels more contemporary. The colors just make me feel like it'd be hanging in one of those fancy LA houses on Selling Sunset.""}","","","","","","1","146","113","","","","","","","","","","","{""Q0"":""It feels more contemporary. The colors just make me feel like it'd be hanging in one of those fancy LA houses on Selling Sunset.""}","","","","","","","","","","","","","","","","","","","","","","","","","","",""
"","fixation","","html-keyboard-response","65","1310014","0.0-58.0-0.0","0","0","Fmgl1","Scenes","","null","","","null","","","","","","","","","","","","","","","","","","","","","","","","","","","","","","","","","","","","","","","","","","","",""
"","deliberation","","html-keyboard-response","66","1316713","0.0-58.0-1.0","0","0","Fmgl1","Scenes","","6697","","","68","","","","2","118","133","1","1","64","88","henry-be-NLF6hTe4PAg-unsplash.jpg","mickey-o-neil-xL66l--msXU-unsplash.jpg","1","1","118","133","","","","","","","","","","","","","","","","","","","","","","","","","","","",""
"","choice_confirmation","","html-keyboard-response","67","1317219","0.0-58.0-2.0-0.0","0","0","Fmgl1","Scenes","","null","","","null","","","","2","118","133","","","","","","","","","","","","","","","","","","","","","","","","","","","","","","","","","","","","","",""
"","explain_trial","","survey-text","68","1351613","0.0-58.0-5.0-0.0","0","0","Fmgl1","Scenes","","34391","{""Q0"":""It just feels more visually descriptive. The lines and use of space are more satisfying.""}","","","","","","2","118","133","","","","","","","","","","","{""Q0"":""It just feels more visually descriptive. The lines and use of space are more satisfying.""}","","","","","","","","","","","","","","","","","","","","","","","","","","",""
"","fixation","","html-keyboard-response","69","1352618","0.0-59.0-0.0","0","0","Fmgl1","Scenes","","null","","","null","","","","","","","","","","","","","","","","","","","","","","","","","","","","","","","","","","","","","","","","","","","",""
"","deliberation","","html-keyboard-response","70","1362627","0.0-59.0-1.0","0","0","Fmgl1","Scenes","","null","","","null","","","","3","105","121","0","1","67","63","ashim-d-silva-S2Q5mdOrrVc-unsplash.jpg","jean-pierre-brungs-qxCqkbF7tUc-unsplash.jpg","1","","","","","","","","","","","","","","","","","","","","","","","","","","","","","","",""
"","deliberation_too_slow","","html-keyboard-response","71","1364138","0.0-59.0-4.0-0.0","1","0","Fmgl1","Scenes","","null","","","null","","","","3","","","","","","","","","","","","","","","","","","","","","","","","","","","","","","","","","","","","","","","",""
"","fixation","","html-keyboard-response","72","1365147","0.0-59.1-0.1","0","0","Fmgl1","Scenes","","null","","","null","","","","","","","","","","","","","","","","","","","","","","","","","","","","","","","","","","","","","","","","","","","",""
"","deliberation","","html-keyboard-response","73","1365706","0.0-59.1-1.1","0","0","Fmgl1","Scenes","","555","","","68","","","","3","105","121","0","1","67","63","ashim-d-silva-S2Q5mdOrrVc-unsplash.jpg","jean-pierre-brungs-qxCqkbF7tUc-unsplash.jpg","1","1","105","121","","","","","","","","","","","","","","","","","","","","","","","","","","","",""
"","choice_confirmation","","html-keyboard-response","74","1366212","0.0-59.1-2.1-0.1","0","0","Fmgl1","Scenes","","null","","","null","","","","3","105","121","","","","","","","","","","","","","","","","","","","","","","","","","","","","","","","","","","","","","",""
"","fixation","","html-keyboard-response","75","1367218","0.0-60.0-0.0","0","0","Fmgl1","Scenes","","null","","","null","","","","","","","","","","","","","","","","","","","","","","","","","","","","","","","","","","","","","","","","","","","",""
"","deliberation","","html-keyboard-response","76","1369345","0.0-60.0-1.0","0","0","Fmgl1","Scenes","","2124","","","75","","","","4","110","129","1","1","82","81","bruno-van-der-kraan-qez8mNJ3ilU-unsplash.jpg","kurt-cotoaga-cqbLg3lZEpk-unsplash.jpg","1","0","129","110","","","","","","","","","","","","","","","","","","","","","","","","","","","",""
"","choice_confirmation","","html-keyboard-response","77","1369851","0.0-60.0-2.0-0.0","0","0","Fmgl1","Scenes","","null","","","null","","","","4","110","129","","","","","","","","","","","","","","","","","","","","","","","","","","","","","","","","","","","","","",""
"","explain_trial","","survey-text","78","1405475","0.0-60.0-5.0-0.0","0","0","Fmgl1","Scenes","","35621","{""Q0"":""I LOVE the way the sun is hitting the mountains. Feels more minimalist and contemporary.""}","","","","","","4","110","129","","","","","","","","","","","{""Q0"":""I LOVE the way the sun is hitting the mountains. Feels more minimalist and contemporary.""}","","","","","","","","","","","","","","","","","","","","","","","","","","",""
"","fixation","","html-keyboard-response","79","1406483","0.0-61.0-0.0","0","0","Fmgl1","Scenes","","null","","","null","","","","","","","","","","","","","","","","","","","","","","","","","","","","","","","","","","","","","","","","","","","",""
"","deliberation","","html-keyboard-response","80","1410047","0.0-61.0-1.0","0","0","Fmgl1","Scenes","","3562","","","68","","","","5","134","120","1","-1","92","92","milada-vigerova-pQMM63GE7fo-unsplash.jpg","jarrett-kow-1ZOyYPOBn7I-unsplash.jpg","1","1","134","120","","","","","","","","","","","","","","","","","","","","","","","","","","","",""
"","choice_confirmation","","html-keyboard-response","81","1410555","0.0-61.0-2.0-0.0","0","0","Fmgl1","Scenes","","null","","","null","","","","5","134","120","","","","","","","","","","","","","","","","","","","","","","","","","","","","","","","","","","","","","",""
"","explain_trial","","survey-text","82","1422766","0.0-61.0-5.0-0.0","0","0","Fmgl1","Scenes","","12208","{""Q0"":""Everyone loves a good waterfall picture. ""}","","","","","","5","134","120","","","","","","","","","","","{""Q0"":""Everyone loves a good waterfall picture. ""}","","","","","","","","","","","","","","","","","","","","","","","","","","",""
"","fixation","","html-keyboard-response","83","1423770","0.0-62.0-0.0","0","0","Fmgl1","Scenes","","null","","","null","","","","","","","","","","","","","","","","","","","","","","","","","","","","","","","","","","","","","","","","","","","",""
"","deliberation","","html-keyboard-response","84","1427276","0.0-62.0-1.0","0","0","Fmgl1","Scenes","","3504","","","68","","","","6","106","136","0","1","67","90","ashim-d-silva-WeYamle9fDM-unsplash.jpg","nicolas-jehly-LzVB84KkZOE-unsplash.jpg","1","1","106","136","","","","","","","","","","","","","","","","","","","","","","","","","","","",""
"","choice_confirmation","","html-keyboard-response","85","1427782","0.0-62.0-2.0-0.0","0","0","Fmgl1","Scenes","","null","","","null","","","","6","106","136","","","","","","","","","","","","","","","","","","","","","","","","","","","","","","","","","","","","","",""
"","fixation","","html-keyboard-response","86","1428786","0.0-63.0-0.0","0","0","Fmgl1","Scenes","","null","","","null","","","","","","","","","","","","","","","","","","","","","","","","","","","","","","","","","","","","","","","","","","","",""
"","deliberation","","html-keyboard-response","87","1431419","0.0-63.0-1.0","0","0","Fmgl1","Scenes","","2631","","","68","","","","7","109","126","1","1","88","66","brigitta-schneiter-hXXRLtTxXCU-unsplash.jpg","jordan-mcqueen-PJCZOWuOxbU-unsplash.jpg","1","1","109","126","","","","","","","","","","","","","","","","","","","","","","","","","","","",""
"","choice_confirmation","","html-keyboard-response","88","1431922","0.0-63.0-2.0-0.0","0","0","Fmgl1","Scenes","","null","","","null","","","","7","109","126","","","","","","","","","","","","","","","","","","","","","","","","","","","","","","","","","","","","","",""
"","explain_trial","","survey-text","89","1443648","0.0-63.0-5.0-0.0","0","0","Fmgl1","Scenes","","11722","{""Q0"":""I love the symmetry.""}","","","","","","7","109","126","","","","","","","","","","","{""Q0"":""I love the symmetry.""}","","","","","","","","","","","","","","","","","","","","","","","","","","",""
"","fixation","","html-keyboard-response","90","1444658","0.0-64.0-0.0","0","0","Fmgl1","Scenes","","null","","","null","","","","","","","","","","","","","","","","","","","","","","","","","","","","","","","","","","","","","","","","","","","",""
"","deliberation","","html-keyboard-response","91","1454605","0.0-64.0-1.0","0","0","Fmgl1","Scenes","","9945","","","75","","","","8","119","104","0","-1","90","71","james-wheeler-AFC0XvICMgs-unsplash.jpg","artem-sapegin-XGDBdSQ70O0-unsplash.jpg","1","0","104","119","","","","","","","","","","","","","","","","","","","","","","","","","","","",""
"","choice_confirmation","","html-keyboard-response","92","1455115","0.0-64.0-2.0-0.0","0","0","Fmgl1","Scenes","","null","","","null","","","","8","119","104","","","","","","","","","","","","","","","","","","","","","","","","","","","","","","","","","","","","","",""
"","fixation","","html-keyboard-response","93","1456124","0.0-65.0-0.0","0","0","Fmgl1","Scenes","","null","","","null","","","","","","","","","","","","","","","","","","","","","","","","","","","","","","","","","","","","","","","","","","","",""
"","deliberation","","html-keyboard-response","94","1466133","0.0-65.0-1.0","0","0","Fmgl1","Scenes","","null","","","null","","","","9","116","108","0","-1","83","88","david-marcu-W5MhJ6cy1So-unsplash.jpg","benjamin-voros-phIFdC6lA4E-unsplash.jpg","1","","","","","","","","","","","","","","","","","","","","","","","","","","","","","","",""
"","deliberation_too_slow","","html-keyboard-response","95","1467647","0.0-65.0-4.0-0.0","1","0","Fmgl1","Scenes","","null","","","null","","","","9","","","","","","","","","","","","","","","","","","","","","","","","","","","","","","","","","","","","","","","",""
"","fixation","","html-keyboard-response","96","1468658","0.0-65.1-0.1","0","0","Fmgl1","Scenes","","null","","","null","","","","","","","","","","","","","","","","","","","","","","","","","","","","","","","","","","","","","","","","","","","",""
"","deliberation","","html-keyboard-response","97","1470251","0.0-65.1-1.1","0","0","Fmgl1","Scenes","","1591","","","75","","","","9","116","108","0","-1","83","88","david-marcu-W5MhJ6cy1So-unsplash.jpg","benjamin-voros-phIFdC6lA4E-unsplash.jpg","1","0","108","116","","","","","","","","","","","","","","","","","","","","","","","","","","","",""
"","choice_confirmation","","html-keyboard-response","98","1470754","0.0-65.1-2.1-0.1","0","0","Fmgl1","Scenes","","null","","","null","","","","9","116","108","","","","","","","","","","","","","","","","","","","","","","","","","","","","","","","","","","","","","",""
"","fixation","","html-keyboard-response","99","1471762","0.0-66.0-0.0","0","0","Fmgl1","Scenes","","null","","","null","","","","","","","","","","","","","","","","","","","","","","","","","","","","","","","","","","","","","","","","","","","",""
"","deliberation","","html-keyboard-response","100","1474122","0.0-66.0-1.0","0","0","Fmgl1","Scenes","","2358","","","75","","","","10","123","103","1","-1","81","79","joel-jasmin-forestbird-efuwb5eBDrI-unsplash.jpg","anton-darius-FBJugtbHsWU-unsplash.jpg","1","0","103","123","","","","","","","","","","","","","","","","","","","","","","","","","","","",""
"","choice_confirmation","","html-keyboard-response","101","1474625","0.0-66.0-2.0-0.0","0","0","Fmgl1","Scenes","","null","","","null","","","","10","123","103","","","","","","","","","","","","","","","","","","","","","","","","","","","","","","","","","","","","","",""
"","explain_trial","","survey-text","102","1500191","0.0-66.0-5.0-0.0","0","0","Fmgl1","Scenes","","25564","{""Q0"":""I love the contrast of the shadow and sun. The one on the left just feels cliche and outdated.""}","","","","","","10","123","103","","","","","","","","","","","{""Q0"":""I love the contrast of the shadow and sun. The one on the left just feels cliche and outdated.""}","","","","","","","","","","","","","","","","","","","","","","","","","","",""
"","fixation","","html-keyboard-response","103","1501205","0.0-67.0-0.0","0","0","Fmgl1","Scenes","","null","","","null","","","","","","","","","","","","","","","","","","","","","","","","","","","","","","","","","","","","","","","","","","","",""
"","deliberation","","html-keyboard-response","104","1505962","0.0-67.0-1.0","0","0","Fmgl1","Scenes","","4754","","","68","","","","11","140","135","0","-1","85","88","samuele-errico-piccarini-JEBqFu2AOOA-unsplash.jpg","mohammad-alizade-4wzRuAb-KWs-unsplash.jpg","1","1","140","135","","","","","","","","","","","","","","","","","","","","","","","","","","","",""
"","choice_confirmation","","html-keyboard-response","105","1506465","0.0-67.0-2.0-0.0","0","0","Fmgl1","Scenes","","null","","","null","","","","11","140","135","","","","","","","","","","","","","","","","","","","","","","","","","","","","","","","","","","","","","",""
"","practice_deliberation_again","","html-keyboard-response","106","1509482","0.0-67.0-6.0-0.0","0","0","Fmgl1","Scenes","","3015","","","78","","","","","","","","","","","","","","","","","","","","","","","","","","","","","","","","","","","","","","","","","","","",""
"","fixation","","html-keyboard-response","107","1510492","0.0-68.0-0.0","0","0","Fmgl1","Scenes","","null","","","null","","","","","","","","","","","","","","","","","","","","","","","","","","","","","","","","","","","","","","","","","","","",""
"","deliberation","","html-keyboard-response","108","1513317","0.0-68.0-1.0","0","0","Fmgl1","Scenes","","2823","","","75","","","","12","110","129","0","1","82","81","bruno-van-der-kraan-qez8mNJ3ilU-unsplash.jpg","kurt-cotoaga-cqbLg3lZEpk-unsplash.jpg","2","0","129","110","","","","","","","","","","","","","","","","","","","","","","","","","","","",""
"","choice_confirmation","","html-keyboard-response","109","1513824","0.0-68.0-2.0-0.0","0","0","Fmgl1","Scenes","","null","","","null","","","","12","110","129","","","","","","","","","","","","","","","","","","","","","","","","","","","","","","","","","","","","","",""
"","fixation","","html-keyboard-response","110","1514836","0.0-69.0-0.0","0","0","Fmgl1","Scenes","","null","","","null","","","","","","","","","","","","","","","","","","","","","","","","","","","","","","","","","","","","","","","","","","","",""
"","deliberation","","html-keyboard-response","111","1517230","0.0-69.0-1.0","0","0","Fmgl1","Scenes","","2392","","","68","","","","13","143","131","1","-1","70","76","sigurdur-fjalar-jonsson-1KxBabIntpE-unsplash.jpg","luca-bravo-hFzIoD0F_i8-unsplash.jpg","2","1","143","131","","","","","","","","","","","","","","","","","","","","","","","","","","","",""
"","choice_confirmation","","html-keyboard-response","112","1517739","0.0-69.0-2.0-0.0","0","0","Fmgl1","Scenes","","null","","","null","","","","13","143","131","","","","","","","","","","","","","","","","","","","","","","","","","","","","","","","","","","","","","",""
"","explain_trial","","survey-text","113","1551175","0.0-69.0-5.0-0.0","0","0","Fmgl1","Scenes","","33433","{""Q0"":""I like the combination of green and blue hues more in this photo. ""}","","","","","","13","143","131","","","","","","","","","","","{""Q0"":""I like the combination of green and blue hues more in this photo. ""}","","","","","","","","","","","","","","","","","","","","","","","","","","",""
"","fixation","","html-keyboard-response","114","1552185","0.0-70.0-0.0","0","0","Fmgl1","Scenes","","null","","","null","","","","","","","","","","","","","","","","","","","","","","","","","","","","","","","","","","","","","","","","","","","",""
"","deliberation","","html-keyboard-response","115","1554061","0.0-70.0-1.0","0","0","Fmgl1","Scenes","","1873","","","75","","","","14","123","103","0","-1","81","79","joel-jasmin-forestbird-efuwb5eBDrI-unsplash.jpg","anton-darius-FBJugtbHsWU-unsplash.jpg","2","0","103","123","","","","","","","","","","","","","","","","","","","","","","","","","","","",""
"","choice_confirmation","","html-keyboard-response","116","1554572","0.0-70.0-2.0-0.0","0","0","Fmgl1","Scenes","","null","","","null","","","","14","123","103","","","","","","","","","","","","","","","","","","","","","","","","","","","","","","","","","","","","","",""
"","fixation","","html-keyboard-response","117","1555579","0.0-71.0-0.0","0","0","Fmgl1","Scenes","","null","","","null","","","","","","","","","","","","","","","","","","","","","","","","","","","","","","","","","","","","","","","","","","","",""
"","deliberation","","html-keyboard-response","118","1556675","0.0-71.0-1.0","0","0","Fmgl1","Scenes","","1093","","","68","","","","15","106","136","1","1","67","90","ashim-d-silva-WeYamle9fDM-unsplash.jpg","nicolas-jehly-LzVB84KkZOE-unsplash.jpg","2","1","106","136","","","","","","","","","","","","","","","","","","","","","","","","","","","",""
"","choice_confirmation","","html-keyboard-response","119","1557185","0.0-71.0-2.0-0.0","0","0","Fmgl1","Scenes","","null","","","null","","","","15","106","136","","","","","","","","","","","","","","","","","","","","","","","","","","","","","","","","","","","","","",""
"","explain_trial","","survey-text","120","1582365","0.0-71.0-5.0-0.0","0","0","Fmgl1","Scenes","","25177","{""Q0"":""I like the sun in the other photo, but it is honestly too blinding to look at.""}","","","","","","15","106","136","","","","","","","","","","","{""Q0"":""I like the sun in the other photo, but it is honestly too blinding to look at.""}","","","","","","","","","","","","","","","","","","","","","","","","","","",""
"","fixation","","html-keyboard-response","121","1583376","0.0-72.0-0.0","0","0","Fmgl1","Scenes","","null","","","null","","","","","","","","","","","","","","","","","","","","","","","","","","","","","","","","","","","","","","","","","","","",""
"","deliberation","","html-keyboard-response","122","1586403","0.0-72.0-1.0","0","0","Fmgl1","Scenes","","3024","","","75","","","","16","146","113","0","1","86","67","thomas-morse-cuKKa0vWZSY-unsplash.jpg","damian-denis-D8R_txR_0PE-unsplash.jpg","2","0","113","146","","","","","","","","","","","","","","","","","","","","","","","","","","","",""
"","choice_confirmation","","html-keyboard-response","123","1586912","0.0-72.0-2.0-0.0","0","0","Fmgl1","Scenes","","null","","","null","","","","16","146","113","","","","","","","","","","","","","","","","","","","","","","","","","","","","","","","","","","","","","",""
"","fixation","","html-keyboard-response","124","1587920","0.0-73.0-0.0","0","0","Fmgl1","Scenes","","null","","","null","","","","","","","","","","","","","","","","","","","","","","","","","","","","","","","","","","","","","","","","","","","",""
"","deliberation","","html-keyboard-response","125","1597074","0.0-73.0-1.0","0","0","Fmgl1","Scenes","","9150","","","75","","","","17","140","135","1","-1","85","88","samuele-errico-piccarini-JEBqFu2AOOA-unsplash.jpg","mohammad-alizade-4wzRuAb-KWs-unsplash.jpg","2","0","135","140","","","","","","","","","","","","","","","","","","","","","","","","","","","",""
"","choice_confirmation","","html-keyboard-response","126","1597578","0.0-73.0-2.0-0.0","0","0","Fmgl1","Scenes","","null","","","null","","","","17","140","135","","","","","","","","","","","","","","","","","","","","","","","","","","","","","","","","","","","","","",""
"","explain_trial","","survey-text","127","1617645","0.0-73.0-5.0-0.0","0","0","Fmgl1","Scenes","","20064","{""Q0"":""I love stars and the faint sunlight.""}","","","","","","17","140","135","","","","","","","","","","","{""Q0"":""I love stars and the faint sunlight.""}","","","","","","","","","","","","","","","","","","","","","","","","","","",""
"","fixation","","html-keyboard-response","128","1618656","0.0-74.0-0.0","0","0","Fmgl1","Scenes","","null","","","null","","","","","","","","","","","","","","","","","","","","","","","","","","","","","","","","","","","","","","","","","","","",""
"","deliberation","","html-keyboard-response","129","1620299","0.0-74.0-1.0","0","0","Fmgl1","Scenes","","1641","","","68","","","","18","105","121","1","1","67","63","ashim-d-silva-S2Q5mdOrrVc-unsplash.jpg","jean-pierre-brungs-qxCqkbF7tUc-unsplash.jpg","2","1","105","121","","","","","","","","","","","","","","","","","","","","","","","","","","","",""
"","choice_confirmation","","html-keyboard-response","130","1620807","0.0-74.0-2.0-0.0","0","0","Fmgl1","Scenes","","null","","","null","","","","18","105","121","","","","","","","","","","","","","","","","","","","","","","","","","","","","","","","","","","","","","",""
"","explain_trial","","survey-text","131","1639619","0.0-74.0-5.0-0.0","0","0","Fmgl1","Scenes","","18807","{""Q0"":""I love how minimalist and nicely geometric it is.""}","","","","","","18","105","121","","","","","","","","","","","{""Q0"":""I love how minimalist and nicely geometric it is.""}","","","","","","","","","","","","","","","","","","","","","","","","","","",""
"","fixation","","html-keyboard-response","132","1640623","0.0-75.0-0.0","0","0","Fmgl1","Scenes","","null","","","null","","","","","","","","","","","","","","","","","","","","","","","","","","","","","","","","","","","","","","","","","","","",""
"","deliberation","","html-keyboard-response","133","1642615","0.0-75.0-1.0","0","0","Fmgl1","Scenes","","1989","","","68","","","","19","109","126","0","1","88","66","brigitta-schneiter-hXXRLtTxXCU-unsplash.jpg","jordan-mcqueen-PJCZOWuOxbU-unsplash.jpg","2","1","109","126","","","","","","","","","","","","","","","","","","","","","","","","","","","",""
"","choice_confirmation","","html-keyboard-response","134","1643123","0.0-75.0-2.0-0.0","0","0","Fmgl1","Scenes","","null","","","null","","","","19","109","126","","","","","","","","","","","","","","","","","","","","","","","","","","","","","","","","","","","","","",""
"","fixation","","html-keyboard-response","135","1644127","0.0-76.0-0.0","0","0","Fmgl1","Scenes","","null","","","null","","","","","","","","","","","","","","","","","","","","","","","","","","","","","","","","","","","","","","","","","","","",""
"","deliberation","","html-keyboard-response","136","1645869","0.0-76.0-1.0","0","0","Fmgl1","Scenes","","1739","","","68","","","","20","118","133","0","1","64","88","henry-be-NLF6hTe4PAg-unsplash.jpg","mickey-o-neil-xL66l--msXU-unsplash.jpg","2","1","118","133","","","","","","","","","","","","","","","","","","","","","","","","","","","",""
"","choice_confirmation","","html-keyboard-response","137","1646376","0.0-76.0-2.0-0.0","0","0","Fmgl1","Scenes","","null","","","null","","","","20","118","133","","","","","","","","","","","","","","","","","","","","","","","","","","","","","","","","","","","","","",""
"","fixation","","html-keyboard-response","138","1647385","0.0-77.0-0.0","0","0","Fmgl1","Scenes","","null","","","null","","","","","","","","","","","","","","","","","","","","","","","","","","","","","","","","","","","","","","","","","","","",""
"","deliberation","","html-keyboard-response","139","1650780","0.0-77.0-1.0","0","0","Fmgl1","Scenes","","3393","","","75","","","","21","119","104","1","-1","90","71","james-wheeler-AFC0XvICMgs-unsplash.jpg","artem-sapegin-XGDBdSQ70O0-unsplash.jpg","2","0","104","119","","","","","","","","","","","","","","","","","","","","","","","","","","","",""
"","choice_confirmation","","html-keyboard-response","140","1651289","0.0-77.0-2.0-0.0","0","0","Fmgl1","Scenes","","null","","","null","","","","21","119","104","","","","","","","","","","","","","","","","","","","","","","","","","","","","","","","","","","","","","",""
"","explain_trial","","survey-text","141","1702150","0.0-77.0-5.0-0.0","0","0","Fmgl1","Scenes","","50858","{""Q0"":""I feel like this photo is less blurry to my eyes and I appreciate the focussed foreground contrasting with the background.""}","","","","","","21","119","104","","","","","","","","","","","{""Q0"":""I feel like this photo is less blurry to my eyes and I appreciate the focussed foreground contrasting with the background.""}","","","","","","","","","","","","","","","","","","","","","","","","","","",""
"","fixation","","html-keyboard-response","142","1703159","0.0-78.0-0.0","0","0","Fmgl1","Scenes","","null","","","null","","","","","","","","","","","","","","","","","","","","","","","","","","","","","","","","","","","","","","","","","","","",""
"","deliberation","","html-keyboard-response","143","1708188","0.0-78.0-1.0","0","0","Fmgl1","Scenes","","5026","","","68","","","","22","134","120","0","-1","92","92","milada-vigerova-pQMM63GE7fo-unsplash.jpg","jarrett-kow-1ZOyYPOBn7I-unsplash.jpg","2","1","134","120","","","","","","","","","","","","","","","","","","","","","","","","","","","",""
"","choice_confirmation","","html-keyboard-response","144","1708695","0.0-78.0-2.0-0.0","0","0","Fmgl1","Scenes","","null","","","null","","","","22","134","120","","","","","","","","","","","","","","","","","","","","","","","","","","","","","","","","","","","","","",""
"","fixation","","html-keyboard-response","145","1709701","0.0-79.0-0.0","0","0","Fmgl1","Scenes","","null","","","null","","","","","","","","","","","","","","","","","","","","","","","","","","","","","","","","","","","","","","","","","","","",""
"","deliberation","","html-keyboard-response","146","1711856","0.0-79.0-1.0","0","0","Fmgl1","Scenes","","2153","","","75","","","","23","116","108","1","-1","83","88","david-marcu-W5MhJ6cy1So-unsplash.jpg","benjamin-voros-phIFdC6lA4E-unsplash.jpg","2","0","108","116","","","","","","","","","","","","","","","","","","","","","","","","","","","",""
"","choice_confirmation","","html-keyboard-response","147","1712367","0.0-79.0-2.0-0.0","0","0","Fmgl1","Scenes","","null","","","null","","","","23","116","108","","","","","","","","","","","","","","","","","","","","","","","","","","","","","","","","","","","","","",""
"","explain_trial","","survey-text","148","1718634","0.0-79.0-5.0-0.0","0","0","Fmgl1","Scenes","","6265","{""Q0"":""STARS""}","","","","","","23","116","108","","","","","","","","","","","{""Q0"":""STARS""}","","","","","","","","","","","","","","","","","","","","","","","","","","",""
"","start_critical_deliberation_block","","html-keyboard-response","149","1720330","0.0-79.0-7.0-0.0","0","0","Fmgl1","Scenes","","1694","","","78","","","","","","","","","","","","","","","","","","","","","","","","","","","","","","","","","","","","","","","","","","","",""
"","fixation","","html-keyboard-response","150","1721335","0.0-80.0-0.0","0","0","Fmgl1","Scenes","","null","","","null","","","","","","","","","","","","","","","","","","","","","","","","","","","","","","","","","","","","","","","","","","","",""
"","deliberation","","html-keyboard-response","151","1724829","0.0-80.0-1.0","0","0","Fmgl1","Scenes","","3492","","","68","","","","24","109","126","0","1","88","66","brigitta-schneiter-hXXRLtTxXCU-unsplash.jpg","jordan-mcqueen-PJCZOWuOxbU-unsplash.jpg","3","1","109","126","","","","","","","","","","","","","","","","","","","","","","","","","","","",""
"","choice_confirmation","","html-keyboard-response","152","1725333","0.0-80.0-2.0-0.0","0","0","Fmgl1","Scenes","","null","","","null","","","","24","109","126","","","","","","","","","","","","","","","","","","","","","","","","","","","","","","","","","","","","","",""
"","fixation","","html-keyboard-response","153","1726341","0.0-81.0-0.0","0","0","Fmgl1","Scenes","","null","","","null","","","","","","","","","","","","","","","","","","","","","","","","","","","","","","","","","","","","","","","","","","","",""
"","deliberation","","html-keyboard-response","154","1727401","0.0-81.0-1.0","0","0","Fmgl1","Scenes","","1058","","","68","","","","25","118","133","0","1","64","88","henry-be-NLF6hTe4PAg-unsplash.jpg","mickey-o-neil-xL66l--msXU-unsplash.jpg","3","1","118","133","","","","","","","","","","","","","","","","","","","","","","","","","","","",""
"","choice_confirmation","","html-keyboard-response","155","1727910","0.0-81.0-2.0-0.0","0","0","Fmgl1","Scenes","","null","","","null","","","","25","118","133","","","","","","","","","","","","","","","","","","","","","","","","","","","","","","","","","","","","","",""
"","fixation","","html-keyboard-response","156","1728919","0.0-82.0-0.0","0","0","Fmgl1","Scenes","","null","","","null","","","","","","","","","","","","","","","","","","","","","","","","","","","","","","","","","","","","","","","","","","","",""
"","deliberation","","html-keyboard-response","157","1729926","0.0-82.0-1.0","0","0","Fmgl1","Scenes","","1005","","","68","","","","26","134","120","0","-1","92","92","milada-vigerova-pQMM63GE7fo-unsplash.jpg","jarrett-kow-1ZOyYPOBn7I-unsplash.jpg","3","1","134","120","","","","","","","","","","","","","","","","","","","","","","","","","","","",""
"","choice_confirmation","","html-keyboard-response","158","1730430","0.0-82.0-2.0-0.0","0","0","Fmgl1","Scenes","","null","","","null","","","","26","134","120","","","","","","","","","","","","","","","","","","","","","","","","","","","","","","","","","","","","","",""
"","fixation","","html-keyboard-response","159","1731440","0.0-83.0-0.0","0","0","Fmgl1","Scenes","","null","","","null","","","","","","","","","","","","","","","","","","","","","","","","","","","","","","","","","","","","","","","","","","","",""
"","deliberation","","html-keyboard-response","160","1732931","0.0-83.0-1.0","0","0","Fmgl1","Scenes","","1489","","","75","","","","27","119","104","0","-1","90","71","james-wheeler-AFC0XvICMgs-unsplash.jpg","artem-sapegin-XGDBdSQ70O0-unsplash.jpg","3","0","104","119","","","","","","","","","","","","","","","","","","","","","","","","","","","",""
"","choice_confirmation","","html-keyboard-response","161","1733439","0.0-83.0-2.0-0.0","0","0","Fmgl1","Scenes","","null","","","null","","","","27","119","104","","","","","","","","","","","","","","","","","","","","","","","","","","","","","","","","","","","","","",""
"","fixation","","html-keyboard-response","162","1734446","0.0-84.0-0.0","0","0","Fmgl1","Scenes","","null","","","null","","","","","","","","","","","","","","","","","","","","","","","","","","","","","","","","","","","","","","","","","","","",""
"","deliberation","","html-keyboard-response","163","1735356","0.0-84.0-1.0","0","0","Fmgl1","Scenes","","908","","","68","","","","28","106","136","0","1","67","90","ashim-d-silva-WeYamle9fDM-unsplash.jpg","nicolas-jehly-LzVB84KkZOE-unsplash.jpg","3","1","106","136","","","","","","","","","","","","","","","","","","","","","","","","","","","",""
"","choice_confirmation","","html-keyboard-response","164","1735862","0.0-84.0-2.0-0.0","0","0","Fmgl1","Scenes","","null","","","null","","","","28","106","136","","","","","","","","","","","","","","","","","","","","","","","","","","","","","","","","","","","","","",""
"","fixation","","html-keyboard-response","165","1736870","0.0-85.0-0.0","0","0","Fmgl1","Scenes","","null","","","null","","","","","","","","","","","","","","","","","","","","","","","","","","","","","","","","","","","","","","","","","","","",""
"","deliberation","","html-keyboard-response","166","1737918","0.0-85.0-1.0","0","0","Fmgl1","Scenes","","1045","","","68","","","","29","105","121","0","1","67","63","ashim-d-silva-S2Q5mdOrrVc-unsplash.jpg","jean-pierre-brungs-qxCqkbF7tUc-unsplash.jpg","3","1","105","121","","","","","","","","","","","","","","","","","","","","","","","","","","","",""
"","choice_confirmation","","html-keyboard-response","167","1738422","0.0-85.0-2.0-0.0","0","0","Fmgl1","Scenes","","null","","","null","","","","29","105","121","","","","","","","","","","","","","","","","","","","","","","","","","","","","","","","","","","","","","",""
"","fixation","","html-keyboard-response","168","1739430","0.0-86.0-0.0","0","0","Fmgl1","Scenes","","null","","","null","","","","","","","","","","","","","","","","","","","","","","","","","","","","","","","","","","","","","","","","","","","",""
"","deliberation","","html-keyboard-response","169","1740989","0.0-86.0-1.0","0","0","Fmgl1","Scenes","","1557","","","75","","","","30","123","103","0","-1","81","79","joel-jasmin-forestbird-efuwb5eBDrI-unsplash.jpg","anton-darius-FBJugtbHsWU-unsplash.jpg","3","0","103","123","","","","","","","","","","","","","","","","","","","","","","","","","","","",""
"","choice_confirmation","","html-keyboard-response","170","1741494","0.0-86.0-2.0-0.0","0","0","Fmgl1","Scenes","","null","","","null","","","","30","123","103","","","","","","","","","","","","","","","","","","","","","","","","","","","","","","","","","","","","","",""
"","fixation","","html-keyboard-response","171","1742504","0.0-87.0-0.0","0","0","Fmgl1","Scenes","","null","","","null","","","","","","","","","","","","","","","","","","","","","","","","","","","","","","","","","","","","","","","","","","","",""
"","deliberation","","html-keyboard-response","172","1744483","0.0-87.0-1.0","0","0","Fmgl1","Scenes","","1977","","","75","","","","31","110","129","0","1","82","81","bruno-van-der-kraan-qez8mNJ3ilU-unsplash.jpg","kurt-cotoaga-cqbLg3lZEpk-unsplash.jpg","3","0","129","110","","","","","","","","","","","","","","","","","","","","","","","","","","","",""
"","choice_confirmation","","html-keyboard-response","173","1744992","0.0-87.0-2.0-0.0","0","0","Fmgl1","Scenes","","null","","","null","","","","31","110","129","","","","","","","","","","","","","","","","","","","","","","","","","","","","","","","","","","","","","",""
"","fixation","","html-keyboard-response","174","1746001","0.0-88.0-0.0","0","0","Fmgl1","Scenes","","null","","","null","","","","","","","","","","","","","","","","","","","","","","","","","","","","","","","","","","","","","","","","","","","",""
"","deliberation","","html-keyboard-response","175","1747324","0.0-88.0-1.0","0","0","Fmgl1","Scenes","","1321","","","75","","","","32","146","113","0","1","86","67","thomas-morse-cuKKa0vWZSY-unsplash.jpg","damian-denis-D8R_txR_0PE-unsplash.jpg","3","0","113","146","","","","","","","","","","","","","","","","","","","","","","","","","","","",""
"","choice_confirmation","","html-keyboard-response","176","1747829","0.0-88.0-2.0-0.0","0","0","Fmgl1","Scenes","","null","","","null","","","","32","146","113","","","","","","","","","","","","","","","","","","","","","","","","","","","","","","","","","","","","","",""
"","fixation","","html-keyboard-response","177","1748838","0.0-89.0-0.0","0","0","Fmgl1","Scenes","","null","","","null","","","","","","","","","","","","","","","","","","","","","","","","","","","","","","","","","","","","","","","","","","","",""
"","deliberation","","html-keyboard-response","178","1752974","0.0-89.0-1.0","0","0","Fmgl1","Scenes","","4132","","","68","","","","33","140","135","0","-1","85","88","samuele-errico-piccarini-JEBqFu2AOOA-unsplash.jpg","mohammad-alizade-4wzRuAb-KWs-unsplash.jpg","3","1","140","135","","","","","","","","","","","","","","","","","","","","","","","","","","","",""
"","choice_confirmation","","html-keyboard-response","179","1753476","0.0-89.0-2.0-0.0","0","0","Fmgl1","Scenes","","null","","","null","","","","33","140","135","","","","","","","","","","","","","","","","","","","","","","","","","","","","","","","","","","","","","",""
"","fixation","","html-keyboard-response","180","1754485","0.0-90.0-0.0","0","0","Fmgl1","Scenes","","null","","","null","","","","","","","","","","","","","","","","","","","","","","","","","","","","","","","","","","","","","","","","","","","",""
"","deliberation","","html-keyboard-response","181","1756519","0.0-90.0-1.0","0","0","Fmgl1","Scenes","","2031","","","75","","","","34","116","108","0","-1","83","88","david-marcu-W5MhJ6cy1So-unsplash.jpg","benjamin-voros-phIFdC6lA4E-unsplash.jpg","3","0","108","116","","","","","","","","","","","","","","","","","","","","","","","","","","","",""
"","choice_confirmation","","html-keyboard-response","182","1757022","0.0-90.0-2.0-0.0","0","0","Fmgl1","Scenes","","null","","","null","","","","34","116","108","","","","","","","","","","","","","","","","","","","","","","","","","","","","","","","","","","","","","",""
"","fixation","","html-keyboard-response","183","1758030","0.0-91.0-0.0","0","0","Fmgl1","Scenes","","null","","","null","","","","","","","","","","","","","","","","","","","","","","","","","","","","","","","","","","","","","","","","","","","",""
"","deliberation","","html-keyboard-response","184","1759393","0.0-91.0-1.0","0","0","Fmgl1","Scenes","","1361","","","68","","","","35","143","131","0","-1","70","76","sigurdur-fjalar-jonsson-1KxBabIntpE-unsplash.jpg","luca-bravo-hFzIoD0F_i8-unsplash.jpg","3","1","143","131","","","","","","","","","","","","","","","","","","","","","","","","","","","",""
"","choice_confirmation","","html-keyboard-response","185","1759918","0.0-91.0-2.0-0.0","0","0","Fmgl1","Scenes","","null","","","null","","","","35","143","131","","","","","","","","","","","","","","","","","","","","","","","","","","","","","","","","","","","","","",""
"","reward_learning_instructions","","instructions","186","1848926","0.0-92.0-0.0","0","0","Fmgl1","Scenes","[{""page_index"":0,""viewing_time"":48336},{""page_index"":1,""viewing_time"":36771},{""page_index"":2,""viewing_time"":3899}]","89006","","","","","","","","","","","","","","","","","","","","","","","","","","","","","","","","","","","","","","","","","","","","","","",""
"","reward_comprehension_check","","survey-multi-choice","187","1864889","0.0-92.0-1.0","0","0","Fmgl1","Scenes","","15953","{""Q0"":""True"",""Q1"":""True"",""Q2"":""Press the space bar to see its outcome"",""Q3"":""Press the relevant key while the outcome is presented""}","0","","","","","","","","","","","","","","","","","","","","","","","","","","","","","","","","","","","","","","","","","","","","",""
"","start_phase","","html-keyboard-response","188","1866211","0.0-93.0","0","0","Fmgl1","Scenes","","1319","","","78","","","","","","","","","","","","","","","","","","","","","","","","","","","","","","","","","","","","","","","","","","","",""
"","fixation","","html-keyboard-response","189","1867224","0.0-94.0","0","0","Fmgl1","Scenes","","null","","","null","","","","","","","","","","","","","","","","","","","","","","","","","","","","","","","","","","","","","","","","","","","",""
"","see_reward","","html-keyboard-response","190","1869813","0.0-95.0","0","0","Fmgl1","Scenes","","2583","","","32","","113","","0","","","","1","","","","","1","","","","","159","2583","","","","","","","","","","","","","","","","","","","","","","","","",""
"","reward_outcome","","html-keyboard-response","191","1871844","0.0-96.0","0","0","Fmgl1","Scenes","","null","","","null","","113","","0","","","","","","","","","","","","","","","","NaN","null","","","","","","","","","","","","","","","","","","","","","","",""
"","respond_faster","","html-keyboard-response","192","1873356","0.0-97.0-0.0","1","0","Fmgl1","Scenes","","null","","","null","","","","","","","","","","","","","","","","","","","","","","","","","","","","","","","","","","","","","","","","","","","",""
"","fixation","","html-keyboard-response","193","1874365","0.0-99.0","0","0","Fmgl1","Scenes","","null","","","null","","","","","","","","","","","","","","","","","","","","","","","","","","","","","","","","","","","","","","","","","","","",""
"","see_reward","","html-keyboard-response","194","1875440","0.0-100.0","0","0","Fmgl1","Scenes","","1074","","","32","","140","","1","","","","-1","","","","","1","","","","","0","1074","","","","","","","","","","","","","","","","","","","","","","","","",""
"","reward_outcome","","html-keyboard-response","195","1877445","0.0-101.0","0","0","Fmgl1","Scenes","","899","","","40","","140","","1","","","","","","","","","","","","","","","","-1","899","","","","","","","","","","","","","","","","","","","","","","",""
"","fixation","","html-keyboard-response","196","1878453","0.0-104.0","0","0","Fmgl1","Scenes","","null","","","null","","","","","","","","","","","","","","","","","","","","","","","","","","","","","","","","","","","","","","","","","","","",""
"","see_reward","","html-keyboard-response","197","1878968","0.0-105.0","0","0","Fmgl1","Scenes","","514","","","32","","118","","2","","","","1","","","","","1","","","","","153","514","","","","","","","","","","","","","","","","","","","","","","","","",""
"","reward_outcome","","html-keyboard-response","198","1880972","0.0-106.0","0","0","Fmgl1","Scenes","","927","","","38","","118","","2","","","","","","","","","","","","","","","","1","927","","","","","","","","","","","","","","","","","","","","","","",""
"","fixation","","html-keyboard-response","199","1881980","0.0-109.0","0","0","Fmgl1","Scenes","","null","","","null","","","","","","","","","","","","","","","","","","","","","","","","","","","","","","","","","","","","","","","","","","","",""
"","see_reward","","html-keyboard-response","200","1882438","0.0-110.0","0","0","Fmgl1","Scenes","","456","","","32","","106","","3","","","","1","","","","","1","","","","","152","456","","","","","","","","","","","","","","","","","","","","","","","","",""
"","reward_outcome","","html-keyboard-response","201","1884444","0.0-111.0","0","0","Fmgl1","Scenes","","558","","","38","","106","","3","","","","","","","","","","","","","","","","1","558","","","","","","","","","","","","","","","","","","","","","","",""
"","fixation","","html-keyboard-response","202","1885452","0.0-114.0","0","0","Fmgl1","Scenes","","null","","","null","","","","","","","","","","","","","","","","","","","","","","","","","","","","","","","","","","","","","","","","","","","",""
"","see_reward","","html-keyboard-response","203","1885961","0.0-115.0","0","0","Fmgl1","Scenes","","507","","","32","","109","","4","","","","1","","","","","1","","","","","150","507","","","","","","","","","","","","","","","","","","","","","","","","",""
"","reward_outcome","","html-keyboard-response","204","1887971","0.0-116.0","0","0","Fmgl1","Scenes","","571","","","38","","109","","4","","","","","","","","","","","","","","","","1","571","","","","","","","","","","","","","","","","","","","","","","",""
"","fixation","","html-keyboard-response","205","1888980","0.0-119.0","0","0","Fmgl1","Scenes","","null","","","null","","","","","","","","","","","","","","","","","","","","","","","","","","","","","","","","","","","","","","","","","","","",""
"","see_reward","","html-keyboard-response","206","1889406","0.0-120.0","0","0","Fmgl1","Scenes","","425","","","32","","105","","5","","","","1","","","","","1","","","","","153","425","","","","","","","","","","","","","","","","","","","","","","","","",""
"","reward_outcome","","html-keyboard-response","207","1891412","0.0-121.0","0","0","Fmgl1","Scenes","","493","","","38","","105","","5","","","","","","","","","","","","","","","","1","493","","","","","","","","","","","","","","","","","","","","","","",""
"","fixation","","html-keyboard-response","208","1892419","0.0-124.0","0","0","Fmgl1","Scenes","","null","","","null","","","","","","","","","","","","","","","","","","","","","","","","","","","","","","","","","","","","","","","","","","","",""
"","see_reward","","html-keyboard-response","209","1892894","0.0-125.0","0","0","Fmgl1","Scenes","","474","","","32","","103","","6","","","","-1","","","","","1","","","","","0","474","","","","","","","","","","","","","","","","","","","","","","","","",""
"","reward_outcome","","html-keyboard-response","210","1894900","0.0-126.0","0","0","Fmgl1","Scenes","","939","","","40","","103","","6","","","","","","","","","","","","","","","","-1","939","","","","","","","","","","","","","","","","","","","","","","",""
"","fixation","","html-keyboard-response","211","1895909","0.0-129.0","0","0","Fmgl1","Scenes","","null","","","null","","","","","","","","","","","","","","","","","","","","","","","","","","","","","","","","","","","","","","","","","","","",""
"","see_reward","","html-keyboard-response","212","1896830","0.0-130.0","0","0","Fmgl1","Scenes","","919","","","32","","109","","7","","","","1","","","","","1","","","","","150","919","","","","","","","","","","","","","","","","","","","","","","","","",""
"","reward_outcome","","html-keyboard-response","213","1898836","0.0-131.0","0","0","Fmgl1","Scenes","","763","","","38","","109","","7","","","","","","","","","","","","","","","","1","763","","","","","","","","","","","","","","","","","","","","","","",""
"","fixation","","html-keyboard-response","214","1899844","0.0-134.0","0","0","Fmgl1","Scenes","","null","","","null","","","","","","","","","","","","","","","","","","","","","","","","","","","","","","","","","","","","","","","","","","","",""
"","see_reward","","html-keyboard-response","215","1900642","0.0-135.0","0","0","Fmgl1","Scenes","","796","","","32","","113","","8","","","","1","","","","","1","","","","","159","796","","","","","","","","","","","","","","","","","","","","","","","","",""
"","reward_outcome","","html-keyboard-response","216","1902652","0.0-136.0","0","0","Fmgl1","Scenes","","481","","","38","","113","","8","","","","","","","","","","","","","","","","1","481","","","","","","","","","","","","","","","","","","","","","","",""
"","fixation","","html-keyboard-response","217","1903659","0.0-139.0","0","0","Fmgl1","Scenes","","null","","","null","","","","","","","","","","","","","","","","","","","","","","","","","","","","","","","","","","","","","","","","","","","",""
"","see_reward","","html-keyboard-response","218","1904200","0.0-140.0","0","0","Fmgl1","Scenes","","539","","","32","","106","","9","","","","1","","","","","1","","","","","152","539","","","","","","","","","","","","","","","","","","","","","","","","",""
"","reward_outcome","","html-keyboard-response","219","1906203","0.0-141.0","0","0","Fmgl1","Scenes","","448","","","38","","106","","9","","","","","","","","","","","","","","","","1","448","","","","","","","","","","","","","","","","","","","","","","",""
"","fixation","","html-keyboard-response","220","1907211","0.0-144.0","0","0","Fmgl1","Scenes","","null","","","null","","","","","","","","","","","","","","","","","","","","","","","","","","","","","","","","","","","","","","","","","","","",""
"","see_reward","","html-keyboard-response","221","1907620","0.0-145.0","0","0","Fmgl1","Scenes","","407","","","32","","129","","10","","","","1","","","","","1","","","","","141","407","","","","","","","","","","","","","","","","","","","","","","","","",""
"","reward_outcome","","html-keyboard-response","222","1909628","0.0-146.0","0","0","Fmgl1","Scenes","","563","","","38","","129","","10","","","","","","","","","","","","","","","","1","563","","","","","","","","","","","","","","","","","","","","","","",""
"","fixation","","html-keyboard-response","223","1910635","0.0-149.0","0","0","Fmgl1","Scenes","","null","","","null","","","","","","","","","","","","","","","","","","","","","","","","","","","","","","","","","","","","","","","","","","","",""
"","see_reward","","html-keyboard-response","224","1911080","0.0-150.0","0","0","Fmgl1","Scenes","","444","","","32","","143","","11","","","","-1","","","","","1","","","","","0","444","","","","","","","","","","","","","","","","","","","","","","","","",""
"","reward_outcome","","html-keyboard-response","225","1913086","0.0-151.0","0","0","Fmgl1","Scenes","","295","","","38","","143","","11","","","","","","","","","","","","","","","","1","295","","","","","","","","","","","","","","","","","","","","","","",""
"","fixation","","html-keyboard-response","226","1914091","0.0-154.0","0","0","Fmgl1","Scenes","","null","","","null","","","","","","","","","","","","","","","","","","","","","","","","","","","","","","","","","","","","","","","","","","","",""
"","see_reward","","html-keyboard-response","227","1915418","0.0-155.0","0","0","Fmgl1","Scenes","","1325","","","32","","129","","12","","","","1","","","","","1","","","","","141","1325","","","","","","","","","","","","","","","","","","","","","","","","",""
"","reward_outcome","","html-keyboard-response","228","1917427","0.0-156.0","0","0","Fmgl1","Scenes","","398","","","38","","129","","12","","","","","","","","","","","","","","","","1","398","","","","","","","","","","","","","","","","","","","","","","",""
"","fixation","","html-keyboard-response","229","1918435","0.0-159.0","0","0","Fmgl1","Scenes","","null","","","null","","","","","","","","","","","","","","","","","","","","","","","","","","","","","","","","","","","","","","","","","","","",""
"","see_reward","","html-keyboard-response","230","1918802","0.0-160.0","0","0","Fmgl1","Scenes","","365","","","32","","140","","13","","","","-1","","","","","1","","","","","0","365","","","","","","","","","","","","","","","","","","","","","","","","",""
"","reward_outcome","","html-keyboard-response","231","1920814","0.0-161.0","0","0","Fmgl1","Scenes","","641","","","40","","140","","13","","","","","","","","","","","","","","","","-1","641","","","","","","","","","","","","","","","","","","","","","","",""
"","fixation","","html-keyboard-response","232","1921820","0.0-164.0","0","0","Fmgl1","Scenes","","null","","","null","","","","","","","","","","","","","","","","","","","","","","","","","","","","","","","","","","","","","","","","","","","",""
"","see_reward","","html-keyboard-response","233","1922684","0.0-165.0","0","0","Fmgl1","Scenes","","862","","","32","","108","","14","","","","-1","","","","","1","","","","","0","862","","","","","","","","","","","","","","","","","","","","","","","","",""
"","reward_outcome","","html-keyboard-response","234","1924692","0.0-166.0","0","0","Fmgl1","Scenes","","532","","","40","","108","","14","","","","","","","","","","","","","","","","-1","532","","","","","","","","","","","","","","","","","","","","","","",""
"","fixation","","html-keyboard-response","235","1925698","0.0-169.0","0","0","Fmgl1","Scenes","","null","","","null","","","","","","","","","","","","","","","","","","","","","","","","","","","","","","","","","","","","","","","","","","","",""
"","see_reward","","html-keyboard-response","236","1926662","0.0-170.0","0","0","Fmgl1","Scenes","","962","","","32","","108","","15","","","","-1","","","","","1","","","","","0","962","","","","","","","","","","","","","","","","","","","","","","","","",""
"","reward_outcome","","html-keyboard-response","237","1928670","0.0-171.0","0","0","Fmgl1","Scenes","","617","","","40","","108","","15","","","","","","","","","","","","","","","","-1","617","","","","","","","","","","","","","","","","","","","","","","",""
"","fixation","","html-keyboard-response","238","1929675","0.0-174.0","0","0","Fmgl1","Scenes","","null","","","null","","","","","","","","","","","","","","","","","","","","","","","","","","","","","","","","","","","","","","","","","","","",""
"","see_reward","","html-keyboard-response","239","1930085","0.0-175.0","0","0","Fmgl1","Scenes","","408","","","32","","143","","16","","","","-1","","","","","1","","","","","0","408","","","","","","","","","","","","","","","","","","","","","","","","",""
"","reward_outcome","","html-keyboard-response","240","1932089","0.0-176.0","0","0","Fmgl1","Scenes","","874","","","40","","143","","16","","","","","","","","","","","","","","","","-1","874","","","","","","","","","","","","","","","","","","","","","","",""
"","fixation","","html-keyboard-response","241","1933099","0.0-179.0","0","0","Fmgl1","Scenes","","null","","","null","","","","","","","","","","","","","","","","","","","","","","","","","","","","","","","","","","","","","","","","","","","",""
"","see_reward","","html-keyboard-response","242","1933482","0.0-180.0","0","0","Fmgl1","Scenes","","382","","","32","","103","","17","","","","-1","","","","","1","","","","","0","382","","","","","","","","","","","","","","","","","","","","","","","","",""
"","reward_outcome","","html-keyboard-response","243","1935491","0.0-181.0","0","0","Fmgl1","Scenes","","551","","","40","","103","","17","","","","","","","","","","","","","","","","-1","551","","","","","","","","","","","","","","","","","","","","","","",""
"","fixation","","html-keyboard-response","244","1936501","0.0-184.0","0","0","Fmgl1","Scenes","","null","","","null","","","","","","","","","","","","","","","","","","","","","","","","","","","","","","","","","","","","","","","","","","","",""
"","see_reward","","html-keyboard-response","245","1937256","0.0-185.0","0","0","Fmgl1","Scenes","","752","","","32","","104","","18","","","","-1","","","","","1","","","","","0","752","","","","","","","","","","","","","","","","","","","","","","","","",""
"","reward_outcome","","html-keyboard-response","246","1939263","0.0-186.0","0","0","Fmgl1","Scenes","","696","","","40","","104","","18","","","","","","","","","","","","","","","","-1","696","","","","","","","","","","","","","","","","","","","","","","",""
"","fixation","","html-keyboard-response","247","1940269","0.0-189.0","0","0","Fmgl1","Scenes","","null","","","null","","","","","","","","","","","","","","","","","","","","","","","","","","","","","","","","","","","","","","","","","","","",""
"","see_reward","","html-keyboard-response","248","1941016","0.0-190.0","0","0","Fmgl1","Scenes","","745","","","32","","134","","19","","","","-1","","","","","1","","","","","0","745","","","","","","","","","","","","","","","","","","","","","","","","",""
"","reward_outcome","","html-keyboard-response","249","1943028","0.0-191.0","0","0","Fmgl1","Scenes","","733","","","40","","134","","19","","","","","","","","","","","","","","","","-1","733","","","","","","","","","","","","","","","","","","","","","","",""
"","fixation","","html-keyboard-response","250","1944035","0.0-194.0","0","0","Fmgl1","Scenes","","null","","","null","","","","","","","","","","","","","","","","","","","","","","","","","","","","","","","","","","","","","","","","","","","",""
"","see_reward","","html-keyboard-response","251","1944620","0.0-195.0","0","0","Fmgl1","Scenes","","583","","","32","","134","","20","","","","-1","","","","","1","","","","","0","583","","","","","","","","","","","","","","","","","","","","","","","","",""
"","reward_outcome","","html-keyboard-response","252","1946626","0.0-196.0","0","0","Fmgl1","Scenes","","455","","","40","","134","","20","","","","","","","","","","","","","","","","-1","455","","","","","","","","","","","","","","","","","","","","","","",""
"","fixation","","html-keyboard-response","253","1947634","0.0-199.0","0","0","Fmgl1","Scenes","","null","","","null","","","","","","","","","","","","","","","","","","","","","","","","","","","","","","","","","","","","","","","","","","","",""
"","see_reward","","html-keyboard-response","254","1948068","0.0-200.0","0","0","Fmgl1","Scenes","","432","","","32","","104","","21","","","","-1","","","","","1","","","","","0","432","","","","","","","","","","","","","","","","","","","","","","","","",""
"","reward_outcome","","html-keyboard-response","255","1950074","0.0-201.0","0","0","Fmgl1","Scenes","","527","","","40","","104","","21","","","","","","","","","","","","","","","","-1","527","","","","","","","","","","","","","","","","","","","","","","",""
"","fixation","","html-keyboard-response","256","1951084","0.0-204.0","0","0","Fmgl1","Scenes","","null","","","null","","","","","","","","","","","","","","","","","","","","","","","","","","","","","","","","","","","","","","","","","","","",""
"","see_reward","","html-keyboard-response","257","1951451","0.0-205.0","0","0","Fmgl1","Scenes","","364","","","32","","118","","22","","","","1","","","","","1","","","","","153","364","","","","","","","","","","","","","","","","","","","","","","","","",""
"","reward_outcome","","html-keyboard-response","258","1953459","0.0-206.0","0","0","Fmgl1","Scenes","","732","","","38","","118","","22","","","","","","","","","","","","","","","","1","732","","","","","","","","","","","","","","","","","","","","","","",""
"","fixation","","html-keyboard-response","259","1954467","0.0-209.0","0","0","Fmgl1","Scenes","","null","","","null","","","","","","","","","","","","","","","","","","","","","","","","","","","","","","","","","","","","","","","","","","","",""
"","see_reward","","html-keyboard-response","260","1955156","0.0-210.0","0","0","Fmgl1","Scenes","","687","","","32","","105","","23","","","","1","","","","","1","","","","","153","687","","","","","","","","","","","","","","","","","","","","","","","","",""
"","reward_outcome","","html-keyboard-response","261","1957163","0.0-211.0","0","0","Fmgl1","Scenes","","375","","","38","","105","","23","","","","","","","","","","","","","","","","1","375","","","","","","","","","","","","","","","","","","","","","","",""
"","block_over","","html-keyboard-response","262","1959642","0.0-213.0-0.0","0","0","Fmgl1","Scenes","","2477","","","78","","","","","","","","","","","","","","","","","","","","","","","","","","","","","","","","","","","","","","","","","","","",""
"","fixation","","html-keyboard-response","263","1960651","0.0-214.0","0","0","Fmgl1","Scenes","","null","","","null","","","","","","","","","","","","","","","","","","","","","","","","","","","","","","","","","","","","","","","","","","","",""
"","see_reward","","html-keyboard-response","264","1961456","0.0-215.0","0","0","Fmgl1","Scenes","","803","","","32","","105","","24","","","","1","","","","","2","","","","","153","803","","","","","","","","","","","","","","","","","","","","","","","","",""
"","reward_outcome","","html-keyboard-response","265","1963467","0.0-216.0","0","0","Fmgl1","Scenes","","737","","","38","","105","","24","","","","","","","","","","","","","","","","1","737","","","","","","","","","","","","","","","","","","","","","","",""
"","fixation","","html-keyboard-response","266","1964475","0.0-219.0","0","0","Fmgl1","Scenes","","null","","","null","","","","","","","","","","","","","","","","","","","","","","","","","","","","","","","","","","","","","","","","","","","",""
"","see_reward","","html-keyboard-response","267","1964894","0.0-220.0","0","0","Fmgl1","Scenes","","417","","","32","","129","","25","","","","1","","","","","2","","","","","141","417","","","","","","","","","","","","","","","","","","","","","","","","",""
"","reward_outcome","","html-keyboard-response","268","1966900","0.0-221.0","0","0","Fmgl1","Scenes","","390","","","38","","129","","25","","","","","","","","","","","","","","","","1","390","","","","","","","","","","","","","","","","","","","","","","",""
"","fixation","","html-keyboard-response","269","1967907","0.0-224.0","0","0","Fmgl1","Scenes","","null","","","null","","","","","","","","","","","","","","","","","","","","","","","","","","","","","","","","","","","","","","","","","","","",""
"","see_reward","","html-keyboard-response","270","1968300","0.0-225.0","0","0","Fmgl1","Scenes","","391","","","32","","140","","26","","","","-1","","","","","2","","","","","0","391","","","","","","","","","","","","","","","","","","","","","","","","",""
"","reward_outcome","","html-keyboard-response","271","1970307","0.0-226.0","0","0","Fmgl1","Scenes","","552","","","40","","140","","26","","","","","","","","","","","","","","","","-1","552","","","","","","","","","","","","","","","","","","","","","","",""
"","fixation","","html-keyboard-response","272","1971314","0.0-229.0","0","0","Fmgl1","Scenes","","null","","","null","","","","","","","","","","","","","","","","","","","","","","","","","","","","","","","","","","","","","","","","","","","",""
"","see_reward","","html-keyboard-response","273","1971477","0.0-230.0","0","0","Fmgl1","Scenes","","161","","","32","","113","","27","","","","1","","","","","2","","","","","159","161","","","","","","","","","","","","","","","","","","","","","","","","",""
"","reward_outcome","","html-keyboard-response","274","1973487","0.0-231.0","0","0","Fmgl1","Scenes","","714","","","38","","113","","27","","","","","","","","","","","","","","","","1","714","","","","","","","","","","","","","","","","","","","","","","",""
"","fixation","","html-keyboard-response","275","1974491","0.0-234.0","0","0","Fmgl1","Scenes","","null","","","null","","","","","","","","","","","","","","","","","","","","","","","","","","","","","","","","","","","","","","","","","","","",""
"","see_reward","","html-keyboard-response","276","1975164","0.0-235.0","0","0","Fmgl1","Scenes","","671","","","32","","106","","28","","","","1","","","","","2","","","","","152","671","","","","","","","","","","","","","","","","","","","","","","","","",""
"","reward_outcome","","html-keyboard-response","277","1977172","0.0-236.0","0","0","Fmgl1","Scenes","","437","","","38","","106","","28","","","","","","","","","","","","","","","","1","437","","","","","","","","","","","","","","","","","","","","","","",""
"","fixation","","html-keyboard-response","278","1978179","0.0-239.0","0","0","Fmgl1","Scenes","","null","","","null","","","","","","","","","","","","","","","","","","","","","","","","","","","","","","","","","","","","","","","","","","","",""
"","see_reward","","html-keyboard-response","279","1978787","0.0-240.0","0","0","Fmgl1","Scenes","","606","","","32","","105","","29","","","","1","","","","","2","","","","","153","606","","","","","","","","","","","","","","","","","","","","","","","","",""
"","reward_outcome","","html-keyboard-response","280","1980797","0.0-241.0","0","0","Fmgl1","Scenes","","180","","","38","","105","","29","","","","","","","","","","","","","","","","1","180","","","","","","","","","","","","","","","","","","","","","","",""
"","fixation","","html-keyboard-response","281","1981806","0.0-244.0","0","0","Fmgl1","Scenes","","null","","","null","","","","","","","","","","","","","","","","","","","","","","","","","","","","","","","","","","","","","","","","","","","",""
"","see_reward","","html-keyboard-response","282","1982852","0.0-245.0","0","0","Fmgl1","Scenes","","1044","","","32","","118","","30","","","","1","","","","","2","","","","","153","1044","","","","","","","","","","","","","","","","","","","","","","","","",""
"","reward_outcome","","html-keyboard-response","283","1984858","0.0-246.0","0","0","Fmgl1","Scenes","","141","","","38","","118","","30","","","","","","","","","","","","","","","","1","141","","","","","","","","","","","","","","","","","","","","","","",""
"","fixation","","html-keyboard-response","284","1985867","0.0-249.0","0","0","Fmgl1","Scenes","","null","","","null","","","","","","","","","","","","","","","","","","","","","","","","","","","","","","","","","","","","","","","","","","","",""
"","see_reward","","html-keyboard-response","285","1986641","0.0-250.0","0","0","Fmgl1","Scenes","","771","","","32","","109","","31","","","","1","","","","","2","","","","","150","771","","","","","","","","","","","","","","","","","","","","","","","","",""
"","reward_outcome","","html-keyboard-response","286","1988651","0.0-251.0","0","0","Fmgl1","Scenes","","151","","","38","","109","","31","","","","","","","","","","","","","","","","1","151","","","","","","","","","","","","","","","","","","","","","","",""
"","fixation","","html-keyboard-response","287","1989657","0.0-254.0","0","0","Fmgl1","Scenes","","null","","","null","","","","","","","","","","","","","","","","","","","","","","","","","","","","","","","","","","","","","","","","","","","",""
"","see_reward","","html-keyboard-response","288","1990733","0.0-255.0","0","0","Fmgl1","Scenes","","1073","","","32","","113","","32","","","","1","","","","","2","","","","","159","1073","","","","","","","","","","","","","","","","","","","","","","","","",""
"","reward_outcome","","html-keyboard-response","289","1992738","0.0-256.0","0","0","Fmgl1","Scenes","","177","","","38","","113","","32","","","","","","","","","","","","","","","","1","177","","","","","","","","","","","","","","","","","","","","","","",""
"","fixation","","html-keyboard-response","290","1993747","0.0-259.0","0","0","Fmgl1","Scenes","","null","","","null","","","","","","","","","","","","","","","","","","","","","","","","","","","","","","","","","","","","","","","","","","","",""
"","see_reward","","html-keyboard-response","291","1994380","0.0-260.0","0","0","Fmgl1","Scenes","","630","","","32","","134","","33","","","","-1","","","","","2","","","","","0","630","","","","","","","","","","","","","","","","","","","","","","","","",""
"","reward_outcome","","html-keyboard-response","292","1996385","0.0-261.0","0","0","Fmgl1","Scenes","","193","","","40","","134","","33","","","","","","","","","","","","","","","","-1","193","","","","","","","","","","","","","","","","","","","","","","",""
"","fixation","","html-keyboard-response","293","1997395","0.0-264.0","0","0","Fmgl1","Scenes","","null","","","null","","","","","","","","","","","","","","","","","","","","","","","","","","","","","","","","","","","","","","","","","","","",""
"","see_reward","","html-keyboard-response","294","1998120","0.0-265.0","0","0","Fmgl1","Scenes","","722","","","32","","143","","34","","","","-1","","","","","2","","","","","0","722","","","","","","","","","","","","","","","","","","","","","","","","",""
"","reward_outcome","","html-keyboard-response","295","2000131","0.0-266.0","0","0","Fmgl1","Scenes","","152","","","40","","143","","34","","","","","","","","","","","","","","","","-1","152","","","","","","","","","","","","","","","","","","","","","","",""
"","fixation","","html-keyboard-response","296","2001139","0.0-269.0","0","0","Fmgl1","Scenes","","null","","","null","","","","","","","","","","","","","","","","","","","","","","","","","","","","","","","","","","","","","","","","","","","",""
"","see_reward","","html-keyboard-response","297","2001962","0.0-270.0","0","0","Fmgl1","Scenes","","821","","","32","","103","","35","","","","-1","","","","","2","","","","","0","821","","","","","","","","","","","","","","","","","","","","","","","","",""
"","reward_outcome","","html-keyboard-response","298","2003971","0.0-271.0","0","0","Fmgl1","Scenes","","132","","","40","","103","","35","","","","","","","","","","","","","","","","-1","132","","","","","","","","","","","","","","","","","","","","","","",""
"","fixation","","html-keyboard-response","299","2004979","0.0-274.0","0","0","Fmgl1","Scenes","","null","","","null","","","","","","","","","","","","","","","","","","","","","","","","","","","","","","","","","","","","","","","","","","","",""
"","see_reward","","html-keyboard-response","300","2005626","0.0-275.0","0","0","Fmgl1","Scenes","","645","","","32","","118","","36","","","","1","","","","","2","","","","","153","645","","","","","","","","","","","","","","","","","","","","","","","","",""
"","reward_outcome","","html-keyboard-response","301","2007635","0.0-276.0","0","0","Fmgl1","Scenes","","207","","","38","","118","","36","","","","","","","","","","","","","","","","1","207","","","","","","","","","","","","","","","","","","","","","","",""
"","fixation","","html-keyboard-response","302","2008642","0.0-279.0","0","0","Fmgl1","Scenes","","null","","","null","","","","","","","","","","","","","","","","","","","","","","","","","","","","","","","","","","","","","","","","","","","",""
"","see_reward","","html-keyboard-response","303","2009410","0.0-280.0","0","0","Fmgl1","Scenes","","766","","","32","","104","","37","","","","-1","","","","","2","","","","","0","766","","","","","","","","","","","","","","","","","","","","","","","","",""
"","reward_outcome","","html-keyboard-response","304","2011419","0.0-281.0","0","0","Fmgl1","Scenes","","170","","","40","","104","","37","","","","","","","","","","","","","","","","-1","170","","","","","","","","","","","","","","","","","","","","","","",""
"","fixation","","html-keyboard-response","305","2012425","0.0-284.0","0","0","Fmgl1","Scenes","","null","","","null","","","","","","","","","","","","","","","","","","","","","","","","","","","","","","","","","","","","","","","","","","","",""
"","see_reward","","html-keyboard-response","306","2013210","0.0-285.0","0","0","Fmgl1","Scenes","","783","","","32","","143","","38","","","","-1","","","","","2","","","","","0","783","","","","","","","","","","","","","","","","","","","","","","","","",""
"","reward_outcome","","html-keyboard-response","307","2015222","0.0-286.0","0","0","Fmgl1","Scenes","","162","","","40","","143","","38","","","","","","","","","","","","","","","","-1","162","","","","","","","","","","","","","","","","","","","","","","",""
"","fixation","","html-keyboard-response","308","2016228","0.0-289.0","0","0","Fmgl1","Scenes","","null","","","null","","","","","","","","","","","","","","","","","","","","","","","","","","","","","","","","","","","","","","","","","","","",""
"","see_reward","","html-keyboard-response","309","2016896","0.0-290.0","0","0","Fmgl1","Scenes","","665","","","32","","104","","39","","","","-1","","","","","2","","","","","0","665","","","","","","","","","","","","","","","","","","","","","","","","",""
"","reward_outcome","","html-keyboard-response","310","2018906","0.0-291.0","0","0","Fmgl1","Scenes","","123","","","40","","104","","39","","","","","","","","","","","","","","","","-1","123","","","","","","","","","","","","","","","","","","","","","","",""
"","fixation","","html-keyboard-response","311","2019914","0.0-294.0","0","0","Fmgl1","Scenes","","null","","","null","","","","","","","","","","","","","","","","","","","","","","","","","","","","","","","","","","","","","","","","","","","",""
"","see_reward","","html-keyboard-response","312","2020608","0.0-295.0","0","0","Fmgl1","Scenes","","692","","","32","","109","","40","","","","1","","","","","2","","","","","150","692","","","","","","","","","","","","","","","","","","","","","","","","",""
"","reward_outcome","","html-keyboard-response","313","2022622","0.0-296.0","0","0","Fmgl1","Scenes","","267","","","38","","109","","40","","","","","","","","","","","","","","","","1","267","","","","","","","","","","","","","","","","","","","","","","",""
"","fixation","","html-keyboard-response","314","2023626","0.0-299.0","0","0","Fmgl1","Scenes","","null","","","null","","","","","","","","","","","","","","","","","","","","","","","","","","","","","","","","","","","","","","","","","","","",""
"","see_reward","","html-keyboard-response","315","2024389","0.0-300.0","0","0","Fmgl1","Scenes","","761","","","32","","108","","41","","","","-1","","","","","2","","","","","0","761","","","","","","","","","","","","","","","","","","","","","","","","",""
"","reward_outcome","","html-keyboard-response","316","2026395","0.0-301.0","0","0","Fmgl1","Scenes","","125","","","40","","108","","41","","","","","","","","","","","","","","","","-1","125","","","","","","","","","","","","","","","","","","","","","","",""
"","fixation","","html-keyboard-response","317","2027401","0.0-304.0","0","0","Fmgl1","Scenes","","null","","","null","","","","","","","","","","","","","","","","","","","","","","","","","","","","","","","","","","","","","","","","","","","",""
"","see_reward","","html-keyboard-response","318","2028130","0.0-305.0","0","0","Fmgl1","Scenes","","727","","","32","","103","","42","","","","-1","","","","","2","","","","","0","727","","","","","","","","","","","","","","","","","","","","","","","","",""
"","reward_outcome","","html-keyboard-response","319","2030138","0.0-306.0","0","0","Fmgl1","Scenes","","182","","","40","","103","","42","","","","","","","","","","","","","","","","-1","182","","","","","","","","","","","","","","","","","","","","","","",""
"","fixation","","html-keyboard-response","320","2031145","0.0-309.0","0","0","Fmgl1","Scenes","","null","","","null","","","","","","","","","","","","","","","","","","","","","","","","","","","","","","","","","","","","","","","","","","","",""
"","see_reward","","html-keyboard-response","321","2031875","0.0-310.0","0","0","Fmgl1","Scenes","","728","","","32","","134","","43","","","","-1","","","","","2","","","","","0","728","","","","","","","","","","","","","","","","","","","","","","","","",""
"","reward_outcome","","html-keyboard-response","322","2033884","0.0-311.0","0","0","Fmgl1","Scenes","","139","","","40","","134","","43","","","","","","","","","","","","","","","","-1","139","","","","","","","","","","","","","","","","","","","","","","",""
"","fixation","","html-keyboard-response","323","2034889","0.0-314.0","0","0","Fmgl1","Scenes","","null","","","null","","","","","","","","","","","","","","","","","","","","","","","","","","","","","","","","","","","","","","","","","","","",""
"","see_reward","","html-keyboard-response","324","2035690","0.0-315.0","0","0","Fmgl1","Scenes","","799","","","32","","129","","44","","","","1","","","","","2","","","","","141","799","","","","","","","","","","","","","","","","","","","","","","","","",""
"","reward_outcome","","html-keyboard-response","325","2037698","0.0-316.0","0","0","Fmgl1","Scenes","","152","","","38","","129","","44","","","","","","","","","","","","","","","","1","152","","","","","","","","","","","","","","","","","","","","","","",""
"","fixation","","html-keyboard-response","326","2038706","0.0-319.0","0","0","Fmgl1","Scenes","","null","","","null","","","","","","","","","","","","","","","","","","","","","","","","","","","","","","","","","","","","","","","","","","","",""
"","see_reward","","html-keyboard-response","327","2039691","0.0-320.0","0","0","Fmgl1","Scenes","","983","","","32","","140","","45","","","","-1","","","","","2","","","","","0","983","","","","","","","","","","","","","","","","","","","","","","","","",""
"","reward_outcome","","html-keyboard-response","328","2041698","0.0-321.0","0","0","Fmgl1","Scenes","","206","","","40","","140","","45","","","","","","","","","","","","","","","","-1","206","","","","","","","","","","","","","","","","","","","","","","",""
"","fixation","","html-keyboard-response","329","2042706","0.0-324.0","0","0","Fmgl1","Scenes","","null","","","null","","","","","","","","","","","","","","","","","","","","","","","","","","","","","","","","","","","","","","","","","","","",""
"","see_reward","","html-keyboard-response","330","2043503","0.0-325.0","0","0","Fmgl1","Scenes","","795","","","32","","108","","46","","","","-1","","","","","2","","","","","0","795","","","","","","","","","","","","","","","","","","","","","","","","",""
"","reward_outcome","","html-keyboard-response","331","2045518","0.0-326.0","0","0","Fmgl1","Scenes","","130","","","40","","108","","46","","","","","","","","","","","","","","","","-1","130","","","","","","","","","","","","","","","","","","","","","","",""
"","fixation","","html-keyboard-response","332","2046524","0.0-329.0","0","0","Fmgl1","Scenes","","null","","","null","","","","","","","","","","","","","","","","","","","","","","","","","","","","","","","","","","","","","","","","","","","",""
"","see_reward","","html-keyboard-response","333","2047270","0.0-330.0","0","0","Fmgl1","Scenes","","744","","","32","","106","","47","","","","1","","","","","2","","","","","152","744","","","","","","","","","","","","","","","","","","","","","","","","",""
"","reward_outcome","","html-keyboard-response","334","2049281","0.0-331.0","0","0","Fmgl1","Scenes","","151","","","38","","106","","47","","","","","","","","","","","","","","","","1","151","","","","","","","","","","","","","","","","","","","","","","",""
"","block_over","","html-keyboard-response","335","2050850","0.0-333.0-0.0","0","0","Fmgl1","Scenes","","1567","","","78","","","","","","","","","","","","","","","","","","","","","","","","","","","","","","","","","","","","","","","","","","","",""
"","fixation","","html-keyboard-response","336","2051858","0.0-334.0","0","0","Fmgl1","Scenes","","null","","","null","","","","","","","","","","","","","","","","","","","","","","","","","","","","","","","","","","","","","","","","","","","",""
"","see_reward","","html-keyboard-response","337","2053108","0.0-335.0","0","0","Fmgl1","Scenes","","1248","","","32","","105","","48","","","","1","","","","","3","","","","","153","1248","","","","","","","","","","","","","","","","","","","","","","","","",""
"","reward_outcome","","html-keyboard-response","338","2055117","0.0-336.0","0","0","Fmgl1","Scenes","","157","","","38","","105","","48","","","","","","","","","","","","","","","","1","157","","","","","","","","","","","","","","","","","","","","","","",""
"","fixation","","html-keyboard-response","339","2056124","0.0-339.0","0","0","Fmgl1","Scenes","","null","","","null","","","","","","","","","","","","","","","","","","","","","","","","","","","","","","","","","","","","","","","","","","","",""
"","see_reward","","html-keyboard-response","340","2056850","0.0-340.0","0","0","Fmgl1","Scenes","","723","","","32","","134","","49","","","","-1","","","","","3","","","","","0","723","","","","","","","","","","","","","","","","","","","","","","","","",""
"","reward_outcome","","html-keyboard-response","341","2058858","0.0-341.0","0","0","Fmgl1","Scenes","","148","","","40","","134","","49","","","","","","","","","","","","","","","","-1","148","","","","","","","","","","","","","","","","","","","","","","",""
"","fixation","","html-keyboard-response","342","2059864","0.0-344.0","0","0","Fmgl1","Scenes","","null","","","null","","","","","","","","","","","","","","","","","","","","","","","","","","","","","","","","","","","","","","","","","","","",""
"","see_reward","","html-keyboard-response","343","2060650","0.0-345.0","0","0","Fmgl1","Scenes","","784","","","32","","108","","50","","","","-1","","","","","3","","","","","0","784","","","","","","","","","","","","","","","","","","","","","","","","",""
"","reward_outcome","","html-keyboard-response","344","2062658","0.0-346.0","0","0","Fmgl1","Scenes","","119","","","40","","108","","50","","","","","","","","","","","","","","","","-1","119","","","","","","","","","","","","","","","","","","","","","","",""
"","fixation","","html-keyboard-response","345","2063665","0.0-349.0","0","0","Fmgl1","Scenes","","null","","","null","","","","","","","","","","","","","","","","","","","","","","","","","","","","","","","","","","","","","","","","","","","",""
"","see_reward","","html-keyboard-response","346","2064465","0.0-350.0","0","0","Fmgl1","Scenes","","798","","","32","","129","","51","","","","1","","","","","3","","","","","141","798","","","","","","","","","","","","","","","","","","","","","","","","",""
"","reward_outcome","","html-keyboard-response","347","2066474","0.0-351.0","0","0","Fmgl1","Scenes","","254","","","38","","129","","51","","","","","","","","","","","","","","","","1","254","","","","","","","","","","","","","","","","","","","","","","",""
"","fixation","","html-keyboard-response","348","2067480","0.0-354.0","0","0","Fmgl1","Scenes","","null","","","null","","","","","","","","","","","","","","","","","","","","","","","","","","","","","","","","","","","","","","","","","","","",""
"","see_reward","","html-keyboard-response","349","2068353","0.0-355.0","0","0","Fmgl1","Scenes","","870","","","32","","103","","52","","","","-1","","","","","3","","","","","0","870","","","","","","","","","","","","","","","","","","","","","","","","",""
