"success","ttype","start_time","trial_type","trial_index","time_elapsed","internal_node_id","warning","missed_checkup","PID","stim_type","view_history","rt","responses","category","repeat_instructions","key_press","response","stimulus_id","painting","index","stimulus_left","stimulus_right","explain_trial","reward_type","rating_left","rating_right","painting_left","painting_right","block","left_chosen","chosen_obj","unchosen_obj","explain_response","reward_amount","see_reward_rt","register_reward_response","register_reward_rt","deliberation_reward_tally","stimulus_left_deliberation_ind","stimulus_right_deliberation_ind","chosen_trial","gain_left","higher_outcome_chosen","old_pair","chosen_object","rt_pairs","left_object_chosen","rt_object","old_response","new_rating","deliberated_stim","initial_rating","outcome_eval_rt","outcome_eval_response","outcome_eval_gain","outcome_eval_acc","preamble","outcome_eval_confidence","outcome_eval_confidence_rt","total_reward_tally"
"true","full_screen","d01182023hr1402","fullscreen","0","9331","0.0-0.0","0","0","JMSfN","People","","","","","","","","","","","","","","","","","","","","","","","","","","","","","","","","","","","","","","","","","","","","","","","","","",""
"","rating_instructions","","instructions","1","26041","0.0-1.0-0.0","0","0","JMSfN","People","[{""page_index"":0,""viewing_time"":14704},{""page_index"":1,""viewing_time"":2004}]","16709","","","","","","","","","","","","","","","","","","","","","","","","","","","","","","","","","","","","","","","","","","","","","","","",""
"","","","survey-multi-choice","2","31609","0.0-1.0-1.0","0","0","JMSfN","People","","5566","{""Q0"":""True"",""Q1"":""Mouse""}","rating_comprehension_check","0","","","","","","","","","","","","","","","","","","","","","","","","","","","","","","","","","","","","","","","","","","","","",""
"","start_phase","","html-keyboard-response","3","33135","0.0-2.0","0","0","JMSfN","People","","1524","","","","78","","","","","","","","","","","","","","","","","","","","","","","","","","","","","","","","","","","","","","","","","","","",""
"","rating","","html-slider-response","4","38283","0.0-3.0","0","0","JMSfN","People","","5146","","","","","58","31","mathilda-khoo-vLR0YP_otCo-unsplash.jpg","0","","","","","","","","","","","","","","","","","","","","","","","","","","","","","","","","","","","","","","","",""
"","rating","","html-slider-response","5","42425","0.0-4.0","0","0","JMSfN","People","","4140","","","","","50","29","leilani-angel-K84vnnzxmTQ-unsplash.jpg","1","","","","","","","","","","","","","","","","","","","","","","","","","","","","","","","","","","","","","","","",""
"","rating","","html-slider-response","6","46891","0.0-5.0","0","0","JMSfN","People","","4466","","","","","45","37","pavel-anoshin-d0peGya6R5Y-unsplash.jpg","2","","","","","","","","","","","","","","","","","","","","","","","","","","","","","","","","","","","","","","","",""
"","rating","","html-slider-response","7","53084","0.0-6.0","0","0","JMSfN","People","","6192","","","","","28","16","giano-currie-5-9YOsmf8IQ-unsplash.jpg","3","","","","","","","","","","","","","","","","","","","","","","","","","","","","","","","","","","","","","","","",""
"","rating","","html-slider-response","8","56871","0.0-7.0","0","0","JMSfN","People","","3786","","","","","81","10","charles-etoroma-95UF6LXe-Lo-unsplash.jpg","4","","","","","","","","","","","","","","","","","","","","","","","","","","","","","","","","","","","","","","","",""
"","rating","","html-slider-response","9","60338","0.0-8.0","0","0","JMSfN","People","","3466","","","","","63","34","oliver-johnson-1TUIcKob7Zs-unsplash.jpg","5","","","","","","","","","","","","","","","","","","","","","","","","","","","","","","","","","","","","","","","",""
"","rating","","html-slider-response","10","65253","0.0-9.0","0","0","JMSfN","People","","4914","","","","","29","39","philip-martin-5aGUyCW_PJw-unsplash.jpg","6","","","","","","","","","","","","","","","","","","","","","","","","","","","","","","","","","","","","","","","",""
"","rating","","html-slider-response","11","68778","0.0-10.0","0","0","JMSfN","People","","3523","","","","","85","12","daniel-rigdon-dXmXKPP2L4E-unsplash.jpg","7","","","","","","","","","","","","","","","","","","","","","","","","","","","","","","","","","","","","","","","",""
"","rating","","html-slider-response","12","72282","0.0-11.0","0","0","JMSfN","People","","3504","","","","","86","19","ha-nguy-n-OFSQ6bHjFjs-unsplash.jpg","8","","","","","","","","","","","","","","","","","","","","","","","","","","","","","","","","","","","","","","","",""
"","rating","","html-slider-response","13","76097","0.0-12.0","0","0","JMSfN","People","","3813","","","","","68","4","barna-bartis-2x3vfVxwR7o-unsplash.jpg","9","","","","","","","","","","","","","","","","","","","","","","","","","","","","","","","","","","","","","","","",""
"","rating","","html-slider-response","14","79915","0.0-13.0","0","0","JMSfN","People","","3817","","","","","50","13","erik-lucatero-d2MSDujJl2g-unsplash.jpg","10","","","","","","","","","","","","","","","","","","","","","","","","","","","","","","","","","","","","","","","",""
"","rating","","html-slider-response","15","83475","0.0-14.0","0","0","JMSfN","People","","3558","","","","","100","40","prince-akachi-4Yv84VgQkRM-unsplash.jpg","11","","","","","","","","","","","","","","","","","","","","","","","","","","","","","","","","","","","","","","","",""
"","rating","","html-slider-response","16","86487","0.0-15.0","0","0","JMSfN","People","","3011","","","","","100","26","juri-gianfrancesco-9EZadYaMzk4-unsplash.jpg","12","","","","","","","","","","","","","","","","","","","","","","","","","","","","","","","","","","","","","","","",""
"","rating","","html-slider-response","17","90401","0.0-16.0","0","0","JMSfN","People","","3913","","","","","66","41","prince-akachi-i2hoD-C2RUA-unsplash.jpg","13","","","","","","","","","","","","","","","","","","","","","","","","","","","","","","","","","","","","","","","",""
"","rating","","html-slider-response","18","93997","0.0-17.0","0","0","JMSfN","People","","3595","","","","","81","20","houcine-ncib-B4TjXnI0Y2c-unsplash.jpg","14","","","","","","","","","","","","","","","","","","","","","","","","","","","","","","","","","","","","","","","",""
"","rating","","html-slider-response","19","98165","0.0-18.0","0","0","JMSfN","People","","4166","","","","","27","0","abstral-official-cyOKLSgkgCE-unsplash.jpg","15","","","","","","","","","","","","","","","","","","","","","","","","","","","","","","","","","","","","","","","",""
"","rating","","html-slider-response","20","101361","0.0-19.0","0","0","JMSfN","People","","3196","","","","","18","8","bruce-dixon-3M9WJQVHzog-unsplash.jpg","16","","","","","","","","","","","","","","","","","","","","","","","","","","","","","","","","","","","","","","","",""
"","rating","","html-slider-response","21","104893","0.0-20.0","0","0","JMSfN","People","","3530","","","","","6","33","olena-sergienko-0TSd6uCKTKc-unsplash.jpg","17","","","","","","","","","","","","","","","","","","","","","","","","","","","","","","","","","","","","","","","",""
"","rating","","html-slider-response","22","108661","0.0-21.0","0","0","JMSfN","People","","3767","","","","","54","2","arjunsyah-TBUA5KHJn6k-unsplash.jpg","18","","","","","","","","","","","","","","","","","","","","","","","","","","","","","","","","","","","","","","","",""
"","rating","","html-slider-response","23","111825","0.0-22.0","0","0","JMSfN","People","","3162","","","","","65","11","christian-ferrer-8vT-DgHZDG4-unsplash.jpg","19","","","","","","","","","","","","","","","","","","","","","","","","","","","","","","","","","","","","","","","",""
"","rating","","html-slider-response","24","114861","0.0-23.0","0","0","JMSfN","People","","3036","","","","","56","28","justin-chen-J7Cf1Gch49E-unsplash.jpg","20","","","","","","","","","","","","","","","","","","","","","","","","","","","","","","","","","","","","","","","",""
"","rating","","html-slider-response","25","117933","0.0-24.0","0","0","JMSfN","People","","3070","","","","","89","15","gabriel-silverio-u3WmDyKGsrY-unsplash.jpg","21","","","","","","","","","","","","","","","","","","","","","","","","","","","","","","","","","","","","","","","",""
"","rating","","html-slider-response","26","121506","0.0-25.0","0","0","JMSfN","People","","3573","","","","","46","36","ospan-ali-mGdA2fzjWLo-unsplash.jpg","22","","","","","","","","","","","","","","","","","","","","","","","","","","","","","","","","","","","","","","","",""
"","rating","","html-slider-response","27","126318","0.0-26.0","0","0","JMSfN","People","","4810","","","","","69","6","ben-o-bro-C5XyLljkMrY-unsplash.jpg","23","","","","","","","","","","","","","","","","","","","","","","","","","","","","","","","","","","","","","","","",""
"","rating","","html-slider-response","28","129975","0.0-27.0","0","0","JMSfN","People","","3656","","","","","88","48","velizar-ivanov-7ktP9yZA1g4-unsplash.jpg","24","","","","","","","","","","","","","","","","","","","","","","","","","","","","","","","","","","","","","","","",""
"","rating","","html-slider-response","29","133839","0.0-28.0","0","0","JMSfN","People","","3862","","","","","18","17","gleb-lukomets-paBzWCPN23k-unsplash.jpg","25","","","","","","","","","","","","","","","","","","","","","","","","","","","","","","","","","","","","","","","",""
"","rating","","html-slider-response","30","137746","0.0-29.0","0","0","JMSfN","People","","3907","","","","","52","47","tyler-nix-ZGa9d1a_4tA-unsplash.jpg","26","","","","","","","","","","","","","","","","","","","","","","","","","","","","","","","","","","","","","","","",""
"","rating","","html-slider-response","31","141666","0.0-30.0","0","0","JMSfN","People","","3918","","","","","81","46","stefan-stefancik-QXevDflbl8A-unsplash.jpg","27","","","","","","","","","","","","","","","","","","","","","","","","","","","","","","","","","","","","","","","",""
"","rating","","html-slider-response","32","145058","0.0-31.0","0","0","JMSfN","People","","3391","","","","","27","1","aiony-haust-jmATI5Q_YgY-unsplash.jpg","28","","","","","","","","","","","","","","","","","","","","","","","","","","","","","","","","","","","","","","","",""
"","rating","","html-slider-response","33","148183","0.0-32.0","0","0","JMSfN","People","","3124","","","","","100","24","joel-mott-LaK153ghdig-unsplash.jpg","29","","","","","","","","","","","","","","","","","","","","","","","","","","","","","","","","","","","","","","","",""
"","rating","","html-slider-response","34","151841","0.0-33.0","0","0","JMSfN","People","","3656","","","","","37","9","carlos-andres-gomez-vJuk8Y86mRw-unsplash.jpg","30","","","","","","","","","","","","","","","","","","","","","","","","","","","","","","","","","","","","","","","",""
"","rating","","html-slider-response","35","154919","0.0-34.0","0","0","JMSfN","People","","3077","","","","","100","5","batel-studio-ttSRjiYG_WM-unsplash.jpg","31","","","","","","","","","","","","","","","","","","","","","","","","","","","","","","","","","","","","","","","",""
"","rating","","html-slider-response","36","157908","0.0-35.0","0","0","JMSfN","People","","2987","","","","","53","18","good-faces-xmSWVeGEnJw-unsplash.jpg","32","","","","","","","","","","","","","","","","","","","","","","","","","","","","","","","","","","","","","","","",""
"","rating","","html-slider-response","37","161069","0.0-36.0","0","0","JMSfN","People","","3161","","","","","71","43","raamin-ka-0qJBEzudn5E-unsplash.jpg","33","","","","","","","","","","","","","","","","","","","","","","","","","","","","","","","","","","","","","","","",""
"","rating","","html-slider-response","38","164418","0.0-37.0","0","0","JMSfN","People","","3347","","","","","65","44","rikonavt-HQjfrvdTfak-unsplash.jpg","34","","","","","","","","","","","","","","","","","","","","","","","","","","","","","","","","","","","","","","","",""
"","rating","","html-slider-response","39","167713","0.0-38.0","0","0","JMSfN","People","","3294","","","","","50","14","freddy-kearney-o-ioeoATbIM-unsplash.jpg","35","","","","","","","","","","","","","","","","","","","","","","","","","","","","","","","","","","","","","","","",""
"","rating","","html-slider-response","40","172247","0.0-39.0","0","0","JMSfN","People","","4533","","","","","9","30","matheus-ferrero-pg_WCHWSdT8-unsplash.jpg","36","","","","","","","","","","","","","","","","","","","","","","","","","","","","","","","","","","","","","","","",""
"","rating","","html-slider-response","41","175394","0.0-40.0","0","0","JMSfN","People","","3146","","","","","37","42","prince-akachi-l3IHXOdMyHQ-unsplash.jpg","37","","","","","","","","","","","","","","","","","","","","","","","","","","","","","","","","","","","","","","","",""
"","rating","","html-slider-response","42","178973","0.0-41.0","0","0","JMSfN","People","","3578","","","","","65","32","nathan-dumlao-ger61_TX6oI-unsplash.jpg","38","","","","","","","","","","","","","","","","","","","","","","","","","","","","","","","","","","","","","","","",""
"","rating","","html-slider-response","43","184610","0.0-42.0","0","0","JMSfN","People","","5636","","","","","13","22","jessica-radanavong-mrYkTuAesKE-unsplash.jpg","39","","","","","","","","","","","","","","","","","","","","","","","","","","","","","","","","","","","","","","","",""
"","rating","","html-slider-response","44","187777","0.0-43.0","0","0","JMSfN","People","","3167","","","","","44","27","jurica-koletic-7YVZYZeITc8-unsplash.jpg","40","","","","","","","","","","","","","","","","","","","","","","","","","","","","","","","","","","","","","","","",""
"","rating","","html-slider-response","45","190877","0.0-44.0","0","0","JMSfN","People","","3098","","","","","80","49","vicky-hladynets-_gDoyVv5F4c-unsplash.jpg","41","","","","","","","","","","","","","","","","","","","","","","","","","","","","","","","","","","","","","","","",""
"","rating","","html-slider-response","46","194434","0.0-45.0","0","0","JMSfN","People","","3556","","","","","14","23","joanna-nix-walkup-H4fEMshfwTE-unsplash.jpg","42","","","","","","","","","","","","","","","","","","","","","","","","","","","","","","","","","","","","","","","",""
"","rating","","html-slider-response","47","198925","0.0-46.0","0","0","JMSfN","People","","4488","","","","","92","38","petr-sevcovic-HzDF-rxlSeM-unsplash.jpg","43","","","","","","","","","","","","","","","","","","","","","","","","","","","","","","","","","","","","","","","",""
"","rating","","html-slider-response","48","203790","0.0-47.0","0","0","JMSfN","People","","4863","","","","","46","21","jessica-felicio-_cvwXhGqG-o-unsplash.jpg","44","","","","","","","","","","","","","","","","","","","","","","","","","","","","","","","","","","","","","","","",""
"","rating","","html-slider-response","49","207057","0.0-48.0","0","0","JMSfN","People","","3266","","","","","50","3","art-hauntington-jzY0KRJopEI-unsplash.jpg","45","","","","","","","","","","","","","","","","","","","","","","","","","","","","","","","","","","","","","","","",""
"","rating","","html-slider-response","50","210787","0.0-49.0","0","0","JMSfN","People","","3729","","","","","58","35","oliver-ragfelt-khV4fTy6-D8-unsplash.jpg","46","","","","","","","","","","","","","","","","","","","","","","","","","","","","","","","","","","","","","","","",""
"","rating","","html-slider-response","51","215459","0.0-50.0","0","0","JMSfN","People","","4670","","","","","60","45","sarah-noltner-pL5ZzPp1zqg-unsplash.jpg","47","","","","","","","","","","","","","","","","","","","","","","","","","","","","","","","","","","","","","","","",""
"","rating","","html-slider-response","52","218541","0.0-51.0","0","0","JMSfN","People","","3080","","","","","64","25","joseph-gonzalez-iFgRcqHznqg-unsplash.jpg","48","","","","","","","","","","","","","","","","","","","","","","","","","","","","","","","","","","","","","","","",""
"","rating","","html-slider-response","53","221345","0.0-52.0","0","0","JMSfN","People","","2803","","","","","100","7","brooke-cagle-HRZUzoX1e6w-unsplash.jpg","49","","","","","","","","","","","","","","","","","","","","","","","","","","","","","","","","","","","","","","","",""
"","deliberation_instructions","","instructions","54","286190","0.0-53.0-0.0","0","0","JMSfN","People","[{""page_index"":0,""viewing_time"":32815},{""page_index"":1,""viewing_time"":1803},{""page_index"":2,""viewing_time"":1483},{""page_index"":1,""viewing_time"":8224},{""page_index"":2,""viewing_time"":7460},{""page_index"":3,""viewing_time"":11451},{""page_index"":4,""viewing_time"":1606}]","64843","","","","","","","","","","","","","","","","","","","","","","","","","","","","","","","","","","","","","","","","","","","","","","","",""
"","","","survey-multi-choice","55","310035","0.0-53.0-1.0","0","0","JMSfN","People","","23840","{""Q0"":""True"",""Q1"":""True"",""Q2"":""Consider carefully and take your time (up to 10 seconds)"",""Q3"":""True"",""Q4"":""D""}","deliberation_comprehension_check","0","","","","","","","","","","","","","","","","","","","","","","","","","","","","","","","","","","","","","","","","","","","","",""
"","start_phase","","html-keyboard-response","56","311569","0.0-54.0","0","0","JMSfN","People","","1531","","","","78","","","","","","","","","","","","","","","","","","","","","","","","","","","","","","","","","","","","","","","","","","","",""
"","first_deliberation_block","","html-keyboard-response","57","315067","0.0-55.0","0","0","JMSfN","People","","3498","","","","78","","","","","","","","","","","","","","","","","","","","","","","","","","","","","","","","","","","","","","","","","","","",""
"","fixation","","html-keyboard-response","58","316076","0.0-56.0-0.0","0","0","JMSfN","People","","null","","","","null","","","","","","","","","","","","","","","","","","","","","","","","","","","","","","","","","","","","","","","","","","","",""
"","deliberation","","html-keyboard-response","59","319074","0.0-56.0-1.0","0","0","JMSfN","People","","2997","","","","68","","","","0","41","25","0","1","66","64","prince-akachi-i2hoD-C2RUA-unsplash.jpg","joseph-gonzalez-iFgRcqHznqg-unsplash.jpg","1","1","41","25","","","","","","","","","","","","","","","","","","","","","","","","","","","",""
"","choice_confirmation","","html-keyboard-response","60","319596","0.0-56.0-2.0-0.0","0","0","JMSfN","People","","null","","","","null","","","","0","41","25","","","","","","","","","","","","","","","","","","","","","","","","","","","","","","","","","","","","","",""
"","fixation","","html-keyboard-response","61","320608","0.0-57.0-0.0","0","0","JMSfN","People","","null","","","","null","","","","","","","","","","","","","","","","","","","","","","","","","","","","","","","","","","","","","","","","","","","",""
"","deliberation","","html-keyboard-response","62","323945","0.0-57.0-1.0","0","0","JMSfN","People","","3335","","","","68","","","","1","4","18","1","-1","68","53","barna-bartis-2x3vfVxwR7o-unsplash.jpg","good-faces-xmSWVeGEnJw-unsplash.jpg","1","1","4","18","","","","","","","","","","","","","","","","","","","","","","","","","","","",""
"","choice_confirmation","","html-keyboard-response","63","324456","0.0-57.0-2.0-0.0","0","0","JMSfN","People","","null","","","","null","","","","1","4","18","","","","","","","","","","","","","","","","","","","","","","","","","","","","","","","","","","","","","",""
"","explain_trial","","survey-text","64","340769","0.0-57.0-5.0-0.0","0","0","JMSfN","People","","16311","{""Q0"":""I thought it looked a little more professional, and he had more happiness in his eyes. ""}","","","","","","","1","4","18","","","","","","","","","","","{""Q0"":""I thought it looked a little more professional, and he had more happiness in his eyes. ""}","","","","","","","","","","","","","","","","","","","","","","","","","","",""
"","fixation","","html-keyboard-response","65","341771","0.0-58.0-0.0","0","0","JMSfN","People","","null","","","","null","","","","","","","","","","","","","","","","","","","","","","","","","","","","","","","","","","","","","","","","","","","",""
"","deliberation","","html-keyboard-response","66","343467","0.0-58.0-1.0","0","0","JMSfN","People","","1694","","","","75","","","","2","36","13","0","1","46","50","ospan-ali-mGdA2fzjWLo-unsplash.jpg","erik-lucatero-d2MSDujJl2g-unsplash.jpg","1","0","13","36","","","","","","","","","","","","","","","","","","","","","","","","","","","",""
"","choice_confirmation","","html-keyboard-response","67","343984","0.0-58.0-2.0-0.0","0","0","JMSfN","People","","null","","","","null","","","","2","36","13","","","","","","","","","","","","","","","","","","","","","","","","","","","","","","","","","","","","","",""
"","fixation","","html-keyboard-response","68","344993","0.0-59.0-0.0","0","0","JMSfN","People","","null","","","","null","","","","","","","","","","","","","","","","","","","","","","","","","","","","","","","","","","","","","","","","","","","",""
"","deliberation","","html-keyboard-response","69","346662","0.0-59.0-1.0","0","0","JMSfN","People","","1668","","","","68","","","","3","47","29","1","1","52","50","tyler-nix-ZGa9d1a_4tA-unsplash.jpg","leilani-angel-K84vnnzxmTQ-unsplash.jpg","1","1","47","29","","","","","","","","","","","","","","","","","","","","","","","","","","","",""
"","choice_confirmation","","html-keyboard-response","70","347176","0.0-59.0-2.0-0.0","0","0","JMSfN","People","","null","","","","null","","","","3","47","29","","","","","","","","","","","","","","","","","","","","","","","","","","","","","","","","","","","","","",""
"","explain_trial","","survey-text","71","354593","0.0-59.0-5.0-0.0","0","0","JMSfN","People","","7416","{""Q0"":""It looks crisp, more professional. ""}","","","","","","","3","47","29","","","","","","","","","","","{""Q0"":""It looks crisp, more professional. ""}","","","","","","","","","","","","","","","","","","","","","","","","","","",""
"","fixation","","html-keyboard-response","72","355601","0.0-60.0-0.0","0","0","JMSfN","People","","null","","","","null","","","","","","","","","","","","","","","","","","","","","","","","","","","","","","","","","","","","","","","","","","","",""
"","deliberation","","html-keyboard-response","73","359769","0.0-60.0-1.0","0","0","JMSfN","People","","4166","","","","75","","","","4","14","35","1","1","50","58","freddy-kearney-o-ioeoATbIM-unsplash.jpg","oliver-ragfelt-khV4fTy6-D8-unsplash.jpg","1","0","35","14","","","","","","","","","","","","","","","","","","","","","","","","","","","",""
"","choice_confirmation","","html-keyboard-response","74","360288","0.0-60.0-2.0-0.0","0","0","JMSfN","People","","null","","","","null","","","","4","14","35","","","","","","","","","","","","","","","","","","","","","","","","","","","","","","","","","","","","","",""
"","explain_trial","","survey-text","75","376375","0.0-60.0-5.0-0.0","0","0","JMSfN","People","","16085","{""Q0"":""The contrast is better, instead of a snapshot it looks like someone put more time into creating it. ""}","","","","","","","4","14","35","","","","","","","","","","","{""Q0"":""The contrast is better, instead of a snapshot it looks like someone put more time into creating it. ""}","","","","","","","","","","","","","","","","","","","","","","","","","","",""
"","fixation","","html-keyboard-response","76","377393","0.0-61.0-0.0","0","0","JMSfN","People","","null","","","","null","","","","","","","","","","","","","","","","","","","","","","","","","","","","","","","","","","","","","","","","","","","",""
"","deliberation","","html-keyboard-response","77","380187","0.0-61.0-1.0","0","0","JMSfN","People","","2792","","","","68","","","","5","2","28","1","-1","54","56","arjunsyah-TBUA5KHJn6k-unsplash.jpg","justin-chen-J7Cf1Gch49E-unsplash.jpg","1","1","2","28","","","","","","","","","","","","","","","","","","","","","","","","","","","",""
"","choice_confirmation","","html-keyboard-response","78","380705","0.0-61.0-2.0-0.0","0","0","JMSfN","People","","null","","","","null","","","","5","2","28","","","","","","","","","","","","","","","","","","","","","","","","","","","","","","","","","","","","","",""
"","explain_trial","","survey-text","79","395876","0.0-61.0-5.0-0.0","0","0","JMSfN","People","","15170","{""Q0"":""He looks happier in his eyes, with the sunlight reflecting in back of him.""}","","","","","","","5","2","28","","","","","","","","","","","{""Q0"":""He looks happier in his eyes, with the sunlight reflecting in back of him.""}","","","","","","","","","","","","","","","","","","","","","","","","","","",""
"","fixation","","html-keyboard-response","80","396886","0.0-62.0-0.0","0","0","JMSfN","People","","null","","","","null","","","","","","","","","","","","","","","","","","","","","","","","","","","","","","","","","","","","","","","","","","","",""
"","deliberation","","html-keyboard-response","81","398802","0.0-62.0-1.0","0","0","JMSfN","People","","1915","","","","75","","","","6","21","31","0","-1","46","58","jessica-felicio-_cvwXhGqG-o-unsplash.jpg","mathilda-khoo-vLR0YP_otCo-unsplash.jpg","1","0","31","21","","","","","","","","","","","","","","","","","","","","","","","","","","","",""
"","choice_confirmation","","html-keyboard-response","82","399313","0.0-62.0-2.0-0.0","0","0","JMSfN","People","","null","","","","null","","","","6","21","31","","","","","","","","","","","","","","","","","","","","","","","","","","","","","","","","","","","","","",""
"","fixation","","html-keyboard-response","83","400327","0.0-63.0-0.0","0","0","JMSfN","People","","null","","","","null","","","","","","","","","","","","","","","","","","","","","","","","","","","","","","","","","","","","","","","","","","","",""
"","deliberation","","html-keyboard-response","84","402732","0.0-63.0-1.0","0","0","JMSfN","People","","2404","","","","68","","","","7","11","37","0","-1","65","45","christian-ferrer-8vT-DgHZDG4-unsplash.jpg","pavel-anoshin-d0peGya6R5Y-unsplash.jpg","1","1","11","37","","","","","","","","","","","","","","","","","","","","","","","","","","","",""
"","choice_confirmation","","html-keyboard-response","85","403250","0.0-63.0-2.0-0.0","0","0","JMSfN","People","","null","","","","null","","","","7","11","37","","","","","","","","","","","","","","","","","","","","","","","","","","","","","","","","","","","","","",""
"","fixation","","html-keyboard-response","86","404263","0.0-64.0-0.0","0","0","JMSfN","People","","null","","","","null","","","","","","","","","","","","","","","","","","","","","","","","","","","","","","","","","","","","","","","","","","","",""
"","deliberation","","html-keyboard-response","87","406656","0.0-64.0-1.0","0","0","JMSfN","People","","2392","","","","68","","","","8","32","44","1","-1","65","65","nathan-dumlao-ger61_TX6oI-unsplash.jpg","rikonavt-HQjfrvdTfak-unsplash.jpg","1","1","32","44","","","","","","","","","","","","","","","","","","","","","","","","","","","",""
"","choice_confirmation","","html-keyboard-response","88","407170","0.0-64.0-2.0-0.0","0","0","JMSfN","People","","null","","","","null","","","","8","32","44","","","","","","","","","","","","","","","","","","","","","","","","","","","","","","","","","","","","","",""
"","explain_trial","","survey-text","89","435463","0.0-64.0-5.0-0.0","0","0","JMSfN","People","","28290","{""Q0"":""I love the look of this photo - it looks like he just got done surfing in the ocean, I love his eyes and his freckled skin. He is unique. ""}","","","","","","","8","32","44","","","","","","","","","","","{""Q0"":""I love the look of this photo - it looks like he just got done surfing in the ocean, I love his eyes and his freckled skin. He is unique. ""}","","","","","","","","","","","","","","","","","","","","","","","","","","",""
"","fixation","","html-keyboard-response","90","436479","0.0-65.0-0.0","0","0","JMSfN","People","","null","","","","null","","","","","","","","","","","","","","","","","","","","","","","","","","","","","","","","","","","","","","","","","","","",""
"","deliberation","","html-keyboard-response","91","439088","0.0-65.0-1.0","0","0","JMSfN","People","","2607","","","","75","","","","9","43","6","0","1","71","69","raamin-ka-0qJBEzudn5E-unsplash.jpg","ben-o-bro-C5XyLljkMrY-unsplash.jpg","1","0","6","43","","","","","","","","","","","","","","","","","","","","","","","","","","","",""
"","choice_confirmation","","html-keyboard-response","92","439611","0.0-65.0-2.0-0.0","0","0","JMSfN","People","","null","","","","null","","","","9","43","6","","","","","","","","","","","","","","","","","","","","","","","","","","","","","","","","","","","","","",""
"","fixation","","html-keyboard-response","93","440633","0.0-66.0-0.0","0","0","JMSfN","People","","null","","","","null","","","","","","","","","","","","","","","","","","","","","","","","","","","","","","","","","","","","","","","","","","","",""
"","deliberation","","html-keyboard-response","94","443214","0.0-66.0-1.0","0","0","JMSfN","People","","2580","","","","68","","","","10","3","45","0","-1","50","60","art-hauntington-jzY0KRJopEI-unsplash.jpg","sarah-noltner-pL5ZzPp1zqg-unsplash.jpg","1","1","3","45","","","","","","","","","","","","","","","","","","","","","","","","","","","",""
"","choice_confirmation","","html-keyboard-response","95","443718","0.0-66.0-2.0-0.0","0","0","JMSfN","People","","null","","","","null","","","","10","3","45","","","","","","","","","","","","","","","","","","","","","","","","","","","","","","","","","","","","","",""
"","fixation","","html-keyboard-response","96","444726","0.0-67.0-0.0","0","0","JMSfN","People","","null","","","","null","","","","","","","","","","","","","","","","","","","","","","","","","","","","","","","","","","","","","","","","","","","",""
"","deliberation","","html-keyboard-response","97","446158","0.0-67.0-1.0","0","0","JMSfN","People","","1431","","","","75","","","","11","34","49","1","1","63","80","oliver-johnson-1TUIcKob7Zs-unsplash.jpg","vicky-hladynets-_gDoyVv5F4c-unsplash.jpg","1","0","49","34","","","","","","","","","","","","","","","","","","","","","","","","","","","",""
"","choice_confirmation","","html-keyboard-response","98","446663","0.0-67.0-2.0-0.0","0","0","JMSfN","People","","null","","","","null","","","","11","34","49","","","","","","","","","","","","","","","","","","","","","","","","","","","","","","","","","","","","","",""
"","explain_trial","","survey-text","99","461627","0.0-67.0-5.0-0.0","0","0","JMSfN","People","","14962","{""Q0"":""He is radiating happiness. The color is good, and he's handsome and well put together. ""}","","","","","","","11","34","49","","","","","","","","","","","{""Q0"":""He is radiating happiness. The color is good, and he's handsome and well put together. ""}","","","","","","","","","","","","","","","","","","","","","","","","","","",""
"","practice_deliberation_again","","html-keyboard-response","100","464713","0.0-67.0-6.0-0.0","0","0","JMSfN","People","","3086","","","","78","","","","","","","","","","","","","","","","","","","","","","","","","","","","","","","","","","","","","","","","","","","",""
"","fixation","","html-keyboard-response","101","465728","0.0-68.0-0.0","0","0","JMSfN","People","","null","","","","null","","","","","","","","","","","","","","","","","","","","","","","","","","","","","","","","","","","","","","","","","","","",""
"","deliberation","","html-keyboard-response","102","466979","0.0-68.0-1.0","0","0","JMSfN","People","","1250","","","","75","","","","12","34","49","0","1","63","80","oliver-johnson-1TUIcKob7Zs-unsplash.jpg","vicky-hladynets-_gDoyVv5F4c-unsplash.jpg","2","0","49","34","","","","","","","","","","","","","","","","","","","","","","","","","","","",""
"","choice_confirmation","","html-keyboard-response","103","467484","0.0-68.0-2.0-0.0","0","0","JMSfN","People","","null","","","","null","","","","12","34","49","","","","","","","","","","","","","","","","","","","","","","","","","","","","","","","","","","","","","",""
"","fixation","","html-keyboard-response","104","468496","0.0-69.0-0.0","0","0","JMSfN","People","","null","","","","null","","","","","","","","","","","","","","","","","","","","","","","","","","","","","","","","","","","","","","","","","","","",""
"","deliberation","","html-keyboard-response","105","469420","0.0-69.0-1.0","0","0","JMSfN","People","","922","","","","68","","","","13","47","29","0","1","52","50","tyler-nix-ZGa9d1a_4tA-unsplash.jpg","leilani-angel-K84vnnzxmTQ-unsplash.jpg","2","1","47","29","","","","","","","","","","","","","","","","","","","","","","","","","","","",""
"","choice_confirmation","","html-keyboard-response","106","469926","0.0-69.0-2.0-0.0","0","0","JMSfN","People","","null","","","","null","","","","13","47","29","","","","","","","","","","","","","","","","","","","","","","","","","","","","","","","","","","","","","",""
"","fixation","","html-keyboard-response","107","470942","0.0-70.0-0.0","0","0","JMSfN","People","","null","","","","null","","","","","","","","","","","","","","","","","","","","","","","","","","","","","","","","","","","","","","","","","","","",""
"","deliberation","","html-keyboard-response","108","471632","0.0-70.0-1.0","0","0","JMSfN","People","","689","","","","68","","","","14","32","44","0","-1","65","65","nathan-dumlao-ger61_TX6oI-unsplash.jpg","rikonavt-HQjfrvdTfak-unsplash.jpg","2","1","32","44","","","","","","","","","","","","","","","","","","","","","","","","","","","",""
"","choice_confirmation","","html-keyboard-response","109","472149","0.0-70.0-2.0-0.0","0","0","JMSfN","People","","null","","","","null","","","","14","32","44","","","","","","","","","","","","","","","","","","","","","","","","","","","","","","","","","","","","","",""
"","fixation","","html-keyboard-response","110","473162","0.0-71.0-0.0","0","0","JMSfN","People","","null","","","","null","","","","","","","","","","","","","","","","","","","","","","","","","","","","","","","","","","","","","","","","","","","",""
"","deliberation","","html-keyboard-response","111","474191","0.0-71.0-1.0","0","0","JMSfN","People","","1027","","","","68","","","","15","11","37","1","-1","65","45","christian-ferrer-8vT-DgHZDG4-unsplash.jpg","pavel-anoshin-d0peGya6R5Y-unsplash.jpg","2","1","11","37","","","","","","","","","","","","","","","","","","","","","","","","","","","",""
"","choice_confirmation","","html-keyboard-response","112","474693","0.0-71.0-2.0-0.0","0","0","JMSfN","People","","null","","","","null","","","","15","11","37","","","","","","","","","","","","","","","","","","","","","","","","","","","","","","","","","","","","","",""
"","explain_trial","","survey-text","113","486628","0.0-71.0-5.0-0.0","0","0","JMSfN","People","","11934","{""Q0"":""This looks like a photo you can sell for a magazine or a blog. ""}","","","","","","","15","11","37","","","","","","","","","","","{""Q0"":""This looks like a photo you can sell for a magazine or a blog. ""}","","","","","","","","","","","","","","","","","","","","","","","","","","",""
"","fixation","","html-keyboard-response","114","487636","0.0-72.0-0.0","0","0","JMSfN","People","","null","","","","null","","","","","","","","","","","","","","","","","","","","","","","","","","","","","","","","","","","","","","","","","","","",""
"","deliberation","","html-keyboard-response","115","488865","0.0-72.0-1.0","0","0","JMSfN","People","","1228","","","","68","","","","16","3","45","1","-1","50","60","art-hauntington-jzY0KRJopEI-unsplash.jpg","sarah-noltner-pL5ZzPp1zqg-unsplash.jpg","2","1","3","45","","","","","","","","","","","","","","","","","","","","","","","","","","","",""
"","choice_confirmation","","html-keyboard-response","116","489382","0.0-72.0-2.0-0.0","0","0","JMSfN","People","","null","","","","null","","","","16","3","45","","","","","","","","","","","","","","","","","","","","","","","","","","","","","","","","","","","","","",""
"","explain_trial","","survey-text","117","507774","0.0-72.0-5.0-0.0","0","0","JMSfN","People","","18391","{""Q0"":""She has a unique look, and this photo is far more professional looking. ""}","","","","","","","16","3","45","","","","","","","","","","","{""Q0"":""She has a unique look, and this photo is far more professional looking. ""}","","","","","","","","","","","","","","","","","","","","","","","","","","",""
"","fixation","","html-keyboard-response","118","508786","0.0-73.0-0.0","0","0","JMSfN","People","","null","","","","null","","","","","","","","","","","","","","","","","","","","","","","","","","","","","","","","","","","","","","","","","","","",""
"","deliberation","","html-keyboard-response","119","510210","0.0-73.0-1.0","0","0","JMSfN","People","","1422","","","","68","","","","17","4","18","0","-1","68","53","barna-bartis-2x3vfVxwR7o-unsplash.jpg","good-faces-xmSWVeGEnJw-unsplash.jpg","2","1","4","18","","","","","","","","","","","","","","","","","","","","","","","","","","","",""
"","choice_confirmation","","html-keyboard-response","120","510727","0.0-73.0-2.0-0.0","0","0","JMSfN","People","","null","","","","null","","","","17","4","18","","","","","","","","","","","","","","","","","","","","","","","","","","","","","","","","","","","","","",""
"","fixation","","html-keyboard-response","121","511735","0.0-74.0-0.0","0","0","JMSfN","People","","null","","","","null","","","","","","","","","","","","","","","","","","","","","","","","","","","","","","","","","","","","","","","","","","","",""
"","deliberation","","html-keyboard-response","122","512833","0.0-74.0-1.0","0","0","JMSfN","People","","1098","","","","75","","","","18","14","35","0","1","50","58","freddy-kearney-o-ioeoATbIM-unsplash.jpg","oliver-ragfelt-khV4fTy6-D8-unsplash.jpg","2","0","35","14","","","","","","","","","","","","","","","","","","","","","","","","","","","",""
"","choice_confirmation","","html-keyboard-response","123","513349","0.0-74.0-2.0-0.0","0","0","JMSfN","People","","null","","","","null","","","","18","14","35","","","","","","","","","","","","","","","","","","","","","","","","","","","","","","","","","","","","","",""
"","fixation","","html-keyboard-response","124","514371","0.0-75.0-0.0","0","0","JMSfN","People","","null","","","","null","","","","","","","","","","","","","","","","","","","","","","","","","","","","","","","","","","","","","","","","","","","",""
"","deliberation","","html-keyboard-response","125","515081","0.0-75.0-1.0","0","0","JMSfN","People","","710","","","","68","","","","19","2","28","0","-1","54","56","arjunsyah-TBUA5KHJn6k-unsplash.jpg","justin-chen-J7Cf1Gch49E-unsplash.jpg","2","1","2","28","","","","","","","","","","","","","","","","","","","","","","","","","","","",""
"","choice_confirmation","","html-keyboard-response","126","515606","0.0-75.0-2.0-0.0","0","0","JMSfN","People","","null","","","","null","","","","19","2","28","","","","","","","","","","","","","","","","","","","","","","","","","","","","","","","","","","","","","",""
"","fixation","","html-keyboard-response","127","516619","0.0-76.0-0.0","0","0","JMSfN","People","","null","","","","null","","","","","","","","","","","","","","","","","","","","","","","","","","","","","","","","","","","","","","","","","","","",""
"","deliberation","","html-keyboard-response","128","517777","0.0-76.0-1.0","0","0","JMSfN","People","","1157","","","","75","","","","20","21","31","1","-1","46","58","jessica-felicio-_cvwXhGqG-o-unsplash.jpg","mathilda-khoo-vLR0YP_otCo-unsplash.jpg","2","0","31","21","","","","","","","","","","","","","","","","","","","","","","","","","","","",""
"","choice_confirmation","","html-keyboard-response","129","518292","0.0-76.0-2.0-0.0","0","0","JMSfN","People","","null","","","","null","","","","20","21","31","","","","","","","","","","","","","","","","","","","","","","","","","","","","","","","","","","","","","",""
"","explain_trial","","survey-text","130","536930","0.0-76.0-5.0-0.0","0","0","JMSfN","People","","18637","{""Q0"":""She looks more interesting, her eyes tell you there's a bigger story to be seen through this photo. ""}","","","","","","","20","21","31","","","","","","","","","","","{""Q0"":""She looks more interesting, her eyes tell you there's a bigger story to be seen through this photo. ""}","","","","","","","","","","","","","","","","","","","","","","","","","","",""
"","fixation","","html-keyboard-response","131","537948","0.0-77.0-0.0","0","0","JMSfN","People","","null","","","","null","","","","","","","","","","","","","","","","","","","","","","","","","","","","","","","","","","","","","","","","","","","",""
"","deliberation","","html-keyboard-response","132","539180","0.0-77.0-1.0","0","0","JMSfN","People","","1231","","","","75","","","","21","36","13","1","1","46","50","ospan-ali-mGdA2fzjWLo-unsplash.jpg","erik-lucatero-d2MSDujJl2g-unsplash.jpg","2","0","13","36","","","","","","","","","","","","","","","","","","","","","","","","","","","",""
"","choice_confirmation","","html-keyboard-response","133","539696","0.0-77.0-2.0-0.0","0","0","JMSfN","People","","null","","","","null","","","","21","36","13","","","","","","","","","","","","","","","","","","","","","","","","","","","","","","","","","","","","","",""
"","explain_trial","","survey-text","134","558856","0.0-77.0-5.0-0.0","0","0","JMSfN","People","","19158","{""Q0"":""Beautiful eyes, I wish the background was different, however the eyes intrigue. ""}","","","","","","","21","36","13","","","","","","","","","","","{""Q0"":""Beautiful eyes, I wish the background was different, however the eyes intrigue. ""}","","","","","","","","","","","","","","","","","","","","","","","","","","",""
"","fixation","","html-keyboard-response","135","559879","0.0-78.0-0.0","0","0","JMSfN","People","","null","","","","null","","","","","","","","","","","","","","","","","","","","","","","","","","","","","","","","","","","","","","","","","","","",""
"","deliberation","","html-keyboard-response","136","563596","0.0-78.0-1.0","0","0","JMSfN","People","","3715","","","","75","","","","22","43","6","1","1","71","69","raamin-ka-0qJBEzudn5E-unsplash.jpg","ben-o-bro-C5XyLljkMrY-unsplash.jpg","2","0","6","43","","","","","","","","","","","","","","","","","","","","","","","","","","","",""
"","choice_confirmation","","html-keyboard-response","137","564103","0.0-78.0-2.0-0.0","0","0","JMSfN","People","","null","","","","null","","","","22","43","6","","","","","","","","","","","","","","","","","","","","","","","","","","","","","","","","","","","","","",""
"","explain_trial","","survey-text","138","579773","0.0-78.0-5.0-0.0","0","0","JMSfN","People","","15669","{""Q0"":""The happiness in this photo is overwhelming, I think that can be spread by this photo. ""}","","","","","","","22","43","6","","","","","","","","","","","{""Q0"":""The happiness in this photo is overwhelming, I think that can be spread by this photo. ""}","","","","","","","","","","","","","","","","","","","","","","","","","","",""
"","fixation","","html-keyboard-response","139","580791","0.0-79.0-0.0","0","0","JMSfN","People","","null","","","","null","","","","","","","","","","","","","","","","","","","","","","","","","","","","","","","","","","","","","","","","","","","",""
"","deliberation","","html-keyboard-response","140","582512","0.0-79.0-1.0","0","0","JMSfN","People","","1720","","","","68","","","","23","41","25","1","1","66","64","prince-akachi-i2hoD-C2RUA-unsplash.jpg","joseph-gonzalez-iFgRcqHznqg-unsplash.jpg","2","1","41","25","","","","","","","","","","","","","","","","","","","","","","","","","","","",""
"","choice_confirmation","","html-keyboard-response","141","583035","0.0-79.0-2.0-0.0","0","0","JMSfN","People","","null","","","","null","","","","23","41","25","","","","","","","","","","","","","","","","","","","","","","","","","","","","","","","","","","","","","",""
"","explain_trial","","survey-text","142","603619","0.0-79.0-5.0-0.0","0","0","JMSfN","People","","20582","{""Q0"":""She is beautiful, the contrast with her head scarf is fantastic. ""}","","","","","","","23","41","25","","","","","","","","","","","{""Q0"":""She is beautiful, the contrast with her head scarf is fantastic. ""}","","","","","","","","","","","","","","","","","","","","","","","","","","",""
"","start_critical_deliberation_block","","html-keyboard-response","143","604802","0.0-79.0-7.0-0.0","0","0","JMSfN","People","","1183","","","","78","","","","","","","","","","","","","","","","","","","","","","","","","","","","","","","","","","","","","","","","","","","",""
"","fixation","","html-keyboard-response","144","605824","0.0-80.0-0.0","0","0","JMSfN","People","","null","","","","null","","","","","","","","","","","","","","","","","","","","","","","","","","","","","","","","","","","","","","","","","","","",""
"","deliberation","","html-keyboard-response","145","607154","0.0-80.0-1.0","0","0","JMSfN","People","","1329","","","","68","","","","24","11","37","0","-1","65","45","christian-ferrer-8vT-DgHZDG4-unsplash.jpg","pavel-anoshin-d0peGya6R5Y-unsplash.jpg","3","1","11","37","","","","","","","","","","","","","","","","","","","","","","","","","","","",""
"","choice_confirmation","","html-keyboard-response","146","607666","0.0-80.0-2.0-0.0","0","0","JMSfN","People","","null","","","","null","","","","24","11","37","","","","","","","","","","","","","","","","","","","","","","","","","","","","","","","","","","","","","",""
"","fixation","","html-keyboard-response","147","608684","0.0-81.0-0.0","0","0","JMSfN","People","","null","","","","null","","","","","","","","","","","","","","","","","","","","","","","","","","","","","","","","","","","","","","","","","","","",""
"","deliberation","","html-keyboard-response","148","609379","0.0-81.0-1.0","0","0","JMSfN","People","","694","","","","68","","","","25","32","44","0","-1","65","65","nathan-dumlao-ger61_TX6oI-unsplash.jpg","rikonavt-HQjfrvdTfak-unsplash.jpg","3","1","32","44","","","","","","","","","","","","","","","","","","","","","","","","","","","",""
"","choice_confirmation","","html-keyboard-response","149","609900","0.0-81.0-2.0-0.0","0","0","JMSfN","People","","null","","","","null","","","","25","32","44","","","","","","","","","","","","","","","","","","","","","","","","","","","","","","","","","","","","","",""
"","fixation","","html-keyboard-response","150","610909","0.0-82.0-0.0","0","0","JMSfN","People","","null","","","","null","","","","","","","","","","","","","","","","","","","","","","","","","","","","","","","","","","","","","","","","","","","",""
"","deliberation","","html-keyboard-response","151","611945","0.0-82.0-1.0","0","0","JMSfN","People","","1034","","","","68","","","","26","41","25","0","1","66","64","prince-akachi-i2hoD-C2RUA-unsplash.jpg","joseph-gonzalez-iFgRcqHznqg-unsplash.jpg","3","1","41","25","","","","","","","","","","","","","","","","","","","","","","","","","","","",""
"","choice_confirmation","","html-keyboard-response","152","612460","0.0-82.0-2.0-0.0","0","0","JMSfN","People","","null","","","","null","","","","26","41","25","","","","","","","","","","","","","","","","","","","","","","","","","","","","","","","","","","","","","",""
"","fixation","","html-keyboard-response","153","613462","0.0-83.0-0.0","0","0","JMSfN","People","","null","","","","null","","","","","","","","","","","","","","","","","","","","","","","","","","","","","","","","","","","","","","","","","","","",""
"","deliberation","","html-keyboard-response","154","614632","0.0-83.0-1.0","0","0","JMSfN","People","","1169","","","","75","","","","27","21","31","0","-1","46","58","jessica-felicio-_cvwXhGqG-o-unsplash.jpg","mathilda-khoo-vLR0YP_otCo-unsplash.jpg","3","0","31","21","","","","","","","","","","","","","","","","","","","","","","","","","","","",""
"","choice_confirmation","","html-keyboard-response","155","615138","0.0-83.0-2.0-0.0","0","0","JMSfN","People","","null","","","","null","","","","27","21","31","","","","","","","","","","","","","","","","","","","","","","","","","","","","","","","","","","","","","",""
"","fixation","","html-keyboard-response","156","616149","0.0-84.0-0.0","0","0","JMSfN","People","","null","","","","null","","","","","","","","","","","","","","","","","","","","","","","","","","","","","","","","","","","","","","","","","","","",""
"","deliberation","","html-keyboard-response","157","617573","0.0-84.0-1.0","0","0","JMSfN","People","","1423","","","","68","","","","28","2","28","0","-1","54","56","arjunsyah-TBUA5KHJn6k-unsplash.jpg","justin-chen-J7Cf1Gch49E-unsplash.jpg","3","1","2","28","","","","","","","","","","","","","","","","","","","","","","","","","","","",""
"","choice_confirmation","","html-keyboard-response","158","618081","0.0-84.0-2.0-0.0","0","0","JMSfN","People","","null","","","","null","","","","28","2","28","","","","","","","","","","","","","","","","","","","","","","","","","","","","","","","","","","","","","",""
"","fixation","","html-keyboard-response","159","619094","0.0-85.0-0.0","0","0","JMSfN","People","","null","","","","null","","","","","","","","","","","","","","","","","","","","","","","","","","","","","","","","","","","","","","","","","","","",""
"","deliberation","","html-keyboard-response","160","620019","0.0-85.0-1.0","0","0","JMSfN","People","","924","","","","75","","","","29","14","35","0","1","50","58","freddy-kearney-o-ioeoATbIM-unsplash.jpg","oliver-ragfelt-khV4fTy6-D8-unsplash.jpg","3","0","35","14","","","","","","","","","","","","","","","","","","","","","","","","","","","",""
"","choice_confirmation","","html-keyboard-response","161","620530","0.0-85.0-2.0-0.0","0","0","JMSfN","People","","null","","","","null","","","","29","14","35","","","","","","","","","","","","","","","","","","","","","","","","","","","","","","","","","","","","","",""
"","fixation","","html-keyboard-response","162","621543","0.0-86.0-0.0","0","0","JMSfN","People","","null","","","","null","","","","","","","","","","","","","","","","","","","","","","","","","","","","","","","","","","","","","","","","","","","",""
"","deliberation","","html-keyboard-response","163","622863","0.0-86.0-1.0","0","0","JMSfN","People","","1319","","","","75","","","","30","43","6","0","1","71","69","raamin-ka-0qJBEzudn5E-unsplash.jpg","ben-o-bro-C5XyLljkMrY-unsplash.jpg","3","0","6","43","","","","","","","","","","","","","","","","","","","","","","","","","","","",""
"","choice_confirmation","","html-keyboard-response","164","623382","0.0-86.0-2.0-0.0","0","0","JMSfN","People","","null","","","","null","","","","30","43","6","","","","","","","","","","","","","","","","","","","","","","","","","","","","","","","","","","","","","",""
"","fixation","","html-keyboard-response","165","624389","0.0-87.0-0.0","0","0","JMSfN","People","","null","","","","null","","","","","","","","","","","","","","","","","","","","","","","","","","","","","","","","","","","","","","","","","","","",""
"","deliberation","","html-keyboard-response","166","625353","0.0-87.0-1.0","0","0","JMSfN","People","","963","","","","68","","","","31","3","45","0","-1","50","60","art-hauntington-jzY0KRJopEI-unsplash.jpg","sarah-noltner-pL5ZzPp1zqg-unsplash.jpg","3","1","3","45","","","","","","","","","","","","","","","","","","","","","","","","","","","",""
"","choice_confirmation","","html-keyboard-response","167","625879","0.0-87.0-2.0-0.0","0","0","JMSfN","People","","null","","","","null","","","","31","3","45","","","","","","","","","","","","","","","","","","","","","","","","","","","","","","","","","","","","","",""
"","fixation","","html-keyboard-response","168","626897","0.0-88.0-0.0","0","0","JMSfN","People","","null","","","","null","","","","","","","","","","","","","","","","","","","","","","","","","","","","","","","","","","","","","","","","","","","",""
"","deliberation","","html-keyboard-response","169","627770","0.0-88.0-1.0","0","0","JMSfN","People","","871","","","","68","","","","32","47","29","0","1","52","50","tyler-nix-ZGa9d1a_4tA-unsplash.jpg","leilani-angel-K84vnnzxmTQ-unsplash.jpg","3","1","47","29","","","","","","","","","","","","","","","","","","","","","","","","","","","",""
"","choice_confirmation","","html-keyboard-response","170","628289","0.0-88.0-2.0-0.0","0","0","JMSfN","People","","null","","","","null","","","","32","47","29","","","","","","","","","","","","","","","","","","","","","","","","","","","","","","","","","","","","","",""
"","fixation","","html-keyboard-response","171","629299","0.0-89.0-0.0","0","0","JMSfN","People","","null","","","","null","","","","","","","","","","","","","","","","","","","","","","","","","","","","","","","","","","","","","","","","","","","",""
"","deliberation","","html-keyboard-response","172","630161","0.0-89.0-1.0","0","0","JMSfN","People","","861","","","","75","","","","33","34","49","0","1","63","80","oliver-johnson-1TUIcKob7Zs-unsplash.jpg","vicky-hladynets-_gDoyVv5F4c-unsplash.jpg","3","0","49","34","","","","","","","","","","","","","","","","","","","","","","","","","","","",""
"","choice_confirmation","","html-keyboard-response","173","630689","0.0-89.0-2.0-0.0","0","0","JMSfN","People","","null","","","","null","","","","33","34","49","","","","","","","","","","","","","","","","","","","","","","","","","","","","","","","","","","","","","",""
"","fixation","","html-keyboard-response","174","631699","0.0-90.0-0.0","0","0","JMSfN","People","","null","","","","null","","","","","","","","","","","","","","","","","","","","","","","","","","","","","","","","","","","","","","","","","","","",""
"","deliberation","","html-keyboard-response","175","632778","0.0-90.0-1.0","0","0","JMSfN","People","","1077","","","","68","","","","34","4","18","0","-1","68","53","barna-bartis-2x3vfVxwR7o-unsplash.jpg","good-faces-xmSWVeGEnJw-unsplash.jpg","3","1","4","18","","","","","","","","","","","","","","","","","","","","","","","","","","","",""
"","choice_confirmation","","html-keyboard-response","176","633302","0.0-90.0-2.0-0.0","0","0","JMSfN","People","","null","","","","null","","","","34","4","18","","","","","","","","","","","","","","","","","","","","","","","","","","","","","","","","","","","","","",""
"","fixation","","html-keyboard-response","177","634316","0.0-91.0-0.0","0","0","JMSfN","People","","null","","","","null","","","","","","","","","","","","","","","","","","","","","","","","","","","","","","","","","","","","","","","","","","","",""
"","deliberation","","html-keyboard-response","178","635290","0.0-91.0-1.0","0","0","JMSfN","People","","972","","","","75","","","","35","36","13","0","1","46","50","ospan-ali-mGdA2fzjWLo-unsplash.jpg","erik-lucatero-d2MSDujJl2g-unsplash.jpg","3","0","13","36","","","","","","","","","","","","","","","","","","","","","","","","","","","",""
"","choice_confirmation","","html-keyboard-response","179","635804","0.0-91.0-2.0-0.0","0","0","JMSfN","People","","null","","","","null","","","","35","36","13","","","","","","","","","","","","","","","","","","","","","","","","","","","","","","","","","","","","","",""
"","reward_learning_instructions","","instructions","180","712206","0.0-92.0-0.0","0","0","JMSfN","People","[{""page_index"":0,""viewing_time"":10992},{""page_index"":1,""viewing_time"":64043},{""page_index"":2,""viewing_time"":1366}]","76401","","","","","","","","","","","","","","","","","","","","","","","","","","","","","","","","","","","","","","","","","","","","","","","",""
"","","","survey-multi-choice","181","728738","0.0-92.0-1.0","0","0","JMSfN","People","","16530","{""Q0"":""True"",""Q1"":""True"",""Q2"":""Press the space bar to see its outcome"",""Q3"":""Press the relevant key while the outcome is presented""}","reward_comprehension_check","0","","","","","","","","","","","","","","","","","","","","","","","","","","","","","","","","","","","","","","","","","","","","",""
"","start_phase","","html-keyboard-response","182","730155","0.0-93.0","0","0","JMSfN","People","","1416","","","","78","","","","","","","","","","","","","","","","","","","","","","","","","","","","","","","","","","","","","","","","","","","",""
"","fixation","","html-keyboard-response","183","731176","0.0-94.0","0","0","JMSfN","People","","null","","","","null","","","","","","","","","","","","","","","","","","","","","","","","","","","","","","","","","","","","","","","","","","","",""
"","see_reward","","html-keyboard-response","184","732827","0.0-95.0","0","0","JMSfN","People","","1650","","","","32","","6","","0","","","","1","","","","","1","","","","","140","1650","","","","","","","","","","","","","","","","","","","","","","","","",""
"","reward_outcome","","html-keyboard-response","185","734846","0.0-96.0","0","0","JMSfN","People","","1433","","","","38","","6","","0","","","","","","","","","","","","","","","","1","1433","","","","","","","","","","","","","","","","","","","","","","",""
"","fixation","","html-keyboard-response","186","735862","0.0-99.0","0","0","JMSfN","People","","null","","","","null","","","","","","","","","","","","","","","","","","","","","","","","","","","","","","","","","","","","","","","","","","","",""
"","see_reward","","html-keyboard-response","187","737404","0.0-100.0","0","0","JMSfN","People","","1539","","","","32","","3","","1","","","","-1","","","","","1","","","","","0","1539","","","","","","","","","","","","","","","","","","","","","","","","",""
"","reward_outcome","","html-keyboard-response","188","739426","0.0-101.0","0","0","JMSfN","People","","748","","","","40","","3","","1","","","","","","","","","","","","","","","","-1","748","","","","","","","","","","","","","","","","","","","","","","",""
"","fixation","","html-keyboard-response","189","740450","0.0-104.0","0","0","JMSfN","People","","null","","","","null","","","","","","","","","","","","","","","","","","","","","","","","","","","","","","","","","","","","","","","","","","","",""
"","see_reward","","html-keyboard-response","190","741490","0.0-105.0","0","0","JMSfN","People","","1039","","","","32","","31","","2","","","","-1","","","","","1","","","","","0","1039","","","","","","","","","","","","","","","","","","","","","","","","",""
"","reward_outcome","","html-keyboard-response","191","743496","0.0-106.0","0","0","JMSfN","People","","1417","","","","40","","31","","2","","","","","","","","","","","","","","","","-1","1417","","","","","","","","","","","","","","","","","","","","","","",""
"","fixation","","html-keyboard-response","192","744503","0.0-109.0","0","0","JMSfN","People","","null","","","","null","","","","","","","","","","","","","","","","","","","","","","","","","","","","","","","","","","","","","","","","","","","",""
"","see_reward","","html-keyboard-response","193","745156","0.0-110.0","0","0","JMSfN","People","","652","","","","32","","41","","3","","","","1","","","","","1","","","","","150","652","","","","","","","","","","","","","","","","","","","","","","","","",""
"","reward_outcome","","html-keyboard-response","194","747159","0.0-111.0","0","0","JMSfN","People","","778","","","","38","","41","","3","","","","","","","","","","","","","","","","1","778","","","","","","","","","","","","","","","","","","","","","","",""
"","fixation","","html-keyboard-response","195","748172","0.0-114.0","0","0","JMSfN","People","","null","","","","null","","","","","","","","","","","","","","","","","","","","","","","","","","","","","","","","","","","","","","","","","","","",""
"","see_reward","","html-keyboard-response","196","748972","0.0-115.0","0","0","JMSfN","People","","800","","","","32","","47","","4","","","","1","","","","","1","","","","","144","800","","","","","","","","","","","","","","","","","","","","","","","","",""
"","reward_outcome","","html-keyboard-response","197","750987","0.0-116.0","0","0","JMSfN","People","","833","","","","38","","47","","4","","","","","","","","","","","","","","","","1","833","","","","","","","","","","","","","","","","","","","","","","",""
"","fixation","","html-keyboard-response","198","752001","0.0-119.0","0","0","JMSfN","People","","null","","","","null","","","","","","","","","","","","","","","","","","","","","","","","","","","","","","","","","","","","","","","","","","","",""
"","see_reward","","html-keyboard-response","199","752732","0.0-120.0","0","0","JMSfN","People","","730","","","","32","","31","","5","","","","-1","","","","","1","","","","","0","730","","","","","","","","","","","","","","","","","","","","","","","","",""
"","reward_outcome","","html-keyboard-response","200","754743","0.0-121.0","0","0","JMSfN","People","","657","","","","40","","31","","5","","","","","","","","","","","","","","","","-1","657","","","","","","","","","","","","","","","","","","","","","","",""
"","fixation","","html-keyboard-response","201","755755","0.0-124.0","0","0","JMSfN","People","","null","","","","null","","","","","","","","","","","","","","","","","","","","","","","","","","","","","","","","","","","","","","","","","","","",""
"","see_reward","","html-keyboard-response","202","756438","0.0-125.0","0","0","JMSfN","People","","682","","","","32","","3","","6","","","","-1","","","","","1","","","","","0","682","","","","","","","","","","","","","","","","","","","","","","","","",""
"","reward_outcome","","html-keyboard-response","203","758444","0.0-126.0","0","0","JMSfN","People","","725","","","","40","","3","","6","","","","","","","","","","","","","","","","-1","725","","","","","","","","","","","","","","","","","","","","","","",""
"","fixation","","html-keyboard-response","204","759463","0.0-129.0","0","0","JMSfN","People","","null","","","","null","","","","","","","","","","","","","","","","","","","","","","","","","","","","","","","","","","","","","","","","","","","",""
"","see_reward","","html-keyboard-response","205","760180","0.0-130.0","0","0","JMSfN","People","","716","","","","32","","13","","7","","","","1","","","","","1","","","","","156","716","","","","","","","","","","","","","","","","","","","","","","","","",""
"","reward_outcome","","html-keyboard-response","206","762199","0.0-131.0","0","0","JMSfN","People","","460","","","","38","","13","","7","","","","","","","","","","","","","","","","1","460","","","","","","","","","","","","","","","","","","","","","","",""
"","fixation","","html-keyboard-response","207","763211","0.0-134.0","0","0","JMSfN","People","","null","","","","null","","","","","","","","","","","","","","","","","","","","","","","","","","","","","","","","","","","","","","","","","","","",""
"","see_reward","","html-keyboard-response","208","763951","0.0-135.0","0","0","JMSfN","People","","739","","","","32","","35","","8","","","","1","","","","","1","","","","","144","739","","","","","","","","","","","","","","","","","","","","","","","","",""
"","reward_outcome","","html-keyboard-response","209","765965","0.0-136.0","0","0","JMSfN","People","","399","","","","38","","35","","8","","","","","","","","","","","","","","","","1","399","","","","","","","","","","","","","","","","","","","","","","",""
"","fixation","","html-keyboard-response","210","766975","0.0-139.0","0","0","JMSfN","People","","null","","","","null","","","","","","","","","","","","","","","","","","","","","","","","","","","","","","","","","","","","","","","","","","","",""
"","see_reward","","html-keyboard-response","211","767667","0.0-140.0","0","0","JMSfN","People","","691","","","","32","","11","","9","","","","-1","","","","","1","","","","","0","691","","","","","","","","","","","","","","","","","","","","","","","","",""
"","reward_outcome","","html-keyboard-response","212","769686","0.0-141.0","0","0","JMSfN","People","","722","","","","40","","11","","9","","","","","","","","","","","","","","","","-1","722","","","","","","","","","","","","","","","","","","","","","","",""
"","fixation","","html-keyboard-response","213","770706","0.0-144.0","0","0","JMSfN","People","","null","","","","null","","","","","","","","","","","","","","","","","","","","","","","","","","","","","","","","","","","","","","","","","","","",""
"","see_reward","","html-keyboard-response","214","771224","0.0-145.0","0","0","JMSfN","People","","517","","","","32","","4","","10","","","","-1","","","","","1","","","","","0","517","","","","","","","","","","","","","","","","","","","","","","","","",""
"","reward_outcome","","html-keyboard-response","215","773235","0.0-146.0","0","0","JMSfN","People","","576","","","","40","","4","","10","","","","","","","","","","","","","","","","-1","576","","","","","","","","","","","","","","","","","","","","","","",""
"","fixation","","html-keyboard-response","216","774252","0.0-149.0","0","0","JMSfN","People","","null","","","","null","","","","","","","","","","","","","","","","","","","","","","","","","","","","","","","","","","","","","","","","","","","",""
"","see_reward","","html-keyboard-response","217","774544","0.0-150.0","0","0","JMSfN","People","","290","","","","32","","35","","11","","","","1","","","","","1","","","","","144","290","","","","","","","","","","","","","","","","","","","","","","","","",""
"","reward_outcome","","html-keyboard-response","218","776555","0.0-151.0","0","0","JMSfN","People","","404","","","","38","","35","","11","","","","","","","","","","","","","","","","1","404","","","","","","","","","","","","","","","","","","","","","","",""
"","fixation","","html-keyboard-response","219","777565","0.0-154.0","0","0","JMSfN","People","","null","","","","null","","","","","","","","","","","","","","","","","","","","","","","","","","","","","","","","","","","","","","","","","","","",""
"","see_reward","","html-keyboard-response","220","777907","0.0-155.0","0","0","JMSfN","People","","341","","","","32","","13","","12","","","","1","","","","","1","","","","","156","341","","","","","","","","","","","","","","","","","","","","","","","","",""
"","reward_outcome","","html-keyboard-response","221","779910","0.0-156.0","0","0","JMSfN","People","","368","","","","38","","13","","12","","","","","","","","","","","","","","","","1","368","","","","","","","","","","","","","","","","","","","","","","",""
"","fixation","","html-keyboard-response","222","780912","0.0-159.0","0","0","JMSfN","People","","null","","","","null","","","","","","","","","","","","","","","","","","","","","","","","","","","","","","","","","","","","","","","","","","","",""
"","see_reward","","html-keyboard-response","223","781230","0.0-160.0","0","0","JMSfN","People","","316","","","","32","","11","","13","","","","-1","","","","","1","","","","","0","316","","","","","","","","","","","","","","","","","","","","","","","","",""
"","reward_outcome","","html-keyboard-response","224","783244","0.0-161.0","0","0","JMSfN","People","","569","","","","40","","11","","13","","","","","","","","","","","","","","","","-1","569","","","","","","","","","","","","","","","","","","","","","","",""
"","fixation","","html-keyboard-response","225","784268","0.0-164.0","0","0","JMSfN","People","","null","","","","null","","","","","","","","","","","","","","","","","","","","","","","","","","","","","","","","","","","","","","","","","","","",""
"","see_reward","","html-keyboard-response","226","784481","0.0-165.0","0","0","JMSfN","People","","212","","","","32","","32","","14","","","","-1","","","","","1","","","","","0","212","","","","","","","","","","","","","","","","","","","","","","","","",""
"","reward_outcome","","html-keyboard-response","227","786483","0.0-166.0","0","0","JMSfN","People","","364","","","","38","","32","","14","","","","","","","","","","","","","","","","1","364","","","","","","","","","","","","","","","","","","","","","","",""
"","fixation","","html-keyboard-response","228","787493","0.0-169.0","0","0","JMSfN","People","","null","","","","null","","","","","","","","","","","","","","","","","","","","","","","","","","","","","","","","","","","","","","","","","","","",""
"","see_reward","","html-keyboard-response","229","787967","0.0-170.0","0","0","JMSfN","People","","472","","","","32","","32","","15","","","","-1","","","","","1","","","","","0","472","","","","","","","","","","","","","","","","","","","","","","","","",""
"","reward_outcome","","html-keyboard-response","230","789976","0.0-171.0","0","0","JMSfN","People","","330","","","","40","","32","","15","","","","","","","","","","","","","","","","-1","330","","","","","","","","","","","","","","","","","","","","","","",""
"","fixation","","html-keyboard-response","231","790981","0.0-174.0","0","0","JMSfN","People","","null","","","","null","","","","","","","","","","","","","","","","","","","","","","","","","","","","","","","","","","","","","","","","","","","",""
"","see_reward","","html-keyboard-response","232","791514","0.0-175.0","0","0","JMSfN","People","","532","","","","32","","2","","16","","","","-1","","","","","1","","","","","0","532","","","","","","","","","","","","","","","","","","","","","","","","",""
"","reward_outcome","","html-keyboard-response","233","793516","0.0-176.0","0","0","JMSfN","People","","524","","","","40","","2","","16","","","","","","","","","","","","","","","","-1","524","","","","","","","","","","","","","","","","","","","","","","",""
"","fixation","","html-keyboard-response","234","794535","0.0-179.0","0","0","JMSfN","People","","null","","","","null","","","","","","","","","","","","","","","","","","","","","","","","","","","","","","","","","","","","","","","","","","","",""
"","see_reward","","html-keyboard-response","235","794957","0.0-180.0","0","0","JMSfN","People","","421","","","","32","","4","","17","","","","-1","","","","","1","","","","","0","421","","","","","","","","","","","","","","","","","","","","","","","","",""
"","reward_outcome","","html-keyboard-response","236","796976","0.0-181.0","0","0","JMSfN","People","","500","","","","40","","4","","17","","","","","","","","","","","","","","","","-1","500","","","","","","","","","","","","","","","","","","","","","","",""
"","fixation","","html-keyboard-response","237","797985","0.0-184.0","0","0","JMSfN","People","","null","","","","null","","","","","","","","","","","","","","","","","","","","","","","","","","","","","","","","","","","","","","","","","","","",""
"","see_reward","","html-keyboard-response","238","798618","0.0-185.0","0","0","JMSfN","People","","632","","","","32","","6","","18","","","","1","","","","","1","","","","","140","632","","","","","","","","","","","","","","","","","","","","","","","","",""
"","reward_outcome","","html-keyboard-response","239","800632","0.0-186.0","0","0","JMSfN","People","","653","","","","38","","6","","18","","","","","","","","","","","","","","","","1","653","","","","","","","","","","","","","","","","","","","","","","",""
"","fixation","","html-keyboard-response","240","801644","0.0-189.0","0","0","JMSfN","People","","null","","","","null","","","","","","","","","","","","","","","","","","","","","","","","","","","","","","","","","","","","","","","","","","","",""
"","see_reward","","html-keyboard-response","241","802154","0.0-190.0","0","0","JMSfN","People","","508","","","","32","","41","","19","","","","1","","","","","1","","","","","150","508","","","","","","","","","","","","","","","","","","","","","","","","",""
"","reward_outcome","","html-keyboard-response","242","804178","0.0-191.0","0","0","JMSfN","People","","628","","","","38","","41","","19","","","","","","","","","","","","","","","","1","628","","","","","","","","","","","","","","","","","","","","","","",""
"","fixation","","html-keyboard-response","243","805196","0.0-194.0","0","0","JMSfN","People","","null","","","","null","","","","","","","","","","","","","","","","","","","","","","","","","","","","","","","","","","","","","","","","","","","",""
"","see_reward","","html-keyboard-response","244","805544","0.0-195.0","0","0","JMSfN","People","","348","","","","32","","47","","20","","","","1","","","","","1","","","","","144","348","","","","","","","","","","","","","","","","","","","","","","","","",""
"","reward_outcome","","html-keyboard-response","245","807553","0.0-196.0","0","0","JMSfN","People","","391","","","","38","","47","","20","","","","","","","","","","","","","","","","1","391","","","","","","","","","","","","","","","","","","","","","","",""
"","fixation","","html-keyboard-response","246","808562","0.0-199.0","0","0","JMSfN","People","","null","","","","null","","","","","","","","","","","","","","","","","","","","","","","","","","","","","","","","","","","","","","","","","","","",""
"","see_reward","","html-keyboard-response","247","808785","0.0-200.0","0","0","JMSfN","People","","223","","","","32","","2","","21","","","","-1","","","","","1","","","","","0","223","","","","","","","","","","","","","","","","","","","","","","","","",""
"","reward_outcome","","html-keyboard-response","248","810799","0.0-201.0","0","0","JMSfN","People","","660","","","","40","","2","","21","","","","","","","","","","","","","","","","-1","660","","","","","","","","","","","","","","","","","","","","","","",""
"","fixation","","html-keyboard-response","249","811805","0.0-204.0","0","0","JMSfN","People","","null","","","","null","","","","","","","","","","","","","","","","","","","","","","","","","","","","","","","","","","","","","","","","","","","",""
"","see_reward","","html-keyboard-response","250","812175","0.0-205.0","0","0","JMSfN","People","","369","","","","32","","49","","22","","","","1","","","","","1","","","","","154","369","","","","","","","","","","","","","","","","","","","","","","","","",""
"","reward_outcome","","html-keyboard-response","251","814187","0.0-206.0","0","0","JMSfN","People","","446","","","","38","","49","","22","","","","","","","","","","","","","","","","1","446","","","","","","","","","","","","","","","","","","","","","","",""
"","fixation","","html-keyboard-response","252","815206","0.0-209.0","0","0","JMSfN","People","","null","","","","null","","","","","","","","","","","","","","","","","","","","","","","","","","","","","","","","","","","","","","","","","","","",""
"","see_reward","","html-keyboard-response","253","815581","0.0-210.0","0","0","JMSfN","People","","374","","","","32","","49","","23","","","","1","","","","","1","","","","","154","374","","","","","","","","","","","","","","","","","","","","","","","","",""
"","reward_outcome","","html-keyboard-response","254","817600","0.0-211.0","0","0","JMSfN","People","","363","","","","38","","49","","23","","","","","","","","","","","","","","","","1","363","","","","","","","","","","","","","","","","","","","","","","",""
"","block_over","","html-keyboard-response","255","819170","0.0-213.0-0.0","0","0","JMSfN","People","","1568","","","","78","","","","","","","","","","","","","","","","","","","","","","","","","","","","","","","","","","","","","","","","","","","",""
"","fixation","","html-keyboard-response","256","820192","0.0-214.0","0","0","JMSfN","People","","null","","","","null","","","","","","","","","","","","","","","","","","","","","","","","","","","","","","","","","","","","","","","","","","","",""
"","see_reward","","html-keyboard-response","257","821104","0.0-215.0","0","0","JMSfN","People","","911","","","","32","","11","","24","","","","-1","","","","","2","","","","","0","911","","","","","","","","","","","","","","","","","","","","","","","","",""
"","reward_outcome","","html-keyboard-response","258","823121","0.0-216.0","0","0","JMSfN","People","","860","","","","40","","11","","24","","","","","","","","","","","","","","","","-1","860","","","","","","","","","","","","","","","","","","","","","","",""
"","fixation","","html-keyboard-response","259","824134","0.0-219.0","0","0","JMSfN","People","","null","","","","null","","","","","","","","","","","","","","","","","","","","","","","","","","","","","","","","","","","","","","","","","","","",""
"","see_reward","","html-keyboard-response","260","824455","0.0-220.0","0","0","JMSfN","People","","319","","","","32","","4","","25","","","","-1","","","","","2","","","","","0","319","","","","","","","","","","","","","","","","","","","","","","","","",""
"","reward_outcome","","html-keyboard-response","261","826469","0.0-221.0","0","0","JMSfN","People","","490","","","","40","","4","","25","","","","","","","","","","","","","","","","-1","490","","","","","","","","","","","","","","","","","","","","","","",""
"","fixation","","html-keyboard-response","262","827486","0.0-224.0","0","0","JMSfN","People","","null","","","","null","","","","","","","","","","","","","","","","","","","","","","","","","","","","","","","","","","","","","","","","","","","",""
"","see_reward","","html-keyboard-response","263","827955","0.0-225.0","0","0","JMSfN","People","","463","","","","32","","31","","26","","","","-1","","","","","2","","","","","0","463","","","","","","","","","","","","","","","","","","","","","","","","",""
"","reward_outcome","","html-keyboard-response","264","829965","0.0-226.0","0","0","JMSfN","People","","519","","","","40","","31","","26","","","","","","","","","","","","","","","","-1","519","","","","","","","","","","","","","","","","","","","","","","",""
"","fixation","","html-keyboard-response","265","830987","0.0-229.0","0","0","JMSfN","People","","null","","","","null","","","","","","","","","","","","","","","","","","","","","","","","","","","","","","","","","","","","","","","","","","","",""
"","see_reward","","html-keyboard-response","266","831432","0.0-230.0","0","0","JMSfN","People","","444","","","","32","","32","","27","","","","-1","","","","","2","","","","","0","444","","","","","","","","","","","","","","","","","","","","","","","","",""
"","reward_outcome","","html-keyboard-response","267","833436","0.0-231.0","0","0","JMSfN","People","","427","","","","40","","32","","27","","","","","","","","","","","","","","","","-1","427","","","","","","","","","","","","","","","","","","","","","","",""
"","fixation","","html-keyboard-response","268","834448","0.0-234.0","0","0","JMSfN","People","","null","","","","null","","","","","","","","","","","","","","","","","","","","","","","","","","","","","","","","","","","","","","","","","","","",""
"","see_reward","","html-keyboard-response","269","834964","0.0-235.0","0","0","JMSfN","People","","514","","","","32","","41","","28","","","","1","","","","","2","","","","","150","514","","","","","","","","","","","","","","","","","","","","","","","","",""
"","reward_outcome","","html-keyboard-response","270","836981","0.0-236.0","0","0","JMSfN","People","","324","","","","38","","41","","28","","","","","","","","","","","","","","","","1","324","","","","","","","","","","","","","","","","","","","","","","",""
"","fixation","","html-keyboard-response","271","838001","0.0-239.0","0","0","JMSfN","People","","null","","","","null","","","","","","","","","","","","","","","","","","","","","","","","","","","","","","","","","","","","","","","","","","","",""
"","see_reward","","html-keyboard-response","272","838449","0.0-240.0","0","0","JMSfN","People","","448","","","","32","","41","","29","","","","1","","","","","2","","","","","150","448","","","","","","","","","","","","","","","","","","","","","","","","",""
"","reward_outcome","","html-keyboard-response","273","840459","0.0-241.0","0","0","JMSfN","People","","347","","","","38","","41","","29","","","","","","","","","","","","","","","","1","347","","","","","","","","","","","","","","","","","","","","","","",""
"","fixation","","html-keyboard-response","274","841463","0.0-244.0","0","0","JMSfN","People","","null","","","","null","","","","","","","","","","","","","","","","","","","","","","","","","","","","","","","","","","","","","","","","","","","",""
"","see_reward","","html-keyboard-response","275","841849","0.0-245.0","0","0","JMSfN","People","","385","","","","32","","47","","30","","","","1","","","","","2","","","","","144","385","","","","","","","","","","","","","","","","","","","","","","","","",""
"","reward_outcome","","html-keyboard-response","276","843857","0.0-246.0","0","0","JMSfN","People","","323","","","","38","","47","","30","","","","","","","","","","","","","","","","1","323","","","","","","","","","","","","","","","","","","","","","","",""
"","fixation","","html-keyboard-response","277","844869","0.0-249.0","0","0","JMSfN","People","","null","","","","null","","","","","","","","","","","","","","","","","","","","","","","","","","","","","","","","","","","","","","","","","","","",""
"","see_reward","","html-keyboard-response","278","845463","0.0-250.0","0","0","JMSfN","People","","591","","","","32","","13","","31","","","","1","","","","","2","","","","","156","591","","","","","","","","","","","","","","","","","","","","","","","","",""
"","reward_outcome","","html-keyboard-response","279","847473","0.0-251.0","0","0","JMSfN","People","","379","","","","38","","13","","31","","","","","","","","","","","","","","","","1","379","","","","","","","","","","","","","","","","","","","","","","",""
"","fixation","","html-keyboard-response","280","848485","0.0-254.0","0","0","JMSfN","People","","null","","","","null","","","","","","","","","","","","","","","","","","","","","","","","","","","","","","","","","","","","","","","","","","","",""
"","see_reward","","html-keyboard-response","281","848946","0.0-255.0","0","0","JMSfN","People","","461","","","","32","","3","","32","","","","-1","","","","","2","","","","","0","461","","","","","","","","","","","","","","","","","","","","","","","","",""
"","reward_outcome","","html-keyboard-response","282","850970","0.0-256.0","0","0","JMSfN","People","","449","","","","40","","3","","32","","","","","","","","","","","","","","","","-1","449","","","","","","","","","","","","","","","","","","","","","","",""
"","fixation","","html-keyboard-response","283","851985","0.0-259.0","0","0","JMSfN","People","","null","","","","null","","","","","","","","","","","","","","","","","","","","","","","","","","","","","","","","","","","","","","","","","","","",""
"","see_reward","","html-keyboard-response","284","852348","0.0-260.0","0","0","JMSfN","People","","362","","","","32","","35","","33","","","","1","","","","","2","","","","","144","362","","","","","","","","","","","","","","","","","","","","","","","","",""
"","reward_outcome","","html-keyboard-response","285","854364","0.0-261.0","0","0","JMSfN","People","","393","","","","38","","35","","33","","","","","","","","","","","","","","","","1","393","","","","","","","","","","","","","","","","","","","","","","",""
"","fixation","","html-keyboard-response","286","855390","0.0-264.0","0","0","JMSfN","People","","null","","","","null","","","","","","","","","","","","","","","","","","","","","","","","","","","","","","","","","","","","","","","","","","","",""
"","see_reward","","html-keyboard-response","287","855752","0.0-265.0","0","0","JMSfN","People","","361","","","","32","","35","","34","","","","1","","","","","2","","","","","144","361","","","","","","","","","","","","","","","","","","","","","","","","",""
"","reward_outcome","","html-keyboard-response","288","857767","0.0-266.0","0","0","JMSfN","People","","342","","","","38","","35","","34","","","","","","","","","","","","","","","","1","342","","","","","","","","","","","","","","","","","","","","","","",""
"","fixation","","html-keyboard-response","289","858784","0.0-269.0","0","0","JMSfN","People","","null","","","","null","","","","","","","","","","","","","","","","","","","","","","","","","","","","","","","","","","","","","","","","","","","",""
"","see_reward","","html-keyboard-response","290","859275","0.0-270.0","0","0","JMSfN","People","","489","","","","32","","47","","35","","","","1","","","","","2","","","","","144","489","","","","","","","","","","","","","","","","","","","","","","","","",""
"","reward_outcome","","html-keyboard-response","291","861299","0.0-271.0","0","0","JMSfN","People","","320","","","","40","","47","","35","","","","","","","","","","","","","","","","-1","320","","","","","","","","","","","","","","","","","","","","","","",""
"","fixation","","html-keyboard-response","292","862320","0.0-274.0","0","0","JMSfN","People","","null","","","","null","","","","","","","","","","","","","","","","","","","","","","","","","","","","","","","","","","","","","","","","","","","",""
"","see_reward","","html-keyboard-response","293","862771","0.0-275.0","0","0","JMSfN","People","","451","","","","32","","2","","36","","","","-1","","","","","2","","","","","0","451","","","","","","","","","","","","","","","","","","","","","","","","",""
"","reward_outcome","","html-keyboard-response","294","864786","0.0-276.0","0","0","JMSfN","People","","520","","","","40","","2","","36","","","","","","","","","","","","","","","","-1","520","","","","","","","","","","","","","","","","","","","","","","",""
"","fixation","","html-keyboard-response","295","865803","0.0-279.0","0","0","JMSfN","People","","null","","","","null","","","","","","","","","","","","","","","","","","","","","","","","","","","","","","","","","","","","","","","","","","","",""
"","see_reward","","html-keyboard-response","296","866182","0.0-280.0","0","0","JMSfN","People","","378","","","","32","","11","","37","","","","-1","","","","","2","","","","","0","378","","","","","","","","","","","","","","","","","","","","","","","","",""
"","reward_outcome","","html-keyboard-response","297","868200","0.0-281.0","0","0","JMSfN","People","","418","","","","40","","11","","37","","","","","","","","","","","","","","","","-1","418","","","","","","","","","","","","","","","","","","","","","","",""
"","fixation","","html-keyboard-response","298","869217","0.0-284.0","0","0","JMSfN","People","","null","","","","null","","","","","","","","","","","","","","","","","","","","","","","","","","","","","","","","","","","","","","","","","","","",""
"","see_reward","","html-keyboard-response","299","869601","0.0-285.0","0","0","JMSfN","People","","383","","","","32","","2","","38","","","","-1","","","","","2","","","","","0","383","","","","","","","","","","","","","","","","","","","","","","","","",""
"","reward_outcome","","html-keyboard-response","300","871610","0.0-286.0","0","0","JMSfN","People","","404","","","","40","","2","","38","","","","","","","","","","","","","","","","-1","404","","","","","","","","","","","","","","","","","","","","","","",""
"","fixation","","html-keyboard-response","301","872614","0.0-289.0","0","0","JMSfN","People","","null","","","","null","","","","","","","","","","","","","","","","","","","","","","","","","","","","","","","","","","","","","","","","","","","",""
"","see_reward","","html-keyboard-response","302","873129","0.0-290.0","0","0","JMSfN","People","","513","","","","32","","3","","39","","","","-1","","","","","2","","","","","0","513","","","","","","","","","","","","","","","","","","","","","","","","",""
"","reward_outcome","","html-keyboard-response","303","875137","0.0-291.0","0","0","JMSfN","People","","403","","","","40","","3","","39","","","","","","","","","","","","","","","","-1","403","","","","","","","","","","","","","","","","","","","","","","",""
"","fixation","","html-keyboard-response","304","876145","0.0-294.0","0","0","JMSfN","People","","null","","","","null","","","","","","","","","","","","","","","","","","","","","","","","","","","","","","","","","","","","","","","","","","","",""
"","see_reward","","html-keyboard-response","305","876616","0.0-295.0","0","0","JMSfN","People","","470","","","","32","","32","","40","","","","-1","","","","","2","","","","","0","470","","","","","","","","","","","","","","","","","","","","","","","","",""
"","reward_outcome","","html-keyboard-response","306","878624","0.0-296.0","0","0","JMSfN","People","","563","","","","40","","32","","40","","","","","","","","","","","","","","","","-1","563","","","","","","","","","","","","","","","","","","","","","","",""
"","fixation","","html-keyboard-response","307","879633","0.0-299.0","0","0","JMSfN","People","","null","","","","null","","","","","","","","","","","","","","","","","","","","","","","","","","","","","","","","","","","","","","","","","","","",""
"","see_reward","","html-keyboard-response","308","880276","0.0-300.0","0","0","JMSfN","People","","643","","","","32","","6","","41","","","","1","","","","","2","","","","","140","643","","","","","","","","","","","","","","","","","","","","","","","","",""
"","reward_outcome","","html-keyboard-response","309","882297","0.0-301.0","0","0","JMSfN","People","","495","","","","38","","6","","41","","","","","","","","","","","","","","","","1","495","","","","","","","","","","","","","","","","","","","","","","",""
"","fixation","","html-keyboard-response","310","883308","0.0-304.0","0","0","JMSfN","People","","null","","","","null","","","","","","","","","","","","","","","","","","","","","","","","","","","","","","","","","","","","","","","","","","","",""
"","see_reward","","html-keyboard-response","311","883795","0.0-305.0","0","0","JMSfN","People","","487","","","","32","","4","","42","","","","-1","","","","","2","","","","","0","487","","","","","","","","","","","","","","","","","","","","","","","","",""
"","reward_outcome","","html-keyboard-response","312","885821","0.0-306.0","0","0","JMSfN","People","","452","","","","40","","4","","42","","","","","","","","","","","","","","","","-1","452","","","","","","","","","","","","","","","","","","","","","","",""
"","fixation","","html-keyboard-response","313","886842","0.0-309.0","0","0","JMSfN","People","","null","","","","null","","","","","","","","","","","","","","","","","","","","","","","","","","","","","","","","","","","","","","","","","","","",""
"","see_reward","","html-keyboard-response","314","887307","0.0-310.0","0","0","JMSfN","People","","464","","","","32","","6","","43","","","","1","","","","","2","","","","","140","464","","","","","","","","","","","","","","","","","","","","","","","","",""
"","reward_outcome","","html-keyboard-response","315","889327","0.0-311.0","0","0","JMSfN","People","","639","","","","38","","6","","43","","","","","","","","","","","","","","","","1","639","","","","","","","","","","","","","","","","","","","","","","",""
"","fixation","","html-keyboard-response","316","890336","0.0-314.0","0","0","JMSfN","People","","null","","","","null","","","","","","","","","","","","","","","","","","","","","","","","","","","","","","","","","","","","","","","","","","","",""
"","see_reward","","html-keyboard-response","317","890813","0.0-315.0","0","0","JMSfN","People","","477","","","","32","","31","","44","","","","-1","","","","","2","","","","","0","477","","","","","","","","","","","","","","","","","","","","","","","","",""
"","reward_outcome","","html-keyboard-response","318","892823","0.0-316.0","0","0","JMSfN","People","","678","","","","40","","31","","44","","","","","","","","","","","","","","","","-1","678","","","","","","","","","","","","","","","","","","","","","","",""
"","fixation","","html-keyboard-response","319","893829","0.0-319.0","0","0","JMSfN","People","","null","","","","null","","","","","","","","","","","","","","","","","","","","","","","","","","","","","","","","","","","","","","","","","","","",""
"","see_reward","","html-keyboard-response","320","894328","0.0-320.0","0","0","JMSfN","People","","498","","","","32","","13","","45","","","","1","","","","","2","","","","","156","498","","","","","","","","","","","","","","","","","","","","","","","","",""
"","reward_outcome","","html-keyboard-response","321","896341","0.0-321.0","0","0","JMSfN","People","","723","","","","38","","13","","45","","","","","","","","","","","","","","","","1","723","","","","","","","","","","","","","","","","","","","","","","",""
"","fixation","","html-keyboard-response","322","897355","0.0-324.0","0","0","JMSfN","People","","null","","","","null","","","","","","","","","","","","","","","","","","","","","","","","","","","","","","","","","","","","","","","","","","","",""
"","see_reward","","html-keyboard-response","323","897760","0.0-325.0","0","0","JMSfN","People","","405","","","","32","","49","","46","","","","1","","","","","2","","","","","154","405","","","","","","","","","","","","","","","","","","","","","","","","",""
"","reward_outcome","","html-keyboard-response","324","899771","0.0-326.0","0","0","JMSfN","People","","329","","","","38","","49","","46","","","","","","","","","","","","","","","","1","329","","","","","","","","","","","","","","","","","","","","","","",""
"","fixation","","html-keyboard-response","325","900790","0.0-329.0","0","0","JMSfN","People","","null","","","","null","","","","","","","","","","","","","","","","","","","","","","","","","","","","","","","","","","","","","","","","","","","",""
"","see_reward","","html-keyboard-response","326","901250","0.0-330.0","0","0","JMSfN","People","","458","","","","32","","49","","47","","","","1","","","","","2","","","","","154","458","","","","","","","","","","","","","","","","","","","","","","","","",""
"","reward_outcome","","html-keyboard-response","327","903265","0.0-331.0","0","0","JMSfN","People","","378","","","","38","","49","","47","","","","","","","","","","","","","","","","1","378","","","","","","","","","","","","","","","","","","","","","","",""
"","block_over","","html-keyboard-response","328","905405","0.0-333.0-0.0","0","0","JMSfN","People","","2139","","","","78","","","","","","","","","","","","","","","","","","","","","","","","","","","","","","","","","","","","","","","","","","","",""
"","fixation","","html-keyboard-response","329","906424","0.0-334.0","0","0","JMSfN","People","","null","","","","null","","","","","","","","","","","","","","","","","","","","","","","","","","","","","","","","","","","","","","","","","","","",""
"","see_reward","","html-keyboard-response","330","907457","0.0-335.0","0","0","JMSfN","People","","1032","","","","32","","4","","48","","","","-1","","","","","3","","","","","0","1032","","","","","","","","","","","","","","","","","","","","","","","","",""
"","reward_outcome","","html-keyboard-response","331","909460","0.0-336.0","0","0","JMSfN","People","","741","","","","40","","4","","48","","","","","","","","","","","","","","","","-1","741","","","","","","","","","","","","","","","","","","","","","","",""
"","fixation","","html-keyboard-response","332","910465","0.0-339.0","0","0","JMSfN","People","","null","","","","null","","","","","","","","","","","","","","","","","","","","","","","","","","","","","","","","","","","","","","","","","","","",""
"","see_reward","","html-keyboard-response","333","910873","0.0-340.0","0","0","JMSfN","People","","406","","","","32","","35","","49","","","","1","","","","","3","","","","","144","406","","","","","","","","","","","","","","","","","","","","","","","","",""
"","reward_outcome","","html-keyboard-response","334","912880","0.0-341.0","0","0","JMSfN","People","","356","","","","38","","35","","49","","","","","","","","","","","","","","","","1","356","","","","","","","","","","","","","","","","","","","","","","",""
"","fixation","","html-keyboard-response","335","913894","0.0-344.0","0","0","JMSfN","People","","null","","","","null","","","","","","","","","","","","","","","","","","","","","","","","","","","","","","","","","","","","","","","","","","","",""
"","see_reward","","html-keyboard-response","336","914310","0.0-345.0","0","0","JMSfN","People","","415","","","","32","","11","","50","","","","-1","","","","","3","","","","","0","415","","","","","","","","","","","","","","","","","","","","","","","","",""
"","reward_outcome","","html-keyboard-response","337","916331","0.0-346.0","0","0","JMSfN","People","","547","","","","40","","11","","50","","","","","","","","","","","","","","","","-1","547","","","","","","","","","","","","","","","","","","","","","","",""
"","fixation","","html-keyboard-response","338","917342","0.0-349.0","0","0","JMSfN","People","","null","","","","null","","","","","","","","","","","","","","","","","","","","","","","","","","","","","","","","","","","","","","","","","","","",""
"","see_reward","","html-keyboard-response","339","917868","0.0-350.0","0","0","JMSfN","People","","525","","","","32","","49","","51","","","","1","","","","","3","","","","","154","525","","","","","","","","","","","","","","","","","","","","","","","","",""
"","reward_outcome","","html-keyboard-response","340","919882","0.0-351.0","0","0","JMSfN","People","","373","","","","38","","49","","51","","","","","","","","","","","","","","","","1","373","","","","","","","","","","","","","","","","","","","","","","",""
"","fixation","","html-keyboard-response","341","920901","0.0-354.0","0","0","JMSfN","People","","null","","","","null","","","","","","","","","","","","","","","","","","","","","","","","","","","","","","","","","","","","","","","","","","","",""
"","see_reward","","html-keyboard-response","342","921324","0.0-355.0","0","0","JMSfN","People","","420","","","","32","","32","","52","","","","-1","","","","","3","","","","","0","420","","","","","","","","","","","","","","","","","","","","","","","","",""
"","reward_outcome","","html-keyboard-response","343","923345","0.0-356.0","0","0","JMSfN","People","","494","","","","40","","32","","52","","","","","","","","","","","","","","","","-1","494","","","","","","","","","","","","","","","","","","","","","","",""
"","fixation","","html-keyboard-response","344","924352","0.0-359.0","0","0","JMSfN","People","","null","","","","null","","","","","","","","","","","","","","","","","","","","","","","","","","","","","","","","","","","","","","","","","","","",""
"","see_reward","","html-keyboard-response","345","924703","0.0-360.0","0","0","JMSfN","People","","350","","","","32","","13","","53","","","","1","","","","","3","","","","","156","350","","","","","","","","","","","","","","","","","","","","","","","","",""
"","reward_outcome","","html-keyboard-response","346","926715","0.0-361.0","0","0","JMSfN","People","","640","","","","38","","13","","53","","","","","","","","","","","","","","","","1","640","","","","","","","","","","","","","","","","","","","","","","",""
"","fixation","","html-keyboard-response","347","927727","0.0-364.0","0","0","JMSfN","People","","null","","","","null","","","","","","","","","","","","","","","","","","","","","","","","","","","","","","","","","","","","","","","","","","","",""
"","see_reward","","html-keyboard-response","348","928159","0.0-365.0","0","0","JMSfN","People","","432","","","","32","","47","","54","","","","1","","","","","3","","","","","144","432","","","","","","","","","","","","","","","","","","","","","","","","",""
