"success","ttype","start_time","trial_type","trial_index","time_elapsed","internal_node_id","warning","missed_checkup","PID","stim_type","view_history","rt","responses","category","repeat_instructions","key_press","response","stimulus_id","painting","index","stimulus_left","stimulus_right","explain_trial","reward_type","rating_left","rating_right","painting_left","painting_right","block","left_chosen","chosen_obj","unchosen_obj","explain_response","reward_amount","see_reward_rt","register_reward_response","register_reward_rt","deliberation_reward_tally","stimulus_left_deliberation_ind","stimulus_right_deliberation_ind","chosen_trial","gain_left","higher_outcome_chosen","old_pair","chosen_object","rt_pairs","left_object_chosen","rt_object","old_response","new_rating","deliberated_stim","initial_rating","outcome_eval_rt","outcome_eval_response","outcome_eval_gain","outcome_eval_acc","preamble","outcome_eval_confidence","outcome_eval_confidence_rt","total_reward_tally"
"true","full_screen","d01182023hr1359","fullscreen","0","21753","0.0-0.0","0","0","1K9vK","People","","","","","","","","","","","","","","","","","","","","","","","","","","","","","","","","","","","","","","","","","","","","","","","","","",""
"","rating_instructions","","instructions","1","94536","0.0-1.0-0.0","0","0","1K9vK","People","[{""page_index"":0,""viewing_time"":17748},{""page_index"":1,""viewing_time"":55031}]","72780","","","","","","","","","","","","","","","","","","","","","","","","","","","","","","","","","","","","","","","","","","","","","","","",""
"","","","survey-multi-choice","2","100625","0.0-1.0-1.0","0","0","1K9vK","People","","6082","{""Q0"":""True"",""Q1"":""Mouse""}","rating_comprehension_check","0","","","","","","","","","","","","","","","","","","","","","","","","","","","","","","","","","","","","","","","","","","","","",""
"","start_phase","","html-keyboard-response","3","102642","0.0-2.0","0","0","1K9vK","People","","2014","","","","78","","","","","","","","","","","","","","","","","","","","","","","","","","","","","","","","","","","","","","","","","","","",""
"","rating","","html-slider-response","4","106360","0.0-3.0","0","0","1K9vK","People","","3714","","","","","62","40","prince-akachi-4Yv84VgQkRM-unsplash.jpg","0","","","","","","","","","","","","","","","","","","","","","","","","","","","","","","","","","","","","","","","",""
"","rating","","html-slider-response","5","108832","0.0-4.0","0","0","1K9vK","People","","2469","","","","","85","7","brooke-cagle-HRZUzoX1e6w-unsplash.jpg","1","","","","","","","","","","","","","","","","","","","","","","","","","","","","","","","","","","","","","","","",""
"","rating","","html-slider-response","6","111295","0.0-5.0","0","0","1K9vK","People","","2461","","","","","32","30","matheus-ferrero-pg_WCHWSdT8-unsplash.jpg","2","","","","","","","","","","","","","","","","","","","","","","","","","","","","","","","","","","","","","","","",""
"","rating","","html-slider-response","7","113808","0.0-6.0","0","0","1K9vK","People","","2511","","","","","41","4","barna-bartis-2x3vfVxwR7o-unsplash.jpg","3","","","","","","","","","","","","","","","","","","","","","","","","","","","","","","","","","","","","","","","",""
"","rating","","html-slider-response","8","116033","0.0-7.0","0","0","1K9vK","People","","2221","","","","","69","35","oliver-ragfelt-khV4fTy6-D8-unsplash.jpg","4","","","","","","","","","","","","","","","","","","","","","","","","","","","","","","","","","","","","","","","",""
"","rating","","html-slider-response","9","118455","0.0-8.0","0","0","1K9vK","People","","2419","","","","","77","2","arjunsyah-TBUA5KHJn6k-unsplash.jpg","5","","","","","","","","","","","","","","","","","","","","","","","","","","","","","","","","","","","","","","","",""
"","rating","","html-slider-response","10","121039","0.0-9.0","0","0","1K9vK","People","","2582","","","","","89","28","justin-chen-J7Cf1Gch49E-unsplash.jpg","6","","","","","","","","","","","","","","","","","","","","","","","","","","","","","","","","","","","","","","","",""
"","rating","","html-slider-response","11","123175","0.0-10.0","0","0","1K9vK","People","","2134","","","","","71","41","prince-akachi-i2hoD-C2RUA-unsplash.jpg","7","","","","","","","","","","","","","","","","","","","","","","","","","","","","","","","","","","","","","","","",""
"","rating","","html-slider-response","12","126791","0.0-11.0","0","0","1K9vK","People","","3614","","","","","28","29","leilani-angel-K84vnnzxmTQ-unsplash.jpg","8","","","","","","","","","","","","","","","","","","","","","","","","","","","","","","","","","","","","","","","",""
"","rating","","html-slider-response","13","129383","0.0-12.0","0","0","1K9vK","People","","2589","","","","","38","42","prince-akachi-l3IHXOdMyHQ-unsplash.jpg","9","","","","","","","","","","","","","","","","","","","","","","","","","","","","","","","","","","","","","","","",""
"","rating","","html-slider-response","14","131992","0.0-13.0","0","0","1K9vK","People","","2606","","","","","72","25","joseph-gonzalez-iFgRcqHznqg-unsplash.jpg","10","","","","","","","","","","","","","","","","","","","","","","","","","","","","","","","","","","","","","","","",""
"","rating","","html-slider-response","15","136479","0.0-14.0","0","0","1K9vK","People","","4485","","","","","36","3","art-hauntington-jzY0KRJopEI-unsplash.jpg","11","","","","","","","","","","","","","","","","","","","","","","","","","","","","","","","","","","","","","","","",""
"","rating","","html-slider-response","16","139591","0.0-15.0","0","0","1K9vK","People","","3107","","","","","28","1","aiony-haust-jmATI5Q_YgY-unsplash.jpg","12","","","","","","","","","","","","","","","","","","","","","","","","","","","","","","","","","","","","","","","",""
"","rating","","html-slider-response","17","141359","0.0-16.0","0","0","1K9vK","People","","1766","","","","","38","26","juri-gianfrancesco-9EZadYaMzk4-unsplash.jpg","13","","","","","","","","","","","","","","","","","","","","","","","","","","","","","","","","","","","","","","","",""
"","rating","","html-slider-response","18","143183","0.0-17.0","0","0","1K9vK","People","","1822","","","","","87","19","ha-nguy-n-OFSQ6bHjFjs-unsplash.jpg","14","","","","","","","","","","","","","","","","","","","","","","","","","","","","","","","","","","","","","","","",""
"","rating","","html-slider-response","19","145303","0.0-18.0","0","0","1K9vK","People","","2118","","","","","98","43","raamin-ka-0qJBEzudn5E-unsplash.jpg","15","","","","","","","","","","","","","","","","","","","","","","","","","","","","","","","","","","","","","","","",""
"","rating","","html-slider-response","20","147303","0.0-19.0","0","0","1K9vK","People","","1998","","","","","80","38","petr-sevcovic-HzDF-rxlSeM-unsplash.jpg","16","","","","","","","","","","","","","","","","","","","","","","","","","","","","","","","","","","","","","","","",""
"","rating","","html-slider-response","21","151496","0.0-20.0","0","0","1K9vK","People","","4191","","","","","32","21","jessica-felicio-_cvwXhGqG-o-unsplash.jpg","17","","","","","","","","","","","","","","","","","","","","","","","","","","","","","","","","","","","","","","","",""
"","rating","","html-slider-response","22","154416","0.0-21.0","0","0","1K9vK","People","","2917","","","","","91","15","gabriel-silverio-u3WmDyKGsrY-unsplash.jpg","18","","","","","","","","","","","","","","","","","","","","","","","","","","","","","","","","","","","","","","","",""
"","rating","","html-slider-response","23","157015","0.0-22.0","0","0","1K9vK","People","","2597","","","","","25","17","gleb-lukomets-paBzWCPN23k-unsplash.jpg","19","","","","","","","","","","","","","","","","","","","","","","","","","","","","","","","","","","","","","","","",""
"","rating","","html-slider-response","24","158911","0.0-23.0","0","0","1K9vK","People","","1894","","","","","64","49","vicky-hladynets-_gDoyVv5F4c-unsplash.jpg","20","","","","","","","","","","","","","","","","","","","","","","","","","","","","","","","","","","","","","","","",""
"","rating","","html-slider-response","25","160911","0.0-24.0","0","0","1K9vK","People","","1998","","","","","37","34","oliver-johnson-1TUIcKob7Zs-unsplash.jpg","21","","","","","","","","","","","","","","","","","","","","","","","","","","","","","","","","","","","","","","","",""
"","rating","","html-slider-response","26","164503","0.0-25.0","0","0","1K9vK","People","","3590","","","","","87","10","charles-etoroma-95UF6LXe-Lo-unsplash.jpg","22","","","","","","","","","","","","","","","","","","","","","","","","","","","","","","","","","","","","","","","",""
"","rating","","html-slider-response","27","166391","0.0-26.0","0","0","1K9vK","People","","1886","","","","","17","18","good-faces-xmSWVeGEnJw-unsplash.jpg","23","","","","","","","","","","","","","","","","","","","","","","","","","","","","","","","","","","","","","","","",""
"","rating","","html-slider-response","28","168655","0.0-27.0","0","0","1K9vK","People","","2262","","","","","98","6","ben-o-bro-C5XyLljkMrY-unsplash.jpg","24","","","","","","","","","","","","","","","","","","","","","","","","","","","","","","","","","","","","","","","",""
"","rating","","html-slider-response","29","172303","0.0-28.0","0","0","1K9vK","People","","3646","","","","","9","33","olena-sergienko-0TSd6uCKTKc-unsplash.jpg","25","","","","","","","","","","","","","","","","","","","","","","","","","","","","","","","","","","","","","","","",""
"","rating","","html-slider-response","30","175126","0.0-29.0","0","0","1K9vK","People","","2822","","","","","100","20","houcine-ncib-B4TjXnI0Y2c-unsplash.jpg","26","","","","","","","","","","","","","","","","","","","","","","","","","","","","","","","","","","","","","","","",""
"","rating","","html-slider-response","31","177143","0.0-30.0","0","0","1K9vK","People","","2014","","","","","79","24","joel-mott-LaK153ghdig-unsplash.jpg","27","","","","","","","","","","","","","","","","","","","","","","","","","","","","","","","","","","","","","","","",""
"","rating","","html-slider-response","32","179175","0.0-31.0","0","0","1K9vK","People","","2030","","","","","34","47","tyler-nix-ZGa9d1a_4tA-unsplash.jpg","28","","","","","","","","","","","","","","","","","","","","","","","","","","","","","","","","","","","","","","","",""
"","rating","","html-slider-response","33","182271","0.0-32.0","0","0","1K9vK","People","","3094","","","","","23","22","jessica-radanavong-mrYkTuAesKE-unsplash.jpg","29","","","","","","","","","","","","","","","","","","","","","","","","","","","","","","","","","","","","","","","",""
"","rating","","html-slider-response","34","184407","0.0-33.0","0","0","1K9vK","People","","2134","","","","","40","36","ospan-ali-mGdA2fzjWLo-unsplash.jpg","30","","","","","","","","","","","","","","","","","","","","","","","","","","","","","","","","","","","","","","","",""
"","rating","","html-slider-response","35","185967","0.0-34.0","0","0","1K9vK","People","","1557","","","","","83","5","batel-studio-ttSRjiYG_WM-unsplash.jpg","31","","","","","","","","","","","","","","","","","","","","","","","","","","","","","","","","","","","","","","","",""
"","rating","","html-slider-response","36","188087","0.0-35.0","0","0","1K9vK","People","","2118","","","","","21","37","pavel-anoshin-d0peGya6R5Y-unsplash.jpg","32","","","","","","","","","","","","","","","","","","","","","","","","","","","","","","","","","","","","","","","",""
"","rating","","html-slider-response","37","189822","0.0-36.0","0","0","1K9vK","People","","1733","","","","","36","39","philip-martin-5aGUyCW_PJw-unsplash.jpg","33","","","","","","","","","","","","","","","","","","","","","","","","","","","","","","","","","","","","","","","",""
"","rating","","html-slider-response","38","192062","0.0-37.0","0","0","1K9vK","People","","2238","","","","","41","16","giano-currie-5-9YOsmf8IQ-unsplash.jpg","34","","","","","","","","","","","","","","","","","","","","","","","","","","","","","","","","","","","","","","","",""
"","rating","","html-slider-response","39","193791","0.0-38.0","0","0","1K9vK","People","","1726","","","","","26","23","joanna-nix-walkup-H4fEMshfwTE-unsplash.jpg","35","","","","","","","","","","","","","","","","","","","","","","","","","","","","","","","","","","","","","","","",""
"","rating","","html-slider-response","40","195415","0.0-39.0","0","0","1K9vK","People","","1621","","","","","74","27","jurica-koletic-7YVZYZeITc8-unsplash.jpg","36","","","","","","","","","","","","","","","","","","","","","","","","","","","","","","","","","","","","","","","",""
"","rating","","html-slider-response","41","197270","0.0-40.0","0","0","1K9vK","People","","1853","","","","","64","14","freddy-kearney-o-ioeoATbIM-unsplash.jpg","37","","","","","","","","","","","","","","","","","","","","","","","","","","","","","","","","","","","","","","","",""
"","rating","","html-slider-response","42","199071","0.0-41.0","0","0","1K9vK","People","","1799","","","","","83","46","stefan-stefancik-QXevDflbl8A-unsplash.jpg","38","","","","","","","","","","","","","","","","","","","","","","","","","","","","","","","","","","","","","","","",""
"","rating","","html-slider-response","43","200846","0.0-42.0","0","0","1K9vK","People","","1773","","","","","77","11","christian-ferrer-8vT-DgHZDG4-unsplash.jpg","39","","","","","","","","","","","","","","","","","","","","","","","","","","","","","","","","","","","","","","","",""
"","rating","","html-slider-response","44","202591","0.0-43.0","0","0","1K9vK","People","","1742","","","","","27","32","nathan-dumlao-ger61_TX6oI-unsplash.jpg","40","","","","","","","","","","","","","","","","","","","","","","","","","","","","","","","","","","","","","","","",""
"","rating","","html-slider-response","45","204247","0.0-44.0","0","0","1K9vK","People","","1653","","","","","43","8","bruce-dixon-3M9WJQVHzog-unsplash.jpg","41","","","","","","","","","","","","","","","","","","","","","","","","","","","","","","","","","","","","","","","",""
"","rating","","html-slider-response","46","207927","0.0-45.0","0","0","1K9vK","People","","3677","","","","","67","13","erik-lucatero-d2MSDujJl2g-unsplash.jpg","42","","","","","","","","","","","","","","","","","","","","","","","","","","","","","","","","","","","","","","","",""
"","rating","","html-slider-response","47","212966","0.0-46.0","0","0","1K9vK","People","","5037","","","","","86","0","abstral-official-cyOKLSgkgCE-unsplash.jpg","43","","","","","","","","","","","","","","","","","","","","","","","","","","","","","","","","","","","","","","","",""
"","rating","","html-slider-response","48","215182","0.0-47.0","0","0","1K9vK","People","","2214","","","","","21","44","rikonavt-HQjfrvdTfak-unsplash.jpg","44","","","","","","","","","","","","","","","","","","","","","","","","","","","","","","","","","","","","","","","",""
"","rating","","html-slider-response","49","217670","0.0-48.0","0","0","1K9vK","People","","2485","","","","","98","12","daniel-rigdon-dXmXKPP2L4E-unsplash.jpg","45","","","","","","","","","","","","","","","","","","","","","","","","","","","","","","","","","","","","","","","",""
"","rating","","html-slider-response","50","219967","0.0-49.0","0","0","1K9vK","People","","2295","","","","","11","31","mathilda-khoo-vLR0YP_otCo-unsplash.jpg","46","","","","","","","","","","","","","","","","","","","","","","","","","","","","","","","","","","","","","","","",""
"","rating","","html-slider-response","51","222094","0.0-50.0","0","0","1K9vK","People","","2125","","","","","28","48","velizar-ivanov-7ktP9yZA1g4-unsplash.jpg","47","","","","","","","","","","","","","","","","","","","","","","","","","","","","","","","","","","","","","","","",""
"","rating","","html-slider-response","52","224094","0.0-51.0","0","0","1K9vK","People","","1998","","","","","67","45","sarah-noltner-pL5ZzPp1zqg-unsplash.jpg","48","","","","","","","","","","","","","","","","","","","","","","","","","","","","","","","","","","","","","","","",""
"","rating","","html-slider-response","53","228014","0.0-52.0","0","0","1K9vK","People","","3918","","","","","22","9","carlos-andres-gomez-vJuk8Y86mRw-unsplash.jpg","49","","","","","","","","","","","","","","","","","","","","","","","","","","","","","","","","","","","","","","","",""
"","deliberation_instructions","","instructions","54","331006","0.0-53.0-0.0","0","0","1K9vK","People","[{""page_index"":0,""viewing_time"":62445},{""page_index"":1,""viewing_time"":17448},{""page_index"":2,""viewing_time"":9188},{""page_index"":3,""viewing_time"":12292},{""page_index"":4,""viewing_time"":1615}]","102989","","","","","","","","","","","","","","","","","","","","","","","","","","","","","","","","","","","","","","","","","","","","","","","",""
"","","","survey-multi-choice","55","365719","0.0-53.0-1.0","0","0","1K9vK","People","","34707","{""Q0"":""True"",""Q1"":""True"",""Q2"":""Consider carefully and take your time (up to 10 seconds)"",""Q3"":""True"",""Q4"":""D""}","deliberation_comprehension_check","0","","","","","","","","","","","","","","","","","","","","","","","","","","","","","","","","","","","","","","","","","","","","",""
"","start_phase","","html-keyboard-response","56","368570","0.0-54.0","0","0","1K9vK","People","","2849","","","","78","","","","","","","","","","","","","","","","","","","","","","","","","","","","","","","","","","","","","","","","","","","",""
"","first_deliberation_block","","html-keyboard-response","57","370699","0.0-55.0","0","0","1K9vK","People","","2127","","","","78","","","","","","","","","","","","","","","","","","","","","","","","","","","","","","","","","","","","","","","","","","","",""
"","fixation","","html-keyboard-response","58","371709","0.0-56.0-0.0","0","0","1K9vK","People","","null","","","","null","","","","","","","","","","","","","","","","","","","","","","","","","","","","","","","","","","","","","","","","","","","",""
"","deliberation","","html-keyboard-response","59","374076","0.0-56.0-1.0","0","0","1K9vK","People","","2363","","","","75","","","","0","49","8","1","1","64","43","vicky-hladynets-_gDoyVv5F4c-unsplash.jpg","bruce-dixon-3M9WJQVHzog-unsplash.jpg","1","0","8","49","","","","","","","","","","","","","","","","","","","","","","","","","","","",""
"","choice_confirmation","","html-keyboard-response","60","374580","0.0-56.0-2.0-0.0","0","0","1K9vK","People","","null","","","","null","","","","0","49","8","","","","","","","","","","","","","","","","","","","","","","","","","","","","","","","","","","","","","",""
"","explain_trial","","survey-text","61","404005","0.0-56.0-5.0-0.0","0","0","1K9vK","People","","29419","{""Q0"":""There is more going on and feels like more emotion in this photograph. ""}","","","","","","","0","49","8","","","","","","","","","","","{""Q0"":""There is more going on and feels like more emotion in this photograph. ""}","","","","","","","","","","","","","","","","","","","","","","","","","","",""
"","fixation","","html-keyboard-response","62","405017","0.0-57.0-0.0","0","0","1K9vK","People","","null","","","","null","","","","","","","","","","","","","","","","","","","","","","","","","","","","","","","","","","","","","","","","","","","",""
"","deliberation","","html-keyboard-response","63","407426","0.0-57.0-1.0","0","0","1K9vK","People","","2405","","","","68","","","","1","26","35","0","1","38","69","juri-gianfrancesco-9EZadYaMzk4-unsplash.jpg","oliver-ragfelt-khV4fTy6-D8-unsplash.jpg","1","1","26","35","","","","","","","","","","","","","","","","","","","","","","","","","","","",""
"","choice_confirmation","","html-keyboard-response","64","407941","0.0-57.0-2.0-0.0","0","0","1K9vK","People","","null","","","","null","","","","1","26","35","","","","","","","","","","","","","","","","","","","","","","","","","","","","","","","","","","","","","",""
"","fixation","","html-keyboard-response","65","408948","0.0-58.0-0.0","0","0","1K9vK","People","","null","","","","null","","","","","","","","","","","","","","","","","","","","","","","","","","","","","","","","","","","","","","","","","","","",""
"","deliberation","","html-keyboard-response","66","412588","0.0-58.0-1.0","0","0","1K9vK","People","","3633","","","","75","","","","2","40","13","0","1","62","67","prince-akachi-4Yv84VgQkRM-unsplash.jpg","erik-lucatero-d2MSDujJl2g-unsplash.jpg","1","0","13","40","","","","","","","","","","","","","","","","","","","","","","","","","","","",""
"","choice_confirmation","","html-keyboard-response","67","413091","0.0-58.0-2.0-0.0","0","0","1K9vK","People","","null","","","","null","","","","2","40","13","","","","","","","","","","","","","","","","","","","","","","","","","","","","","","","","","","","","","",""
"","fixation","","html-keyboard-response","68","414108","0.0-59.0-0.0","0","0","1K9vK","People","","null","","","","null","","","","","","","","","","","","","","","","","","","","","","","","","","","","","","","","","","","","","","","","","","","",""
"","deliberation","","html-keyboard-response","69","417665","0.0-59.0-1.0","0","0","1K9vK","People","","3553","","","","68","","","","3","39","47","0","-1","36","34","philip-martin-5aGUyCW_PJw-unsplash.jpg","tyler-nix-ZGa9d1a_4tA-unsplash.jpg","1","1","39","47","","","","","","","","","","","","","","","","","","","","","","","","","","","",""
"","choice_confirmation","","html-keyboard-response","70","418180","0.0-59.0-2.0-0.0","0","0","1K9vK","People","","null","","","","null","","","","3","39","47","","","","","","","","","","","","","","","","","","","","","","","","","","","","","","","","","","","","","",""
"","fixation","","html-keyboard-response","71","419191","0.0-60.0-0.0","0","0","1K9vK","People","","null","","","","null","","","","","","","","","","","","","","","","","","","","","","","","","","","","","","","","","","","","","","","","","","","",""
"","deliberation","","html-keyboard-response","72","421013","0.0-60.0-1.0","0","0","1K9vK","People","","1815","","","","68","","","","4","25","4","0","-1","72","41","joseph-gonzalez-iFgRcqHznqg-unsplash.jpg","barna-bartis-2x3vfVxwR7o-unsplash.jpg","1","1","25","4","","","","","","","","","","","","","","","","","","","","","","","","","","","",""
"","choice_confirmation","","html-keyboard-response","73","421520","0.0-60.0-2.0-0.0","0","0","1K9vK","People","","null","","","","null","","","","4","25","4","","","","","","","","","","","","","","","","","","","","","","","","","","","","","","","","","","","","","",""
"","fixation","","html-keyboard-response","74","422538","0.0-61.0-0.0","0","0","1K9vK","People","","null","","","","null","","","","","","","","","","","","","","","","","","","","","","","","","","","","","","","","","","","","","","","","","","","",""
"","deliberation","","html-keyboard-response","75","424659","0.0-61.0-1.0","0","0","1K9vK","People","","2119","","","","68","","","","5","24","41","0","-1","79","71","joel-mott-LaK153ghdig-unsplash.jpg","prince-akachi-i2hoD-C2RUA-unsplash.jpg","1","1","24","41","","","","","","","","","","","","","","","","","","","","","","","","","","","",""
"","choice_confirmation","","html-keyboard-response","76","425170","0.0-61.0-2.0-0.0","0","0","1K9vK","People","","null","","","","null","","","","5","24","41","","","","","","","","","","","","","","","","","","","","","","","","","","","","","","","","","","","","","",""
"","fixation","","html-keyboard-response","77","426189","0.0-62.0-0.0","0","0","1K9vK","People","","null","","","","null","","","","","","","","","","","","","","","","","","","","","","","","","","","","","","","","","","","","","","","","","","","",""
"","deliberation","","html-keyboard-response","78","427929","0.0-62.0-1.0","0","0","1K9vK","People","","1736","","","","68","","","","6","14","30","0","1","64","32","freddy-kearney-o-ioeoATbIM-unsplash.jpg","matheus-ferrero-pg_WCHWSdT8-unsplash.jpg","1","1","14","30","","","","","","","","","","","","","","","","","","","","","","","","","","","",""
"","choice_confirmation","","html-keyboard-response","79","428438","0.0-62.0-2.0-0.0","0","0","1K9vK","People","","null","","","","null","","","","6","14","30","","","","","","","","","","","","","","","","","","","","","","","","","","","","","","","","","","","","","",""
"","fixation","","html-keyboard-response","80","429457","0.0-63.0-0.0","0","0","1K9vK","People","","null","","","","null","","","","","","","","","","","","","","","","","","","","","","","","","","","","","","","","","","","","","","","","","","","",""
"","deliberation","","html-keyboard-response","81","431058","0.0-63.0-1.0","0","0","1K9vK","People","","1597","","","","75","","","","7","45","11","1","1","67","77","sarah-noltner-pL5ZzPp1zqg-unsplash.jpg","christian-ferrer-8vT-DgHZDG4-unsplash.jpg","1","0","11","45","","","","","","","","","","","","","","","","","","","","","","","","","","","",""
"","choice_confirmation","","html-keyboard-response","82","431574","0.0-63.0-2.0-0.0","0","0","1K9vK","People","","null","","","","null","","","","7","45","11","","","","","","","","","","","","","","","","","","","","","","","","","","","","","","","","","","","","","",""
"","explain_trial","","survey-text","83","455358","0.0-63.0-5.0-0.0","0","0","1K9vK","People","","23780","{""Q0"":""The colors and feeling given off by this photo, I think other people will be able to relate to it more. ""}","","","","","","","7","45","11","","","","","","","","","","","{""Q0"":""The colors and feeling given off by this photo, I think other people will be able to relate to it more. ""}","","","","","","","","","","","","","","","","","","","","","","","","","","",""
"","fixation","","html-keyboard-response","84","456362","0.0-64.0-0.0","0","0","1K9vK","People","","null","","","","null","","","","","","","","","","","","","","","","","","","","","","","","","","","","","","","","","","","","","","","","","","","",""
"","deliberation","","html-keyboard-response","85","458594","0.0-64.0-1.0","0","0","1K9vK","People","","2226","","","","75","","","","8","34","42","1","-1","37","38","oliver-johnson-1TUIcKob7Zs-unsplash.jpg","prince-akachi-l3IHXOdMyHQ-unsplash.jpg","1","0","42","34","","","","","","","","","","","","","","","","","","","","","","","","","","","",""
"","choice_confirmation","","html-keyboard-response","86","459098","0.0-64.0-2.0-0.0","0","0","1K9vK","People","","null","","","","null","","","","8","34","42","","","","","","","","","","","","","","","","","","","","","","","","","","","","","","","","","","","","","",""
"","explain_trial","","survey-text","87","492485","0.0-64.0-5.0-0.0","0","0","1K9vK","People","","33382","{""Q0"":""Her face and background give a lot of interpretation for anyone who is looking to purchase a photo. ""}","","","","","","","8","34","42","","","","","","","","","","","{""Q0"":""Her face and background give a lot of interpretation for anyone who is looking to purchase a photo. ""}","","","","","","","","","","","","","","","","","","","","","","","","","","",""
"","fixation","","html-keyboard-response","88","493503","0.0-65.0-0.0","0","0","1K9vK","People","","null","","","","null","","","","","","","","","","","","","","","","","","","","","","","","","","","","","","","","","","","","","","","","","","","",""
"","deliberation","","html-keyboard-response","89","494857","0.0-65.0-1.0","0","0","1K9vK","People","","1352","","","","75","","","","9","27","16","1","-1","74","41","jurica-koletic-7YVZYZeITc8-unsplash.jpg","giano-currie-5-9YOsmf8IQ-unsplash.jpg","1","0","16","27","","","","","","","","","","","","","","","","","","","","","","","","","","","",""
"","choice_confirmation","","html-keyboard-response","90","495363","0.0-65.0-2.0-0.0","0","0","1K9vK","People","","null","","","","null","","","","9","27","16","","","","","","","","","","","","","","","","","","","","","","","","","","","","","","","","","","","","","",""
"","explain_trial","","survey-text","91","515749","0.0-65.0-5.0-0.0","0","0","1K9vK","People","","20383","{""Q0"":""The colors and her face are very nice. I enjoy the colors in the background. ""}","","","","","","","9","27","16","","","","","","","","","","","{""Q0"":""The colors and her face are very nice. I enjoy the colors in the background. ""}","","","","","","","","","","","","","","","","","","","","","","","","","","",""
"","fixation","","html-keyboard-response","92","516767","0.0-66.0-0.0","0","0","1K9vK","People","","null","","","","null","","","","","","","","","","","","","","","","","","","","","","","","","","","","","","","","","","","","","","","","","","","",""
"","deliberation","","html-keyboard-response","93","518487","0.0-66.0-1.0","0","0","1K9vK","People","","1718","","","","75","","","","10","3","2","1","-1","36","77","art-hauntington-jzY0KRJopEI-unsplash.jpg","arjunsyah-TBUA5KHJn6k-unsplash.jpg","1","0","2","3","","","","","","","","","","","","","","","","","","","","","","","","","","","",""
"","choice_confirmation","","html-keyboard-response","94","519007","0.0-66.0-2.0-0.0","0","0","1K9vK","People","","null","","","","null","","","","10","3","2","","","","","","","","","","","","","","","","","","","","","","","","","","","","","","","","","","","","","",""
"","explain_trial","","survey-text","95","539885","0.0-66.0-5.0-0.0","0","0","1K9vK","People","","20872","{""Q0"":""I really like the background of this photo. It makes me feel happy and hopeful, I thin others would agree with that.""}","","","","","","","10","3","2","","","","","","","","","","","{""Q0"":""I really like the background of this photo. It makes me feel happy and hopeful, I thin others would agree with that.""}","","","","","","","","","","","","","","","","","","","","","","","","","","",""
"","fixation","","html-keyboard-response","96","540896","0.0-67.0-0.0","0","0","1K9vK","People","","null","","","","null","","","","","","","","","","","","","","","","","","","","","","","","","","","","","","","","","","","","","","","","","","","",""
"","deliberation","","html-keyboard-response","97","542873","0.0-67.0-1.0","0","0","1K9vK","People","","1973","","","","75","","","","11","21","36","1","1","32","40","jessica-felicio-_cvwXhGqG-o-unsplash.jpg","ospan-ali-mGdA2fzjWLo-unsplash.jpg","1","0","36","21","","","","","","","","","","","","","","","","","","","","","","","","","","","",""
"","choice_confirmation","","html-keyboard-response","98","543383","0.0-67.0-2.0-0.0","0","0","1K9vK","People","","null","","","","null","","","","11","21","36","","","","","","","","","","","","","","","","","","","","","","","","","","","","","","","","","","","","","",""
"","explain_trial","","survey-text","99","574902","0.0-67.0-5.0-0.0","0","0","1K9vK","People","","31514","{""Q0"":""I really enjoy how the photo shows a different cultural stuff like clothes and such. ""}","","","","","","","11","21","36","","","","","","","","","","","{""Q0"":""I really enjoy how the photo shows a different cultural stuff like clothes and such. ""}","","","","","","","","","","","","","","","","","","","","","","","","","","",""
"","practice_deliberation_again","","html-keyboard-response","100","580074","0.0-67.0-6.0-0.0","0","0","1K9vK","People","","5170","","","","78","","","","","","","","","","","","","","","","","","","","","","","","","","","","","","","","","","","","","","","","","","","",""
"","fixation","","html-keyboard-response","101","581085","0.0-68.0-0.0","0","0","1K9vK","People","","null","","","","null","","","","","","","","","","","","","","","","","","","","","","","","","","","","","","","","","","","","","","","","","","","",""
"","deliberation","","html-keyboard-response","102","582534","0.0-68.0-1.0","0","0","1K9vK","People","","1442","","","","68","","","","12","40","13","1","1","62","67","prince-akachi-4Yv84VgQkRM-unsplash.jpg","erik-lucatero-d2MSDujJl2g-unsplash.jpg","2","1","40","13","","","","","","","","","","","","","","","","","","","","","","","","","","","",""
"","choice_confirmation","","html-keyboard-response","103","583040","0.0-68.0-2.0-0.0","0","0","1K9vK","People","","null","","","","null","","","","12","40","13","","","","","","","","","","","","","","","","","","","","","","","","","","","","","","","","","","","","","",""
"","explain_trial","","survey-text","104","607940","0.0-68.0-5.0-0.0","0","0","1K9vK","People","","24898","{""Q0"":""I like the fact the guy is holding a camera, It opens the thoughts about doing my own hobbies and how enjoyable they make me feel. ""}","","","","","","","12","40","13","","","","","","","","","","","{""Q0"":""I like the fact the guy is holding a camera, It opens the thoughts about doing my own hobbies and how enjoyable they make me feel. ""}","","","","","","","","","","","","","","","","","","","","","","","","","","",""
"","fixation","","html-keyboard-response","105","608947","0.0-69.0-0.0","0","0","1K9vK","People","","null","","","","null","","","","","","","","","","","","","","","","","","","","","","","","","","","","","","","","","","","","","","","","","","","",""
"","deliberation","","html-keyboard-response","106","610763","0.0-69.0-1.0","0","0","1K9vK","People","","1811","","","","75","","","","13","3","2","0","-1","36","77","art-hauntington-jzY0KRJopEI-unsplash.jpg","arjunsyah-TBUA5KHJn6k-unsplash.jpg","2","0","2","3","","","","","","","","","","","","","","","","","","","","","","","","","","","",""
"","choice_confirmation","","html-keyboard-response","107","611268","0.0-69.0-2.0-0.0","0","0","1K9vK","People","","null","","","","null","","","","13","3","2","","","","","","","","","","","","","","","","","","","","","","","","","","","","","","","","","","","","","",""
"","fixation","","html-keyboard-response","108","612293","0.0-70.0-0.0","0","0","1K9vK","People","","null","","","","null","","","","","","","","","","","","","","","","","","","","","","","","","","","","","","","","","","","","","","","","","","","",""
"","deliberation","","html-keyboard-response","109","613749","0.0-70.0-1.0","0","0","1K9vK","People","","1453","","","","68","","","","14","24","41","1","-1","79","71","joel-mott-LaK153ghdig-unsplash.jpg","prince-akachi-i2hoD-C2RUA-unsplash.jpg","2","1","24","41","","","","","","","","","","","","","","","","","","","","","","","","","","","",""
"","choice_confirmation","","html-keyboard-response","110","614260","0.0-70.0-2.0-0.0","0","0","1K9vK","People","","null","","","","null","","","","14","24","41","","","","","","","","","","","","","","","","","","","","","","","","","","","","","","","","","","","","","",""
"","explain_trial","","survey-text","111","637230","0.0-70.0-5.0-0.0","0","0","1K9vK","People","","22966","{""Q0"":""Her smile with the background gives off a really happy feeling and that she is in such a really nice and fun place to be. ""}","","","","","","","14","24","41","","","","","","","","","","","{""Q0"":""Her smile with the background gives off a really happy feeling and that she is in such a really nice and fun place to be. ""}","","","","","","","","","","","","","","","","","","","","","","","","","","",""
"","fixation","","html-keyboard-response","112","638243","0.0-71.0-0.0","0","0","1K9vK","People","","null","","","","null","","","","","","","","","","","","","","","","","","","","","","","","","","","","","","","","","","","","","","","","","","","",""
"","deliberation","","html-keyboard-response","113","639708","0.0-71.0-1.0","0","0","1K9vK","People","","1459","","","","75","","","","15","45","11","0","1","67","77","sarah-noltner-pL5ZzPp1zqg-unsplash.jpg","christian-ferrer-8vT-DgHZDG4-unsplash.jpg","2","0","11","45","","","","","","","","","","","","","","","","","","","","","","","","","","","",""
"","choice_confirmation","","html-keyboard-response","114","640214","0.0-71.0-2.0-0.0","0","0","1K9vK","People","","null","","","","null","","","","15","45","11","","","","","","","","","","","","","","","","","","","","","","","","","","","","","","","","","","","","","",""
"","fixation","","html-keyboard-response","115","641236","0.0-72.0-0.0","0","0","1K9vK","People","","null","","","","null","","","","","","","","","","","","","","","","","","","","","","","","","","","","","","","","","","","","","","","","","","","",""
"","deliberation","","html-keyboard-response","116","642354","0.0-72.0-1.0","0","0","1K9vK","People","","1113","","","","75","","","","16","21","36","0","1","32","40","jessica-felicio-_cvwXhGqG-o-unsplash.jpg","ospan-ali-mGdA2fzjWLo-unsplash.jpg","2","0","36","21","","","","","","","","","","","","","","","","","","","","","","","","","","","",""
"","choice_confirmation","","html-keyboard-response","117","642872","0.0-72.0-2.0-0.0","0","0","1K9vK","People","","null","","","","null","","","","16","21","36","","","","","","","","","","","","","","","","","","","","","","","","","","","","","","","","","","","","","",""
"","fixation","","html-keyboard-response","118","643894","0.0-73.0-0.0","0","0","1K9vK","People","","null","","","","null","","","","","","","","","","","","","","","","","","","","","","","","","","","","","","","","","","","","","","","","","","","",""
"","deliberation","","html-keyboard-response","119","645269","0.0-73.0-1.0","0","0","1K9vK","People","","1371","","","","68","","","","17","14","30","1","1","64","32","freddy-kearney-o-ioeoATbIM-unsplash.jpg","matheus-ferrero-pg_WCHWSdT8-unsplash.jpg","2","1","14","30","","","","","","","","","","","","","","","","","","","","","","","","","","","",""
"","choice_confirmation","","html-keyboard-response","120","645773","0.0-73.0-2.0-0.0","0","0","1K9vK","People","","null","","","","null","","","","17","14","30","","","","","","","","","","","","","","","","","","","","","","","","","","","","","","","","","","","","","",""
"","explain_trial","","survey-text","121","682235","0.0-73.0-5.0-0.0","0","0","1K9vK","People","","36460","{""Q0"":""This gentleman gives off a feeling of being super friendly and wanting to help you out with learning something new. I feel connected to that photograph. ""}","","","","","","","17","14","30","","","","","","","","","","","{""Q0"":""This gentleman gives off a feeling of being super friendly and wanting to help you out with learning something new. I feel connected to that photograph. ""}","","","","","","","","","","","","","","","","","","","","","","","","","","",""
"","fixation","","html-keyboard-response","122","683248","0.0-74.0-0.0","0","0","1K9vK","People","","null","","","","null","","","","","","","","","","","","","","","","","","","","","","","","","","","","","","","","","","","","","","","","","","","",""
"","deliberation","","html-keyboard-response","123","684591","0.0-74.0-1.0","0","0","1K9vK","People","","1341","","","","75","","","","18","49","8","0","1","64","43","vicky-hladynets-_gDoyVv5F4c-unsplash.jpg","bruce-dixon-3M9WJQVHzog-unsplash.jpg","2","0","8","49","","","","","","","","","","","","","","","","","","","","","","","","","","","",""
"","choice_confirmation","","html-keyboard-response","124","685098","0.0-74.0-2.0-0.0","0","0","1K9vK","People","","null","","","","null","","","","18","49","8","","","","","","","","","","","","","","","","","","","","","","","","","","","","","","","","","","","","","",""
"","fixation","","html-keyboard-response","125","686106","0.0-75.0-0.0","0","0","1K9vK","People","","null","","","","null","","","","","","","","","","","","","","","","","","","","","","","","","","","","","","","","","","","","","","","","","","","",""
"","deliberation","","html-keyboard-response","126","687519","0.0-75.0-1.0","0","0","1K9vK","People","","1407","","","","75","","","","19","34","42","0","-1","37","38","oliver-johnson-1TUIcKob7Zs-unsplash.jpg","prince-akachi-l3IHXOdMyHQ-unsplash.jpg","2","0","42","34","","","","","","","","","","","","","","","","","","","","","","","","","","","",""
"","choice_confirmation","","html-keyboard-response","127","688032","0.0-75.0-2.0-0.0","0","0","1K9vK","People","","null","","","","null","","","","19","34","42","","","","","","","","","","","","","","","","","","","","","","","","","","","","","","","","","","","","","",""
"","fixation","","html-keyboard-response","128","689052","0.0-76.0-0.0","0","0","1K9vK","People","","null","","","","null","","","","","","","","","","","","","","","","","","","","","","","","","","","","","","","","","","","","","","","","","","","",""
"","deliberation","","html-keyboard-response","129","690134","0.0-76.0-1.0","0","0","1K9vK","People","","1080","","","","68","","","","20","25","4","1","-1","72","41","joseph-gonzalez-iFgRcqHznqg-unsplash.jpg","barna-bartis-2x3vfVxwR7o-unsplash.jpg","2","1","25","4","","","","","","","","","","","","","","","","","","","","","","","","","","","",""
"","choice_confirmation","","html-keyboard-response","130","690641","0.0-76.0-2.0-0.0","0","0","1K9vK","People","","null","","","","null","","","","20","25","4","","","","","","","","","","","","","","","","","","","","","","","","","","","","","","","","","","","","","",""
"","explain_trial","","survey-text","131","720331","0.0-76.0-5.0-0.0","0","0","1K9vK","People","","29687","{""Q0"":""His smile is captivating, I am drawn in to his smile and the background makes me more interested. ""}","","","","","","","20","25","4","","","","","","","","","","","{""Q0"":""His smile is captivating, I am drawn in to his smile and the background makes me more interested. ""}","","","","","","","","","","","","","","","","","","","","","","","","","","",""
"","fixation","","html-keyboard-response","132","721339","0.0-77.0-0.0","0","0","1K9vK","People","","null","","","","null","","","","","","","","","","","","","","","","","","","","","","","","","","","","","","","","","","","","","","","","","","","",""
"","deliberation","","html-keyboard-response","133","723581","0.0-77.0-1.0","0","0","1K9vK","People","","2237","","","","75","","","","21","27","16","0","-1","74","41","jurica-koletic-7YVZYZeITc8-unsplash.jpg","giano-currie-5-9YOsmf8IQ-unsplash.jpg","2","0","16","27","","","","","","","","","","","","","","","","","","","","","","","","","","","",""
"","choice_confirmation","","html-keyboard-response","134","724099","0.0-77.0-2.0-0.0","0","0","1K9vK","People","","null","","","","null","","","","21","27","16","","","","","","","","","","","","","","","","","","","","","","","","","","","","","","","","","","","","","",""
"","fixation","","html-keyboard-response","135","725110","0.0-78.0-0.0","0","0","1K9vK","People","","null","","","","null","","","","","","","","","","","","","","","","","","","","","","","","","","","","","","","","","","","","","","","","","","","",""
"","deliberation","","html-keyboard-response","136","727062","0.0-78.0-1.0","0","0","1K9vK","People","","1949","","","","68","","","","22","26","35","1","1","38","69","juri-gianfrancesco-9EZadYaMzk4-unsplash.jpg","oliver-ragfelt-khV4fTy6-D8-unsplash.jpg","2","1","26","35","","","","","","","","","","","","","","","","","","","","","","","","","","","",""
"","choice_confirmation","","html-keyboard-response","137","727568","0.0-78.0-2.0-0.0","0","0","1K9vK","People","","null","","","","null","","","","22","26","35","","","","","","","","","","","","","","","","","","","","","","","","","","","","","","","","","","","","","",""
"","explain_trial","","survey-text","138","762987","0.0-78.0-5.0-0.0","0","0","1K9vK","People","","35413","{""Q0"":""The trees the man is touching makes the photo feel very connected to me. I like that background and would like to know more about it.""}","","","","","","","22","26","35","","","","","","","","","","","{""Q0"":""The trees the man is touching makes the photo feel very connected to me. I like that background and would like to know more about it.""}","","","","","","","","","","","","","","","","","","","","","","","","","","",""
"","fixation","","html-keyboard-response","139","763993","0.0-79.0-0.0","0","0","1K9vK","People","","null","","","","null","","","","","","","","","","","","","","","","","","","","","","","","","","","","","","","","","","","","","","","","","","","",""
"","deliberation","","html-keyboard-response","140","765282","0.0-79.0-1.0","0","0","1K9vK","People","","1286","","","","68","","","","23","39","47","1","-1","36","34","philip-martin-5aGUyCW_PJw-unsplash.jpg","tyler-nix-ZGa9d1a_4tA-unsplash.jpg","2","1","39","47","","","","","","","","","","","","","","","","","","","","","","","","","","","",""
"","choice_confirmation","","html-keyboard-response","141","765787","0.0-79.0-2.0-0.0","0","0","1K9vK","People","","null","","","","null","","","","23","39","47","","","","","","","","","","","","","","","","","","","","","","","","","","","","","","","","","","","","","",""
"","explain_trial","","survey-text","142","793642","0.0-79.0-5.0-0.0","0","0","1K9vK","People","","27852","{""Q0"":""his facial expression leaves the viewer wondering what is on his mind. Also wondering where he is exactly from the background looks very interesting. ""}","","","","","","","23","39","47","","","","","","","","","","","{""Q0"":""his facial expression leaves the viewer wondering what is on his mind. Also wondering where he is exactly from the background looks very interesting. ""}","","","","","","","","","","","","","","","","","","","","","","","","","","",""
"","start_critical_deliberation_block","","html-keyboard-response","143","796144","0.0-79.0-7.0-0.0","0","0","1K9vK","People","","2499","","","","78","","","","","","","","","","","","","","","","","","","","","","","","","","","","","","","","","","","","","","","","","","","",""
"","fixation","","html-keyboard-response","144","797155","0.0-80.0-0.0","0","0","1K9vK","People","","null","","","","null","","","","","","","","","","","","","","","","","","","","","","","","","","","","","","","","","","","","","","","","","","","",""
"","deliberation","","html-keyboard-response","145","798261","0.0-80.0-1.0","0","0","1K9vK","People","","1103","","","","68","","","","24","14","30","0","1","64","32","freddy-kearney-o-ioeoATbIM-unsplash.jpg","matheus-ferrero-pg_WCHWSdT8-unsplash.jpg","3","1","14","30","","","","","","","","","","","","","","","","","","","","","","","","","","","",""
"","choice_confirmation","","html-keyboard-response","146","798775","0.0-80.0-2.0-0.0","0","0","1K9vK","People","","null","","","","null","","","","24","14","30","","","","","","","","","","","","","","","","","","","","","","","","","","","","","","","","","","","","","",""
"","fixation","","html-keyboard-response","147","799778","0.0-81.0-0.0","0","0","1K9vK","People","","null","","","","null","","","","","","","","","","","","","","","","","","","","","","","","","","","","","","","","","","","","","","","","","","","",""
"","deliberation","","html-keyboard-response","148","802106","0.0-81.0-1.0","0","0","1K9vK","People","","2325","","","","75","","","","25","45","11","0","1","67","77","sarah-noltner-pL5ZzPp1zqg-unsplash.jpg","christian-ferrer-8vT-DgHZDG4-unsplash.jpg","3","0","11","45","","","","","","","","","","","","","","","","","","","","","","","","","","","",""
"","choice_confirmation","","html-keyboard-response","149","802621","0.0-81.0-2.0-0.0","0","0","1K9vK","People","","null","","","","null","","","","25","45","11","","","","","","","","","","","","","","","","","","","","","","","","","","","","","","","","","","","","","",""
"","fixation","","html-keyboard-response","150","803628","0.0-82.0-0.0","0","0","1K9vK","People","","null","","","","null","","","","","","","","","","","","","","","","","","","","","","","","","","","","","","","","","","","","","","","","","","","",""
"","deliberation","","html-keyboard-response","151","806340","0.0-82.0-1.0","0","0","1K9vK","People","","2710","","","","68","","","","26","40","13","0","1","62","67","prince-akachi-4Yv84VgQkRM-unsplash.jpg","erik-lucatero-d2MSDujJl2g-unsplash.jpg","3","1","40","13","","","","","","","","","","","","","","","","","","","","","","","","","","","",""
"","choice_confirmation","","html-keyboard-response","152","806848","0.0-82.0-2.0-0.0","0","0","1K9vK","People","","null","","","","null","","","","26","40","13","","","","","","","","","","","","","","","","","","","","","","","","","","","","","","","","","","","","","",""
"","fixation","","html-keyboard-response","153","807855","0.0-83.0-0.0","0","0","1K9vK","People","","null","","","","null","","","","","","","","","","","","","","","","","","","","","","","","","","","","","","","","","","","","","","","","","","","",""
"","deliberation","","html-keyboard-response","154","809753","0.0-83.0-1.0","0","0","1K9vK","People","","1894","","","","75","","","","27","27","16","0","-1","74","41","jurica-koletic-7YVZYZeITc8-unsplash.jpg","giano-currie-5-9YOsmf8IQ-unsplash.jpg","3","0","16","27","","","","","","","","","","","","","","","","","","","","","","","","","","","",""
"","choice_confirmation","","html-keyboard-response","155","810273","0.0-83.0-2.0-0.0","0","0","1K9vK","People","","null","","","","null","","","","27","27","16","","","","","","","","","","","","","","","","","","","","","","","","","","","","","","","","","","","","","",""
"","fixation","","html-keyboard-response","156","811292","0.0-84.0-0.0","0","0","1K9vK","People","","null","","","","null","","","","","","","","","","","","","","","","","","","","","","","","","","","","","","","","","","","","","","","","","","","",""
"","deliberation","","html-keyboard-response","157","812572","0.0-84.0-1.0","0","0","1K9vK","People","","1277","","","","75","","","","28","49","8","0","1","64","43","vicky-hladynets-_gDoyVv5F4c-unsplash.jpg","bruce-dixon-3M9WJQVHzog-unsplash.jpg","3","0","8","49","","","","","","","","","","","","","","","","","","","","","","","","","","","",""
"","choice_confirmation","","html-keyboard-response","158","813087","0.0-84.0-2.0-0.0","0","0","1K9vK","People","","null","","","","null","","","","28","49","8","","","","","","","","","","","","","","","","","","","","","","","","","","","","","","","","","","","","","",""
"","fixation","","html-keyboard-response","159","814091","0.0-85.0-0.0","0","0","1K9vK","People","","null","","","","null","","","","","","","","","","","","","","","","","","","","","","","","","","","","","","","","","","","","","","","","","","","",""
"","deliberation","","html-keyboard-response","160","815292","0.0-85.0-1.0","0","0","1K9vK","People","","1198","","","","68","","","","29","25","4","0","-1","72","41","joseph-gonzalez-iFgRcqHznqg-unsplash.jpg","barna-bartis-2x3vfVxwR7o-unsplash.jpg","3","1","25","4","","","","","","","","","","","","","","","","","","","","","","","","","","","",""
"","choice_confirmation","","html-keyboard-response","161","815807","0.0-85.0-2.0-0.0","0","0","1K9vK","People","","null","","","","null","","","","29","25","4","","","","","","","","","","","","","","","","","","","","","","","","","","","","","","","","","","","","","",""
"","fixation","","html-keyboard-response","162","816818","0.0-86.0-0.0","0","0","1K9vK","People","","null","","","","null","","","","","","","","","","","","","","","","","","","","","","","","","","","","","","","","","","","","","","","","","","","",""
"","deliberation","","html-keyboard-response","163","818129","0.0-86.0-1.0","0","0","1K9vK","People","","1308","","","","75","","","","30","21","36","0","1","32","40","jessica-felicio-_cvwXhGqG-o-unsplash.jpg","ospan-ali-mGdA2fzjWLo-unsplash.jpg","3","0","36","21","","","","","","","","","","","","","","","","","","","","","","","","","","","",""
"","choice_confirmation","","html-keyboard-response","164","818633","0.0-86.0-2.0-0.0","0","0","1K9vK","People","","null","","","","null","","","","30","21","36","","","","","","","","","","","","","","","","","","","","","","","","","","","","","","","","","","","","","",""
"","fixation","","html-keyboard-response","165","819648","0.0-87.0-0.0","0","0","1K9vK","People","","null","","","","null","","","","","","","","","","","","","","","","","","","","","","","","","","","","","","","","","","","","","","","","","","","",""
"","deliberation","","html-keyboard-response","166","820782","0.0-87.0-1.0","0","0","1K9vK","People","","1130","","","","75","","","","31","3","2","0","-1","36","77","art-hauntington-jzY0KRJopEI-unsplash.jpg","arjunsyah-TBUA5KHJn6k-unsplash.jpg","3","0","2","3","","","","","","","","","","","","","","","","","","","","","","","","","","","",""
"","choice_confirmation","","html-keyboard-response","167","821286","0.0-87.0-2.0-0.0","0","0","1K9vK","People","","null","","","","null","","","","31","3","2","","","","","","","","","","","","","","","","","","","","","","","","","","","","","","","","","","","","","",""
"","fixation","","html-keyboard-response","168","822303","0.0-88.0-0.0","0","0","1K9vK","People","","null","","","","null","","","","","","","","","","","","","","","","","","","","","","","","","","","","","","","","","","","","","","","","","","","",""
"","deliberation","","html-keyboard-response","169","823517","0.0-88.0-1.0","0","0","1K9vK","People","","1211","","","","75","","","","32","34","42","0","-1","37","38","oliver-johnson-1TUIcKob7Zs-unsplash.jpg","prince-akachi-l3IHXOdMyHQ-unsplash.jpg","3","0","42","34","","","","","","","","","","","","","","","","","","","","","","","","","","","",""
"","choice_confirmation","","html-keyboard-response","170","824033","0.0-88.0-2.0-0.0","0","0","1K9vK","People","","null","","","","null","","","","32","34","42","","","","","","","","","","","","","","","","","","","","","","","","","","","","","","","","","","","","","",""
"","fixation","","html-keyboard-response","171","825036","0.0-89.0-0.0","0","0","1K9vK","People","","null","","","","null","","","","","","","","","","","","","","","","","","","","","","","","","","","","","","","","","","","","","","","","","","","",""
"","deliberation","","html-keyboard-response","172","826292","0.0-89.0-1.0","0","0","1K9vK","People","","1253","","","","68","","","","33","39","47","0","-1","36","34","philip-martin-5aGUyCW_PJw-unsplash.jpg","tyler-nix-ZGa9d1a_4tA-unsplash.jpg","3","1","39","47","","","","","","","","","","","","","","","","","","","","","","","","","","","",""
"","choice_confirmation","","html-keyboard-response","173","826804","0.0-89.0-2.0-0.0","0","0","1K9vK","People","","null","","","","null","","","","33","39","47","","","","","","","","","","","","","","","","","","","","","","","","","","","","","","","","","","","","","",""
"","fixation","","html-keyboard-response","174","827820","0.0-90.0-0.0","0","0","1K9vK","People","","null","","","","null","","","","","","","","","","","","","","","","","","","","","","","","","","","","","","","","","","","","","","","","","","","",""
"","deliberation","","html-keyboard-response","175","829067","0.0-90.0-1.0","0","0","1K9vK","People","","1244","","","","68","","","","34","26","35","0","1","38","69","juri-gianfrancesco-9EZadYaMzk4-unsplash.jpg","oliver-ragfelt-khV4fTy6-D8-unsplash.jpg","3","1","26","35","","","","","","","","","","","","","","","","","","","","","","","","","","","",""
"","choice_confirmation","","html-keyboard-response","176","829581","0.0-90.0-2.0-0.0","0","0","1K9vK","People","","null","","","","null","","","","34","26","35","","","","","","","","","","","","","","","","","","","","","","","","","","","","","","","","","","","","","",""
"","fixation","","html-keyboard-response","177","830596","0.0-91.0-0.0","0","0","1K9vK","People","","null","","","","null","","","","","","","","","","","","","","","","","","","","","","","","","","","","","","","","","","","","","","","","","","","",""
"","deliberation","","html-keyboard-response","178","831783","0.0-91.0-1.0","0","0","1K9vK","People","","1183","","","","68","","","","35","24","41","0","-1","79","71","joel-mott-LaK153ghdig-unsplash.jpg","prince-akachi-i2hoD-C2RUA-unsplash.jpg","3","1","24","41","","","","","","","","","","","","","","","","","","","","","","","","","","","",""
"","choice_confirmation","","html-keyboard-response","179","832294","0.0-91.0-2.0-0.0","0","0","1K9vK","People","","null","","","","null","","","","35","24","41","","","","","","","","","","","","","","","","","","","","","","","","","","","","","","","","","","","","","",""
"","reward_learning_instructions","","instructions","180","857723","0.0-92.0-0.0","0","0","1K9vK","People","[{""page_index"":0,""viewing_time"":9171},{""page_index"":1,""viewing_time"":14399},{""page_index"":2,""viewing_time"":1856}]","25427","","","","","","","","","","","","","","","","","","","","","","","","","","","","","","","","","","","","","","","","","","","","","","","",""
"","","","survey-multi-choice","181","867067","0.0-92.0-1.0","0","0","1K9vK","People","","9339","{""Q0"":""True"",""Q1"":""True"",""Q2"":""Press the space bar to see its outcome"",""Q3"":""Press the relevant key while the outcome is presented""}","reward_comprehension_check","0","","","","","","","","","","","","","","","","","","","","","","","","","","","","","","","","","","","","","","","","","","","","",""
"","start_phase","","html-keyboard-response","182","868559","0.0-93.0","0","0","1K9vK","People","","1490","","","","78","","","","","","","","","","","","","","","","","","","","","","","","","","","","","","","","","","","","","","","","","","","",""
"","fixation","","html-keyboard-response","183","869578","0.0-94.0","0","0","1K9vK","People","","null","","","","null","","","","","","","","","","","","","","","","","","","","","","","","","","","","","","","","","","","","","","","","","","","",""
"","see_reward","","html-keyboard-response","184","870330","0.0-95.0","0","0","1K9vK","People","","749","","","","32","","36","","0","","","","1","","","","","1","","","","","149","749","","","","","","","","","","","","","","","","","","","","","","","","",""
"","reward_outcome","","html-keyboard-response","185","872340","0.0-96.0","0","0","1K9vK","People","","1054","","","","38","","36","","0","","","","","","","","","","","","","","","","1","1054","","","","","","","","","","","","","","","","","","","","","","",""
"","fixation","","html-keyboard-response","186","873348","0.0-99.0","0","0","1K9vK","People","","null","","","","null","","","","","","","","","","","","","","","","","","","","","","","","","","","","","","","","","","","","","","","","","","","",""
"","see_reward","","html-keyboard-response","187","873968","0.0-100.0","0","0","1K9vK","People","","617","","","","32","","42","","1","","","","-1","","","","","1","","","","","0","617","","","","","","","","","","","","","","","","","","","","","","","","",""
"","reward_outcome","","html-keyboard-response","188","875985","0.0-101.0","0","0","1K9vK","People","","885","","","","40","","42","","1","","","","","","","","","","","","","","","","-1","885","","","","","","","","","","","","","","","","","","","","","","",""
"","fixation","","html-keyboard-response","189","877001","0.0-104.0","0","0","1K9vK","People","","null","","","","null","","","","","","","","","","","","","","","","","","","","","","","","","","","","","","","","","","","","","","","","","","","",""
"","see_reward","","html-keyboard-response","190","877577","0.0-105.0","0","0","1K9vK","People","","574","","","","32","","25","","2","","","","-1","","","","","1","","","","","0","574","","","","","","","","","","","","","","","","","","","","","","","","",""
"","reward_outcome","","html-keyboard-response","191","879599","0.0-106.0","0","0","1K9vK","People","","824","","","","40","","25","","2","","","","","","","","","","","","","","","","-1","824","","","","","","","","","","","","","","","","","","","","","","",""
"","fixation","","html-keyboard-response","192","880612","0.0-109.0","0","0","1K9vK","People","","null","","","","null","","","","","","","","","","","","","","","","","","","","","","","","","","","","","","","","","","","","","","","","","","","",""
"","see_reward","","html-keyboard-response","193","881143","0.0-110.0","0","0","1K9vK","People","","529","","","","32","","40","","3","","","","1","","","","","1","","","","","149","529","","","","","","","","","","","","","","","","","","","","","","","","",""
"","reward_outcome","","html-keyboard-response","194","883148","0.0-111.0","0","0","1K9vK","People","","820","","","","38","","40","","3","","","","","","","","","","","","","","","","1","820","","","","","","","","","","","","","","","","","","","","","","",""
"","fixation","","html-keyboard-response","195","884162","0.0-114.0","0","0","1K9vK","People","","null","","","","null","","","","","","","","","","","","","","","","","","","","","","","","","","","","","","","","","","","","","","","","","","","",""
"","see_reward","","html-keyboard-response","196","884858","0.0-115.0","0","0","1K9vK","People","","692","","","","32","","8","","4","","","","1","","","","","1","","","","","154","692","","","","","","","","","","","","","","","","","","","","","","","","",""
"","reward_outcome","","html-keyboard-response","197","886874","0.0-116.0","0","0","1K9vK","People","","668","","","","38","","8","","4","","","","","","","","","","","","","","","","1","668","","","","","","","","","","","","","","","","","","","","","","",""
"","fixation","","html-keyboard-response","198","887897","0.0-119.0","0","0","1K9vK","People","","null","","","","null","","","","","","","","","","","","","","","","","","","","","","","","","","","","","","","","","","","","","","","","","","","",""
"","see_reward","","html-keyboard-response","199","888549","0.0-120.0","0","0","1K9vK","People","","650","","","","32","","39","","5","","","","-1","","","","","1","","","","","0","650","","","","","","","","","","","","","","","","","","","","","","","","",""
"","reward_outcome","","html-keyboard-response","200","890568","0.0-121.0","0","0","1K9vK","People","","1304","","","","40","","39","","5","","","","","","","","","","","","","","","","-1","1304","","","","","","","","","","","","","","","","","","","","","","",""
"","fixation","","html-keyboard-response","201","891572","0.0-124.0","0","0","1K9vK","People","","null","","","","null","","","","","","","","","","","","","","","","","","","","","","","","","","","","","","","","","","","","","","","","","","","",""
"","see_reward","","html-keyboard-response","202","892482","0.0-125.0","0","0","1K9vK","People","","906","","","","32","","42","","6","","","","-1","","","","","1","","","","","0","906","","","","","","","","","","","","","","","","","","","","","","","","",""
"","reward_outcome","","html-keyboard-response","203","894496","0.0-126.0","0","0","1K9vK","People","","753","","","","40","","42","","6","","","","","","","","","","","","","","","","-1","753","","","","","","","","","","","","","","","","","","","","","","",""
"","fixation","","html-keyboard-response","204","895502","0.0-129.0","0","0","1K9vK","People","","null","","","","null","","","","","","","","","","","","","","","","","","","","","","","","","","","","","","","","","","","","","","","","","","","",""
"","see_reward","","html-keyboard-response","205","896207","0.0-130.0","0","0","1K9vK","People","","702","","","","32","","39","","7","","","","-1","","","","","1","","","","","0","702","","","","","","","","","","","","","","","","","","","","","","","","",""
"","reward_outcome","","html-keyboard-response","206","898222","0.0-131.0","0","0","1K9vK","People","","629","","","","40","","39","","7","","","","","","","","","","","","","","","","-1","629","","","","","","","","","","","","","","","","","","","","","","",""
"","fixation","","html-keyboard-response","207","899241","0.0-134.0","0","0","1K9vK","People","","null","","","","null","","","","","","","","","","","","","","","","","","","","","","","","","","","","","","","","","","","","","","","","","","","",""
"","see_reward","","html-keyboard-response","208","900076","0.0-135.0","0","0","1K9vK","People","","834","","","","32","","16","","8","","","","-1","","","","","1","","","","","0","834","","","","","","","","","","","","","","","","","","","","","","","","",""
"","reward_outcome","","html-keyboard-response","209","902086","0.0-136.0","0","0","1K9vK","People","","718","","","","40","","16","","8","","","","","","","","","","","","","","","","-1","718","","","","","","","","","","","","","","","","","","","","","","",""
"","fixation","","html-keyboard-response","210","903102","0.0-139.0","0","0","1K9vK","People","","null","","","","null","","","","","","","","","","","","","","","","","","","","","","","","","","","","","","","","","","","","","","","","","","","",""
"","see_reward","","html-keyboard-response","211","904070","0.0-140.0","0","0","1K9vK","People","","966","","","","32","","16","","9","","","","-1","","","","","1","","","","","0","966","","","","","","","","","","","","","","","","","","","","","","","","",""
"","reward_outcome","","html-keyboard-response","212","906076","0.0-141.0","0","0","1K9vK","People","","588","","","","40","","16","","9","","","","","","","","","","","","","","","","-1","588","","","","","","","","","","","","","","","","","","","","","","",""
"","fixation","","html-keyboard-response","213","907098","0.0-144.0","0","0","1K9vK","People","","null","","","","null","","","","","","","","","","","","","","","","","","","","","","","","","","","","","","","","","","","","","","","","","","","",""
"","see_reward","","html-keyboard-response","214","907722","0.0-145.0","0","0","1K9vK","People","","622","","","","32","","26","","10","","","","1","","","","","1","","","","","156","622","","","","","","","","","","","","","","","","","","","","","","","","",""
"","reward_outcome","","html-keyboard-response","215","909734","0.0-146.0","0","0","1K9vK","People","","663","","","","38","","26","","10","","","","","","","","","","","","","","","","1","663","","","","","","","","","","","","","","","","","","","","","","",""
"","fixation","","html-keyboard-response","216","910741","0.0-149.0","0","0","1K9vK","People","","null","","","","null","","","","","","","","","","","","","","","","","","","","","","","","","","","","","","","","","","","","","","","","","","","",""
"","see_reward","","html-keyboard-response","217","911395","0.0-150.0","0","0","1K9vK","People","","652","","","","32","","24","","11","","","","-1","","","","","1","","","","","0","652","","","","","","","","","","","","","","","","","","","","","","","","",""
"","reward_outcome","","html-keyboard-response","218","913415","0.0-151.0","0","0","1K9vK","People","","792","","","","40","","24","","11","","","","","","","","","","","","","","","","-1","792","","","","","","","","","","","","","","","","","","","","","","",""
"","fixation","","html-keyboard-response","219","914422","0.0-154.0","0","0","1K9vK","People","","null","","","","null","","","","","","","","","","","","","","","","","","","","","","","","","","","","","","","","","","","","","","","","","","","",""
"","see_reward","","html-keyboard-response","220","915251","0.0-155.0","0","0","1K9vK","People","","826","","","","32","","26","","12","","","","1","","","","","1","","","","","156","826","","","","","","","","","","","","","","","","","","","","","","","","",""
"","reward_outcome","","html-keyboard-response","221","917265","0.0-156.0","0","0","1K9vK","People","","548","","","","38","","26","","12","","","","","","","","","","","","","","","","1","548","","","","","","","","","","","","","","","","","","","","","","",""
"","fixation","","html-keyboard-response","222","918287","0.0-159.0","0","0","1K9vK","People","","null","","","","null","","","","","","","","","","","","","","","","","","","","","","","","","","","","","","","","","","","","","","","","","","","",""
"","see_reward","","html-keyboard-response","223","919143","0.0-160.0","0","0","1K9vK","People","","854","","","","32","","36","","13","","","","1","","","","","1","","","","","149","854","","","","","","","","","","","","","","","","","","","","","","","","",""
"","reward_outcome","","html-keyboard-response","224","921156","0.0-161.0","0","0","1K9vK","People","","622","","","","38","","36","","13","","","","","","","","","","","","","","","","1","622","","","","","","","","","","","","","","","","","","","","","","",""
"","fixation","","html-keyboard-response","225","922175","0.0-164.0","0","0","1K9vK","People","","null","","","","null","","","","","","","","","","","","","","","","","","","","","","","","","","","","","","","","","","","","","","","","","","","",""
"","see_reward","","html-keyboard-response","226","922970","0.0-165.0","0","0","1K9vK","People","","793","","","","32","","25","","14","","","","-1","","","","","1","","","","","0","793","","","","","","","","","","","","","","","","","","","","","","","","",""
"","reward_outcome","","html-keyboard-response","227","924990","0.0-166.0","0","0","1K9vK","People","","588","","","","40","","25","","14","","","","","","","","","","","","","","","","-1","588","","","","","","","","","","","","","","","","","","","","","","",""
"","fixation","","html-keyboard-response","228","926005","0.0-169.0","0","0","1K9vK","People","","null","","","","null","","","","","","","","","","","","","","","","","","","","","","","","","","","","","","","","","","","","","","","","","","","",""
"","see_reward","","html-keyboard-response","229","927380","0.0-170.0","0","0","1K9vK","People","","1373","","","","32","","11","","15","","","","1","","","","","1","","","","","144","1373","","","","","","","","","","","","","","","","","","","","","","","","",""
"","reward_outcome","","html-keyboard-response","230","929389","0.0-171.0","0","0","1K9vK","People","","562","","","","38","","11","","15","","","","","","","","","","","","","","","","1","562","","","","","","","","","","","","","","","","","","","","","","",""
"","fixation","","html-keyboard-response","231","930398","0.0-174.0","0","0","1K9vK","People","","null","","","","null","","","","","","","","","","","","","","","","","","","","","","","","","","","","","","","","","","","","","","","","","","","",""
"","see_reward","","html-keyboard-response","232","931295","0.0-175.0","0","0","1K9vK","People","","895","","","","32","","2","","16","","","","-1","","","","","1","","","","","0","895","","","","","","","","","","","","","","","","","","","","","","","","",""
"","reward_outcome","","html-keyboard-response","233","933313","0.0-176.0","0","0","1K9vK","People","","694","","","","40","","2","","16","","","","","","","","","","","","","","","","-1","694","","","","","","","","","","","","","","","","","","","","","","",""
"","fixation","","html-keyboard-response","234","934327","0.0-179.0","0","0","1K9vK","People","","null","","","","null","","","","","","","","","","","","","","","","","","","","","","","","","","","","","","","","","","","","","","","","","","","",""
"","see_reward","","html-keyboard-response","235","935218","0.0-180.0","0","0","1K9vK","People","","889","","","","32","","14","","17","","","","1","","","","","1","","","","","150","889","","","","","","","","","","","","","","","","","","","","","","","","",""
"","reward_outcome","","html-keyboard-response","236","937236","0.0-181.0","0","0","1K9vK","People","","617","","","","38","","14","","17","","","","","","","","","","","","","","","","1","617","","","","","","","","","","","","","","","","","","","","","","",""
"","fixation","","html-keyboard-response","237","938247","0.0-184.0","0","0","1K9vK","People","","null","","","","null","","","","","","","","","","","","","","","","","","","","","","","","","","","","","","","","","","","","","","","","","","","",""
"","see_reward","","html-keyboard-response","238","939065","0.0-185.0","0","0","1K9vK","People","","815","","","","32","","14","","18","","","","1","","","","","1","","","","","150","815","","","","","","","","","","","","","","","","","","","","","","","","",""
"","reward_outcome","","html-keyboard-response","239","941088","0.0-186.0","0","0","1K9vK","People","","543","","","","38","","14","","18","","","","","","","","","","","","","","","","1","543","","","","","","","","","","","","","","","","","","","","","","",""
"","fixation","","html-keyboard-response","240","942105","0.0-189.0","0","0","1K9vK","People","","null","","","","null","","","","","","","","","","","","","","","","","","","","","","","","","","","","","","","","","","","","","","","","","","","",""
"","see_reward","","html-keyboard-response","241","942748","0.0-190.0","0","0","1K9vK","People","","640","","","","32","","24","","19","","","","-1","","","","","1","","","","","0","640","","","","","","","","","","","","","","","","","","","","","","","","",""
"","reward_outcome","","html-keyboard-response","242","944757","0.0-191.0","0","0","1K9vK","People","","522","","","","40","","24","","19","","","","","","","","","","","","","","","","-1","522","","","","","","","","","","","","","","","","","","","","","","",""
"","fixation","","html-keyboard-response","243","945772","0.0-194.0","0","0","1K9vK","People","","null","","","","null","","","","","","","","","","","","","","","","","","","","","","","","","","","","","","","","","","","","","","","","","","","",""
"","see_reward","","html-keyboard-response","244","946498","0.0-195.0","0","0","1K9vK","People","","724","","","","32","","8","","20","","","","1","","","","","1","","","","","154","724","","","","","","","","","","","","","","","","","","","","","","","","",""
"","reward_outcome","","html-keyboard-response","245","948517","0.0-196.0","0","0","1K9vK","People","","571","","","","38","","8","","20","","","","","","","","","","","","","","","","1","571","","","","","","","","","","","","","","","","","","","","","","",""
"","fixation","","html-keyboard-response","246","949526","0.0-199.0","0","0","1K9vK","People","","null","","","","null","","","","","","","","","","","","","","","","","","","","","","","","","","","","","","","","","","","","","","","","","","","",""
"","see_reward","","html-keyboard-response","247","950145","0.0-200.0","0","0","1K9vK","People","","617","","","","32","","11","","21","","","","1","","","","","1","","","","","144","617","","","","","","","","","","","","","","","","","","","","","","","","",""
"","reward_outcome","","html-keyboard-response","248","952162","0.0-201.0","0","0","1K9vK","People","","597","","","","38","","11","","21","","","","","","","","","","","","","","","","1","597","","","","","","","","","","","","","","","","","","","","","","",""
"","fixation","","html-keyboard-response","249","953177","0.0-204.0","0","0","1K9vK","People","","null","","","","null","","","","","","","","","","","","","","","","","","","","","","","","","","","","","","","","","","","","","","","","","","","",""
"","see_reward","","html-keyboard-response","250","953767","0.0-205.0","0","0","1K9vK","People","","587","","","","32","","2","","22","","","","-1","","","","","1","","","","","0","587","","","","","","","","","","","","","","","","","","","","","","","","",""
"","reward_outcome","","html-keyboard-response","251","955781","0.0-206.0","0","0","1K9vK","People","","429","","","","40","","2","","22","","","","","","","","","","","","","","","","-1","429","","","","","","","","","","","","","","","","","","","","","","",""
"","fixation","","html-keyboard-response","252","956805","0.0-209.0","0","0","1K9vK","People","","null","","","","null","","","","","","","","","","","","","","","","","","","","","","","","","","","","","","","","","","","","","","","","","","","",""
"","see_reward","","html-keyboard-response","253","957605","0.0-210.0","0","0","1K9vK","People","","798","","","","32","","40","","23","","","","1","","","","","1","","","","","149","798","","","","","","","","","","","","","","","","","","","","","","","","",""
"","reward_outcome","","html-keyboard-response","254","959619","0.0-211.0","0","0","1K9vK","People","","486","","","","38","","40","","23","","","","","","","","","","","","","","","","1","486","","","","","","","","","","","","","","","","","","","","","","",""
"","block_over","","html-keyboard-response","255","962270","0.0-213.0-0.0","0","0","1K9vK","People","","2648","","","","78","","","","","","","","","","","","","","","","","","","","","","","","","","","","","","","","","","","","","","","","","","","",""
"","fixation","","html-keyboard-response","256","963291","0.0-214.0","0","0","1K9vK","People","","null","","","","null","","","","","","","","","","","","","","","","","","","","","","","","","","","","","","","","","","","","","","","","","","","",""
"","see_reward","","html-keyboard-response","257","965314","0.0-215.0","0","0","1K9vK","People","","2021","","","","32","","36","","24","","","","1","","","","","2","","","","","149","2021","","","","","","","","","","","","","","","","","","","","","","","","",""
"","reward_outcome","","html-keyboard-response","258","967331","0.0-216.0","0","0","1K9vK","People","","691","","","","38","","36","","24","","","","","","","","","","","","","","","","1","691","","","","","","","","","","","","","","","","","","","","","","",""
"","fixation","","html-keyboard-response","259","968343","0.0-219.0","0","0","1K9vK","People","","null","","","","null","","","","","","","","","","","","","","","","","","","","","","","","","","","","","","","","","","","","","","","","","","","",""
"","see_reward","","html-keyboard-response","260","968908","0.0-220.0","0","0","1K9vK","People","","560","","","","32","","40","","25","","","","1","","","","","2","","","","","149","560","","","","","","","","","","","","","","","","","","","","","","","","",""
"","reward_outcome","","html-keyboard-response","261","970930","0.0-221.0","0","0","1K9vK","People","","1248","","","","38","","40","","25","","","","","","","","","","","","","","","","1","1248","","","","","","","","","","","","","","","","","","","","","","",""
"","fixation","","html-keyboard-response","262","971944","0.0-224.0","0","0","1K9vK","People","","null","","","","null","","","","","","","","","","","","","","","","","","","","","","","","","","","","","","","","","","","","","","","","","","","",""
"","see_reward","","html-keyboard-response","263","972320","0.0-225.0","0","0","1K9vK","People","","372","","","","32","","25","","26","","","","-1","","","","","2","","","","","0","372","","","","","","","","","","","","","","","","","","","","","","","","",""
"","reward_outcome","","html-keyboard-response","264","974340","0.0-226.0","0","0","1K9vK","People","","516","","","","40","","25","","26","","","","","","","","","","","","","","","","-1","516","","","","","","","","","","","","","","","","","","","","","","",""
"","fixation","","html-keyboard-response","265","975358","0.0-229.0","0","0","1K9vK","People","","null","","","","null","","","","","","","","","","","","","","","","","","","","","","","","","","","","","","","","","","","","","","","","","","","",""
"","see_reward","","html-keyboard-response","266","975784","0.0-230.0","0","0","1K9vK","People","","423","","","","32","","2","","27","","","","-1","","","","","2","","","","","0","423","","","","","","","","","","","","","","","","","","","","","","","","",""
"","reward_outcome","","html-keyboard-response","267","977804","0.0-231.0","0","0","1K9vK","People","","472","","","","40","","2","","27","","","","","","","","","","","","","","","","-1","472","","","","","","","","","","","","","","","","","","","","","","",""
"","fixation","","html-keyboard-response","268","978821","0.0-234.0","0","0","1K9vK","People","","null","","","","null","","","","","","","","","","","","","","","","","","","","","","","","","","","","","","","","","","","","","","","","","","","",""
"","see_reward","","html-keyboard-response","269","979147","0.0-235.0","0","0","1K9vK","People","","323","","","","32","","26","","28","","","","1","","","","","2","","","","","156","323","","","","","","","","","","","","","","","","","","","","","","","","",""
"","reward_outcome","","html-keyboard-response","270","981164","0.0-236.0","0","0","1K9vK","People","","434","","","","38","","26","","28","","","","","","","","","","","","","","","","1","434","","","","","","","","","","","","","","","","","","","","","","",""
"","fixation","","html-keyboard-response","271","982185","0.0-239.0","0","0","1K9vK","People","","null","","","","null","","","","","","","","","","","","","","","","","","","","","","","","","","","","","","","","","","","","","","","","","","","",""
"","see_reward","","html-keyboard-response","272","982819","0.0-240.0","0","0","1K9vK","People","","629","","","","32","","25","","29","","","","-1","","","","","2","","","","","0","629","","","","","","","","","","","","","","","","","","","","","","","","",""
"","reward_outcome","","html-keyboard-response","273","984836","0.0-241.0","0","0","1K9vK","People","","451","","","","40","","25","","29","","","","","","","","","","","","","","","","-1","451","","","","","","","","","","","","","","","","","","","","","","",""
"","fixation","","html-keyboard-response","274","985851","0.0-244.0","0","0","1K9vK","People","","null","","","","null","","","","","","","","","","","","","","","","","","","","","","","","","","","","","","","","","","","","","","","","","","","",""
"","see_reward","","html-keyboard-response","275","986253","0.0-245.0","0","0","1K9vK","People","","400","","","","32","","16","","30","","","","-1","","","","","2","","","","","0","400","","","","","","","","","","","","","","","","","","","","","","","","",""
"","reward_outcome","","html-keyboard-response","276","988266","0.0-246.0","0","0","1K9vK","People","","665","","","","40","","16","","30","","","","","","","","","","","","","","","","-1","665","","","","","","","","","","","","","","","","","","","","","","",""
"","fixation","","html-keyboard-response","277","989290","0.0-249.0","0","0","1K9vK","People","","null","","","","null","","","","","","","","","","","","","","","","","","","","","","","","","","","","","","","","","","","","","","","","","","","",""
"","see_reward","","html-keyboard-response","278","989856","0.0-250.0","0","0","1K9vK","People","","564","","","","32","","42","","31","","","","-1","","","","","2","","","","","0","564","","","","","","","","","","","","","","","","","","","","","","","","",""
"","reward_outcome","","html-keyboard-response","279","991884","0.0-251.0","0","0","1K9vK","People","","589","","","","40","","42","","31","","","","","","","","","","","","","","","","-1","589","","","","","","","","","","","","","","","","","","","","","","",""
"","fixation","","html-keyboard-response","280","992900","0.0-254.0","0","0","1K9vK","People","","null","","","","null","","","","","","","","","","","","","","","","","","","","","","","","","","","","","","","","","","","","","","","","","","","",""
"","see_reward","","html-keyboard-response","281","993457","0.0-255.0","0","0","1K9vK","People","","554","","","","32","","11","","32","","","","1","","","","","2","","","","","144","554","","","","","","","","","","","","","","","","","","","","","","","","",""
"","reward_outcome","","html-keyboard-response","282","995479","0.0-256.0","0","0","1K9vK","People","","540","","","","38","","11","","32","","","","","","","","","","","","","","","","1","540","","","","","","","","","","","","","","","","","","","","","","",""
"","fixation","","html-keyboard-response","283","996489","0.0-259.0","0","0","1K9vK","People","","null","","","","null","","","","","","","","","","","","","","","","","","","","","","","","","","","","","","","","","","","","","","","","","","","",""
"","see_reward","","html-keyboard-response","284","997572","0.0-260.0","0","0","1K9vK","People","","1080","","","","32","","40","","33","","","","1","","","","","2","","","","","149","1080","","","","","","","","","","","","","","","","","","","","","","","","",""
"","reward_outcome","","html-keyboard-response","285","999590","0.0-261.0","0","0","1K9vK","People","","610","","","","38","","40","","33","","","","","","","","","","","","","","","","1","610","","","","","","","","","","","","","","","","","","","","","","",""
"","fixation","","html-keyboard-response","286","1000608","0.0-264.0","0","0","1K9vK","People","","null","","","","null","","","","","","","","","","","","","","","","","","","","","","","","","","","","","","","","","","","","","","","","","","","",""
"","see_reward","","html-keyboard-response","287","1001339","0.0-265.0","0","0","1K9vK","People","","726","","","","32","","8","","34","","","","1","","","","","2","","","","","154","726","","","","","","","","","","","","","","","","","","","","","","","","",""
"","reward_outcome","","html-keyboard-response","288","1003360","0.0-266.0","0","0","1K9vK","People","","534","","","","38","","8","","34","","","","","","","","","","","","","","","","1","534","","","","","","","","","","","","","","","","","","","","","","",""
"","fixation","","html-keyboard-response","289","1004366","0.0-269.0","0","0","1K9vK","People","","null","","","","null","","","","","","","","","","","","","","","","","","","","","","","","","","","","","","","","","","","","","","","","","","","",""
"","see_reward","","html-keyboard-response","290","1004756","0.0-270.0","0","0","1K9vK","People","","388","","","","32","","36","","35","","","","1","","","","","2","","","","","149","388","","","","","","","","","","","","","","","","","","","","","","","","",""
"","reward_outcome","","html-keyboard-response","291","1006774","0.0-271.0","0","0","1K9vK","People","","553","","","","38","","36","","35","","","","","","","","","","","","","","","","1","553","","","","","","","","","","","","","","","","","","","","","","",""
"","fixation","","html-keyboard-response","292","1007782","0.0-274.0","0","0","1K9vK","People","","null","","","","null","","","","","","","","","","","","","","","","","","","","","","","","","","","","","","","","","","","","","","","","","","","",""
"","see_reward","","html-keyboard-response","293","1008320","0.0-275.0","0","0","1K9vK","People","","535","","","","32","","2","","36","","","","-1","","","","","2","","","","","0","535","","","","","","","","","","","","","","","","","","","","","","","","",""
"","reward_outcome","","html-keyboard-response","294","1010337","0.0-276.0","0","0","1K9vK","People","","615","","","","40","","2","","36","","","","","","","","","","","","","","","","-1","615","","","","","","","","","","","","","","","","","","","","","","",""
"","fixation","","html-keyboard-response","295","1011356","0.0-279.0","0","0","1K9vK","People","","null","","","","null","","","","","","","","","","","","","","","","","","","","","","","","","","","","","","","","","","","","","","","","","","","",""
"","see_reward","","html-keyboard-response","296","1011874","0.0-280.0","0","0","1K9vK","People","","515","","","","32","","24","","37","","","","-1","","","","","2","","","","","0","515","","","","","","","","","","","","","","","","","","","","","","","","",""
"","reward_outcome","","html-keyboard-response","297","1013889","0.0-281.0","0","0","1K9vK","People","","621","","","","40","","24","","37","","","","","","","","","","","","","","","","-1","621","","","","","","","","","","","","","","","","","","","","","","",""
"","fixation","","html-keyboard-response","298","1014908","0.0-284.0","0","0","1K9vK","People","","null","","","","null","","","","","","","","","","","","","","","","","","","","","","","","","","","","","","","","","","","","","","","","","","","",""
"","see_reward","","html-keyboard-response","299","1015738","0.0-285.0","0","0","1K9vK","People","","827","","","","32","","24","","38","","","","-1","","","","","2","","","","","0","827","","","","","","","","","","","","","","","","","","","","","","","","",""
"","reward_outcome","","html-keyboard-response","300","1017752","0.0-286.0","0","0","1K9vK","People","","472","","","","40","","24","","38","","","","","","","","","","","","","","","","-1","472","","","","","","","","","","","","","","","","","","","","","","",""
"","fixation","","html-keyboard-response","301","1018774","0.0-289.0","0","0","1K9vK","People","","null","","","","null","","","","","","","","","","","","","","","","","","","","","","","","","","","","","","","","","","","","","","","","","","","",""
"","see_reward","","html-keyboard-response","302","1019319","0.0-290.0","0","0","1K9vK","People","","542","","","","32","","39","","39","","","","-1","","","","","2","","","","","0","542","","","","","","","","","","","","","","","","","","","","","","","","",""
"","reward_outcome","","html-keyboard-response","303","1021328","0.0-291.0","0","0","1K9vK","People","","495","","","","40","","39","","39","","","","","","","","","","","","","","","","-1","495","","","","","","","","","","","","","","","","","","","","","","",""
"","fixation","","html-keyboard-response","304","1022347","0.0-294.0","0","0","1K9vK","People","","null","","","","null","","","","","","","","","","","","","","","","","","","","","","","","","","","","","","","","","","","","","","","","","","","",""
"","see_reward","","html-keyboard-response","305","1022678","0.0-295.0","0","0","1K9vK","People","","329","","","","32","","39","","40","","","","-1","","","","","2","","","","","0","329","","","","","","","","","","","","","","","","","","","","","","","","",""
"","reward_outcome","","html-keyboard-response","306","1024689","0.0-296.0","0","0","1K9vK","People","","592","","","","40","","39","","40","","","","","","","","","","","","","","","","-1","592","","","","","","","","","","","","","","","","","","","","","","",""
"","fixation","","html-keyboard-response","307","1025700","0.0-299.0","0","0","1K9vK","People","","null","","","","null","","","","","","","","","","","","","","","","","","","","","","","","","","","","","","","","","","","","","","","","","","","",""
"","see_reward","","html-keyboard-response","308","1026016","0.0-300.0","0","0","1K9vK","People","","314","","","","32","","8","","41","","","","1","","","","","2","","","","","154","314","","","","","","","","","","","","","","","","","","","","","","","","",""
"","reward_outcome","","html-keyboard-response","309","1028034","0.0-301.0","0","0","1K9vK","People","","417","","","","38","","8","","41","","","","","","","","","","","","","","","","1","417","","","","","","","","","","","","","","","","","","","","","","",""
"","fixation","","html-keyboard-response","310","1029051","0.0-304.0","0","0","1K9vK","People","","null","","","","null","","","","","","","","","","","","","","","","","","","","","","","","","","","","","","","","","","","","","","","","","","","",""
"","see_reward","","html-keyboard-response","311","1029578","0.0-305.0","0","0","1K9vK","People","","525","","","","32","","14","","42","","","","1","","","","","2","","","","","150","525","","","","","","","","","","","","","","","","","","","","","","","","",""
"","reward_outcome","","html-keyboard-response","312","1031594","0.0-306.0","0","0","1K9vK","People","","424","","","","38","","14","","42","","","","","","","","","","","","","","","","1","424","","","","","","","","","","","","","","","","","","","","","","",""
"","fixation","","html-keyboard-response","313","1032617","0.0-309.0","0","0","1K9vK","People","","null","","","","null","","","","","","","","","","","","","","","","","","","","","","","","","","","","","","","","","","","","","","","","","","","",""
"","see_reward","","html-keyboard-response","314","1032938","0.0-310.0","0","0","1K9vK","People","","320","","","","32","","16","","43","","","","-1","","","","","2","","","","","0","320","","","","","","","","","","","","","","","","","","","","","","","","",""
"","reward_outcome","","html-keyboard-response","315","1034962","0.0-311.0","0","0","1K9vK","People","","607","","","","40","","16","","43","","","","","","","","","","","","","","","","-1","607","","","","","","","","","","","","","","","","","","","","","","",""
"","fixation","","html-keyboard-response","316","1035975","0.0-314.0","0","0","1K9vK","People","","null","","","","null","","","","","","","","","","","","","","","","","","","","","","","","","","","","","","","","","","","","","","","","","","","",""
"","see_reward","","html-keyboard-response","317","1036563","0.0-315.0","0","0","1K9vK","People","","585","","","","32","","14","","44","","","","1","","","","","2","","","","","150","585","","","","","","","","","","","","","","","","","","","","","","","","",""
"","reward_outcome","","html-keyboard-response","318","1038583","0.0-316.0","0","0","1K9vK","People","","556","","","","38","","14","","44","","","","","","","","","","","","","","","","1","556","","","","","","","","","","","","","","","","","","","","","","",""
"","fixation","","html-keyboard-response","319","1039589","0.0-319.0","0","0","1K9vK","People","","null","","","","null","","","","","","","","","","","","","","","","","","","","","","","","","","","","","","","","","","","","","","","","","","","",""
"","see_reward","","html-keyboard-response","320","1040092","0.0-320.0","0","0","1K9vK","People","","500","","","","32","","26","","45","","","","1","","","","","2","","","","","156","500","","","","","","","","","","","","","","","","","","","","","","","","",""
"","reward_outcome","","html-keyboard-response","321","1042105","0.0-321.0","0","0","1K9vK","People","","391","","","","38","","26","","45","","","","","","","","","","","","","","","","1","391","","","","","","","","","","","","","","","","","","","","","","",""
"","fixation","","html-keyboard-response","322","1043129","0.0-324.0","0","0","1K9vK","People","","null","","","","null","","","","","","","","","","","","","","","","","","","","","","","","","","","","","","","","","","","","","","","","","","","",""
"","see_reward","","html-keyboard-response","323","1043487","0.0-325.0","0","0","1K9vK","People","","350","","","","32","","42","","46","","","","-1","","","","","2","","","","","0","350","","","","","","","","","","","","","","","","","","","","","","","","",""
"","reward_outcome","","html-keyboard-response","324","1045503","0.0-326.0","0","0","1K9vK","People","","638","","","","40","","42","","46","","","","","","","","","","","","","","","","-1","638","","","","","","","","","","","","","","","","","","","","","","",""
"","fixation","","html-keyboard-response","325","1046508","0.0-329.0","0","0","1K9vK","People","","null","","","","null","","","","","","","","","","","","","","","","","","","","","","","","","","","","","","","","","","","","","","","","","","","",""
"","see_reward","","html-keyboard-response","326","1047161","0.0-330.0","0","0","1K9vK","People","","649","","","","32","","11","","47","","","","1","","","","","2","","","","","144","649","","","","","","","","","","","","","","","","","","","","","","","","",""
"","reward_outcome","","html-keyboard-response","327","1049176","0.0-331.0","0","0","1K9vK","People","","632","","","","38","","11","","47","","","","","","","","","","","","","","","","1","632","","","","","","","","","","","","","","","","","","","","","","",""
"","block_over","","html-keyboard-response","328","1051114","0.0-333.0-0.0","0","0","1K9vK","People","","1935","","","","78","","","","","","","","","","","","","","","","","","","","","","","","","","","","","","","","","","","","","","","","","","","",""
"","fixation","","html-keyboard-response","329","1052129","0.0-334.0","0","0","1K9vK","People","","null","","","","null","","","","","","","","","","","","","","","","","","","","","","","","","","","","","","","","","","","","","","","","","","","",""
"","see_reward","","html-keyboard-response","330","1052527","0.0-335.0","0","0","1K9vK","People","","395","","","","32","","8","","48","","","","1","","","","","3","","","","","154","395","","","","","","","","","","","","","","","","","","","","","","","","",""
"","reward_outcome","","html-keyboard-response","331","1054544","0.0-336.0","0","0","1K9vK","People","","400","","","","38","","8","","48","","","","","","","","","","","","","","","","1","400","","","","","","","","","","","","","","","","","","","","","","",""
"","fixation","","html-keyboard-response","332","1055568","0.0-339.0","0","0","1K9vK","People","","null","","","","null","","","","","","","","","","","","","","","","","","","","","","","","","","","","","","","","","","","","","","","","","","","",""
"","see_reward","","html-keyboard-response","333","1056242","0.0-340.0","0","0","1K9vK","People","","671","","","","32","","42","","49","","","","-1","","","","","3","","","","","0","671","","","","","","","","","","","","","","","","","","","","","","","","",""
"","reward_outcome","","html-keyboard-response","334","1058256","0.0-341.0","0","0","1K9vK","People","","413","","","","40","","42","","49","","","","","","","","","","","","","","","","-1","413","","","","","","","","","","","","","","","","","","","","","","",""
"","fixation","","html-keyboard-response","335","1059282","0.0-344.0","0","0","1K9vK","People","","null","","","","null","","","","","","","","","","","","","","","","","","","","","","","","","","","","","","","","","","","","","","","","","","","",""
"","see_reward","","html-keyboard-response","336","1059739","0.0-345.0","0","0","1K9vK","People","","453","","","","32","","14","","50","","","","1","","","","","3","","","","","150","453","","","","","","","","","","","","","","","","","","","","","","","","",""
"","reward_outcome","","html-keyboard-response","337","1061761","0.0-346.0","0","0","1K9vK","People","","432","","","","38","","14","","50","","","","","","","","","","","","","","","","1","432","","","","","","","","","","","","","","","","","","","","","","",""
"","fixation","","html-keyboard-response","338","1062783","0.0-349.0","0","0","1K9vK","People","","null","","","","null","","","","","","","","","","","","","","","","","","","","","","","","","","","","","","","","","","","","","","","","","","","",""
"","see_reward","","html-keyboard-response","339","1063140","0.0-350.0","0","0","1K9vK","People","","351","","","","32","","25","","51","","","","-1","","","","","3","","","","","0","351","","","","","","","","","","","","","","","","","","","","","","","","",""
"","reward_outcome","","html-keyboard-response","340","1065159","0.0-351.0","0","0","1K9vK","People","","677","","","","40","","25","","51","","","","","","","","","","","","","","","","-1","677","","","","","","","","","","","","","","","","","","","","","","",""
"","fixation","","html-keyboard-response","341","1066174","0.0-354.0","0","0","1K9vK","People","","null","","","","null","","","","","","","","","","","","","","","","","","","","","","","","","","","","","","","","","","","","","","","","","","","",""
"","see_reward","","html-keyboard-response","342","1066740","0.0-355.0","0","0","1K9vK","People","","564","","","","32","","16","","52","","","","-1","","","","","3","","","","","0","564","","","","","","","","","","","","","","","","","","","","","","","","",""
"","reward_outcome","","html-keyboard-response","343","1068759","0.0-356.0","0","0","1K9vK","People","","743","","","","40","","16","","52","","","","","","","","","","","","","","","","-1","743","","","","","","","","","","","","","","","","","","","","","","",""
"","fixation","","html-keyboard-response","344","1069771","0.0-359.0","0","0","1K9vK","People","","null","","","","null","","","","","","","","","","","","","","","","","","","","","","","","","","","","","","","","","","","","","","","","","","","",""
"","see_reward","","html-keyboard-response","345","1070770","0.0-360.0","0","0","1K9vK","People","","995","","","","32","","40","","53","","","","1","","","","","3","","","","","149","995","","","","","","","","","","","","","","","","","","","","","","","","",""
