"success","ttype","start_time","trial_type","trial_index","time_elapsed","internal_node_id","warning","missed_checkup","PID","stim_type","view_history","rt","responses","category","repeat_instructions","key_press","response","stimulus_id","painting","index","stimulus_left","stimulus_right","explain_trial","reward_type","rating_left","rating_right","painting_left","painting_right","block","left_chosen","chosen_obj","unchosen_obj","explain_response","reward_amount","see_reward_rt","register_reward_response","register_reward_rt","deliberation_reward_tally","stimulus_left_deliberation_ind","stimulus_right_deliberation_ind","chosen_trial","gain_left","higher_outcome_chosen","old_pair","chosen_object","rt_pairs","left_object_chosen","rt_object","old_response","new_rating","deliberated_stim","initial_rating","outcome_eval_rt","outcome_eval_response","outcome_eval_gain","outcome_eval_acc","preamble","outcome_eval_confidence","outcome_eval_confidence_rt","total_reward_tally"
"true","full_screen","d01182023hr1453","fullscreen","0","1691088","0.0-0.0","0","0","Y1QFI","People","","","","","","","","","","","","","","","","","","","","","","","","","","","","","","","","","","","","","","","","","","","","","","","","","",""
"","rating_instructions","","instructions","1","1694744","0.0-1.0-0.0","0","0","Y1QFI","People","[{""page_index"":0,""viewing_time"":2177},{""page_index"":1,""viewing_time"":1475}]","3653","","","","","","","","","","","","","","","","","","","","","","","","","","","","","","","","","","","","","","","","","","","","","","","",""
"","","","survey-multi-choice","2","1701384","0.0-1.0-1.0","0","0","Y1QFI","People","","6633","{""Q0"":""True"",""Q1"":""Mouse""}","rating_comprehension_check","0","","","","","","","","","","","","","","","","","","","","","","","","","","","","","","","","","","","","","","","","","","","","",""
"","start_phase","","html-keyboard-response","3","1703408","0.0-2.0","0","0","Y1QFI","People","","2019","","","","78","","","","","","","","","","","","","","","","","","","","","","","","","","","","","","","","","","","","","","","","","","","",""
"","rating","","html-slider-response","4","1707606","0.0-3.0","0","0","Y1QFI","People","","4195","","","","","62","28","justin-chen-J7Cf1Gch49E-unsplash.jpg","0","","","","","","","","","","","","","","","","","","","","","","","","","","","","","","","","","","","","","","","",""
"","rating","","html-slider-response","5","1710615","0.0-4.0","0","0","Y1QFI","People","","3005","","","","","65","12","daniel-rigdon-dXmXKPP2L4E-unsplash.jpg","1","","","","","","","","","","","","","","","","","","","","","","","","","","","","","","","","","","","","","","","",""
"","rating","","html-slider-response","6","1714457","0.0-5.0","0","0","Y1QFI","People","","3838","","","","","42","23","joanna-nix-walkup-H4fEMshfwTE-unsplash.jpg","2","","","","","","","","","","","","","","","","","","","","","","","","","","","","","","","","","","","","","","","",""
"","rating","","html-slider-response","7","1718248","0.0-6.0","0","0","Y1QFI","People","","3789","","","","","56","34","oliver-johnson-1TUIcKob7Zs-unsplash.jpg","3","","","","","","","","","","","","","","","","","","","","","","","","","","","","","","","","","","","","","","","",""
"","rating","","html-slider-response","8","1721639","0.0-7.0","0","0","Y1QFI","People","","3389","","","","","72","16","giano-currie-5-9YOsmf8IQ-unsplash.jpg","4","","","","","","","","","","","","","","","","","","","","","","","","","","","","","","","","","","","","","","","",""
"","rating","","html-slider-response","9","1724857","0.0-8.0","0","0","Y1QFI","People","","3216","","","","","38","31","mathilda-khoo-vLR0YP_otCo-unsplash.jpg","5","","","","","","","","","","","","","","","","","","","","","","","","","","","","","","","","","","","","","","","",""
"","rating","","html-slider-response","10","1729321","0.0-9.0","0","0","Y1QFI","People","","4461","","","","","44","17","gleb-lukomets-paBzWCPN23k-unsplash.jpg","6","","","","","","","","","","","","","","","","","","","","","","","","","","","","","","","","","","","","","","","",""
"","rating","","html-slider-response","11","1732698","0.0-10.0","0","0","Y1QFI","People","","3373","","","","","23","2","arjunsyah-TBUA5KHJn6k-unsplash.jpg","7","","","","","","","","","","","","","","","","","","","","","","","","","","","","","","","","","","","","","","","",""
"","rating","","html-slider-response","12","1735769","0.0-11.0","0","0","Y1QFI","People","","3069","","","","","37","18","good-faces-xmSWVeGEnJw-unsplash.jpg","8","","","","","","","","","","","","","","","","","","","","","","","","","","","","","","","","","","","","","","","",""
"","rating","","html-slider-response","13","1738860","0.0-12.0","0","0","Y1QFI","People","","3089","","","","","69","27","jurica-koletic-7YVZYZeITc8-unsplash.jpg","9","","","","","","","","","","","","","","","","","","","","","","","","","","","","","","","","","","","","","","","",""
"","rating","","html-slider-response","14","1743948","0.0-13.0","0","0","Y1QFI","People","","5085","","","","","65","36","ospan-ali-mGdA2fzjWLo-unsplash.jpg","10","","","","","","","","","","","","","","","","","","","","","","","","","","","","","","","","","","","","","","","",""
"","rating","","html-slider-response","15","1747371","0.0-14.0","0","0","Y1QFI","People","","3420","","","","","58","0","abstral-official-cyOKLSgkgCE-unsplash.jpg","11","","","","","","","","","","","","","","","","","","","","","","","","","","","","","","","","","","","","","","","",""
"","rating","","html-slider-response","16","1750843","0.0-15.0","0","0","Y1QFI","People","","3469","","","","","34","14","freddy-kearney-o-ioeoATbIM-unsplash.jpg","12","","","","","","","","","","","","","","","","","","","","","","","","","","","","","","","","","","","","","","","",""
"","rating","","html-slider-response","17","1755166","0.0-16.0","0","0","Y1QFI","People","","4319","","","","","63","25","joseph-gonzalez-iFgRcqHznqg-unsplash.jpg","13","","","","","","","","","","","","","","","","","","","","","","","","","","","","","","","","","","","","","","","",""
"","rating","","html-slider-response","18","1759453","0.0-17.0","0","0","Y1QFI","People","","4285","","","","","71","45","sarah-noltner-pL5ZzPp1zqg-unsplash.jpg","14","","","","","","","","","","","","","","","","","","","","","","","","","","","","","","","","","","","","","","","",""
"","rating","","html-slider-response","19","1762798","0.0-18.0","0","0","Y1QFI","People","","3343","","","","","68","5","batel-studio-ttSRjiYG_WM-unsplash.jpg","15","","","","","","","","","","","","","","","","","","","","","","","","","","","","","","","","","","","","","","","",""
"","rating","","html-slider-response","20","1765775","0.0-19.0","0","0","Y1QFI","People","","2973","","","","","61","39","philip-martin-5aGUyCW_PJw-unsplash.jpg","16","","","","","","","","","","","","","","","","","","","","","","","","","","","","","","","","","","","","","","","",""
"","rating","","html-slider-response","21","1768592","0.0-20.0","0","0","Y1QFI","People","","2815","","","","","32","38","petr-sevcovic-HzDF-rxlSeM-unsplash.jpg","17","","","","","","","","","","","","","","","","","","","","","","","","","","","","","","","","","","","","","","","",""
"","rating","","html-slider-response","22","1772639","0.0-21.0","0","0","Y1QFI","People","","4043","","","","","37","19","ha-nguy-n-OFSQ6bHjFjs-unsplash.jpg","18","","","","","","","","","","","","","","","","","","","","","","","","","","","","","","","","","","","","","","","",""
"","rating","","html-slider-response","23","1775999","0.0-22.0","0","0","Y1QFI","People","","3358","","","","","62","20","houcine-ncib-B4TjXnI0Y2c-unsplash.jpg","19","","","","","","","","","","","","","","","","","","","","","","","","","","","","","","","","","","","","","","","",""
"","rating","","html-slider-response","24","1781295","0.0-23.0","0","0","Y1QFI","People","","5294","","","","","42","26","juri-gianfrancesco-9EZadYaMzk4-unsplash.jpg","20","","","","","","","","","","","","","","","","","","","","","","","","","","","","","","","","","","","","","","","",""
"","rating","","html-slider-response","25","1784321","0.0-24.0","0","0","Y1QFI","People","","3024","","","","","42","42","prince-akachi-l3IHXOdMyHQ-unsplash.jpg","21","","","","","","","","","","","","","","","","","","","","","","","","","","","","","","","","","","","","","","","",""
"","rating","","html-slider-response","26","1787152","0.0-25.0","0","0","Y1QFI","People","","2829","","","","","42","9","carlos-andres-gomez-vJuk8Y86mRw-unsplash.jpg","22","","","","","","","","","","","","","","","","","","","","","","","","","","","","","","","","","","","","","","","",""
"","rating","","html-slider-response","27","1789792","0.0-26.0","0","0","Y1QFI","People","","2637","","","","","33","37","pavel-anoshin-d0peGya6R5Y-unsplash.jpg","23","","","","","","","","","","","","","","","","","","","","","","","","","","","","","","","","","","","","","","","",""
"","rating","","html-slider-response","28","1792721","0.0-27.0","0","0","Y1QFI","People","","2926","","","","","43","43","raamin-ka-0qJBEzudn5E-unsplash.jpg","24","","","","","","","","","","","","","","","","","","","","","","","","","","","","","","","","","","","","","","","",""
"","rating","","html-slider-response","29","1795650","0.0-28.0","0","0","Y1QFI","People","","2925","","","","","41","7","brooke-cagle-HRZUzoX1e6w-unsplash.jpg","25","","","","","","","","","","","","","","","","","","","","","","","","","","","","","","","","","","","","","","","",""
"","rating","","html-slider-response","30","1799155","0.0-29.0","0","0","Y1QFI","People","","3502","","","","","62","40","prince-akachi-4Yv84VgQkRM-unsplash.jpg","26","","","","","","","","","","","","","","","","","","","","","","","","","","","","","","","","","","","","","","","",""
"","rating","","html-slider-response","31","1801844","0.0-30.0","0","0","Y1QFI","People","","2685","","","","","46","22","jessica-radanavong-mrYkTuAesKE-unsplash.jpg","27","","","","","","","","","","","","","","","","","","","","","","","","","","","","","","","","","","","","","","","",""
"","rating","","html-slider-response","32","1804468","0.0-31.0","0","0","Y1QFI","People","","2621","","","","","41","32","nathan-dumlao-ger61_TX6oI-unsplash.jpg","28","","","","","","","","","","","","","","","","","","","","","","","","","","","","","","","","","","","","","","","",""
"","rating","","html-slider-response","33","1807013","0.0-32.0","0","0","Y1QFI","People","","2541","","","","","42","30","matheus-ferrero-pg_WCHWSdT8-unsplash.jpg","29","","","","","","","","","","","","","","","","","","","","","","","","","","","","","","","","","","","","","","","",""
"","rating","","html-slider-response","34","1809556","0.0-33.0","0","0","Y1QFI","People","","2541","","","","","36","41","prince-akachi-i2hoD-C2RUA-unsplash.jpg","30","","","","","","","","","","","","","","","","","","","","","","","","","","","","","","","","","","","","","","","",""
"","rating","","html-slider-response","35","1812579","0.0-34.0","0","0","Y1QFI","People","","3020","","","","","32","29","leilani-angel-K84vnnzxmTQ-unsplash.jpg","31","","","","","","","","","","","","","","","","","","","","","","","","","","","","","","","","","","","","","","","",""
"","rating","","html-slider-response","36","1815206","0.0-35.0","0","0","Y1QFI","People","","2623","","","","","50","24","joel-mott-LaK153ghdig-unsplash.jpg","32","","","","","","","","","","","","","","","","","","","","","","","","","","","","","","","","","","","","","","","",""
"","rating","","html-slider-response","37","1817827","0.0-36.0","0","0","Y1QFI","People","","2619","","","","","42","33","olena-sergienko-0TSd6uCKTKc-unsplash.jpg","33","","","","","","","","","","","","","","","","","","","","","","","","","","","","","","","","","","","","","","","",""
"","rating","","html-slider-response","38","1820917","0.0-37.0","0","0","Y1QFI","People","","3087","","","","","40","21","jessica-felicio-_cvwXhGqG-o-unsplash.jpg","34","","","","","","","","","","","","","","","","","","","","","","","","","","","","","","","","","","","","","","","",""
"","rating","","html-slider-response","39","1826279","0.0-38.0","0","0","Y1QFI","People","","5359","","","","","38","15","gabriel-silverio-u3WmDyKGsrY-unsplash.jpg","35","","","","","","","","","","","","","","","","","","","","","","","","","","","","","","","","","","","","","","","",""
"","rating","","html-slider-response","40","1830151","0.0-39.0","0","0","Y1QFI","People","","3870","","","","","58","47","tyler-nix-ZGa9d1a_4tA-unsplash.jpg","36","","","","","","","","","","","","","","","","","","","","","","","","","","","","","","","","","","","","","","","",""
"","rating","","html-slider-response","41","1837111","0.0-40.0","0","0","Y1QFI","People","","6956","","","","","64","35","oliver-ragfelt-khV4fTy6-D8-unsplash.jpg","37","","","","","","","","","","","","","","","","","","","","","","","","","","","","","","","","","","","","","","","",""
"","rating","","html-slider-response","42","1840024","0.0-41.0","0","0","Y1QFI","People","","2909","","","","","72","11","christian-ferrer-8vT-DgHZDG4-unsplash.jpg","38","","","","","","","","","","","","","","","","","","","","","","","","","","","","","","","","","","","","","","","",""
"","rating","","html-slider-response","43","1844616","0.0-42.0","0","0","Y1QFI","People","","4588","","","","","43","48","velizar-ivanov-7ktP9yZA1g4-unsplash.jpg","39","","","","","","","","","","","","","","","","","","","","","","","","","","","","","","","","","","","","","","","",""
"","rating","","html-slider-response","44","1847514","0.0-43.0","0","0","Y1QFI","People","","2894","","","","","72","13","erik-lucatero-d2MSDujJl2g-unsplash.jpg","40","","","","","","","","","","","","","","","","","","","","","","","","","","","","","","","","","","","","","","","",""
"","rating","","html-slider-response","45","1849819","0.0-44.0","0","0","Y1QFI","People","","2302","","","","","54","10","charles-etoroma-95UF6LXe-Lo-unsplash.jpg","41","","","","","","","","","","","","","","","","","","","","","","","","","","","","","","","","","","","","","","","",""
"","rating","","html-slider-response","46","1852490","0.0-45.0","0","0","Y1QFI","People","","2668","","","","","36","44","rikonavt-HQjfrvdTfak-unsplash.jpg","42","","","","","","","","","","","","","","","","","","","","","","","","","","","","","","","","","","","","","","","",""
"","rating","","html-slider-response","47","1861225","0.0-46.0","0","0","Y1QFI","People","","8733","","","","","62","6","ben-o-bro-C5XyLljkMrY-unsplash.jpg","43","","","","","","","","","","","","","","","","","","","","","","","","","","","","","","","","","","","","","","","",""
"","rating","","html-slider-response","48","1865261","0.0-47.0","0","0","Y1QFI","People","","4032","","","","","63","46","stefan-stefancik-QXevDflbl8A-unsplash.jpg","44","","","","","","","","","","","","","","","","","","","","","","","","","","","","","","","","","","","","","","","",""
"","rating","","html-slider-response","49","1870524","0.0-48.0","0","0","Y1QFI","People","","5259","","","","","59","8","bruce-dixon-3M9WJQVHzog-unsplash.jpg","45","","","","","","","","","","","","","","","","","","","","","","","","","","","","","","","","","","","","","","","",""
"","rating","","html-slider-response","50","1873868","0.0-49.0","0","0","Y1QFI","People","","3340","","","","","68","3","art-hauntington-jzY0KRJopEI-unsplash.jpg","46","","","","","","","","","","","","","","","","","","","","","","","","","","","","","","","","","","","","","","","",""
"","rating","","html-slider-response","51","1876604","0.0-50.0","0","0","Y1QFI","People","","2732","","","","","76","4","barna-bartis-2x3vfVxwR7o-unsplash.jpg","47","","","","","","","","","","","","","","","","","","","","","","","","","","","","","","","","","","","","","","","",""
"","rating","","html-slider-response","52","1881165","0.0-51.0","0","0","Y1QFI","People","","4559","","","","","64","1","aiony-haust-jmATI5Q_YgY-unsplash.jpg","48","","","","","","","","","","","","","","","","","","","","","","","","","","","","","","","","","","","","","","","",""
"","rating","","html-slider-response","53","1883933","0.0-52.0","0","0","Y1QFI","People","","2764","","","","","43","49","vicky-hladynets-_gDoyVv5F4c-unsplash.jpg","49","","","","","","","","","","","","","","","","","","","","","","","","","","","","","","","","","","","","","","","",""
"","deliberation_instructions","","instructions","54","1920887","0.0-53.0-0.0","0","0","Y1QFI","People","[{""page_index"":0,""viewing_time"":5932},{""page_index"":1,""viewing_time"":3232},{""page_index"":2,""viewing_time"":5426},{""page_index"":3,""viewing_time"":20609},{""page_index"":4,""viewing_time"":1750}]","36949","","","","","","","","","","","","","","","","","","","","","","","","","","","","","","","","","","","","","","","","","","","","","","","",""
"","","","survey-multi-choice","55","1951304","0.0-53.0-1.0","0","0","Y1QFI","People","","30404","{""Q0"":""True"",""Q1"":""True"",""Q2"":""Consider carefully and take your time (up to 10 seconds)"",""Q3"":""True"",""Q4"":""D""}","deliberation_comprehension_check","0","","","","","","","","","","","","","","","","","","","","","","","","","","","","","","","","","","","","","","","","","","","","",""
"","start_phase","","html-keyboard-response","56","1953424","0.0-54.0","0","0","Y1QFI","People","","2117","","","","78","","","","","","","","","","","","","","","","","","","","","","","","","","","","","","","","","","","","","","","","","","","",""
"","first_deliberation_block","","html-keyboard-response","57","1955897","0.0-55.0","0","0","Y1QFI","People","","2471","","","","78","","","","","","","","","","","","","","","","","","","","","","","","","","","","","","","","","","","","","","","","","","","",""
"","fixation","","html-keyboard-response","58","1956906","0.0-56.0-0.0","0","0","Y1QFI","People","","null","","","","null","","","","","","","","","","","","","","","","","","","","","","","","","","","","","","","","","","","","","","","","","","","",""
"","deliberation","","html-keyboard-response","59","1958642","0.0-56.0-1.0","0","0","Y1QFI","People","","1732","","","","75","","","","0","32","6","0","1","41","62","nathan-dumlao-ger61_TX6oI-unsplash.jpg","ben-o-bro-C5XyLljkMrY-unsplash.jpg","1","0","6","32","","","","","","","","","","","","","","","","","","","","","","","","","","","",""
"","choice_confirmation","","html-keyboard-response","60","1959145","0.0-56.0-2.0-0.0","0","0","Y1QFI","People","","null","","","","null","","","","0","32","6","","","","","","","","","","","","","","","","","","","","","","","","","","","","","","","","","","","","","",""
"","fixation","","html-keyboard-response","61","1960154","0.0-57.0-0.0","0","0","Y1QFI","People","","null","","","","null","","","","","","","","","","","","","","","","","","","","","","","","","","","","","","","","","","","","","","","","","","","",""
"","deliberation","","html-keyboard-response","62","1961562","0.0-57.0-1.0","0","0","Y1QFI","People","","1406","","","","68","","","","1","49","22","0","-1","43","46","vicky-hladynets-_gDoyVv5F4c-unsplash.jpg","jessica-radanavong-mrYkTuAesKE-unsplash.jpg","1","1","49","22","","","","","","","","","","","","","","","","","","","","","","","","","","","",""
"","choice_confirmation","","html-keyboard-response","63","1962066","0.0-57.0-2.0-0.0","0","0","Y1QFI","People","","null","","","","null","","","","1","49","22","","","","","","","","","","","","","","","","","","","","","","","","","","","","","","","","","","","","","",""
"","fixation","","html-keyboard-response","64","1963074","0.0-58.0-0.0","0","0","Y1QFI","People","","null","","","","null","","","","","","","","","","","","","","","","","","","","","","","","","","","","","","","","","","","","","","","","","","","",""
"","deliberation","","html-keyboard-response","65","1964362","0.0-58.0-1.0","0","0","Y1QFI","People","","1285","","","","75","","","","2","10","24","1","-1","54","50","charles-etoroma-95UF6LXe-Lo-unsplash.jpg","joel-mott-LaK153ghdig-unsplash.jpg","1","0","24","10","","","","","","","","","","","","","","","","","","","","","","","","","","","",""
"","choice_confirmation","","html-keyboard-response","66","1964866","0.0-58.0-2.0-0.0","0","0","Y1QFI","People","","null","","","","null","","","","2","10","24","","","","","","","","","","","","","","","","","","","","","","","","","","","","","","","","","","","","","",""
"","explain_trial","","survey-text","67","1973092","0.0-58.0-5.0-0.0","0","0","Y1QFI","People","","8221","{""Q0"":""Smiling""}","","","","","","","2","10","24","","","","","","","","","","","{""Q0"":""Smiling""}","","","","","","","","","","","","","","","","","","","","","","","","","","",""
"","fixation","","html-keyboard-response","68","1974098","0.0-59.0-0.0","0","0","Y1QFI","People","","null","","","","null","","","","","","","","","","","","","","","","","","","","","","","","","","","","","","","","","","","","","","","","","","","",""
"","deliberation","","html-keyboard-response","69","1976285","0.0-59.0-1.0","0","0","Y1QFI","People","","2184","","","","75","","","","3","39","40","0","-1","61","62","philip-martin-5aGUyCW_PJw-unsplash.jpg","prince-akachi-4Yv84VgQkRM-unsplash.jpg","1","0","40","39","","","","","","","","","","","","","","","","","","","","","","","","","","","",""
"","choice_confirmation","","html-keyboard-response","70","1976794","0.0-59.0-2.0-0.0","0","0","Y1QFI","People","","null","","","","null","","","","3","39","40","","","","","","","","","","","","","","","","","","","","","","","","","","","","","","","","","","","","","",""
"","fixation","","html-keyboard-response","71","1977801","0.0-60.0-0.0","0","0","Y1QFI","People","","null","","","","null","","","","","","","","","","","","","","","","","","","","","","","","","","","","","","","","","","","","","","","","","","","",""
"","deliberation","","html-keyboard-response","72","1979883","0.0-60.0-1.0","0","0","Y1QFI","People","","2079","","","","68","","","","4","34","17","1","1","56","44","oliver-johnson-1TUIcKob7Zs-unsplash.jpg","gleb-lukomets-paBzWCPN23k-unsplash.jpg","1","1","34","17","","","","","","","","","","","","","","","","","","","","","","","","","","","",""
"","choice_confirmation","","html-keyboard-response","73","1980386","0.0-60.0-2.0-0.0","0","0","Y1QFI","People","","null","","","","null","","","","4","34","17","","","","","","","","","","","","","","","","","","","","","","","","","","","","","","","","","","","","","",""
"","explain_trial","","survey-text","74","1989293","0.0-60.0-5.0-0.0","0","0","Y1QFI","People","","8902","{""Q0"":""Clear""}","","","","","","","4","34","17","","","","","","","","","","","{""Q0"":""Clear""}","","","","","","","","","","","","","","","","","","","","","","","","","","",""
"","fixation","","html-keyboard-response","75","1990298","0.0-61.0-0.0","0","0","Y1QFI","People","","null","","","","null","","","","","","","","","","","","","","","","","","","","","","","","","","","","","","","","","","","","","","","","","","","",""
"","deliberation","","html-keyboard-response","76","1991566","0.0-61.0-1.0","0","0","Y1QFI","People","","1265","","","","68","","","","5","47","26","0","1","58","42","tyler-nix-ZGa9d1a_4tA-unsplash.jpg","juri-gianfrancesco-9EZadYaMzk4-unsplash.jpg","1","1","47","26","","","","","","","","","","","","","","","","","","","","","","","","","","","",""
"","choice_confirmation","","html-keyboard-response","77","1992075","0.0-61.0-2.0-0.0","0","0","Y1QFI","People","","null","","","","null","","","","5","47","26","","","","","","","","","","","","","","","","","","","","","","","","","","","","","","","","","","","","","",""
"","fixation","","html-keyboard-response","78","1993081","0.0-62.0-0.0","0","0","Y1QFI","People","","null","","","","null","","","","","","","","","","","","","","","","","","","","","","","","","","","","","","","","","","","","","","","","","","","",""
"","deliberation","","html-keyboard-response","79","1994870","0.0-62.0-1.0","0","0","Y1QFI","People","","1786","","","","68","","","","6","33","9","1","1","42","42","olena-sergienko-0TSd6uCKTKc-unsplash.jpg","carlos-andres-gomez-vJuk8Y86mRw-unsplash.jpg","1","1","33","9","","","","","","","","","","","","","","","","","","","","","","","","","","","",""
"","choice_confirmation","","html-keyboard-response","80","1995379","0.0-62.0-2.0-0.0","0","0","Y1QFI","People","","null","","","","null","","","","6","33","9","","","","","","","","","","","","","","","","","","","","","","","","","","","","","","","","","","","","","",""
"","explain_trial","","survey-text","81","2002926","0.0-62.0-5.0-0.0","0","0","Y1QFI","People","","7544","{""Q0"":""Good looking""}","","","","","","","6","33","9","","","","","","","","","","","{""Q0"":""Good looking""}","","","","","","","","","","","","","","","","","","","","","","","","","","",""
"","fixation","","html-keyboard-response","82","2003930","0.0-63.0-0.0","0","0","Y1QFI","People","","null","","","","null","","","","","","","","","","","","","","","","","","","","","","","","","","","","","","","","","","","","","","","","","","","",""
"","deliberation","","html-keyboard-response","83","2005207","0.0-63.0-1.0","0","0","Y1QFI","People","","1274","","","","68","","","","7","28","30","0","-1","62","42","justin-chen-J7Cf1Gch49E-unsplash.jpg","matheus-ferrero-pg_WCHWSdT8-unsplash.jpg","1","1","28","30","","","","","","","","","","","","","","","","","","","","","","","","","","","",""
"","choice_confirmation","","html-keyboard-response","84","2005714","0.0-63.0-2.0-0.0","0","0","Y1QFI","People","","null","","","","null","","","","7","28","30","","","","","","","","","","","","","","","","","","","","","","","","","","","","","","","","","","","","","",""
"","fixation","","html-keyboard-response","85","2006721","0.0-64.0-0.0","0","0","Y1QFI","People","","null","","","","null","","","","","","","","","","","","","","","","","","","","","","","","","","","","","","","","","","","","","","","","","","","",""
"","deliberation","","html-keyboard-response","86","2008048","0.0-64.0-1.0","0","0","Y1QFI","People","","1325","","","","75","","","","8","48","43","1","1","43","43","velizar-ivanov-7ktP9yZA1g4-unsplash.jpg","raamin-ka-0qJBEzudn5E-unsplash.jpg","1","0","43","48","","","","","","","","","","","","","","","","","","","","","","","","","","","",""
"","choice_confirmation","","html-keyboard-response","87","2008554","0.0-64.0-2.0-0.0","0","0","Y1QFI","People","","null","","","","null","","","","8","48","43","","","","","","","","","","","","","","","","","","","","","","","","","","","","","","","","","","","","","",""
"","explain_trial","","survey-text","88","2025584","0.0-64.0-5.0-0.0","0","0","Y1QFI","People","","17027","{""Q0"":""Looks professional ""}","","","","","","","8","48","43","","","","","","","","","","","{""Q0"":""Looks professional ""}","","","","","","","","","","","","","","","","","","","","","","","","","","",""
"","fixation","","html-keyboard-response","89","2026593","0.0-65.0-0.0","0","0","Y1QFI","People","","null","","","","null","","","","","","","","","","","","","","","","","","","","","","","","","","","","","","","","","","","","","","","","","","","",""
"","deliberation","","html-keyboard-response","90","2028050","0.0-65.0-1.0","0","0","Y1QFI","People","","1455","","","","75","","","","9","42","8","0","1","42","59","prince-akachi-l3IHXOdMyHQ-unsplash.jpg","bruce-dixon-3M9WJQVHzog-unsplash.jpg","1","0","8","42","","","","","","","","","","","","","","","","","","","","","","","","","","","",""
"","choice_confirmation","","html-keyboard-response","91","2028555","0.0-65.0-2.0-0.0","0","0","Y1QFI","People","","null","","","","null","","","","9","42","8","","","","","","","","","","","","","","","","","","","","","","","","","","","","","","","","","","","","","",""
"","fixation","","html-keyboard-response","92","2029562","0.0-66.0-0.0","0","0","Y1QFI","People","","null","","","","null","","","","","","","","","","","","","","","","","","","","","","","","","","","","","","","","","","","","","","","","","","","",""
"","deliberation","","html-keyboard-response","93","2030954","0.0-66.0-1.0","0","0","Y1QFI","People","","1391","","","","75","","","","10","23","25","1","-1","42","63","joanna-nix-walkup-H4fEMshfwTE-unsplash.jpg","joseph-gonzalez-iFgRcqHznqg-unsplash.jpg","1","0","25","23","","","","","","","","","","","","","","","","","","","","","","","","","","","",""
"","choice_confirmation","","html-keyboard-response","94","2031458","0.0-66.0-2.0-0.0","0","0","Y1QFI","People","","null","","","","null","","","","10","23","25","","","","","","","","","","","","","","","","","","","","","","","","","","","","","","","","","","","","","",""
"","explain_trial","","survey-text","95","2042066","0.0-66.0-5.0-0.0","0","0","Y1QFI","People","","10606","{""Q0"":""Looks confident""}","","","","","","","10","23","25","","","","","","","","","","","{""Q0"":""Looks confident""}","","","","","","","","","","","","","","","","","","","","","","","","","","",""
"","fixation","","html-keyboard-response","96","2043073","0.0-67.0-0.0","0","0","Y1QFI","People","","null","","","","null","","","","","","","","","","","","","","","","","","","","","","","","","","","","","","","","","","","","","","","","","","","",""
"","deliberation","","html-keyboard-response","97","2044638","0.0-67.0-1.0","0","0","Y1QFI","People","","1562","","","","75","","","","11","20","0","1","-1","62","58","houcine-ncib-B4TjXnI0Y2c-unsplash.jpg","abstral-official-cyOKLSgkgCE-unsplash.jpg","1","0","0","20","","","","","","","","","","","","","","","","","","","","","","","","","","","",""
"","choice_confirmation","","html-keyboard-response","98","2045148","0.0-67.0-2.0-0.0","0","0","Y1QFI","People","","null","","","","null","","","","11","20","0","","","","","","","","","","","","","","","","","","","","","","","","","","","","","","","","","","","","","",""
"","explain_trial","","survey-text","99","2054677","0.0-67.0-5.0-0.0","0","0","Y1QFI","People","","9527","{""Q0"":""Looks good""}","","","","","","","11","20","0","","","","","","","","","","","{""Q0"":""Looks good""}","","","","","","","","","","","","","","","","","","","","","","","","","","",""
"","practice_deliberation_again","","html-keyboard-response","100","2056904","0.0-67.0-6.0-0.0","0","0","Y1QFI","People","","2224","","","","78","","","","","","","","","","","","","","","","","","","","","","","","","","","","","","","","","","","","","","","","","","","",""
"","fixation","","html-keyboard-response","101","2057906","0.0-68.0-0.0","0","0","Y1QFI","People","","null","","","","null","","","","","","","","","","","","","","","","","","","","","","","","","","","","","","","","","","","","","","","","","","","",""
"","deliberation","","html-keyboard-response","102","2059182","0.0-68.0-1.0","0","0","Y1QFI","People","","1274","","","","68","","","","12","34","17","0","1","56","44","oliver-johnson-1TUIcKob7Zs-unsplash.jpg","gleb-lukomets-paBzWCPN23k-unsplash.jpg","2","1","34","17","","","","","","","","","","","","","","","","","","","","","","","","","","","",""
"","choice_confirmation","","html-keyboard-response","103","2059691","0.0-68.0-2.0-0.0","0","0","Y1QFI","People","","null","","","","null","","","","12","34","17","","","","","","","","","","","","","","","","","","","","","","","","","","","","","","","","","","","","","",""
"","fixation","","html-keyboard-response","104","2060699","0.0-69.0-0.0","0","0","Y1QFI","People","","null","","","","null","","","","","","","","","","","","","","","","","","","","","","","","","","","","","","","","","","","","","","","","","","","",""
"","deliberation","","html-keyboard-response","105","2061752","0.0-69.0-1.0","0","0","Y1QFI","People","","1051","","","","75","","","","13","42","8","1","1","42","59","prince-akachi-l3IHXOdMyHQ-unsplash.jpg","bruce-dixon-3M9WJQVHzog-unsplash.jpg","2","0","8","42","","","","","","","","","","","","","","","","","","","","","","","","","","","",""
"","choice_confirmation","","html-keyboard-response","106","2062259","0.0-69.0-2.0-0.0","0","0","Y1QFI","People","","null","","","","null","","","","13","42","8","","","","","","","","","","","","","","","","","","","","","","","","","","","","","","","","","","","","","",""
"","explain_trial","","survey-text","107","2078135","0.0-69.0-5.0-0.0","0","0","Y1QFI","People","","15872","{""Q0"":""Looks good compose""}","","","","","","","13","42","8","","","","","","","","","","","{""Q0"":""Looks good compose""}","","","","","","","","","","","","","","","","","","","","","","","","","","",""
"","fixation","","html-keyboard-response","108","2079139","0.0-70.0-0.0","0","0","Y1QFI","People","","null","","","","null","","","","","","","","","","","","","","","","","","","","","","","","","","","","","","","","","","","","","","","","","","","",""
"","deliberation","","html-keyboard-response","109","2080371","0.0-70.0-1.0","0","0","Y1QFI","People","","1229","","","","75","","","","14","20","0","0","-1","62","58","houcine-ncib-B4TjXnI0Y2c-unsplash.jpg","abstral-official-cyOKLSgkgCE-unsplash.jpg","2","0","0","20","","","","","","","","","","","","","","","","","","","","","","","","","","","",""
"","choice_confirmation","","html-keyboard-response","110","2080875","0.0-70.0-2.0-0.0","0","0","Y1QFI","People","","null","","","","null","","","","14","20","0","","","","","","","","","","","","","","","","","","","","","","","","","","","","","","","","","","","","","",""
"","fixation","","html-keyboard-response","111","2081883","0.0-71.0-0.0","0","0","Y1QFI","People","","null","","","","null","","","","","","","","","","","","","","","","","","","","","","","","","","","","","","","","","","","","","","","","","","","",""
"","deliberation","","html-keyboard-response","112","2083106","0.0-71.0-1.0","0","0","Y1QFI","People","","1221","","","","68","","","","15","49","22","1","-1","43","46","vicky-hladynets-_gDoyVv5F4c-unsplash.jpg","jessica-radanavong-mrYkTuAesKE-unsplash.jpg","2","1","49","22","","","","","","","","","","","","","","","","","","","","","","","","","","","",""
"","choice_confirmation","","html-keyboard-response","113","2083611","0.0-71.0-2.0-0.0","0","0","Y1QFI","People","","null","","","","null","","","","15","49","22","","","","","","","","","","","","","","","","","","","","","","","","","","","","","","","","","","","","","",""
"","explain_trial","","survey-text","114","2095258","0.0-71.0-5.0-0.0","0","0","Y1QFI","People","","11644","{""Q0"":""Good lighting""}","","","","","","","15","49","22","","","","","","","","","","","{""Q0"":""Good lighting""}","","","","","","","","","","","","","","","","","","","","","","","","","","",""
"","fixation","","html-keyboard-response","115","2096268","0.0-72.0-0.0","0","0","Y1QFI","People","","null","","","","null","","","","","","","","","","","","","","","","","","","","","","","","","","","","","","","","","","","","","","","","","","","",""
"","deliberation","","html-keyboard-response","116","2097508","0.0-72.0-1.0","0","0","Y1QFI","People","","1238","","","","75","","","","16","48","43","0","1","43","43","velizar-ivanov-7ktP9yZA1g4-unsplash.jpg","raamin-ka-0qJBEzudn5E-unsplash.jpg","2","0","43","48","","","","","","","","","","","","","","","","","","","","","","","","","","","",""
"","choice_confirmation","","html-keyboard-response","117","2098020","0.0-72.0-2.0-0.0","0","0","Y1QFI","People","","null","","","","null","","","","16","48","43","","","","","","","","","","","","","","","","","","","","","","","","","","","","","","","","","","","","","",""
"","fixation","","html-keyboard-response","118","2099027","0.0-73.0-0.0","0","0","Y1QFI","People","","null","","","","null","","","","","","","","","","","","","","","","","","","","","","","","","","","","","","","","","","","","","","","","","","","",""
"","deliberation","","html-keyboard-response","119","2100125","0.0-73.0-1.0","0","0","Y1QFI","People","","1095","","","","68","","","","17","28","30","1","-1","62","42","justin-chen-J7Cf1Gch49E-unsplash.jpg","matheus-ferrero-pg_WCHWSdT8-unsplash.jpg","2","1","28","30","","","","","","","","","","","","","","","","","","","","","","","","","","","",""
"","choice_confirmation","","html-keyboard-response","120","2100635","0.0-73.0-2.0-0.0","0","0","Y1QFI","People","","null","","","","null","","","","17","28","30","","","","","","","","","","","","","","","","","","","","","","","","","","","","","","","","","","","","","",""
"","explain_trial","","survey-text","121","2116413","0.0-73.0-5.0-0.0","0","0","Y1QFI","People","","15775","{""Q0"":""Great visible""}","","","","","","","17","28","30","","","","","","","","","","","{""Q0"":""Great visible""}","","","","","","","","","","","","","","","","","","","","","","","","","","",""
"","fixation","","html-keyboard-response","122","2117419","0.0-74.0-0.0","0","0","Y1QFI","People","","null","","","","null","","","","","","","","","","","","","","","","","","","","","","","","","","","","","","","","","","","","","","","","","","","",""
"","deliberation","","html-keyboard-response","123","2119309","0.0-74.0-1.0","0","0","Y1QFI","People","","1887","","","","68","","","","18","39","40","1","-1","61","62","philip-martin-5aGUyCW_PJw-unsplash.jpg","prince-akachi-4Yv84VgQkRM-unsplash.jpg","2","1","39","40","","","","","","","","","","","","","","","","","","","","","","","","","","","",""
"","choice_confirmation","","html-keyboard-response","124","2119820","0.0-74.0-2.0-0.0","0","0","Y1QFI","People","","null","","","","null","","","","18","39","40","","","","","","","","","","","","","","","","","","","","","","","","","","","","","","","","","","","","","",""
"","explain_trial","","survey-text","125","2506723","0.0-74.0-5.0-0.0","0","0","Y1QFI","People","","386899","{""Q0"":""Good compose""}","","","","","","","18","39","40","","","","","","","","","","","{""Q0"":""Good compose""}","","","","","","","","","","","","","","","","","","","","","","","","","","",""
"","fixation","","html-keyboard-response","126","2507727","0.0-75.0-0.0","0","0","Y1QFI","People","","null","","","","null","","","","","","","","","","","","","","","","","","","","","","","","","","","","","","","","","","","","","","","","","","","",""
"","deliberation","","html-keyboard-response","127","2508963","0.0-75.0-1.0","0","0","Y1QFI","People","","1233","","","","75","","","","19","32","6","1","1","41","62","nathan-dumlao-ger61_TX6oI-unsplash.jpg","ben-o-bro-C5XyLljkMrY-unsplash.jpg","2","0","6","32","","","","","","","","","","","","","","","","","","","","","","","","","","","",""
"","choice_confirmation","","html-keyboard-response","128","2509471","0.0-75.0-2.0-0.0","0","0","Y1QFI","People","","null","","","","null","","","","19","32","6","","","","","","","","","","","","","","","","","","","","","","","","","","","","","","","","","","","","","",""
"","explain_trial","","survey-text","129","2516533","0.0-75.0-5.0-0.0","0","0","Y1QFI","People","","7058","{""Q0"":""Good smile""}","","","","","","","19","32","6","","","","","","","","","","","{""Q0"":""Good smile""}","","","","","","","","","","","","","","","","","","","","","","","","","","",""
"","fixation","","html-keyboard-response","130","2517544","0.0-76.0-0.0","0","0","Y1QFI","People","","null","","","","null","","","","","","","","","","","","","","","","","","","","","","","","","","","","","","","","","","","","","","","","","","","",""
"","deliberation","","html-keyboard-response","131","2518036","0.0-76.0-1.0","0","0","Y1QFI","People","","489","","","","68","","","","20","10","24","0","-1","54","50","charles-etoroma-95UF6LXe-Lo-unsplash.jpg","joel-mott-LaK153ghdig-unsplash.jpg","2","1","10","24","","","","","","","","","","","","","","","","","","","","","","","","","","","",""
"","choice_confirmation","","html-keyboard-response","132","2518543","0.0-76.0-2.0-0.0","0","0","Y1QFI","People","","null","","","","null","","","","20","10","24","","","","","","","","","","","","","","","","","","","","","","","","","","","","","","","","","","","","","",""
"","fixation","","html-keyboard-response","133","2519552","0.0-77.0-0.0","0","0","Y1QFI","People","","null","","","","null","","","","","","","","","","","","","","","","","","","","","","","","","","","","","","","","","","","","","","","","","","","",""
"","deliberation","","html-keyboard-response","134","2521459","0.0-77.0-1.0","0","0","Y1QFI","People","","1905","","","","75","","","","21","33","9","0","1","42","42","olena-sergienko-0TSd6uCKTKc-unsplash.jpg","carlos-andres-gomez-vJuk8Y86mRw-unsplash.jpg","2","0","9","33","","","","","","","","","","","","","","","","","","","","","","","","","","","",""
"","choice_confirmation","","html-keyboard-response","135","2521968","0.0-77.0-2.0-0.0","0","0","Y1QFI","People","","null","","","","null","","","","21","33","9","","","","","","","","","","","","","","","","","","","","","","","","","","","","","","","","","","","","","",""
"","fixation","","html-keyboard-response","136","2522975","0.0-78.0-0.0","0","0","Y1QFI","People","","null","","","","null","","","","","","","","","","","","","","","","","","","","","","","","","","","","","","","","","","","","","","","","","","","",""
"","deliberation","","html-keyboard-response","137","2524220","0.0-78.0-1.0","0","0","Y1QFI","People","","1244","","","","75","","","","22","23","25","0","-1","42","63","joanna-nix-walkup-H4fEMshfwTE-unsplash.jpg","joseph-gonzalez-iFgRcqHznqg-unsplash.jpg","2","0","25","23","","","","","","","","","","","","","","","","","","","","","","","","","","","",""
"","choice_confirmation","","html-keyboard-response","138","2524727","0.0-78.0-2.0-0.0","0","0","Y1QFI","People","","null","","","","null","","","","22","23","25","","","","","","","","","","","","","","","","","","","","","","","","","","","","","","","","","","","","","",""
"","fixation","","html-keyboard-response","139","2525736","0.0-79.0-0.0","0","0","Y1QFI","People","","null","","","","null","","","","","","","","","","","","","","","","","","","","","","","","","","","","","","","","","","","","","","","","","","","",""
"","deliberation","","html-keyboard-response","140","2527084","0.0-79.0-1.0","0","0","Y1QFI","People","","1347","","","","68","","","","23","47","26","1","1","58","42","tyler-nix-ZGa9d1a_4tA-unsplash.jpg","juri-gianfrancesco-9EZadYaMzk4-unsplash.jpg","2","1","47","26","","","","","","","","","","","","","","","","","","","","","","","","","","","",""
"","choice_confirmation","","html-keyboard-response","141","2527592","0.0-79.0-2.0-0.0","0","0","Y1QFI","People","","null","","","","null","","","","23","47","26","","","","","","","","","","","","","","","","","","","","","","","","","","","","","","","","","","","","","",""
"","explain_trial","","survey-text","142","2535253","0.0-79.0-5.0-0.0","0","0","Y1QFI","People","","7658","{""Q0"":""Clear image""}","","","","","","","23","47","26","","","","","","","","","","","{""Q0"":""Clear image""}","","","","","","","","","","","","","","","","","","","","","","","","","","",""
"","start_critical_deliberation_block","","html-keyboard-response","143","2627587","0.0-79.0-7.0-0.0","0","0","Y1QFI","People","","92332","","","","78","","","","","","","","","","","","","","","","","","","","","","","","","","","","","","","","","","","","","","","","","","","",""
"","fixation","","html-keyboard-response","144","2628593","0.0-80.0-0.0","0","0","Y1QFI","People","","null","","","","null","","","","","","","","","","","","","","","","","","","","","","","","","","","","","","","","","","","","","","","","","","","",""
"","deliberation","","html-keyboard-response","145","2629827","0.0-80.0-1.0","0","0","Y1QFI","People","","1232","","","","75","","","","24","32","6","0","1","41","62","nathan-dumlao-ger61_TX6oI-unsplash.jpg","ben-o-bro-C5XyLljkMrY-unsplash.jpg","3","0","6","32","","","","","","","","","","","","","","","","","","","","","","","","","","","",""
"","choice_confirmation","","html-keyboard-response","146","2630337","0.0-80.0-2.0-0.0","0","0","Y1QFI","People","","null","","","","null","","","","24","32","6","","","","","","","","","","","","","","","","","","","","","","","","","","","","","","","","","","","","","",""
"","fixation","","html-keyboard-response","147","2631345","0.0-81.0-0.0","0","0","Y1QFI","People","","null","","","","null","","","","","","","","","","","","","","","","","","","","","","","","","","","","","","","","","","","","","","","","","","","",""
"","deliberation","","html-keyboard-response","148","2641353","0.0-81.0-1.0","0","0","Y1QFI","People","","null","","","","null","","","","25","48","43","0","1","43","43","velizar-ivanov-7ktP9yZA1g4-unsplash.jpg","raamin-ka-0qJBEzudn5E-unsplash.jpg","3","","","","","","","","","","","","","","","","","","","","","","","","","","","","","","",""
"","deliberation_too_slow","","html-keyboard-response","149","2642857","0.0-81.0-4.0-0.0","1","0","Y1QFI","People","","null","","","","null","","","","25","","","","","","","","","","","","","","","","","","","","","","","","","","","","","","","","","","","","","","","",""
"","fixation","","html-keyboard-response","150","2643865","0.0-81.1-0.1","0","0","Y1QFI","People","","null","","","","null","","","","","","","","","","","","","","","","","","","","","","","","","","","","","","","","","","","","","","","","","","","",""
"","deliberation","","html-keyboard-response","151","2645165","0.0-81.1-1.1","0","0","Y1QFI","People","","1297","","","","75","","","","25","48","43","0","1","43","43","velizar-ivanov-7ktP9yZA1g4-unsplash.jpg","raamin-ka-0qJBEzudn5E-unsplash.jpg","3","0","43","48","","","","","","","","","","","","","","","","","","","","","","","","","","","",""
"","choice_confirmation","","html-keyboard-response","152","2645673","0.0-81.1-2.1-0.1","0","0","Y1QFI","People","","null","","","","null","","","","25","48","43","","","","","","","","","","","","","","","","","","","","","","","","","","","","","","","","","","","","","",""
"","fixation","","html-keyboard-response","153","2646680","0.0-82.0-0.0","0","0","Y1QFI","People","","null","","","","null","","","","","","","","","","","","","","","","","","","","","","","","","","","","","","","","","","","","","","","","","","","",""
"","deliberation","","html-keyboard-response","154","2648020","0.0-82.0-1.0","0","0","Y1QFI","People","","1337","","","","75","","","","26","23","25","0","-1","42","63","joanna-nix-walkup-H4fEMshfwTE-unsplash.jpg","joseph-gonzalez-iFgRcqHznqg-unsplash.jpg","3","0","25","23","","","","","","","","","","","","","","","","","","","","","","","","","","","",""
"","choice_confirmation","","html-keyboard-response","155","2648529","0.0-82.0-2.0-0.0","0","0","Y1QFI","People","","null","","","","null","","","","26","23","25","","","","","","","","","","","","","","","","","","","","","","","","","","","","","","","","","","","","","",""
"","fixation","","html-keyboard-response","156","2649537","0.0-83.0-0.0","0","0","Y1QFI","People","","null","","","","null","","","","","","","","","","","","","","","","","","","","","","","","","","","","","","","","","","","","","","","","","","","",""
"","deliberation","","html-keyboard-response","157","2651877","0.0-83.0-1.0","0","0","Y1QFI","People","","2338","","","","68","","","","27","49","22","0","-1","43","46","vicky-hladynets-_gDoyVv5F4c-unsplash.jpg","jessica-radanavong-mrYkTuAesKE-unsplash.jpg","3","1","49","22","","","","","","","","","","","","","","","","","","","","","","","","","","","",""
"","choice_confirmation","","html-keyboard-response","158","2652384","0.0-83.0-2.0-0.0","0","0","Y1QFI","People","","null","","","","null","","","","27","49","22","","","","","","","","","","","","","","","","","","","","","","","","","","","","","","","","","","","","","",""
"","fixation","","html-keyboard-response","159","2653393","0.0-84.0-0.0","0","0","Y1QFI","People","","null","","","","null","","","","","","","","","","","","","","","","","","","","","","","","","","","","","","","","","","","","","","","","","","","",""
"","deliberation","","html-keyboard-response","160","2656022","0.0-84.0-1.0","0","0","Y1QFI","People","","2627","","","","75","","","","28","33","9","0","1","42","42","olena-sergienko-0TSd6uCKTKc-unsplash.jpg","carlos-andres-gomez-vJuk8Y86mRw-unsplash.jpg","3","0","9","33","","","","","","","","","","","","","","","","","","","","","","","","","","","",""
"","choice_confirmation","","html-keyboard-response","161","2656529","0.0-84.0-2.0-0.0","0","0","Y1QFI","People","","null","","","","null","","","","28","33","9","","","","","","","","","","","","","","","","","","","","","","","","","","","","","","","","","","","","","",""
"","fixation","","html-keyboard-response","162","2657537","0.0-85.0-0.0","0","0","Y1QFI","People","","null","","","","null","","","","","","","","","","","","","","","","","","","","","","","","","","","","","","","","","","","","","","","","","","","",""
"","deliberation","","html-keyboard-response","163","2658806","0.0-85.0-1.0","0","0","Y1QFI","People","","1266","","","","68","","","","29","28","30","0","-1","62","42","justin-chen-J7Cf1Gch49E-unsplash.jpg","matheus-ferrero-pg_WCHWSdT8-unsplash.jpg","3","1","28","30","","","","","","","","","","","","","","","","","","","","","","","","","","","",""
"","choice_confirmation","","html-keyboard-response","164","2659313","0.0-85.0-2.0-0.0","0","0","Y1QFI","People","","null","","","","null","","","","29","28","30","","","","","","","","","","","","","","","","","","","","","","","","","","","","","","","","","","","","","",""
"","fixation","","html-keyboard-response","165","2660321","0.0-86.0-0.0","0","0","Y1QFI","People","","null","","","","null","","","","","","","","","","","","","","","","","","","","","","","","","","","","","","","","","","","","","","","","","","","",""
"","deliberation","","html-keyboard-response","166","2661447","0.0-86.0-1.0","0","0","Y1QFI","People","","1124","","","","68","","","","30","39","40","0","-1","61","62","philip-martin-5aGUyCW_PJw-unsplash.jpg","prince-akachi-4Yv84VgQkRM-unsplash.jpg","3","1","39","40","","","","","","","","","","","","","","","","","","","","","","","","","","","",""
"","choice_confirmation","","html-keyboard-response","167","2661953","0.0-86.0-2.0-0.0","0","0","Y1QFI","People","","null","","","","null","","","","30","39","40","","","","","","","","","","","","","","","","","","","","","","","","","","","","","","","","","","","","","",""
"","fixation","","html-keyboard-response","168","2662960","0.0-87.0-0.0","0","0","Y1QFI","People","","null","","","","null","","","","","","","","","","","","","","","","","","","","","","","","","","","","","","","","","","","","","","","","","","","",""
"","deliberation","","html-keyboard-response","169","2664191","0.0-87.0-1.0","0","0","Y1QFI","People","","1229","","","","75","","","","31","10","24","0","-1","54","50","charles-etoroma-95UF6LXe-Lo-unsplash.jpg","joel-mott-LaK153ghdig-unsplash.jpg","3","0","24","10","","","","","","","","","","","","","","","","","","","","","","","","","","","",""
"","choice_confirmation","","html-keyboard-response","170","2664697","0.0-87.0-2.0-0.0","0","0","Y1QFI","People","","null","","","","null","","","","31","10","24","","","","","","","","","","","","","","","","","","","","","","","","","","","","","","","","","","","","","",""
"","fixation","","html-keyboard-response","171","2665706","0.0-88.0-0.0","0","0","Y1QFI","People","","null","","","","null","","","","","","","","","","","","","","","","","","","","","","","","","","","","","","","","","","","","","","","","","","","",""
"","deliberation","","html-keyboard-response","172","2667535","0.0-88.0-1.0","0","0","Y1QFI","People","","1827","","","","75","","","","32","20","0","0","-1","62","58","houcine-ncib-B4TjXnI0Y2c-unsplash.jpg","abstral-official-cyOKLSgkgCE-unsplash.jpg","3","0","0","20","","","","","","","","","","","","","","","","","","","","","","","","","","","",""
"","choice_confirmation","","html-keyboard-response","173","2668041","0.0-88.0-2.0-0.0","0","0","Y1QFI","People","","null","","","","null","","","","32","20","0","","","","","","","","","","","","","","","","","","","","","","","","","","","","","","","","","","","","","",""
"","fixation","","html-keyboard-response","174","2669049","0.0-89.0-0.0","0","0","Y1QFI","People","","null","","","","null","","","","","","","","","","","","","","","","","","","","","","","","","","","","","","","","","","","","","","","","","","","",""
"","deliberation","","html-keyboard-response","175","2670223","0.0-89.0-1.0","0","0","Y1QFI","People","","1173","","","","75","","","","33","42","8","0","1","42","59","prince-akachi-l3IHXOdMyHQ-unsplash.jpg","bruce-dixon-3M9WJQVHzog-unsplash.jpg","3","0","8","42","","","","","","","","","","","","","","","","","","","","","","","","","","","",""
"","choice_confirmation","","html-keyboard-response","176","2670729","0.0-89.0-2.0-0.0","0","0","Y1QFI","People","","null","","","","null","","","","33","42","8","","","","","","","","","","","","","","","","","","","","","","","","","","","","","","","","","","","","","",""
"","fixation","","html-keyboard-response","177","2671737","0.0-90.0-0.0","0","0","Y1QFI","People","","null","","","","null","","","","","","","","","","","","","","","","","","","","","","","","","","","","","","","","","","","","","","","","","","","",""
"","deliberation","","html-keyboard-response","178","2681225","0.0-90.0-1.0","0","0","Y1QFI","People","","9486","","","","68","","","","34","47","26","0","1","58","42","tyler-nix-ZGa9d1a_4tA-unsplash.jpg","juri-gianfrancesco-9EZadYaMzk4-unsplash.jpg","3","1","47","26","","","","","","","","","","","","","","","","","","","","","","","","","","","",""
"","choice_confirmation","","html-keyboard-response","179","2681728","0.0-90.0-2.0-0.0","0","0","Y1QFI","People","","null","","","","null","","","","34","47","26","","","","","","","","","","","","","","","","","","","","","","","","","","","","","","","","","","","","","",""
"","fixation","","html-keyboard-response","180","2682737","0.0-91.0-0.0","0","0","Y1QFI","People","","null","","","","null","","","","","","","","","","","","","","","","","","","","","","","","","","","","","","","","","","","","","","","","","","","",""
"","deliberation","","html-keyboard-response","181","2683937","0.0-91.0-1.0","0","0","Y1QFI","People","","1196","","","","75","","","","35","34","17","0","1","56","44","oliver-johnson-1TUIcKob7Zs-unsplash.jpg","gleb-lukomets-paBzWCPN23k-unsplash.jpg","3","0","17","34","","","","","","","","","","","","","","","","","","","","","","","","","","","",""
"","choice_confirmation","","html-keyboard-response","182","2684456","0.0-91.0-2.0-0.0","0","0","Y1QFI","People","","null","","","","null","","","","35","34","17","","","","","","","","","","","","","","","","","","","","","","","","","","","","","","","","","","","","","",""
"","reward_learning_instructions","","instructions","183","2695786","0.0-92.0-0.0","0","0","Y1QFI","People","[{""page_index"":0,""viewing_time"":6832},{""page_index"":1,""viewing_time"":2417},{""page_index"":2,""viewing_time"":2079}]","11328","","","","","","","","","","","","","","","","","","","","","","","","","","","","","","","","","","","","","","","","","","","","","","","",""
"","","","survey-multi-choice","184","2707884","0.0-92.0-1.0","0","0","Y1QFI","People","","12091","{""Q0"":""True"",""Q1"":""True"",""Q2"":""Press the space bar to see its outcome"",""Q3"":""Press the relevant key while the outcome is presented""}","reward_comprehension_check","0","","","","","","","","","","","","","","","","","","","","","","","","","","","","","","","","","","","","","","","","","","","","",""
"","start_phase","","html-keyboard-response","185","2710494","0.0-93.0","0","0","Y1QFI","People","","2607","","","","78","","","","","","","","","","","","","","","","","","","","","","","","","","","","","","","","","","","","","","","","","","","",""
"","fixation","","html-keyboard-response","186","2711499","0.0-94.0","0","0","Y1QFI","People","","null","","","","null","","","","","","","","","","","","","","","","","","","","","","","","","","","","","","","","","","","","","","","","","","","",""
"","see_reward","","html-keyboard-response","187","2713271","0.0-95.0","0","0","Y1QFI","People","","1769","","","","32","","9","","0","","","","1","","","","","1","","","","","159","1769","","","","","","","","","","","","","","","","","","","","","","","","",""
"","reward_outcome","","html-keyboard-response","188","2715283","0.0-96.0","0","0","Y1QFI","People","","1189","","","","38","","9","","0","","","","","","","","","","","","","","","","1","1189","","","","","","","","","","","","","","","","","","","","","","",""
"","fixation","","html-keyboard-response","189","2716290","0.0-99.0","0","0","Y1QFI","People","","null","","","","null","","","","","","","","","","","","","","","","","","","","","","","","","","","","","","","","","","","","","","","","","","","",""
"","see_reward","","html-keyboard-response","190","2717278","0.0-100.0","0","0","Y1QFI","People","","986","","","","32","","9","","1","","","","1","","","","","1","","","","","159","986","","","","","","","","","","","","","","","","","","","","","","","","",""
"","reward_outcome","","html-keyboard-response","191","2719283","0.0-101.0","0","0","Y1QFI","People","","575","","","","38","","9","","1","","","","","","","","","","","","","","","","1","575","","","","","","","","","","","","","","","","","","","","","","",""
"","fixation","","html-keyboard-response","192","2720291","0.0-104.0","0","0","Y1QFI","People","","null","","","","null","","","","","","","","","","","","","","","","","","","","","","","","","","","","","","","","","","","","","","","","","","","",""
"","see_reward","","html-keyboard-response","193","2721462","0.0-105.0","0","0","Y1QFI","People","","1169","","","","32","","39","","2","","","","-1","","","","","1","","","","","0","1169","","","","","","","","","","","","","","","","","","","","","","","","",""
"","reward_outcome","","html-keyboard-response","194","2723466","0.0-106.0","0","0","Y1QFI","People","","895","","","","40","","39","","2","","","","","","","","","","","","","","","","-1","895","","","","","","","","","","","","","","","","","","","","","","",""
"","fixation","","html-keyboard-response","195","2724475","0.0-109.0","0","0","Y1QFI","People","","null","","","","null","","","","","","","","","","","","","","","","","","","","","","","","","","","","","","","","","","","","","","","","","","","",""
"","see_reward","","html-keyboard-response","196","2726311","0.0-110.0","0","0","Y1QFI","People","","1834","","","","32","","28","","3","","","","-1","","","","","1","","","","","0","1834","","","","","","","","","","","","","","","","","","","","","","","","",""
"","reward_outcome","","html-keyboard-response","197","2728323","0.0-111.0","0","0","Y1QFI","People","","911","","","","40","","28","","3","","","","","","","","","","","","","","","","-1","911","","","","","","","","","","","","","","","","","","","","","","",""
"","fixation","","html-keyboard-response","198","2729330","0.0-114.0","0","0","Y1QFI","People","","null","","","","null","","","","","","","","","","","","","","","","","","","","","","","","","","","","","","","","","","","","","","","","","","","",""
"","see_reward","","html-keyboard-response","199","2730720","0.0-115.0","0","0","Y1QFI","People","","1388","","","","32","","43","","4","","","","1","","","","","1","","","","","156","1388","","","","","","","","","","","","","","","","","","","","","","","","",""
"","reward_outcome","","html-keyboard-response","200","2732730","0.0-116.0","0","0","Y1QFI","People","","1759","","","","38","","43","","4","","","","","","","","","","","","","","","","1","1759","","","","","","","","","","","","","","","","","","","","","","",""
"","fixation","","html-keyboard-response","201","2733739","0.0-119.0","0","0","Y1QFI","People","","null","","","","null","","","","","","","","","","","","","","","","","","","","","","","","","","","","","","","","","","","","","","","","","","","",""
"","see_reward","","html-keyboard-response","202","2738810","0.0-120.0","0","0","Y1QFI","People","","5068","","","","32","","49","","5","","","","-1","","","","","1","","","","","0","5068","","","","","","","","","","","","","","","","","","","","","","","","",""
"","reward_outcome","","html-keyboard-response","203","2740819","0.0-121.0","0","0","Y1QFI","People","","885","","","","40","","49","","5","","","","","","","","","","","","","","","","-1","885","","","","","","","","","","","","","","","","","","","","","","",""
"","fixation","","html-keyboard-response","204","2741826","0.0-124.0","0","0","Y1QFI","People","","null","","","","null","","","","","","","","","","","","","","","","","","","","","","","","","","","","","","","","","","","","","","","","","","","",""
"","see_reward","","html-keyboard-response","205","2743403","0.0-125.0","0","0","Y1QFI","People","","1573","","","","32","","0","","6","","","","-1","","","","","1","","","","","0","1573","","","","","","","","","","","","","","","","","","","","","","","","",""
"","reward_outcome","","html-keyboard-response","206","2745410","0.0-126.0","0","0","Y1QFI","People","","637","","","","38","","0","","6","","","","","","","","","","","","","","","","1","637","","","","","","","","","","","","","","","","","","","","","","",""
"","fixation","","html-keyboard-response","207","2746418","0.0-129.0","0","0","Y1QFI","People","","null","","","","null","","","","","","","","","","","","","","","","","","","","","","","","","","","","","","","","","","","","","","","","","","","",""
"","see_reward","","html-keyboard-response","208","2747363","0.0-130.0","0","0","Y1QFI","People","","942","","","","32","","24","","7","","","","-1","","","","","1","","","","","0","942","","","","","","","","","","","","","","","","","","","","","","","","",""
"","reward_outcome","","html-keyboard-response","209","2749371","0.0-131.0","0","0","Y1QFI","People","","916","","","","40","","24","","7","","","","","","","","","","","","","","","","-1","916","","","","","","","","","","","","","","","","","","","","","","",""
"","fixation","","html-keyboard-response","210","2750379","0.0-134.0","0","0","Y1QFI","People","","null","","","","null","","","","","","","","","","","","","","","","","","","","","","","","","","","","","","","","","","","","","","","","","","","",""
"","see_reward","","html-keyboard-response","211","2751516","0.0-135.0","0","0","Y1QFI","People","","1135","","","","32","","24","","8","","","","-1","","","","","1","","","","","0","1135","","","","","","","","","","","","","","","","","","","","","","","","",""
"","reward_outcome","","html-keyboard-response","212","2753523","0.0-136.0","0","0","Y1QFI","People","","621","","","","40","","24","","8","","","","","","","","","","","","","","","","-1","621","","","","","","","","","","","","","","","","","","","","","","",""
"","fixation","","html-keyboard-response","213","2754531","0.0-139.0","0","0","Y1QFI","People","","null","","","","null","","","","","","","","","","","","","","","","","","","","","","","","","","","","","","","","","","","","","","","","","","","",""
"","see_reward","","html-keyboard-response","214","2755838","0.0-140.0","0","0","Y1QFI","People","","1305","","","","32","","47","","9","","","","1","","","","","1","","","","","153","1305","","","","","","","","","","","","","","","","","","","","","","","","",""
"","reward_outcome","","html-keyboard-response","215","2757843","0.0-141.0","0","0","Y1QFI","People","","684","","","","38","","47","","9","","","","","","","","","","","","","","","","1","684","","","","","","","","","","","","","","","","","","","","","","",""
"","fixation","","html-keyboard-response","216","2758851","0.0-144.0","0","0","Y1QFI","People","","null","","","","null","","","","","","","","","","","","","","","","","","","","","","","","","","","","","","","","","","","","","","","","","","","",""
"","see_reward","","html-keyboard-response","217","2759861","0.0-145.0","0","0","Y1QFI","People","","1007","","","","32","","0","","10","","","","-1","","","","","1","","","","","0","1007","","","","","","","","","","","","","","","","","","","","","","","","",""
"","reward_outcome","","html-keyboard-response","218","2761867","0.0-146.0","0","0","Y1QFI","People","","853","","","","40","","0","","10","","","","","","","","","","","","","","","","-1","853","","","","","","","","","","","","","","","","","","","","","","",""
"","fixation","","html-keyboard-response","219","2762875","0.0-149.0","0","0","Y1QFI","People","","null","","","","null","","","","","","","","","","","","","","","","","","","","","","","","","","","","","","","","","","","","","","","","","","","",""
"","see_reward","","html-keyboard-response","220","2763620","0.0-150.0","0","0","Y1QFI","People","","743","","","","32","","17","","11","","","","1","","","","","1","","","","","147","743","","","","","","","","","","","","","","","","","","","","","","","","",""
"","reward_outcome","","html-keyboard-response","221","2765626","0.0-151.0","0","0","Y1QFI","People","","911","","","","38","","17","","11","","","","","","","","","","","","","","","","1","911","","","","","","","","","","","","","","","","","","","","","","",""
"","fixation","","html-keyboard-response","222","2766635","0.0-154.0","0","0","Y1QFI","People","","null","","","","null","","","","","","","","","","","","","","","","","","","","","","","","","","","","","","","","","","","","","","","","","","","",""
"","see_reward","","html-keyboard-response","223","2767390","0.0-155.0","0","0","Y1QFI","People","","752","","","","32","","43","","12","","","","1","","","","","1","","","","","156","752","","","","","","","","","","","","","","","","","","","","","","","","",""
"","reward_outcome","","html-keyboard-response","224","2769395","0.0-156.0","0","0","Y1QFI","People","","821","","","","38","","43","","12","","","","","","","","","","","","","","","","1","821","","","","","","","","","","","","","","","","","","","","","","",""
"","fixation","","html-keyboard-response","225","2770403","0.0-159.0","0","0","Y1QFI","People","","null","","","","null","","","","","","","","","","","","","","","","","","","","","","","","","","","","","","","","","","","","","","","","","","","",""
"","see_reward","","html-keyboard-response","226","2771205","0.0-160.0","0","0","Y1QFI","People","","800","","","","32","","28","","13","","","","-1","","","","","1","","","","","0","800","","","","","","","","","","","","","","","","","","","","","","","","",""
"","reward_outcome","","html-keyboard-response","227","2773211","0.0-161.0","0","0","Y1QFI","People","","773","","","","40","","28","","13","","","","","","","","","","","","","","","","-1","773","","","","","","","","","","","","","","","","","","","","","","",""
"","fixation","","html-keyboard-response","228","2774219","0.0-164.0","0","0","Y1QFI","People","","null","","","","null","","","","","","","","","","","","","","","","","","","","","","","","","","","","","","","","","","","","","","","","","","","",""
"","see_reward","","html-keyboard-response","229","2775719","0.0-165.0","0","0","Y1QFI","People","","1498","","","","32","","6","","14","","","","1","","","","","1","","","","","150","1498","","","","","","","","","","","","","","","","","","","","","","","","",""
"","reward_outcome","","html-keyboard-response","230","2777723","0.0-166.0","0","0","Y1QFI","People","","861","","","","38","","6","","14","","","","","","","","","","","","","","","","1","861","","","","","","","","","","","","","","","","","","","","","","",""
"","fixation","","html-keyboard-response","231","2778730","0.0-169.0","0","0","Y1QFI","People","","null","","","","null","","","","","","","","","","","","","","","","","","","","","","","","","","","","","","","","","","","","","","","","","","","",""
"","see_reward","","html-keyboard-response","232","2779512","0.0-170.0","0","0","Y1QFI","People","","779","","","","32","","49","","15","","","","-1","","","","","1","","","","","0","779","","","","","","","","","","","","","","","","","","","","","","","","",""
"","reward_outcome","","html-keyboard-response","233","2781523","0.0-171.0","0","0","Y1QFI","People","","774","","","","40","","49","","15","","","","","","","","","","","","","","","","-1","774","","","","","","","","","","","","","","","","","","","","","","",""
"","fixation","","html-keyboard-response","234","2782530","0.0-174.0","0","0","Y1QFI","People","","null","","","","null","","","","","","","","","","","","","","","","","","","","","","","","","","","","","","","","","","","","","","","","","","","",""
"","see_reward","","html-keyboard-response","235","2783383","0.0-175.0","0","0","Y1QFI","People","","850","","","","32","","25","","16","","","","-1","","","","","1","","","","","0","850","","","","","","","","","","","","","","","","","","","","","","","","",""
"","reward_outcome","","html-keyboard-response","236","2785388","0.0-176.0","0","0","Y1QFI","People","","830","","","","40","","25","","16","","","","","","","","","","","","","","","","-1","830","","","","","","","","","","","","","","","","","","","","","","",""
"","fixation","","html-keyboard-response","237","2786394","0.0-179.0","0","0","Y1QFI","People","","null","","","","null","","","","","","","","","","","","","","","","","","","","","","","","","","","","","","","","","","","","","","","","","","","",""
"","see_reward","","html-keyboard-response","238","2787228","0.0-180.0","0","0","Y1QFI","People","","831","","","","32","","6","","17","","","","1","","","","","1","","","","","150","831","","","","","","","","","","","","","","","","","","","","","","","","",""
"","reward_outcome","","html-keyboard-response","239","2789235","0.0-181.0","0","0","Y1QFI","People","","810","","","","38","","6","","17","","","","","","","","","","","","","","","","1","810","","","","","","","","","","","","","","","","","","","","","","",""
"","fixation","","html-keyboard-response","240","2790243","0.0-184.0","0","0","Y1QFI","People","","null","","","","null","","","","","","","","","","","","","","","","","","","","","","","","","","","","","","","","","","","","","","","","","","","",""
"","see_reward","","html-keyboard-response","241","2790953","0.0-185.0","0","0","Y1QFI","People","","708","","","","32","","17","","18","","","","1","","","","","1","","","","","147","708","","","","","","","","","","","","","","","","","","","","","","","","",""
"","reward_outcome","","html-keyboard-response","242","2792964","0.0-186.0","0","0","Y1QFI","People","","844","","","","38","","17","","18","","","","","","","","","","","","","","","","1","844","","","","","","","","","","","","","","","","","","","","","","",""
"","fixation","","html-keyboard-response","243","2793971","0.0-189.0","0","0","Y1QFI","People","","null","","","","null","","","","","","","","","","","","","","","","","","","","","","","","","","","","","","","","","","","","","","","","","","","",""
"","see_reward","","html-keyboard-response","244","2794936","0.0-190.0","0","0","Y1QFI","People","","963","","","","32","","25","","19","","","","-1","","","","","1","","","","","0","963","","","","","","","","","","","","","","","","","","","","","","","","",""
"","reward_outcome","","html-keyboard-response","245","2796948","0.0-191.0","0","0","Y1QFI","People","","1070","","","","40","","25","","19","","","","","","","","","","","","","","","","-1","1070","","","","","","","","","","","","","","","","","","","","","","",""
"","fixation","","html-keyboard-response","246","2797955","0.0-194.0","0","0","Y1QFI","People","","null","","","","null","","","","","","","","","","","","","","","","","","","","","","","","","","","","","","","","","","","","","","","","","","","",""
"","see_reward","","html-keyboard-response","247","2799200","0.0-195.0","0","0","Y1QFI","People","","1243","","","","32","","39","","20","","","","-1","","","","","1","","","","","0","1243","","","","","","","","","","","","","","","","","","","","","","","","",""
"","reward_outcome","","html-keyboard-response","248","2801211","0.0-196.0","0","0","Y1QFI","People","","887","","","","40","","39","","20","","","","","","","","","","","","","","","","-1","887","","","","","","","","","","","","","","","","","","","","","","",""
"","fixation","","html-keyboard-response","249","2802219","0.0-199.0","0","0","Y1QFI","People","","null","","","","null","","","","","","","","","","","","","","","","","","","","","","","","","","","","","","","","","","","","","","","","","","","",""
"","see_reward","","html-keyboard-response","250","2803090","0.0-200.0","0","0","Y1QFI","People","","868","","","","32","","47","","21","","","","1","","","","","1","","","","","153","868","","","","","","","","","","","","","","","","","","","","","","","","",""
"","reward_outcome","","html-keyboard-response","251","2805098","0.0-201.0","0","0","Y1QFI","People","","822","","","","38","","47","","21","","","","","","","","","","","","","","","","1","822","","","","","","","","","","","","","","","","","","","","","","",""
"","fixation","","html-keyboard-response","252","2806107","0.0-204.0","0","0","Y1QFI","People","","null","","","","null","","","","","","","","","","","","","","","","","","","","","","","","","","","","","","","","","","","","","","","","","","","",""
"","see_reward","","html-keyboard-response","253","2806841","0.0-205.0","0","0","Y1QFI","People","","732","","","","32","","8","","22","","","","1","","","","","1","","","","","154","732","","","","","","","","","","","","","","","","","","","","","","","","",""
"","reward_outcome","","html-keyboard-response","254","2808851","0.0-206.0","0","0","Y1QFI","People","","687","","","","38","","8","","22","","","","","","","","","","","","","","","","1","687","","","","","","","","","","","","","","","","","","","","","","",""
"","fixation","","html-keyboard-response","255","2809859","0.0-209.0","0","0","Y1QFI","People","","null","","","","null","","","","","","","","","","","","","","","","","","","","","","","","","","","","","","","","","","","","","","","","","","","",""
"","see_reward","","html-keyboard-response","256","2810604","0.0-210.0","0","0","Y1QFI","People","","743","","","","32","","8","","23","","","","1","","","","","1","","","","","154","743","","","","","","","","","","","","","","","","","","","","","","","","",""
"","reward_outcome","","html-keyboard-response","257","2812612","0.0-211.0","0","0","Y1QFI","People","","742","","","","38","","8","","23","","","","","","","","","","","","","","","","1","742","","","","","","","","","","","","","","","","","","","","","","",""
"","block_over","","html-keyboard-response","258","2814940","0.0-213.0-0.0","0","0","Y1QFI","People","","2327","","","","78","","","","","","","","","","","","","","","","","","","","","","","","","","","","","","","","","","","","","","","","","","","",""
"","fixation","","html-keyboard-response","259","2815948","0.0-214.0","0","0","Y1QFI","People","","null","","","","null","","","","","","","","","","","","","","","","","","","","","","","","","","","","","","","","","","","","","","","","","","","",""
"","see_reward","","html-keyboard-response","260","2816844","0.0-215.0","0","0","Y1QFI","People","","894","","","","32","","6","","24","","","","1","","","","","2","","","","","150","894","","","","","","","","","","","","","","","","","","","","","","","","",""
"","reward_outcome","","html-keyboard-response","261","2818852","0.0-216.0","0","0","Y1QFI","People","","806","","","","38","","6","","24","","","","","","","","","","","","","","","","1","806","","","","","","","","","","","","","","","","","","","","","","",""
"","fixation","","html-keyboard-response","262","2819860","0.0-219.0","0","0","Y1QFI","People","","null","","","","null","","","","","","","","","","","","","","","","","","","","","","","","","","","","","","","","","","","","","","","","","","","",""
"","see_reward","","html-keyboard-response","263","2823349","0.0-220.0","0","0","Y1QFI","People","","3487","","","","32","","17","","25","","","","1","","","","","2","","","","","147","3487","","","","","","","","","","","","","","","","","","","","","","","","",""
"","reward_outcome","","html-keyboard-response","264","2825354","0.0-221.0","0","0","Y1QFI","People","","830","","","","38","","17","","25","","","","","","","","","","","","","","","","1","830","","","","","","","","","","","","","","","","","","","","","","",""
"","fixation","","html-keyboard-response","265","2826364","0.0-224.0","0","0","Y1QFI","People","","null","","","","null","","","","","","","","","","","","","","","","","","","","","","","","","","","","","","","","","","","","","","","","","","","",""
"","see_reward","","html-keyboard-response","266","2827806","0.0-225.0","0","0","Y1QFI","People","","1440","","","","32","","0","","26","","","","-1","","","","","2","","","","","0","1440","","","","","","","","","","","","","","","","","","","","","","","","",""
"","reward_outcome","","html-keyboard-response","267","2829812","0.0-226.0","0","0","Y1QFI","People","","766","","","","40","","0","","26","","","","","","","","","","","","","","","","-1","766","","","","","","","","","","","","","","","","","","","","","","",""
"","fixation","","html-keyboard-response","268","2830819","0.0-229.0","0","0","Y1QFI","People","","null","","","","null","","","","","","","","","","","","","","","","","","","","","","","","","","","","","","","","","","","","","","","","","","","",""
"","see_reward","","html-keyboard-response","269","2832438","0.0-230.0","0","0","Y1QFI","People","","1616","","","","32","","25","","27","","","","-1","","","","","2","","","","","0","1616","","","","","","","","","","","","","","","","","","","","","","","","",""
"","reward_outcome","","html-keyboard-response","270","2834444","0.0-231.0","0","0","Y1QFI","People","","830","","","","40","","25","","27","","","","","","","","","","","","","","","","-1","830","","","","","","","","","","","","","","","","","","","","","","",""
"","fixation","","html-keyboard-response","271","2835452","0.0-234.0","0","0","Y1QFI","People","","null","","","","null","","","","","","","","","","","","","","","","","","","","","","","","","","","","","","","","","","","","","","","","","","","",""
"","see_reward","","html-keyboard-response","272","2836975","0.0-235.0","0","0","Y1QFI","People","","1521","","","","32","","47","","28","","","","1","","","","","2","","","","","153","1521","","","","","","","","","","","","","","","","","","","","","","","","",""
"","reward_outcome","","html-keyboard-response","273","2838979","0.0-236.0","0","0","Y1QFI","People","","845","","","","38","","47","","28","","","","","","","","","","","","","","","","1","845","","","","","","","","","","","","","","","","","","","","","","",""
"","fixation","","html-keyboard-response","274","2839987","0.0-239.0","0","0","Y1QFI","People","","null","","","","null","","","","","","","","","","","","","","","","","","","","","","","","","","","","","","","","","","","","","","","","","","","",""
"","see_reward","","html-keyboard-response","275","2842214","0.0-240.0","0","0","Y1QFI","People","","2224","","","","32","","39","","29","","","","-1","","","","","2","","","","","0","2224","","","","","","","","","","","","","","","","","","","","","","","","",""
"","reward_outcome","","html-keyboard-response","276","2844219","0.0-241.0","0","0","Y1QFI","People","","855","","","","40","","39","","29","","","","","","","","","","","","","","","","-1","855","","","","","","","","","","","","","","","","","","","","","","",""
"","fixation","","html-keyboard-response","277","2845228","0.0-244.0","0","0","Y1QFI","People","","null","","","","null","","","","","","","","","","","","","","","","","","","","","","","","","","","","","","","","","","","","","","","","","","","",""
"","see_reward","","html-keyboard-response","278","2857906","0.0-245.0","0","0","Y1QFI","People","","12676","","","","32","","24","","30","","","","-1","","","","","2","","","","","0","12676","","","","","","","","","","","","","","","","","","","","","","","","",""
"","reward_outcome","","html-keyboard-response","279","2859915","0.0-246.0","0","0","Y1QFI","People","","869","","","","40","","24","","30","","","","","","","","","","","","","","","","-1","869","","","","","","","","","","","","","","","","","","","","","","",""
"","fixation","","html-keyboard-response","280","2860924","0.0-249.0","0","0","Y1QFI","People","","null","","","","null","","","","","","","","","","","","","","","","","","","","","","","","","","","","","","","","","","","","","","","","","","","",""
"","see_reward","","html-keyboard-response","281","2861730","0.0-250.0","0","0","Y1QFI","People","","804","","","","32","","24","","31","","","","-1","","","","","2","","","","","0","804","","","","","","","","","","","","","","","","","","","","","","","","",""
"","reward_outcome","","html-keyboard-response","282","2863740","0.0-251.0","0","0","Y1QFI","People","","574","","","","40","","24","","31","","","","","","","","","","","","","","","","-1","574","","","","","","","","","","","","","","","","","","","","","","",""
"","fixation","","html-keyboard-response","283","2864747","0.0-254.0","0","0","Y1QFI","People","","null","","","","null","","","","","","","","","","","","","","","","","","","","","","","","","","","","","","","","","","","","","","","","","","","",""
"","see_reward","","html-keyboard-response","284","2865667","0.0-255.0","0","0","Y1QFI","People","","918","","","","32","","43","","32","","","","1","","","","","2","","","","","156","918","","","","","","","","","","","","","","","","","","","","","","","","",""
"","reward_outcome","","html-keyboard-response","285","2867675","0.0-256.0","0","0","Y1QFI","People","","1111","","","","38","","43","","32","","","","","","","","","","","","","","","","1","1111","","","","","","","","","","","","","","","","","","","","","","",""
"","fixation","","html-keyboard-response","286","2868684","0.0-259.0","0","0","Y1QFI","People","","null","","","","null","","","","","","","","","","","","","","","","","","","","","","","","","","","","","","","","","","","","","","","","","","","",""
"","see_reward","","html-keyboard-response","287","2869947","0.0-260.0","0","0","Y1QFI","People","","1261","","","","32","","39","","33","","","","-1","","","","","2","","","","","0","1261","","","","","","","","","","","","","","","","","","","","","","","","",""
"","reward_outcome","","html-keyboard-response","288","2871955","0.0-261.0","0","0","Y1QFI","People","","1046","","","","40","","39","","33","","","","","","","","","","","","","","","","-1","1046","","","","","","","","","","","","","","","","","","","","","","",""
"","fixation","","html-keyboard-response","289","2872964","0.0-264.0","0","0","Y1QFI","People","","null","","","","null","","","","","","","","","","","","","","","","","","","","","","","","","","","","","","","","","","","","","","","","","","","",""
"","see_reward","","html-keyboard-response","290","2874003","0.0-265.0","0","0","Y1QFI","People","","1036","","","","32","","9","","34","","","","1","","","","","2","","","","","159","1036","","","","","","","","","","","","","","","","","","","","","","","","",""
"","reward_outcome","","html-keyboard-response","291","2876012","0.0-266.0","0","0","Y1QFI","People","","967","","","","38","","9","","34","","","","","","","","","","","","","","","","1","967","","","","","","","","","","","","","","","","","","","","","","",""
"","fixation","","html-keyboard-response","292","2877020","0.0-269.0","0","0","Y1QFI","People","","null","","","","null","","","","","","","","","","","","","","","","","","","","","","","","","","","","","","","","","","","","","","","","","","","",""
"","see_reward","","html-keyboard-response","293","2877900","0.0-270.0","0","0","Y1QFI","People","","878","","","","32","","28","","35","","","","-1","","","","","2","","","","","0","878","","","","","","","","","","","","","","","","","","","","","","","","",""
"","reward_outcome","","html-keyboard-response","294","2879909","0.0-271.0","0","0","Y1QFI","People","","1054","","","","40","","28","","35","","","","","","","","","","","","","","","","-1","1054","","","","","","","","","","","","","","","","","","","","","","",""
"","fixation","","html-keyboard-response","295","2880915","0.0-274.0","0","0","Y1QFI","People","","null","","","","null","","","","","","","","","","","","","","","","","","","","","","","","","","","","","","","","","","","","","","","","","","","",""
"","see_reward","","html-keyboard-response","296","2883502","0.0-275.0","0","0","Y1QFI","People","","2584","","","","32","","49","","36","","","","-1","","","","","2","","","","","0","2584","","","","","","","","","","","","","","","","","","","","","","","","",""
"","reward_outcome","","html-keyboard-response","297","2885508","0.0-276.0","0","0","Y1QFI","People","","781","","","","40","","49","","36","","","","","","","","","","","","","","","","-1","781","","","","","","","","","","","","","","","","","","","","","","",""
"","fixation","","html-keyboard-response","298","2886516","0.0-279.0","0","0","Y1QFI","People","","null","","","","null","","","","","","","","","","","","","","","","","","","","","","","","","","","","","","","","","","","","","","","","","","","",""
"","see_reward","","html-keyboard-response","299","2887430","0.0-280.0","0","0","Y1QFI","People","","910","","","","32","","9","","37","","","","1","","","","","2","","","","","159","910","","","","","","","","","","","","","","","","","","","","","","","","",""
"","reward_outcome","","html-keyboard-response","300","2889436","0.0-281.0","0","0","Y1QFI","People","","1014","","","","38","","9","","37","","","","","","","","","","","","","","","","1","1014","","","","","","","","","","","","","","","","","","","","","","",""
"","fixation","","html-keyboard-response","301","2890444","0.0-284.0","0","0","Y1QFI","People","","null","","","","null","","","","","","","","","","","","","","","","","","","","","","","","","","","","","","","","","","","","","","","","","","","",""
"","see_reward","","html-keyboard-response","302","2892079","0.0-285.0","0","0","Y1QFI","People","","1631","","","","32","","43","","38","","","","1","","","","","2","","","","","156","1631","","","","","","","","","","","","","","","","","","","","","","","","",""
"","reward_outcome","","html-keyboard-response","303","2894084","0.0-286.0","0","0","Y1QFI","People","","1141","","","","38","","43","","38","","","","","","","","","","","","","","","","1","1141","","","","","","","","","","","","","","","","","","","","","","",""
"","fixation","","html-keyboard-response","304","2895092","0.0-289.0","0","0","Y1QFI","People","","null","","","","null","","","","","","","","","","","","","","","","","","","","","","","","","","","","","","","","","","","","","","","","","","","",""
"","see_reward","","html-keyboard-response","305","2897543","0.0-290.0","0","0","Y1QFI","People","","2449","","","","32","","28","","39","","","","-1","","","","","2","","","","","0","2449","","","","","","","","","","","","","","","","","","","","","","","","",""
"","reward_outcome","","html-keyboard-response","306","2899549","0.0-291.0","0","0","Y1QFI","People","","910","","","","40","","28","","39","","","","","","","","","","","","","","","","-1","910","","","","","","","","","","","","","","","","","","","","","","",""
"","fixation","","html-keyboard-response","307","2900557","0.0-294.0","0","0","Y1QFI","People","","null","","","","null","","","","","","","","","","","","","","","","","","","","","","","","","","","","","","","","","","","","","","","","","","","",""
"","see_reward","","html-keyboard-response","308","2901729","0.0-295.0","0","0","Y1QFI","People","","1167","","","","32","","8","","40","","","","1","","","","","2","","","","","154","1167","","","","","","","","","","","","","","","","","","","","","","","","",""
"","reward_outcome","","html-keyboard-response","309","2903741","0.0-296.0","0","0","Y1QFI","People","","1477","","","","38","","8","","40","","","","","","","","","","","","","","","","1","1477","","","","","","","","","","","","","","","","","","","","","","",""
"","fixation","","html-keyboard-response","310","2904748","0.0-299.0","0","0","Y1QFI","People","","null","","","","null","","","","","","","","","","","","","","","","","","","","","","","","","","","","","","","","","","","","","","","","","","","",""
"","see_reward","","html-keyboard-response","311","2906272","0.0-300.0","0","0","Y1QFI","People","","1522","","","","32","","8","","41","","","","1","","","","","2","","","","","154","1522","","","","","","","","","","","","","","","","","","","","","","","","",""
"","reward_outcome","","html-keyboard-response","312","2908276","0.0-301.0","0","0","Y1QFI","People","","830","","","","38","","8","","41","","","","","","","","","","","","","","","","1","830","","","","","","","","","","","","","","","","","","","","","","",""
"","fixation","","html-keyboard-response","313","2909284","0.0-304.0","0","0","Y1QFI","People","","null","","","","null","","","","","","","","","","","","","","","","","","","","","","","","","","","","","","","","","","","","","","","","","","","",""
"","see_reward","","html-keyboard-response","314","2916754","0.0-305.0","0","0","Y1QFI","People","","7468","","","","32","","17","","42","","","","1","","","","","2","","","","","147","7468","","","","","","","","","","","","","","","","","","","","","","","","",""
"","reward_outcome","","html-keyboard-response","315","2918765","0.0-306.0","0","0","Y1QFI","People","","829","","","","38","","17","","42","","","","","","","","","","","","","","","","1","829","","","","","","","","","","","","","","","","","","","","","","",""
"","fixation","","html-keyboard-response","316","2919772","0.0-309.0","0","0","Y1QFI","People","","null","","","","null","","","","","","","","","","","","","","","","","","","","","","","","","","","","","","","","","","","","","","","","","","","",""
"","see_reward","","html-keyboard-response","317","2920650","0.0-310.0","0","0","Y1QFI","People","","875","","","","32","","6","","43","","","","1","","","","","2","","","","","150","875","","","","","","","","","","","","","","","","","","","","","","","","",""
"","reward_outcome","","html-keyboard-response","318","2922661","0.0-311.0","0","0","Y1QFI","People","","757","","","","38","","6","","43","","","","","","","","","","","","","","","","1","757","","","","","","","","","","","","","","","","","","","","","","",""
"","fixation","","html-keyboard-response","319","2923668","0.0-314.0","0","0","Y1QFI","People","","null","","","","null","","","","","","","","","","","","","","","","","","","","","","","","","","","","","","","","","","","","","","","","","","","",""
"","see_reward","","html-keyboard-response","320","2924450","0.0-315.0","0","0","Y1QFI","People","","780","","","","32","","0","","44","","","","-1","","","","","2","","","","","0","780","","","","","","","","","","","","","","","","","","","","","","","","",""
"","reward_outcome","","html-keyboard-response","321","2926461","0.0-316.0","0","0","Y1QFI","People","","1767","","","","40","","0","","44","","","","","","","","","","","","","","","","-1","1767","","","","","","","","","","","","","","","","","","","","","","",""
"","fixation","","html-keyboard-response","322","2927468","0.0-319.0","0","0","Y1QFI","People","","null","","","","null","","","","","","","","","","","","","","","","","","","","","","","","","","","","","","","","","","","","","","","","","","","",""
"","see_reward","","html-keyboard-response","323","2929251","0.0-320.0","0","0","Y1QFI","People","","1779","","","","32","","47","","45","","","","1","","","","","2","","","","","153","1779","","","","","","","","","","","","","","","","","","","","","","","","",""
"","reward_outcome","","html-keyboard-response","324","2931261","0.0-321.0","0","0","Y1QFI","People","","741","","","","38","","47","","45","","","","","","","","","","","","","","","","1","741","","","","","","","","","","","","","","","","","","","","","","",""
"","fixation","","html-keyboard-response","325","2932269","0.0-324.0","0","0","Y1QFI","People","","null","","","","null","","","","","","","","","","","","","","","","","","","","","","","","","","","","","","","","","","","","","","","","","","","",""
"","see_reward","","html-keyboard-response","326","2933274","0.0-325.0","0","0","Y1QFI","People","","1003","","","","32","","25","","46","","","","-1","","","","","2","","","","","0","1003","","","","","","","","","","","","","","","","","","","","","","","","",""
"","reward_outcome","","html-keyboard-response","327","2935283","0.0-326.0","0","0","Y1QFI","People","","886","","","","40","","25","","46","","","","","","","","","","","","","","","","-1","886","","","","","","","","","","","","","","","","","","","","","","",""
"","fixation","","html-keyboard-response","328","2936292","0.0-329.0","0","0","Y1QFI","People","","null","","","","null","","","","","","","","","","","","","","","","","","","","","","","","","","","","","","","","","","","","","","","","","","","",""
"","see_reward","","html-keyboard-response","329","2937516","0.0-330.0","0","0","Y1QFI","People","","1221","","","","32","","49","","47","","","","-1","","","","","2","","","","","0","1221","","","","","","","","","","","","","","","","","","","","","","","","",""
"","reward_outcome","","html-keyboard-response","330","2939524","0.0-331.0","0","0","Y1QFI","People","","1061","","","","40","","49","","47","","","","","","","","","","","","","","","","-1","1061","","","","","","","","","","","","","","","","","","","","","","",""
"","block_over","","html-keyboard-response","331","2943756","0.0-333.0-0.0","0","0","Y1QFI","People","","4230","","","","78","","","","","","","","","","","","","","","","","","","","","","","","","","","","","","","","","","","","","","","","","","","",""
"","fixation","","html-keyboard-response","332","2944764","0.0-334.0","0","0","Y1QFI","People","","null","","","","null","","","","","","","","","","","","","","","","","","","","","","","","","","","","","","","","","","","","","","","","","","","",""
"","see_reward","","html-keyboard-response","333","2947478","0.0-335.0","0","0","Y1QFI","People","","2711","","","","32","","0","","48","","","","-1","","","","","3","","","","","0","2711","","","","","","","","","","","","","","","","","","","","","","","","",""
"","reward_outcome","","html-keyboard-response","334","2949484","0.0-336.0","0","0","Y1QFI","People","","749","","","","40","","0","","48","","","","","","","","","","","","","","","","-1","749","","","","","","","","","","","","","","","","","","","","","","",""
"","fixation","","html-keyboard-response","335","2950492","0.0-339.0","0","0","Y1QFI","People","","null","","","","null","","","","","","","","","","","","","","","","","","","","","","","","","","","","","","","","","","","","","","","","","","","",""
"","see_reward","","html-keyboard-response","336","2953333","0.0-340.0","0","0","Y1QFI","People","","2839","","","","32","","47","","49","","","","1","","","","","3","","","","","153","2839","","","","","","","","","","","","","","","","","","","","","","","","",""
"","reward_outcome","","html-keyboard-response","337","2955341","0.0-341.0","0","0","Y1QFI","People","","759","","","","38","","47","","49","","","","","","","","","","","","","","","","1","759","","","","","","","","","","","","","","","","","","","","","","",""
"","fixation","","html-keyboard-response","338","2956349","0.0-344.0","0","0","Y1QFI","People","","null","","","","null","","","","","","","","","","","","","","","","","","","","","","","","","","","","","","","","","","","","","","","","","","","",""
"","see_reward","","html-keyboard-response","339","2960414","0.0-345.0","0","0","Y1QFI","People","","4063","","","","32","","28","","50","","","","-1","","","","","3","","","","","0","4063","","","","","","","","","","","","","","","","","","","","","","","","",""
"","reward_outcome","","html-keyboard-response","340","2962421","0.0-346.0","0","0","Y1QFI","People","","982","","","","40","","28","","50","","","","","","","","","","","","","","","","-1","982","","","","","","","","","","","","","","","","","","","","","","",""
"","fixation","","html-keyboard-response","341","2963428","0.0-349.0","0","0","Y1QFI","People","","null","","","","null","","","","","","","","","","","","","","","","","","","","","","","","","","","","","","","","","","","","","","","","","","","",""
"","see_reward","","html-keyboard-response","342","2976368","0.0-350.0","0","0","Y1QFI","People","","12938","","","","32","","8","","51","","","","1","","","","","3","","","","","154","12938","","","","","","","","","","","","","","","","","","","","","","","","",""
"","reward_outcome","","html-keyboard-response","343","2978373","0.0-351.0","0","0","Y1QFI","People","","974","","","","38","","8","","51","","","","","","","","","","","","","","","","1","974","","","","","","","","","","","","","","","","","","","","","","",""
"","fixation","","html-keyboard-response","344","2979380","0.0-354.0","0","0","Y1QFI","People","","null","","","","null","","","","","","","","","","","","","","","","","","","","","","","","","","","","","","","","","","","","","","","","","","","",""
"","see_reward","","html-keyboard-response","345","2981251","0.0-355.0","0","0","Y1QFI","People","","1867","","","","32","","25","","52","","","","-1","","","","","3","","","","","0","1867","","","","","","","","","","","","","","","","","","","","","","","","",""
"","reward_outcome","","html-keyboard-response","346","2983261","0.0-356.0","0","0","Y1QFI","People","","723","","","","40","","25","","52","","","","","","","","","","","","","","","","-1","723","","","","","","","","","","","","","","","","","","","","","","",""
"","fixation","","html-keyboard-response","347","2984268","0.0-359.0","0","0","Y1QFI","People","","null","","","","null","","","","","","","","","","","","","","","","","","","","","","","","","","","","","","","","","","","","","","","","","","","",""
"","see_reward","","html-keyboard-response","348","2986161","0.0-360.0","0","0","Y1QFI","People","","1891","","","","32","","49","","53","","","","-1","","","","","3","","","","","0","1891","","","","","","","","","","","","","","","","","","","","","","","","",""
"","reward_outcome","","html-keyboard-response","349","2988172","0.0-361.0","0","0","Y1QFI","People","","629","","","","38","","49","","53","","","","","","","","","","","","","","","","1","629","","","","","","","","","","","","","","","","","","","","","","",""
"","fixation","","html-keyboard-response","350","2989180","0.0-364.0","0","0","Y1QFI","People","","null","","","","null","","","","","","","","","","","","","","","","","","","","","","","","","","","","","","","","","","","","","","","","","","","",""
"","see_reward","","html-keyboard-response","351","2998452","0.0-365.0","0","0","Y1QFI","People","","9270","","","","32","","49","","54","","","","-1","","","","","3","","","","","0","9270","","","","","","","","","","","","","","","","","","","","","","","","",""
"","reward_outcome","","html-keyboard-response","352","3000461","0.0-366.0","0","0","Y1QFI","People","","877","","","","40","","49","","54","","","","","","","","","","","","","","","","-1","877","","","","","","","","","","","","","","","","","","","","","","",""
"","fixation","","html-keyboard-response","353","3001469","0.0-369.0","0","0","Y1QFI","People","","null","","","","null","","","","","","","","","","","","","","","","","","","","","","","","","","","","","","","","","","","","","","","","","","","",""
