"success","ttype","start_time","trial_type","trial_index","time_elapsed","internal_node_id","warning","missed_checkup","PID","stim_type","view_history","rt","responses","repeat_instructions","key_press","response","stimulus_id","painting","index","stimulus_left","stimulus_right","explain_trial","reward_type","rating_left","rating_right","painting_left","painting_right","block","left_chosen","chosen_obj","unchosen_obj","explain_response","reward_amount","see_reward_rt","register_reward_response","register_reward_rt","deliberation_reward_tally","stimulus_left_deliberation_ind","stimulus_right_deliberation_ind","chosen_trial","gain_left","higher_outcome_chosen","old_pair","chosen_object","rt_pairs","left_object_chosen","rt_object","old_response","new_rating","deliberated_stim","initial_rating","outcome_eval_rt","outcome_eval_response","outcome_eval_gain","outcome_eval_acc","preamble","outcome_eval_confidence","outcome_eval_confidence_rt","total_reward_tally"
"true","full_screen","d01192023hr2043","fullscreen","0","83300","0.0-0.0","0","0","YrnLv","Scenes","","","","","","","","","","","","","","","","","","","","","","","","","","","","","","","","","","","","","","","","","","","","","","","","",""
"","rating_instructions","","instructions","1","128205","0.0-1.0-0.0","0","0","YrnLv","Scenes","[{""page_index"":0,""viewing_time"":41742},{""page_index"":1,""viewing_time"":3161}]","44903","","","","","","","","","","","","","","","","","","","","","","","","","","","","","","","","","","","","","","","","","","","","","","",""
"","rating_comprehension_check","","survey-multi-choice","2","139459","0.0-1.0-1.0","0","0","YrnLv","Scenes","","11251","{""Q0"":""True"",""Q1"":""Mouse""}","0","","","","","","","","","","","","","","","","","","","","","","","","","","","","","","","","","","","","","","","","","","","","",""
"","start_phase","","html-keyboard-response","3","144059","0.0-2.0","0","0","YrnLv","Scenes","","4596","","","78","","","","","","","","","","","","","","","","","","","","","","","","","","","","","","","","","","","","","","","","","","","",""
"","rating","","html-slider-response","4","147833","0.0-3.0","0","0","YrnLv","Scenes","","3772","","","","23","135","mohammad-alizade-4wzRuAb-KWs-unsplash.jpg","0","","","","","","","","","","","","","","","","","","","","","","","","","","","","","","","","","","","","","","","",""
"","rating","","html-slider-response","5","150521","0.0-4.0","0","0","YrnLv","Scenes","","2685","","","","81","137","olga-stalska-QaWRyEdlffY-unsplash.jpg","1","","","","","","","","","","","","","","","","","","","","","","","","","","","","","","","","","","","","","","","",""
"","rating","","html-slider-response","6","153407","0.0-5.0","0","0","YrnLv","Scenes","","2884","","","","99","145","stephen-leonardi-gyIRjKPXupE-unsplash.jpg","2","","","","","","","","","","","","","","","","","","","","","","","","","","","","","","","","","","","","","","","",""
"","rating","","html-slider-response","7","156080","0.0-6.0","0","0","YrnLv","Scenes","","2672","","","","91","131","luca-bravo-hFzIoD0F_i8-unsplash.jpg","3","","","","","","","","","","","","","","","","","","","","","","","","","","","","","","","","","","","","","","","",""
"","rating","","html-slider-response","8","158778","0.0-7.0","0","0","YrnLv","Scenes","","2695","","","","84","116","david-marcu-W5MhJ6cy1So-unsplash.jpg","4","","","","","","","","","","","","","","","","","","","","","","","","","","","","","","","","","","","","","","","",""
"","rating","","html-slider-response","9","166751","0.0-8.0","0","0","YrnLv","Scenes","","7971","","","","64","115","darrell-cassell-hoCXpPUMCoE-unsplash.jpg","5","","","","","","","","","","","","","","","","","","","","","","","","","","","","","","","","","","","","","","","",""
"","rating","","html-slider-response","10","169463","0.0-9.0","0","0","YrnLv","Scenes","","2709","","","","30","126","jordan-mcqueen-PJCZOWuOxbU-unsplash.jpg","6","","","","","","","","","","","","","","","","","","","","","","","","","","","","","","","","","","","","","","","",""
"","rating","","html-slider-response","11","174418","0.0-10.0","0","0","YrnLv","Scenes","","4952","","","","86","139","samsommer-vddccTqwal8-unsplash.jpg","7","","","","","","","","","","","","","","","","","","","","","","","","","","","","","","","","","","","","","","","",""
"","rating","","html-slider-response","12","176776","0.0-11.0","0","0","YrnLv","Scenes","","2355","","","","64","108","benjamin-voros-phIFdC6lA4E-unsplash.jpg","8","","","","","","","","","","","","","","","","","","","","","","","","","","","","","","","","","","","","","","","",""
"","rating","","html-slider-response","13","179842","0.0-12.0","0","0","YrnLv","Scenes","","3064","","","","54","117","frank-mckenna-OD9EOzfSOh0-unsplash.jpg","9","","","","","","","","","","","","","","","","","","","","","","","","","","","","","","","","","","","","","","","",""
"","rating","","html-slider-response","14","182947","0.0-13.0","0","0","YrnLv","Scenes","","3102","","","","100","112","cosmic-timetraveler-pYyOZ8q7AII-unsplash.jpg","10","","","","","","","","","","","","","","","","","","","","","","","","","","","","","","","","","","","","","","","",""
"","rating","","html-slider-response","15","187244","0.0-14.0","0","0","YrnLv","Scenes","","4295","","","","71","146","thomas-morse-cuKKa0vWZSY-unsplash.jpg","11","","","","","","","","","","","","","","","","","","","","","","","","","","","","","","","","","","","","","","","",""
"","rating","","html-slider-response","16","189938","0.0-15.0","0","0","YrnLv","Scenes","","2692","","","","76","123","joel-jasmin-forestbird-efuwb5eBDrI-unsplash.jpg","12","","","","","","","","","","","","","","","","","","","","","","","","","","","","","","","","","","","","","","","",""
"","rating","","html-slider-response","17","194293","0.0-16.0","0","0","YrnLv","Scenes","","4354","","","","73","129","kurt-cotoaga-cqbLg3lZEpk-unsplash.jpg","13","","","","","","","","","","","","","","","","","","","","","","","","","","","","","","","","","","","","","","","",""
"","rating","","html-slider-response","18","198143","0.0-17.0","0","0","YrnLv","Scenes","","3847","","","","82","132","meng-ji-8BH_M-53CyA-unsplash.jpg","14","","","","","","","","","","","","","","","","","","","","","","","","","","","","","","","","","","","","","","","",""
"","rating","","html-slider-response","19","202285","0.0-18.0","0","0","YrnLv","Scenes","","4139","","","","63","100","aleksandra-boguslawska-MS7KD9Ti7FQ-unsplash.jpg","15","","","","","","","","","","","","","","","","","","","","","","","","","","","","","","","","","","","","","","","",""
"","rating","","html-slider-response","20","204656","0.0-19.0","0","0","YrnLv","Scenes","","2369","","","","62","148","tom-gainor-ZqLeQDjY6fY-unsplash.jpg","16","","","","","","","","","","","","","","","","","","","","","","","","","","","","","","","","","","","","","","","",""
"","rating","","html-slider-response","21","209027","0.0-20.0","0","0","YrnLv","Scenes","","4369","","","","41","147","tobias-keller-73F4pKoUkM0-unsplash.jpg","17","","","","","","","","","","","","","","","","","","","","","","","","","","","","","","","","","","","","","","","",""
"","rating","","html-slider-response","22","212578","0.0-21.0","0","0","YrnLv","Scenes","","3549","","","","61","109","brigitta-schneiter-hXXRLtTxXCU-unsplash.jpg","18","","","","","","","","","","","","","","","","","","","","","","","","","","","","","","","","","","","","","","","",""
"","rating","","html-slider-response","23","215619","0.0-22.0","0","0","YrnLv","Scenes","","3039","","","","50","136","nicolas-jehly-LzVB84KkZOE-unsplash.jpg","19","","","","","","","","","","","","","","","","","","","","","","","","","","","","","","","","","","","","","","","",""
"","rating","","html-slider-response","24","218477","0.0-23.0","0","0","YrnLv","Scenes","","2856","","","","30","149","yuriy-bogdanov-W51VK3Obcj0-unsplash.jpg","20","","","","","","","","","","","","","","","","","","","","","","","","","","","","","","","","","","","","","","","",""
"","rating","","html-slider-response","25","221216","0.0-24.0","0","0","YrnLv","Scenes","","2737","","","","68","121","jean-pierre-brungs-qxCqkbF7tUc-unsplash.jpg","21","","","","","","","","","","","","","","","","","","","","","","","","","","","","","","","","","","","","","","","",""
"","rating","","html-slider-response","26","225481","0.0-25.0","0","0","YrnLv","Scenes","","4263","","","","32","106","ashim-d-silva-WeYamle9fDM-unsplash.jpg","22","","","","","","","","","","","","","","","","","","","","","","","","","","","","","","","","","","","","","","","",""
"","rating","","html-slider-response","27","227612","0.0-26.0","0","0","YrnLv","Scenes","","2128","","","","84","138","petr-vysohlid-9fqwGqGLUxc-unsplash.jpg","23","","","","","","","","","","","","","","","","","","","","","","","","","","","","","","","","","","","","","","","",""
"","rating","","html-slider-response","28","230177","0.0-27.0","0","0","YrnLv","Scenes","","2562","","","","74","142","sergey-pesterev-y-b_FOmJXdg-unsplash.jpg","24","","","","","","","","","","","","","","","","","","","","","","","","","","","","","","","","","","","","","","","",""
"","rating","","html-slider-response","29","233258","0.0-28.0","0","0","YrnLv","Scenes","","3077","","","","71","133","mickey-o-neil-xL66l--msXU-unsplash.jpg","25","","","","","","","","","","","","","","","","","","","","","","","","","","","","","","","","","","","","","","","",""
"","rating","","html-slider-response","30","235976","0.0-29.0","0","0","YrnLv","Scenes","","2716","","","","70","113","damian-denis-D8R_txR_0PE-unsplash.jpg","26","","","","","","","","","","","","","","","","","","","","","","","","","","","","","","","","","","","","","","","",""
"","rating","","html-slider-response","31","239363","0.0-30.0","0","0","YrnLv","Scenes","","3385","","","","83","110","bruno-van-der-kraan-qez8mNJ3ilU-unsplash.jpg","27","","","","","","","","","","","","","","","","","","","","","","","","","","","","","","","","","","","","","","","",""
"","rating","","html-slider-response","32","246075","0.0-31.0","0","0","YrnLv","Scenes","","6710","","","","72","119","james-wheeler-AFC0XvICMgs-unsplash.jpg","28","","","","","","","","","","","","","","","","","","","","","","","","","","","","","","","","","","","","","","","",""
"","rating","","html-slider-response","33","249662","0.0-32.0","0","0","YrnLv","Scenes","","3585","","","","92","124","johannes-plenio-sPt5RIjKfpk-unsplash.jpg","29","","","","","","","","","","","","","","","","","","","","","","","","","","","","","","","","","","","","","","","",""
"","rating","","html-slider-response","34","252241","0.0-33.0","0","0","YrnLv","Scenes","","2578","","","","80","107","benjamin-davies-Zm2n2O7Fph4-unsplash.jpg","30","","","","","","","","","","","","","","","","","","","","","","","","","","","","","","","","","","","","","","","",""
"","rating","","html-slider-response","35","255845","0.0-34.0","0","0","YrnLv","Scenes","","3602","","","","85","134","milada-vigerova-pQMM63GE7fo-unsplash.jpg","31","","","","","","","","","","","","","","","","","","","","","","","","","","","","","","","","","","","","","","","",""
"","rating","","html-slider-response","36","258834","0.0-35.0","0","0","YrnLv","Scenes","","2987","","","","93","111","claudio-testa-U3F2o6vz3bs-unsplash.jpg","32","","","","","","","","","","","","","","","","","","","","","","","","","","","","","","","","","","","","","","","",""
"","rating","","html-slider-response","37","262097","0.0-36.0","0","0","YrnLv","Scenes","","3260","","","","62","101","aniket-deole-T-tOgjWZ0fQ-unsplash.jpg","33","","","","","","","","","","","","","","","","","","","","","","","","","","","","","","","","","","","","","","","",""
"","rating","","html-slider-response","38","264631","0.0-37.0","0","0","YrnLv","Scenes","","2532","","","","99","122","jeff-king-bJHWJeiHfHc-unsplash.jpg","34","","","","","","","","","","","","","","","","","","","","","","","","","","","","","","","","","","","","","","","",""
"","rating","","html-slider-response","39","267824","0.0-38.0","0","0","YrnLv","Scenes","","3192","","","","16","105","ashim-d-silva-S2Q5mdOrrVc-unsplash.jpg","35","","","","","","","","","","","","","","","","","","","","","","","","","","","","","","","","","","","","","","","",""
"","rating","","html-slider-response","40","271415","0.0-39.0","0","0","YrnLv","Scenes","","3589","","","","36","120","jarrett-kow-1ZOyYPOBn7I-unsplash.jpg","36","","","","","","","","","","","","","","","","","","","","","","","","","","","","","","","","","","","","","","","",""
"","rating","","html-slider-response","41","274832","0.0-40.0","0","0","YrnLv","Scenes","","3415","","","","63","104","artem-sapegin-XGDBdSQ70O0-unsplash.jpg","37","","","","","","","","","","","","","","","","","","","","","","","","","","","","","","","","","","","","","","","",""
"","rating","","html-slider-response","42","277710","0.0-41.0","0","0","YrnLv","Scenes","","2876","","","","81","103","anton-darius-FBJugtbHsWU-unsplash.jpg","38","","","","","","","","","","","","","","","","","","","","","","","","","","","","","","","","","","","","","","","",""
"","rating","","html-slider-response","43","281539","0.0-42.0","0","0","YrnLv","Scenes","","3825","","","","80","114","daniel-sessler-z_9VmsxR8hs-unsplash.jpg","39","","","","","","","","","","","","","","","","","","","","","","","","","","","","","","","","","","","","","","","",""
"","rating","","html-slider-response","44","285148","0.0-43.0","0","0","YrnLv","Scenes","","3607","","","","81","130","lina-loos-04-C1NZk1hE-unsplash.jpg","40","","","","","","","","","","","","","","","","","","","","","","","","","","","","","","","","","","","","","","","",""
"","rating","","html-slider-response","45","288710","0.0-44.0","0","0","YrnLv","Scenes","","3559","","","","37","144","solotravelgoals-7kLufxYoqWk-unsplash.jpg","41","","","","","","","","","","","","","","","","","","","","","","","","","","","","","","","","","","","","","","","",""
"","rating","","html-slider-response","46","291493","0.0-45.0","0","0","YrnLv","Scenes","","2781","","","","26","118","henry-be-NLF6hTe4PAg-unsplash.jpg","42","","","","","","","","","","","","","","","","","","","","","","","","","","","","","","","","","","","","","","","",""
"","rating","","html-slider-response","47","294742","0.0-46.0","0","0","YrnLv","Scenes","","3247","","","","81","141","sebastian-unrau-v4e3JI7DDHI-unsplash.jpg","43","","","","","","","","","","","","","","","","","","","","","","","","","","","","","","","","","","","","","","","",""
"","rating","","html-slider-response","48","298416","0.0-47.0","0","0","YrnLv","Scenes","","3672","","","","91","140","samuele-errico-piccarini-JEBqFu2AOOA-unsplash.jpg","44","","","","","","","","","","","","","","","","","","","","","","","","","","","","","","","","","","","","","","","",""
"","rating","","html-slider-response","49","301618","0.0-48.0","0","0","YrnLv","Scenes","","3199","","","","78","143","sigurdur-fjalar-jonsson-1KxBabIntpE-unsplash.jpg","45","","","","","","","","","","","","","","","","","","","","","","","","","","","","","","","","","","","","","","","",""
"","rating","","html-slider-response","50","304883","0.0-49.0","0","0","YrnLv","Scenes","","3263","","","","68","125","john-lee-oMneOBYhJxY-unsplash.jpg","46","","","","","","","","","","","","","","","","","","","","","","","","","","","","","","","","","","","","","","","",""
"","rating","","html-slider-response","51","309517","0.0-50.0","0","0","YrnLv","Scenes","","4632","","","","66","127","kace-rodriguez-p3OzJuT_Dks-unsplash.jpg","47","","","","","","","","","","","","","","","","","","","","","","","","","","","","","","","","","","","","","","","",""
"","rating","","html-slider-response","52","311958","0.0-51.0","0","0","YrnLv","Scenes","","2439","","","","23","102","anisur-rahman-K2b7UDed6uQ-unsplash.jpg","48","","","","","","","","","","","","","","","","","","","","","","","","","","","","","","","","","","","","","","","",""
"","rating","","html-slider-response","53","314536","0.0-52.0","0","0","YrnLv","Scenes","","2576","","","","21","128","karsten-wurth-jS0zC2PJ17A-unsplash.jpg","49","","","","","","","","","","","","","","","","","","","","","","","","","","","","","","","","","","","","","","","",""
"","deliberation_instructions","","instructions","54","464475","0.0-53.0-0.0","0","0","YrnLv","Scenes","[{""page_index"":0,""viewing_time"":40492},{""page_index"":1,""viewing_time"":54000},{""page_index"":2,""viewing_time"":25843},{""page_index"":3,""viewing_time"":27480},{""page_index"":4,""viewing_time"":2121}]","149936","","","","","","","","","","","","","","","","","","","","","","","","","","","","","","","","","","","","","","","","","","","","","","",""
"","deliberation_comprehension_check","","survey-multi-choice","55","501237","0.0-53.0-1.0","0","0","YrnLv","Scenes","","36758","{""Q0"":""True"",""Q1"":""True"",""Q2"":""Consider carefully and take your time (up to 10 seconds)"",""Q3"":""True"",""Q4"":""D""}","0","","","","","","","","","","","","","","","","","","","","","","","","","","","","","","","","","","","","","","","","","","","","",""
"","start_phase","","html-keyboard-response","56","504382","0.0-54.0","0","0","YrnLv","Scenes","","3143","","","78","","","","","","","","","","","","","","","","","","","","","","","","","","","","","","","","","","","","","","","","","","","",""
"","first_deliberation_block","","html-keyboard-response","57","506709","0.0-55.0","0","0","YrnLv","Scenes","","2326","","","78","","","","","","","","","","","","","","","","","","","","","","","","","","","","","","","","","","","","","","","","","","","",""
"","fixation","","html-keyboard-response","58","507717","0.0-56.0-0.0","0","0","YrnLv","Scenes","","null","","","null","","","","","","","","","","","","","","","","","","","","","","","","","","","","","","","","","","","","","","","","","","","",""
"","deliberation","","html-keyboard-response","59","509130","0.0-56.0-1.0","0","0","YrnLv","Scenes","","1411","","","75","","","","0","113","119","1","1","70","72","damian-denis-D8R_txR_0PE-unsplash.jpg","james-wheeler-AFC0XvICMgs-unsplash.jpg","1","0","119","113","","","","","","","","","","","","","","","","","","","","","","","","","","","",""
"","choice_confirmation","","html-keyboard-response","60","509643","0.0-56.0-2.0-0.0","0","0","YrnLv","Scenes","","null","","","null","","","","0","113","119","","","","","","","","","","","","","","","","","","","","","","","","","","","","","","","","","","","","","",""
"","explain_trial","","survey-text","61","536701","0.0-56.0-5.0-0.0","0","0","YrnLv","Scenes","","27056","{""Q0"":""I like the colorful composition of the image.""}","","","","","","0","113","119","","","","","","","","","","","{""Q0"":""I like the colorful composition of the image.""}","","","","","","","","","","","","","","","","","","","","","","","","","","",""
"","fixation","","html-keyboard-response","62","537708","0.0-57.0-0.0","0","0","YrnLv","Scenes","","null","","","null","","","","","","","","","","","","","","","","","","","","","","","","","","","","","","","","","","","","","","","","","","","",""
"","deliberation","","html-keyboard-response","63","540165","0.0-57.0-1.0","0","0","YrnLv","Scenes","","2456","","","68","","","","1","143","127","0","1","78","66","sigurdur-fjalar-jonsson-1KxBabIntpE-unsplash.jpg","kace-rodriguez-p3OzJuT_Dks-unsplash.jpg","1","1","143","127","","","","","","","","","","","","","","","","","","","","","","","","","","","",""
"","choice_confirmation","","html-keyboard-response","64","540677","0.0-57.0-2.0-0.0","0","0","YrnLv","Scenes","","null","","","null","","","","1","143","127","","","","","","","","","","","","","","","","","","","","","","","","","","","","","","","","","","","","","",""
"","fixation","","html-keyboard-response","65","541683","0.0-58.0-0.0","0","0","YrnLv","Scenes","","null","","","null","","","","","","","","","","","","","","","","","","","","","","","","","","","","","","","","","","","","","","","","","","","",""
"","deliberation","","html-keyboard-response","66","543689","0.0-58.0-1.0","0","0","YrnLv","Scenes","","2004","","","68","","","","2","141","129","0","1","81","73","sebastian-unrau-v4e3JI7DDHI-unsplash.jpg","kurt-cotoaga-cqbLg3lZEpk-unsplash.jpg","1","1","141","129","","","","","","","","","","","","","","","","","","","","","","","","","","","",""
"","choice_confirmation","","html-keyboard-response","67","544193","0.0-58.0-2.0-0.0","0","0","YrnLv","Scenes","","null","","","null","","","","2","141","129","","","","","","","","","","","","","","","","","","","","","","","","","","","","","","","","","","","","","",""
"","fixation","","html-keyboard-response","68","545201","0.0-59.0-0.0","0","0","YrnLv","Scenes","","null","","","null","","","","","","","","","","","","","","","","","","","","","","","","","","","","","","","","","","","","","","","","","","","",""
"","deliberation","","html-keyboard-response","69","547556","0.0-59.0-1.0","0","0","YrnLv","Scenes","","2354","","","68","","","","3","108","137","1","-1","64","81","benjamin-voros-phIFdC6lA4E-unsplash.jpg","olga-stalska-QaWRyEdlffY-unsplash.jpg","1","1","108","137","","","","","","","","","","","","","","","","","","","","","","","","","","","",""
"","choice_confirmation","","html-keyboard-response","70","548060","0.0-59.0-2.0-0.0","0","0","YrnLv","Scenes","","null","","","null","","","","3","108","137","","","","","","","","","","","","","","","","","","","","","","","","","","","","","","","","","","","","","",""
"","explain_trial","","survey-text","71","615229","0.0-59.0-5.0-0.0","0","0","YrnLv","Scenes","","67166","{""Q0"":""The night sky looks beautiful with the purplish hue that transitions into the blue emanating from the horizon.""}","","","","","","3","108","137","","","","","","","","","","","{""Q0"":""The night sky looks beautiful with the purplish hue that transitions into the blue emanating from the horizon.""}","","","","","","","","","","","","","","","","","","","","","","","","","","",""
"","fixation","","html-keyboard-response","72","616241","0.0-60.0-0.0","0","0","YrnLv","Scenes","","null","","","null","","","","","","","","","","","","","","","","","","","","","","","","","","","","","","","","","","","","","","","","","","","",""
"","deliberation","","html-keyboard-response","73","618686","0.0-60.0-1.0","0","0","YrnLv","Scenes","","2443","","","68","","","","4","114","109","1","-1","80","61","daniel-sessler-z_9VmsxR8hs-unsplash.jpg","brigitta-schneiter-hXXRLtTxXCU-unsplash.jpg","1","1","114","109","","","","","","","","","","","","","","","","","","","","","","","","","","","",""
"","choice_confirmation","","html-keyboard-response","74","619202","0.0-60.0-2.0-0.0","0","0","YrnLv","Scenes","","null","","","null","","","","4","114","109","","","","","","","","","","","","","","","","","","","","","","","","","","","","","","","","","","","","","",""
"","explain_trial","","survey-text","75","663040","0.0-60.0-5.0-0.0","0","0","YrnLv","Scenes","","43837","{""Q0"":""I like how simple the composition is with just a small island of land surrounded by water.""}","","","","","","4","114","109","","","","","","","","","","","{""Q0"":""I like how simple the composition is with just a small island of land surrounded by water.""}","","","","","","","","","","","","","","","","","","","","","","","","","","",""
"","fixation","","html-keyboard-response","76","664050","0.0-61.0-0.0","0","0","YrnLv","Scenes","","null","","","null","","","","","","","","","","","","","","","","","","","","","","","","","","","","","","","","","","","","","","","","","","","",""
"","deliberation","","html-keyboard-response","77","667666","0.0-61.0-1.0","0","0","YrnLv","Scenes","","3615","","","75","","","","5","103","125","1","1","81","68","anton-darius-FBJugtbHsWU-unsplash.jpg","john-lee-oMneOBYhJxY-unsplash.jpg","1","0","125","103","","","","","","","","","","","","","","","","","","","","","","","","","","","",""
"","choice_confirmation","","html-keyboard-response","78","668170","0.0-61.0-2.0-0.0","0","0","YrnLv","Scenes","","null","","","null","","","","5","103","125","","","","","","","","","","","","","","","","","","","","","","","","","","","","","","","","","","","","","",""
"","explain_trial","","survey-text","79","725540","0.0-61.0-5.0-0.0","0","0","YrnLv","Scenes","","57368","{""Q0"":""The mountains are reflected beautifully in the water.""}","","","","","","5","103","125","","","","","","","","","","","{""Q0"":""The mountains are reflected beautifully in the water.""}","","","","","","","","","","","","","","","","","","","","","","","","","","",""
"","fixation","","html-keyboard-response","80","726544","0.0-62.0-0.0","0","0","YrnLv","Scenes","","null","","","null","","","","","","","","","","","","","","","","","","","","","","","","","","","","","","","","","","","","","","","","","","","",""
"","deliberation","","html-keyboard-response","81","732347","0.0-62.0-1.0","0","0","YrnLv","Scenes","","5801","","","68","","","","6","100","101","1","-1","63","62","aleksandra-boguslawska-MS7KD9Ti7FQ-unsplash.jpg","aniket-deole-T-tOgjWZ0fQ-unsplash.jpg","1","1","100","101","","","","","","","","","","","","","","","","","","","","","","","","","","","",""
"","choice_confirmation","","html-keyboard-response","82","732856","0.0-62.0-2.0-0.0","0","0","YrnLv","Scenes","","null","","","null","","","","6","100","101","","","","","","","","","","","","","","","","","","","","","","","","","","","","","","","","","","","","","",""
"","explain_trial","","survey-text","83","795685","0.0-62.0-5.0-0.0","0","0","YrnLv","Scenes","","62827","{""Q0"":""The boardwalk gives off a sense of peace and calmness.""}","","","","","","6","100","101","","","","","","","","","","","{""Q0"":""The boardwalk gives off a sense of peace and calmness.""}","","","","","","","","","","","","","","","","","","","","","","","","","","",""
"","fixation","","html-keyboard-response","84","796693","0.0-63.0-0.0","0","0","YrnLv","Scenes","","null","","","null","","","","","","","","","","","","","","","","","","","","","","","","","","","","","","","","","","","","","","","","","","","",""
"","deliberation","","html-keyboard-response","85","799491","0.0-63.0-1.0","0","0","YrnLv","Scenes","","2796","","","75","","","","7","115","130","0","1","64","81","darrell-cassell-hoCXpPUMCoE-unsplash.jpg","lina-loos-04-C1NZk1hE-unsplash.jpg","1","0","130","115","","","","","","","","","","","","","","","","","","","","","","","","","","","",""
"","choice_confirmation","","html-keyboard-response","86","799998","0.0-63.0-2.0-0.0","0","0","YrnLv","Scenes","","null","","","null","","","","7","115","130","","","","","","","","","","","","","","","","","","","","","","","","","","","","","","","","","","","","","",""
"","fixation","","html-keyboard-response","87","801008","0.0-64.0-0.0","0","0","YrnLv","Scenes","","null","","","null","","","","","","","","","","","","","","","","","","","","","","","","","","","","","","","","","","","","","","","","","","","",""
"","deliberation","","html-keyboard-response","88","805729","0.0-64.0-1.0","0","0","YrnLv","Scenes","","4718","","","68","","","","8","104","146","0","-1","63","71","artem-sapegin-XGDBdSQ70O0-unsplash.jpg","thomas-morse-cuKKa0vWZSY-unsplash.jpg","1","1","104","146","","","","","","","","","","","","","","","","","","","","","","","","","","","",""
"","choice_confirmation","","html-keyboard-response","89","806242","0.0-64.0-2.0-0.0","0","0","YrnLv","Scenes","","null","","","null","","","","8","104","146","","","","","","","","","","","","","","","","","","","","","","","","","","","","","","","","","","","","","",""
"","fixation","","html-keyboard-response","90","807257","0.0-65.0-0.0","0","0","YrnLv","Scenes","","null","","","null","","","","","","","","","","","","","","","","","","","","","","","","","","","","","","","","","","","","","","","","","","","",""
"","deliberation","","html-keyboard-response","91","812658","0.0-65.0-1.0","0","0","YrnLv","Scenes","","5400","","","75","","","","9","142","107","0","-1","74","80","sergey-pesterev-y-b_FOmJXdg-unsplash.jpg","benjamin-davies-Zm2n2O7Fph4-unsplash.jpg","1","0","107","142","","","","","","","","","","","","","","","","","","","","","","","","","","","",""
"","choice_confirmation","","html-keyboard-response","92","813171","0.0-65.0-2.0-0.0","0","0","YrnLv","Scenes","","null","","","null","","","","9","142","107","","","","","","","","","","","","","","","","","","","","","","","","","","","","","","","","","","","","","",""
"","fixation","","html-keyboard-response","93","814177","0.0-66.0-0.0","0","0","YrnLv","Scenes","","null","","","null","","","","","","","","","","","","","","","","","","","","","","","","","","","","","","","","","","","","","","","","","","","",""
"","deliberation","","html-keyboard-response","94","817108","0.0-66.0-1.0","0","0","YrnLv","Scenes","","2930","","","68","","","","10","148","123","1","1","62","76","tom-gainor-ZqLeQDjY6fY-unsplash.jpg","joel-jasmin-forestbird-efuwb5eBDrI-unsplash.jpg","1","1","148","123","","","","","","","","","","","","","","","","","","","","","","","","","","","",""
"","choice_confirmation","","html-keyboard-response","95","817611","0.0-66.0-2.0-0.0","0","0","YrnLv","Scenes","","null","","","null","","","","10","148","123","","","","","","","","","","","","","","","","","","","","","","","","","","","","","","","","","","","","","",""
"","explain_trial","","survey-text","96","863366","0.0-66.0-5.0-0.0","0","0","YrnLv","Scenes","","45753","{""Q0"":""The mixer of this cyan tint gives the image a more colorful feel. ""}","","","","","","10","148","123","","","","","","","","","","","{""Q0"":""The mixer of this cyan tint gives the image a more colorful feel. ""}","","","","","","","","","","","","","","","","","","","","","","","","","","",""
"","fixation","","html-keyboard-response","97","864380","0.0-67.0-0.0","0","0","YrnLv","Scenes","","null","","","null","","","","","","","","","","","","","","","","","","","","","","","","","","","","","","","","","","","","","","","","","","","",""
"","deliberation","","html-keyboard-response","98","870573","0.0-67.0-1.0","0","0","YrnLv","Scenes","","6192","","","75","","","","11","133","121","0","-1","71","68","mickey-o-neil-xL66l--msXU-unsplash.jpg","jean-pierre-brungs-qxCqkbF7tUc-unsplash.jpg","1","0","121","133","","","","","","","","","","","","","","","","","","","","","","","","","","","",""
"","choice_confirmation","","html-keyboard-response","99","871085","0.0-67.0-2.0-0.0","0","0","YrnLv","Scenes","","null","","","null","","","","11","133","121","","","","","","","","","","","","","","","","","","","","","","","","","","","","","","","","","","","","","",""
"","practice_deliberation_again","","html-keyboard-response","100","875594","0.0-67.0-6.0-0.0","0","0","YrnLv","Scenes","","4508","","","78","","","","","","","","","","","","","","","","","","","","","","","","","","","","","","","","","","","","","","","","","","","",""
"","fixation","","html-keyboard-response","101","876599","0.0-68.0-0.0","0","0","YrnLv","Scenes","","null","","","null","","","","","","","","","","","","","","","","","","","","","","","","","","","","","","","","","","","","","","","","","","","",""
"","deliberation","","html-keyboard-response","102","878726","0.0-68.0-1.0","0","0","YrnLv","Scenes","","2126","","","75","","","","12","142","107","1","-1","74","80","sergey-pesterev-y-b_FOmJXdg-unsplash.jpg","benjamin-davies-Zm2n2O7Fph4-unsplash.jpg","2","0","107","142","","","","","","","","","","","","","","","","","","","","","","","","","","","",""
"","choice_confirmation","","html-keyboard-response","103","879242","0.0-68.0-2.0-0.0","0","0","YrnLv","Scenes","","null","","","null","","","","12","142","107","","","","","","","","","","","","","","","","","","","","","","","","","","","","","","","","","","","","","",""
"","explain_trial","","survey-text","104","925146","0.0-68.0-5.0-0.0","0","0","YrnLv","Scenes","","45903","{""Q0"":""I love the feeling that comes from standing in an open field with the warm glow of the sun setting in the background. ""}","","","","","","12","142","107","","","","","","","","","","","{""Q0"":""I love the feeling that comes from standing in an open field with the warm glow of the sun setting in the background. ""}","","","","","","","","","","","","","","","","","","","","","","","","","","",""
"","fixation","","html-keyboard-response","105","926152","0.0-69.0-0.0","0","0","YrnLv","Scenes","","null","","","null","","","","","","","","","","","","","","","","","","","","","","","","","","","","","","","","","","","","","","","","","","","",""
"","deliberation","","html-keyboard-response","106","929313","0.0-69.0-1.0","0","0","YrnLv","Scenes","","3159","","","68","","","","13","141","129","1","1","81","73","sebastian-unrau-v4e3JI7DDHI-unsplash.jpg","kurt-cotoaga-cqbLg3lZEpk-unsplash.jpg","2","1","141","129","","","","","","","","","","","","","","","","","","","","","","","","","","","",""
"","choice_confirmation","","html-keyboard-response","107","929816","0.0-69.0-2.0-0.0","0","0","YrnLv","Scenes","","null","","","null","","","","13","141","129","","","","","","","","","","","","","","","","","","","","","","","","","","","","","","","","","","","","","",""
"","explain_trial","","survey-text","108","1034803","0.0-69.0-5.0-0.0","0","0","YrnLv","Scenes","","104984","{""Q0"":""Fall being my favorite season always evoke a sense of serenity in me. This picture captures that beautifully.""}","","","","","","13","141","129","","","","","","","","","","","{""Q0"":""Fall being my favorite season always evoke a sense of serenity in me. This picture captures that beautifully.""}","","","","","","","","","","","","","","","","","","","","","","","","","","",""
"","fixation","","html-keyboard-response","109","1035815","0.0-70.0-0.0","0","0","YrnLv","Scenes","","null","","","null","","","","","","","","","","","","","","","","","","","","","","","","","","","","","","","","","","","","","","","","","","","",""
"","deliberation","","html-keyboard-response","110","1045138","0.0-70.0-1.0","0","0","YrnLv","Scenes","","9320","","","68","","","","14","100","101","0","-1","63","62","aleksandra-boguslawska-MS7KD9Ti7FQ-unsplash.jpg","aniket-deole-T-tOgjWZ0fQ-unsplash.jpg","2","1","100","101","","","","","","","","","","","","","","","","","","","","","","","","","","","",""
"","choice_confirmation","","html-keyboard-response","111","1045648","0.0-70.0-2.0-0.0","0","0","YrnLv","Scenes","","null","","","null","","","","14","100","101","","","","","","","","","","","","","","","","","","","","","","","","","","","","","","","","","","","","","",""
"","fixation","","html-keyboard-response","112","1046659","0.0-71.0-0.0","0","0","YrnLv","Scenes","","null","","","null","","","","","","","","","","","","","","","","","","","","","","","","","","","","","","","","","","","","","","","","","","","",""
"","deliberation","","html-keyboard-response","113","1051975","0.0-71.0-1.0","0","0","YrnLv","Scenes","","5314","","","68","","","","15","104","146","1","-1","63","71","artem-sapegin-XGDBdSQ70O0-unsplash.jpg","thomas-morse-cuKKa0vWZSY-unsplash.jpg","2","1","104","146","","","","","","","","","","","","","","","","","","","","","","","","","","","",""
"","choice_confirmation","","html-keyboard-response","114","1052493","0.0-71.0-2.0-0.0","0","0","YrnLv","Scenes","","null","","","null","","","","15","104","146","","","","","","","","","","","","","","","","","","","","","","","","","","","","","","","","","","","","","",""
"","explain_trial","","survey-text","115","1153584","0.0-71.0-5.0-0.0","0","0","YrnLv","Scenes","","101088","{""Q0"":""I love the dark and dreary vibe this picture gives off. Both the tower and the boat complement each other without feeling crowded. ""}","","","","","","15","104","146","","","","","","","","","","","{""Q0"":""I love the dark and dreary vibe this picture gives off. Both the tower and the boat complement each other without feeling crowded. ""}","","","","","","","","","","","","","","","","","","","","","","","","","","",""
"","fixation","","html-keyboard-response","116","1154599","0.0-72.0-0.0","0","0","YrnLv","Scenes","","null","","","null","","","","","","","","","","","","","","","","","","","","","","","","","","","","","","","","","","","","","","","","","","","",""
"","deliberation","","html-keyboard-response","117","1164601","0.0-72.0-1.0","0","0","YrnLv","Scenes","","null","","","null","","","","16","114","109","0","-1","80","61","daniel-sessler-z_9VmsxR8hs-unsplash.jpg","brigitta-schneiter-hXXRLtTxXCU-unsplash.jpg","2","","","","","","","","","","","","","","","","","","","","","","","","","","","","","","",""
"","deliberation_too_slow","","html-keyboard-response","118","1166107","0.0-72.0-4.0-0.0","1","0","YrnLv","Scenes","","null","","","null","","","","16","","","","","","","","","","","","","","","","","","","","","","","","","","","","","","","","","","","","","","","",""
"","fixation","","html-keyboard-response","119","1167114","0.0-72.1-0.1","0","0","YrnLv","Scenes","","null","","","null","","","","","","","","","","","","","","","","","","","","","","","","","","","","","","","","","","","","","","","","","","","",""
"","deliberation","","html-keyboard-response","120","1167664","0.0-72.1-1.1","0","0","YrnLv","Scenes","","546","","","75","","","","16","114","109","0","-1","80","61","daniel-sessler-z_9VmsxR8hs-unsplash.jpg","brigitta-schneiter-hXXRLtTxXCU-unsplash.jpg","2","0","109","114","","","","","","","","","","","","","","","","","","","","","","","","","","","",""
"","choice_confirmation","","html-keyboard-response","121","1168169","0.0-72.1-2.1-0.1","0","0","YrnLv","Scenes","","null","","","null","","","","16","114","109","","","","","","","","","","","","","","","","","","","","","","","","","","","","","","","","","","","","","",""
"","fixation","","html-keyboard-response","122","1169177","0.0-73.0-0.0","0","0","YrnLv","Scenes","","null","","","null","","","","","","","","","","","","","","","","","","","","","","","","","","","","","","","","","","","","","","","","","","","",""
"","deliberation","","html-keyboard-response","123","1171159","0.0-73.0-1.0","0","0","YrnLv","Scenes","","1979","","","75","","","","17","113","119","0","1","70","72","damian-denis-D8R_txR_0PE-unsplash.jpg","james-wheeler-AFC0XvICMgs-unsplash.jpg","2","0","119","113","","","","","","","","","","","","","","","","","","","","","","","","","","","",""
"","choice_confirmation","","html-keyboard-response","124","1171676","0.0-73.0-2.0-0.0","0","0","YrnLv","Scenes","","null","","","null","","","","17","113","119","","","","","","","","","","","","","","","","","","","","","","","","","","","","","","","","","","","","","",""
"","fixation","","html-keyboard-response","125","1172685","0.0-74.0-0.0","0","0","YrnLv","Scenes","","null","","","null","","","","","","","","","","","","","","","","","","","","","","","","","","","","","","","","","","","","","","","","","","","",""
"","deliberation","","html-keyboard-response","126","1173875","0.0-74.0-1.0","0","0","YrnLv","Scenes","","1187","","","68","","","","18","148","123","0","1","62","76","tom-gainor-ZqLeQDjY6fY-unsplash.jpg","joel-jasmin-forestbird-efuwb5eBDrI-unsplash.jpg","2","1","148","123","","","","","","","","","","","","","","","","","","","","","","","","","","","",""
"","choice_confirmation","","html-keyboard-response","127","1174388","0.0-74.0-2.0-0.0","0","0","YrnLv","Scenes","","null","","","null","","","","18","148","123","","","","","","","","","","","","","","","","","","","","","","","","","","","","","","","","","","","","","",""
"","fixation","","html-keyboard-response","128","1175390","0.0-75.0-0.0","0","0","YrnLv","Scenes","","null","","","null","","","","","","","","","","","","","","","","","","","","","","","","","","","","","","","","","","","","","","","","","","","",""
"","deliberation","","html-keyboard-response","129","1176776","0.0-75.0-1.0","0","0","YrnLv","Scenes","","1382","","","68","","","","19","133","121","1","-1","71","68","mickey-o-neil-xL66l--msXU-unsplash.jpg","jean-pierre-brungs-qxCqkbF7tUc-unsplash.jpg","2","1","133","121","","","","","","","","","","","","","","","","","","","","","","","","","","","",""
"","choice_confirmation","","html-keyboard-response","130","1177289","0.0-75.0-2.0-0.0","0","0","YrnLv","Scenes","","null","","","null","","","","19","133","121","","","","","","","","","","","","","","","","","","","","","","","","","","","","","","","","","","","","","",""
"","explain_trial","","survey-text","131","1236224","0.0-75.0-5.0-0.0","0","0","YrnLv","Scenes","","58931","{""Q0"":""This image is simple yet effective. I love the cool breezy feeling this image gives off.""}","","","","","","19","133","121","","","","","","","","","","","{""Q0"":""This image is simple yet effective. I love the cool breezy feeling this image gives off.""}","","","","","","","","","","","","","","","","","","","","","","","","","","",""
"","fixation","","html-keyboard-response","132","1237240","0.0-76.0-0.0","0","0","YrnLv","Scenes","","null","","","null","","","","","","","","","","","","","","","","","","","","","","","","","","","","","","","","","","","","","","","","","","","",""
"","deliberation","","html-keyboard-response","133","1239226","0.0-76.0-1.0","0","0","YrnLv","Scenes","","1982","","","68","","","","20","108","137","0","-1","64","81","benjamin-voros-phIFdC6lA4E-unsplash.jpg","olga-stalska-QaWRyEdlffY-unsplash.jpg","2","1","108","137","","","","","","","","","","","","","","","","","","","","","","","","","","","",""
"","choice_confirmation","","html-keyboard-response","134","1239744","0.0-76.0-2.0-0.0","0","0","YrnLv","Scenes","","null","","","null","","","","20","108","137","","","","","","","","","","","","","","","","","","","","","","","","","","","","","","","","","","","","","",""
"","fixation","","html-keyboard-response","135","1240760","0.0-77.0-0.0","0","0","YrnLv","Scenes","","null","","","null","","","","","","","","","","","","","","","","","","","","","","","","","","","","","","","","","","","","","","","","","","","",""
"","deliberation","","html-keyboard-response","136","1242585","0.0-77.0-1.0","0","0","YrnLv","Scenes","","1823","","","75","","","","21","115","130","1","1","64","81","darrell-cassell-hoCXpPUMCoE-unsplash.jpg","lina-loos-04-C1NZk1hE-unsplash.jpg","2","0","130","115","","","","","","","","","","","","","","","","","","","","","","","","","","","",""
"","choice_confirmation","","html-keyboard-response","137","1243091","0.0-77.0-2.0-0.0","0","0","YrnLv","Scenes","","null","","","null","","","","21","115","130","","","","","","","","","","","","","","","","","","","","","","","","","","","","","","","","","","","","","",""
"","explain_trial","","survey-text","138","1288226","0.0-77.0-5.0-0.0","0","0","YrnLv","Scenes","","45132","{""Q0"":""From the angle to the amount of greenery and foliage. This image is perfect in every way. ""}","","","","","","21","115","130","","","","","","","","","","","{""Q0"":""From the angle to the amount of greenery and foliage. This image is perfect in every way. ""}","","","","","","","","","","","","","","","","","","","","","","","","","","",""
"","fixation","","html-keyboard-response","139","1289242","0.0-78.0-0.0","0","0","YrnLv","Scenes","","null","","","null","","","","","","","","","","","","","","","","","","","","","","","","","","","","","","","","","","","","","","","","","","","",""
"","deliberation","","html-keyboard-response","140","1291908","0.0-78.0-1.0","0","0","YrnLv","Scenes","","2662","","","75","","","","22","103","125","0","1","81","68","anton-darius-FBJugtbHsWU-unsplash.jpg","john-lee-oMneOBYhJxY-unsplash.jpg","2","0","125","103","","","","","","","","","","","","","","","","","","","","","","","","","","","",""
"","choice_confirmation","","html-keyboard-response","141","1292411","0.0-78.0-2.0-0.0","0","0","YrnLv","Scenes","","null","","","null","","","","22","103","125","","","","","","","","","","","","","","","","","","","","","","","","","","","","","","","","","","","","","",""
"","fixation","","html-keyboard-response","142","1293416","0.0-79.0-0.0","0","0","YrnLv","Scenes","","null","","","null","","","","","","","","","","","","","","","","","","","","","","","","","","","","","","","","","","","","","","","","","","","",""
"","deliberation","","html-keyboard-response","143","1296538","0.0-79.0-1.0","0","0","YrnLv","Scenes","","3120","","","75","","","","23","143","127","1","1","78","66","sigurdur-fjalar-jonsson-1KxBabIntpE-unsplash.jpg","kace-rodriguez-p3OzJuT_Dks-unsplash.jpg","2","0","127","143","","","","","","","","","","","","","","","","","","","","","","","","","","","",""
"","choice_confirmation","","html-keyboard-response","144","1297043","0.0-79.0-2.0-0.0","0","0","YrnLv","Scenes","","null","","","null","","","","23","143","127","","","","","","","","","","","","","","","","","","","","","","","","","","","","","","","","","","","","","",""
"","explain_trial","","survey-text","145","1383583","0.0-79.0-5.0-0.0","0","0","YrnLv","Scenes","","86538","{""Q0"":""I love the dark gloominess of this image. From the two rock pillars in the background to the dark wet sand on the ground.""}","","","","","","23","143","127","","","","","","","","","","","{""Q0"":""I love the dark gloominess of this image. From the two rock pillars in the background to the dark wet sand on the ground.""}","","","","","","","","","","","","","","","","","","","","","","","","","","",""
"","start_critical_deliberation_block","","html-keyboard-response","146","1388578","0.0-79.0-7.0-0.0","0","0","YrnLv","Scenes","","4990","","","78","","","","","","","","","","","","","","","","","","","","","","","","","","","","","","","","","","","","","","","","","","","",""
"","fixation","","html-keyboard-response","147","1389585","0.0-80.0-0.0","0","0","YrnLv","Scenes","","null","","","null","","","","","","","","","","","","","","","","","","","","","","","","","","","","","","","","","","","","","","","","","","","",""
"","deliberation","","html-keyboard-response","148","1391656","0.0-80.0-1.0","0","0","YrnLv","Scenes","","2068","","","68","","","","24","104","146","0","-1","63","71","artem-sapegin-XGDBdSQ70O0-unsplash.jpg","thomas-morse-cuKKa0vWZSY-unsplash.jpg","3","1","104","146","","","","","","","","","","","","","","","","","","","","","","","","","","","",""
"","choice_confirmation","","html-keyboard-response","149","1392176","0.0-80.0-2.0-0.0","0","0","YrnLv","Scenes","","null","","","null","","","","24","104","146","","","","","","","","","","","","","","","","","","","","","","","","","","","","","","","","","","","","","",""
"","fixation","","html-keyboard-response","150","1393185","0.0-81.0-0.0","0","0","YrnLv","Scenes","","null","","","null","","","","","","","","","","","","","","","","","","","","","","","","","","","","","","","","","","","","","","","","","","","",""
"","deliberation","","html-keyboard-response","151","1394373","0.0-81.0-1.0","0","0","YrnLv","Scenes","","1185","","","68","","","","25","141","129","0","1","81","73","sebastian-unrau-v4e3JI7DDHI-unsplash.jpg","kurt-cotoaga-cqbLg3lZEpk-unsplash.jpg","3","1","141","129","","","","","","","","","","","","","","","","","","","","","","","","","","","",""
"","choice_confirmation","","html-keyboard-response","152","1394877","0.0-81.0-2.0-0.0","0","0","YrnLv","Scenes","","null","","","null","","","","25","141","129","","","","","","","","","","","","","","","","","","","","","","","","","","","","","","","","","","","","","",""
"","fixation","","html-keyboard-response","153","1395881","0.0-82.0-0.0","0","0","YrnLv","Scenes","","null","","","null","","","","","","","","","","","","","","","","","","","","","","","","","","","","","","","","","","","","","","","","","","","",""
"","deliberation","","html-keyboard-response","154","1396727","0.0-82.0-1.0","0","0","YrnLv","Scenes","","844","","","68","","","","26","108","137","0","-1","64","81","benjamin-voros-phIFdC6lA4E-unsplash.jpg","olga-stalska-QaWRyEdlffY-unsplash.jpg","3","1","108","137","","","","","","","","","","","","","","","","","","","","","","","","","","","",""
"","choice_confirmation","","html-keyboard-response","155","1397239","0.0-82.0-2.0-0.0","0","0","YrnLv","Scenes","","null","","","null","","","","26","108","137","","","","","","","","","","","","","","","","","","","","","","","","","","","","","","","","","","","","","",""
"","fixation","","html-keyboard-response","156","1398249","0.0-83.0-0.0","0","0","YrnLv","Scenes","","null","","","null","","","","","","","","","","","","","","","","","","","","","","","","","","","","","","","","","","","","","","","","","","","",""
"","deliberation","","html-keyboard-response","157","1399462","0.0-83.0-1.0","0","0","YrnLv","Scenes","","1211","","","75","","","","27","143","127","0","1","78","66","sigurdur-fjalar-jonsson-1KxBabIntpE-unsplash.jpg","kace-rodriguez-p3OzJuT_Dks-unsplash.jpg","3","0","127","143","","","","","","","","","","","","","","","","","","","","","","","","","","","",""
"","choice_confirmation","","html-keyboard-response","158","1399971","0.0-83.0-2.0-0.0","0","0","YrnLv","Scenes","","null","","","null","","","","27","143","127","","","","","","","","","","","","","","","","","","","","","","","","","","","","","","","","","","","","","",""
"","fixation","","html-keyboard-response","159","1400983","0.0-84.0-0.0","0","0","YrnLv","Scenes","","null","","","null","","","","","","","","","","","","","","","","","","","","","","","","","","","","","","","","","","","","","","","","","","","",""
"","deliberation","","html-keyboard-response","160","1401997","0.0-84.0-1.0","0","0","YrnLv","Scenes","","1012","","","68","","","","28","100","101","0","-1","63","62","aleksandra-boguslawska-MS7KD9Ti7FQ-unsplash.jpg","aniket-deole-T-tOgjWZ0fQ-unsplash.jpg","3","1","100","101","","","","","","","","","","","","","","","","","","","","","","","","","","","",""
"","choice_confirmation","","html-keyboard-response","161","1402512","0.0-84.0-2.0-0.0","0","0","YrnLv","Scenes","","null","","","null","","","","28","100","101","","","","","","","","","","","","","","","","","","","","","","","","","","","","","","","","","","","","","",""
"","fixation","","html-keyboard-response","162","1403519","0.0-85.0-0.0","0","0","YrnLv","Scenes","","null","","","null","","","","","","","","","","","","","","","","","","","","","","","","","","","","","","","","","","","","","","","","","","","",""
"","deliberation","","html-keyboard-response","163","1404644","0.0-85.0-1.0","0","0","YrnLv","Scenes","","1123","","","75","","","","29","113","119","0","1","70","72","damian-denis-D8R_txR_0PE-unsplash.jpg","james-wheeler-AFC0XvICMgs-unsplash.jpg","3","0","119","113","","","","","","","","","","","","","","","","","","","","","","","","","","","",""
"","choice_confirmation","","html-keyboard-response","164","1405160","0.0-85.0-2.0-0.0","0","0","YrnLv","Scenes","","null","","","null","","","","29","113","119","","","","","","","","","","","","","","","","","","","","","","","","","","","","","","","","","","","","","",""
"","fixation","","html-keyboard-response","165","1406169","0.0-86.0-0.0","0","0","YrnLv","Scenes","","null","","","null","","","","","","","","","","","","","","","","","","","","","","","","","","","","","","","","","","","","","","","","","","","",""
"","deliberation","","html-keyboard-response","166","1407273","0.0-86.0-1.0","0","0","YrnLv","Scenes","","1102","","","75","","","","30","115","130","0","1","64","81","darrell-cassell-hoCXpPUMCoE-unsplash.jpg","lina-loos-04-C1NZk1hE-unsplash.jpg","3","0","130","115","","","","","","","","","","","","","","","","","","","","","","","","","","","",""
"","choice_confirmation","","html-keyboard-response","167","1407790","0.0-86.0-2.0-0.0","0","0","YrnLv","Scenes","","null","","","null","","","","30","115","130","","","","","","","","","","","","","","","","","","","","","","","","","","","","","","","","","","","","","",""
"","fixation","","html-keyboard-response","168","1408804","0.0-87.0-0.0","0","0","YrnLv","Scenes","","null","","","null","","","","","","","","","","","","","","","","","","","","","","","","","","","","","","","","","","","","","","","","","","","",""
"","deliberation","","html-keyboard-response","169","1409989","0.0-87.0-1.0","0","0","YrnLv","Scenes","","1184","","","68","","","","31","114","109","0","-1","80","61","daniel-sessler-z_9VmsxR8hs-unsplash.jpg","brigitta-schneiter-hXXRLtTxXCU-unsplash.jpg","3","1","114","109","","","","","","","","","","","","","","","","","","","","","","","","","","","",""
"","choice_confirmation","","html-keyboard-response","170","1410501","0.0-87.0-2.0-0.0","0","0","YrnLv","Scenes","","null","","","null","","","","31","114","109","","","","","","","","","","","","","","","","","","","","","","","","","","","","","","","","","","","","","",""
"","fixation","","html-keyboard-response","171","1411514","0.0-88.0-0.0","0","0","YrnLv","Scenes","","null","","","null","","","","","","","","","","","","","","","","","","","","","","","","","","","","","","","","","","","","","","","","","","","",""
"","deliberation","","html-keyboard-response","172","1412770","0.0-88.0-1.0","0","0","YrnLv","Scenes","","1254","","","75","","","","32","142","107","0","-1","74","80","sergey-pesterev-y-b_FOmJXdg-unsplash.jpg","benjamin-davies-Zm2n2O7Fph4-unsplash.jpg","3","0","107","142","","","","","","","","","","","","","","","","","","","","","","","","","","","",""
"","choice_confirmation","","html-keyboard-response","173","1413281","0.0-88.0-2.0-0.0","0","0","YrnLv","Scenes","","null","","","null","","","","32","142","107","","","","","","","","","","","","","","","","","","","","","","","","","","","","","","","","","","","","","",""
"","fixation","","html-keyboard-response","174","1414290","0.0-89.0-0.0","0","0","YrnLv","Scenes","","null","","","null","","","","","","","","","","","","","","","","","","","","","","","","","","","","","","","","","","","","","","","","","","","",""
"","deliberation","","html-keyboard-response","175","1415006","0.0-89.0-1.0","0","0","YrnLv","Scenes","","714","","","68","","","","33","148","123","0","1","62","76","tom-gainor-ZqLeQDjY6fY-unsplash.jpg","joel-jasmin-forestbird-efuwb5eBDrI-unsplash.jpg","3","1","148","123","","","","","","","","","","","","","","","","","","","","","","","","","","","",""
"","choice_confirmation","","html-keyboard-response","176","1415519","0.0-89.0-2.0-0.0","0","0","YrnLv","Scenes","","null","","","null","","","","33","148","123","","","","","","","","","","","","","","","","","","","","","","","","","","","","","","","","","","","","","",""
"","fixation","","html-keyboard-response","177","1416533","0.0-90.0-0.0","0","0","YrnLv","Scenes","","null","","","null","","","","","","","","","","","","","","","","","","","","","","","","","","","","","","","","","","","","","","","","","","","",""
"","deliberation","","html-keyboard-response","178","1417498","0.0-90.0-1.0","0","0","YrnLv","Scenes","","963","","","68","","","","34","133","121","0","-1","71","68","mickey-o-neil-xL66l--msXU-unsplash.jpg","jean-pierre-brungs-qxCqkbF7tUc-unsplash.jpg","3","1","133","121","","","","","","","","","","","","","","","","","","","","","","","","","","","",""
"","choice_confirmation","","html-keyboard-response","179","1418002","0.0-90.0-2.0-0.0","0","0","YrnLv","Scenes","","null","","","null","","","","34","133","121","","","","","","","","","","","","","","","","","","","","","","","","","","","","","","","","","","","","","",""
"","fixation","","html-keyboard-response","180","1419016","0.0-91.0-0.0","0","0","YrnLv","Scenes","","null","","","null","","","","","","","","","","","","","","","","","","","","","","","","","","","","","","","","","","","","","","","","","","","",""
"","deliberation","","html-keyboard-response","181","1420231","0.0-91.0-1.0","0","0","YrnLv","Scenes","","1213","","","75","","","","35","103","125","0","1","81","68","anton-darius-FBJugtbHsWU-unsplash.jpg","john-lee-oMneOBYhJxY-unsplash.jpg","3","0","125","103","","","","","","","","","","","","","","","","","","","","","","","","","","","",""
"","choice_confirmation","","html-keyboard-response","182","1420753","0.0-91.0-2.0-0.0","0","0","YrnLv","Scenes","","null","","","null","","","","35","103","125","","","","","","","","","","","","","","","","","","","","","","","","","","","","","","","","","","","","","",""
"","reward_learning_instructions","","instructions","183","1511577","0.0-92.0-0.0","0","0","YrnLv","Scenes","[{""page_index"":0,""viewing_time"":34869},{""page_index"":1,""viewing_time"":52786},{""page_index"":2,""viewing_time"":3168}]","90823","","","","","","","","","","","","","","","","","","","","","","","","","","","","","","","","","","","","","","","","","","","","","","",""
"","reward_comprehension_check","","survey-multi-choice","184","1532603","0.0-92.0-1.0","0","0","YrnLv","Scenes","","21022","{""Q0"":""True"",""Q1"":""True"",""Q2"":""Press the space bar to see its outcome"",""Q3"":""Press the relevant key while the outcome is presented""}","0","","","","","","","","","","","","","","","","","","","","","","","","","","","","","","","","","","","","","","","","","","","","",""
"","start_phase","","html-keyboard-response","185","1535109","0.0-93.0","0","0","YrnLv","Scenes","","2502","","","78","","","","","","","","","","","","","","","","","","","","","","","","","","","","","","","","","","","","","","","","","","","",""
"","fixation","","html-keyboard-response","186","1536112","0.0-94.0","0","0","YrnLv","Scenes","","null","","","null","","","","","","","","","","","","","","","","","","","","","","","","","","","","","","","","","","","","","","","","","","","",""
"","see_reward","","html-keyboard-response","187","1539325","0.0-95.0","0","0","YrnLv","Scenes","","3210","","","32","","148","","0","","","","1","","","","","1","","","","","157","3210","","","","","","","","","","","","","","","","","","","","","","","","",""
"","reward_outcome","","html-keyboard-response","188","1541332","0.0-96.0","0","0","YrnLv","Scenes","","1697","","","38","","148","","0","","","","","","","","","","","","","","","","1","1697","","","","","","","","","","","","","","","","","","","","","","",""
"","fixation","","html-keyboard-response","189","1542336","0.0-99.0","0","0","YrnLv","Scenes","","null","","","null","","","","","","","","","","","","","","","","","","","","","","","","","","","","","","","","","","","","","","","","","","","",""
"","see_reward","","html-keyboard-response","190","1543261","0.0-100.0","0","0","YrnLv","Scenes","","923","","","32","","108","","1","","","","-1","","","","","1","","","","","0","923","","","","","","","","","","","","","","","","","","","","","","","","",""
"","reward_outcome","","html-keyboard-response","191","1545266","0.0-101.0","0","0","YrnLv","Scenes","","1100","","","40","","108","","1","","","","","","","","","","","","","","","","-1","1100","","","","","","","","","","","","","","","","","","","","","","",""
"","fixation","","html-keyboard-response","192","1546268","0.0-104.0","0","0","YrnLv","Scenes","","null","","","null","","","","","","","","","","","","","","","","","","","","","","","","","","","","","","","","","","","","","","","","","","","",""
"","see_reward","","html-keyboard-response","193","1547313","0.0-105.0","0","0","YrnLv","Scenes","","1043","","","32","","119","","2","","","","1","","","","","1","","","","","149","1043","","","","","","","","","","","","","","","","","","","","","","","","",""
"","reward_outcome","","html-keyboard-response","194","1549325","0.0-106.0","0","0","YrnLv","Scenes","","870","","","38","","119","","2","","","","","","","","","","","","","","","","1","870","","","","","","","","","","","","","","","","","","","","","","",""
"","fixation","","html-keyboard-response","195","1550335","0.0-109.0","0","0","YrnLv","Scenes","","null","","","null","","","","","","","","","","","","","","","","","","","","","","","","","","","","","","","","","","","","","","","","","","","",""
"","see_reward","","html-keyboard-response","196","1551409","0.0-110.0","0","0","YrnLv","Scenes","","1072","","","32","","130","","3","","","","1","","","","","1","","","","","145","1072","","","","","","","","","","","","","","","","","","","","","","","","",""
"","reward_outcome","","html-keyboard-response","197","1553411","0.0-111.0","0","0","YrnLv","Scenes","","1751","","","38","","130","","3","","","","","","","","","","","","","","","","1","1751","","","","","","","","","","","","","","","","","","","","","","",""
"","fixation","","html-keyboard-response","198","1554422","0.0-114.0","0","0","YrnLv","Scenes","","null","","","null","","","","","","","","","","","","","","","","","","","","","","","","","","","","","","","","","","","","","","","","","","","",""
"","see_reward","","html-keyboard-response","199","1556657","0.0-115.0","0","0","YrnLv","Scenes","","2234","","","32","","130","","4","","","","1","","","","","1","","","","","145","2234","","","","","","","","","","","","","","","","","","","","","","","","",""
"","reward_outcome","","html-keyboard-response","200","1558667","0.0-116.0","0","0","YrnLv","Scenes","","1451","","","38","","130","","4","","","","","","","","","","","","","","","","1","1451","","","","","","","","","","","","","","","","","","","","","","",""
"","fixation","","html-keyboard-response","201","1559679","0.0-119.0","0","0","YrnLv","Scenes","","null","","","null","","","","","","","","","","","","","","","","","","","","","","","","","","","","","","","","","","","","","","","","","","","",""
"","see_reward","","html-keyboard-response","202","1560486","0.0-120.0","0","0","YrnLv","Scenes","","805","","","32","","100","","5","","","","-1","","","","","1","","","","","0","805","","","","","","","","","","","","","","","","","","","","","","","","",""
"","reward_outcome","","html-keyboard-response","203","1562497","0.0-121.0","0","0","YrnLv","Scenes","","1125","","","40","","100","","5","","","","","","","","","","","","","","","","-1","1125","","","","","","","","","","","","","","","","","","","","","","",""
"","fixation","","html-keyboard-response","204","1563510","0.0-124.0","0","0","YrnLv","Scenes","","null","","","null","","","","","","","","","","","","","","","","","","","","","","","","","","","","","","","","","","","","","","","","","","","",""
"","see_reward","","html-keyboard-response","205","1564257","0.0-125.0","0","0","YrnLv","Scenes","","746","","","32","","133","","6","","","","-1","","","","","1","","","","","0","746","","","","","","","","","","","","","","","","","","","","","","","","",""
"","reward_outcome","","html-keyboard-response","206","1566270","0.0-126.0","0","0","YrnLv","Scenes","","1151","","","40","","133","","6","","","","","","","","","","","","","","","","-1","1151","","","","","","","","","","","","","","","","","","","","","","",""
"","fixation","","html-keyboard-response","207","1567284","0.0-129.0","0","0","YrnLv","Scenes","","null","","","null","","","","","","","","","","","","","","","","","","","","","","","","","","","","","","","","","","","","","","","","","","","",""
"","see_reward","","html-keyboard-response","208","1567855","0.0-130.0","0","0","YrnLv","Scenes","","570","","","32","","127","","7","","","","1","","","","","1","","","","","142","570","","","","","","","","","","","","","","","","","","","","","","","","",""
"","reward_outcome","","html-keyboard-response","209","1569865","0.0-131.0","0","0","YrnLv","Scenes","","1350","","","38","","127","","7","","","","","","","","","","","","","","","","1","1350","","","","","","","","","","","","","","","","","","","","","","",""
"","fixation","","html-keyboard-response","210","1570876","0.0-134.0","0","0","YrnLv","Scenes","","null","","","null","","","","","","","","","","","","","","","","","","","","","","","","","","","","","","","","","","","","","","","","","","","",""
"","see_reward","","html-keyboard-response","211","1571628","0.0-135.0","0","0","YrnLv","Scenes","","750","","","32","","125","","8","","","","1","","","","","1","","","","","152","750","","","","","","","","","","","","","","","","","","","","","","","","",""
"","reward_outcome","","html-keyboard-response","212","1573633","0.0-136.0","0","0","YrnLv","Scenes","","1330","","","38","","125","","8","","","","","","","","","","","","","","","","1","1330","","","","","","","","","","","","","","","","","","","","","","",""
"","fixation","","html-keyboard-response","213","1574642","0.0-139.0","0","0","YrnLv","Scenes","","null","","","null","","","","","","","","","","","","","","","","","","","","","","","","","","","","","","","","","","","","","","","","","","","",""
"","see_reward","","html-keyboard-response","214","1575243","0.0-140.0","0","0","YrnLv","Scenes","","600","","","32","","148","","9","","","","1","","","","","1","","","","","157","600","","","","","","","","","","","","","","","","","","","","","","","","",""
"","reward_outcome","","html-keyboard-response","215","1577246","0.0-141.0","0","0","YrnLv","Scenes","","1333","","","38","","148","","9","","","","","","","","","","","","","","","","1","1333","","","","","","","","","","","","","","","","","","","","","","",""
"","fixation","","html-keyboard-response","216","1578262","0.0-144.0","0","0","YrnLv","Scenes","","null","","","null","","","","","","","","","","","","","","","","","","","","","","","","","","","","","","","","","","","","","","","","","","","",""
"","see_reward","","html-keyboard-response","217","1579021","0.0-145.0","0","0","YrnLv","Scenes","","756","","","32","","141","","10","","","","1","","","","","1","","","","","150","756","","","","","","","","","","","","","","","","","","","","","","","","",""
"","reward_outcome","","html-keyboard-response","218","1581026","0.0-146.0","0","0","YrnLv","Scenes","","1398","","","38","","141","","10","","","","","","","","","","","","","","","","1","1398","","","","","","","","","","","","","","","","","","","","","","",""
"","fixation","","html-keyboard-response","219","1582035","0.0-149.0","0","0","YrnLv","Scenes","","null","","","null","","","","","","","","","","","","","","","","","","","","","","","","","","","","","","","","","","","","","","","","","","","",""
"","see_reward","","html-keyboard-response","220","1582704","0.0-150.0","0","0","YrnLv","Scenes","","668","","","32","","108","","11","","","","-1","","","","","1","","","","","0","668","","","","","","","","","","","","","","","","","","","","","","","","",""
"","reward_outcome","","html-keyboard-response","221","1584717","0.0-151.0","0","0","YrnLv","Scenes","","1239","","","40","","108","","11","","","","","","","","","","","","","","","","-1","1239","","","","","","","","","","","","","","","","","","","","","","",""
"","fixation","","html-keyboard-response","222","1585726","0.0-154.0","0","0","YrnLv","Scenes","","null","","","null","","","","","","","","","","","","","","","","","","","","","","","","","","","","","","","","","","","","","","","","","","","",""
"","see_reward","","html-keyboard-response","223","1586431","0.0-155.0","0","0","YrnLv","Scenes","","704","","","32","","107","","12","","","","-1","","","","","1","","","","","0","704","","","","","","","","","","","","","","","","","","","","","","","","",""
"","reward_outcome","","html-keyboard-response","224","1588442","0.0-156.0","0","0","YrnLv","Scenes","","1450","","","40","","107","","12","","","","","","","","","","","","","","","","-1","1450","","","","","","","","","","","","","","","","","","","","","","",""
"","fixation","","html-keyboard-response","225","1589448","0.0-159.0","0","0","YrnLv","Scenes","","null","","","null","","","","","","","","","","","","","","","","","","","","","","","","","","","","","","","","","","","","","","","","","","","",""
"","see_reward","","html-keyboard-response","226","1590142","0.0-160.0","0","0","YrnLv","Scenes","","691","","","32","","114","","13","","","","-1","","","","","1","","","","","0","691","","","","","","","","","","","","","","","","","","","","","","","","",""
"","reward_outcome","","html-keyboard-response","227","1592158","0.0-161.0","0","0","YrnLv","Scenes","","1513","","","40","","114","","13","","","","","","","","","","","","","","","","-1","1513","","","","","","","","","","","","","","","","","","","","","","",""
"","fixation","","html-keyboard-response","228","1593171","0.0-164.0","0","0","YrnLv","Scenes","","null","","","null","","","","","","","","","","","","","","","","","","","","","","","","","","","","","","","","","","","","","","","","","","","",""
"","see_reward","","html-keyboard-response","229","1593638","0.0-165.0","0","0","YrnLv","Scenes","","466","","","32","","141","","14","","","","1","","","","","1","","","","","150","466","","","","","","","","","","","","","","","","","","","","","","","","",""
"","reward_outcome","","html-keyboard-response","230","1595655","0.0-166.0","0","0","YrnLv","Scenes","","1729","","","38","","141","","14","","","","","","","","","","","","","","","","1","1729","","","","","","","","","","","","","","","","","","","","","","",""
"","fixation","","html-keyboard-response","231","1596662","0.0-169.0","0","0","YrnLv","Scenes","","null","","","null","","","","","","","","","","","","","","","","","","","","","","","","","","","","","","","","","","","","","","","","","","","",""
"","see_reward","","html-keyboard-response","232","1597210","0.0-170.0","0","0","YrnLv","Scenes","","547","","","32","","100","","15","","","","-1","","","","","1","","","","","0","547","","","","","","","","","","","","","","","","","","","","","","","","",""
"","reward_outcome","","html-keyboard-response","233","1599220","0.0-171.0","0","0","YrnLv","Scenes","","1327","","","40","","100","","15","","","","","","","","","","","","","","","","-1","1327","","","","","","","","","","","","","","","","","","","","","","",""
"","fixation","","html-keyboard-response","234","1600233","0.0-174.0","0","0","YrnLv","Scenes","","null","","","null","","","","","","","","","","","","","","","","","","","","","","","","","","","","","","","","","","","","","","","","","","","",""
"","see_reward","","html-keyboard-response","235","1600684","0.0-175.0","0","0","YrnLv","Scenes","","450","","","32","","107","","16","","","","-1","","","","","1","","","","","0","450","","","","","","","","","","","","","","","","","","","","","","","","",""
"","reward_outcome","","html-keyboard-response","236","1602695","0.0-176.0","0","0","YrnLv","Scenes","","1287","","","40","","107","","16","","","","","","","","","","","","","","","","-1","1287","","","","","","","","","","","","","","","","","","","","","","",""
"","fixation","","html-keyboard-response","237","1603705","0.0-179.0","0","0","YrnLv","Scenes","","null","","","null","","","","","","","","","","","","","","","","","","","","","","","","","","","","","","","","","","","","","","","","","","","",""
"","see_reward","","html-keyboard-response","238","1604394","0.0-180.0","0","0","YrnLv","Scenes","","688","","","32","","104","","17","","","","-1","","","","","1","","","","","0","688","","","","","","","","","","","","","","","","","","","","","","","","",""
"","reward_outcome","","html-keyboard-response","239","1606400","0.0-181.0","0","0","YrnLv","Scenes","","1258","","","40","","104","","17","","","","","","","","","","","","","","","","-1","1258","","","","","","","","","","","","","","","","","","","","","","",""
"","fixation","","html-keyboard-response","240","1607408","0.0-184.0","0","0","YrnLv","Scenes","","null","","","null","","","","","","","","","","","","","","","","","","","","","","","","","","","","","","","","","","","","","","","","","","","",""
"","see_reward","","html-keyboard-response","241","1607869","0.0-185.0","0","0","YrnLv","Scenes","","458","","","32","","125","","18","","","","1","","","","","1","","","","","152","458","","","","","","","","","","","","","","","","","","","","","","","","",""
"","reward_outcome","","html-keyboard-response","242","1609881","0.0-186.0","0","0","YrnLv","Scenes","","1450","","","38","","125","","18","","","","","","","","","","","","","","","","1","1450","","","","","","","","","","","","","","","","","","","","","","",""
"","fixation","","html-keyboard-response","243","1610889","0.0-189.0","0","0","YrnLv","Scenes","","null","","","null","","","","","","","","","","","","","","","","","","","","","","","","","","","","","","","","","","","","","","","","","","","",""
"","see_reward","","html-keyboard-response","244","1611417","0.0-190.0","0","0","YrnLv","Scenes","","525","","","32","","133","","19","","","","-1","","","","","1","","","","","0","525","","","","","","","","","","","","","","","","","","","","","","","","",""
"","reward_outcome","","html-keyboard-response","245","1613431","0.0-191.0","0","0","YrnLv","Scenes","","1239","","","40","","133","","19","","","","","","","","","","","","","","","","-1","1239","","","","","","","","","","","","","","","","","","","","","","",""
"","fixation","","html-keyboard-response","246","1614433","0.0-194.0","0","0","YrnLv","Scenes","","null","","","null","","","","","","","","","","","","","","","","","","","","","","","","","","","","","","","","","","","","","","","","","","","",""
"","see_reward","","html-keyboard-response","247","1614824","0.0-195.0","0","0","YrnLv","Scenes","","390","","","32","","104","","20","","","","-1","","","","","1","","","","","0","390","","","","","","","","","","","","","","","","","","","","","","","","",""
"","reward_outcome","","html-keyboard-response","248","1616839","0.0-196.0","0","0","YrnLv","Scenes","","1331","","","40","","104","","20","","","","","","","","","","","","","","","","-1","1331","","","","","","","","","","","","","","","","","","","","","","",""
"","fixation","","html-keyboard-response","249","1617854","0.0-199.0","0","0","YrnLv","Scenes","","null","","","null","","","","","","","","","","","","","","","","","","","","","","","","","","","","","","","","","","","","","","","","","","","",""
"","see_reward","","html-keyboard-response","250","1618510","0.0-200.0","0","0","YrnLv","Scenes","","654","","","32","","119","","21","","","","1","","","","","1","","","","","149","654","","","","","","","","","","","","","","","","","","","","","","","","",""
"","reward_outcome","","html-keyboard-response","251","1620526","0.0-201.0","0","0","YrnLv","Scenes","","1170","","","38","","119","","21","","","","","","","","","","","","","","","","1","1170","","","","","","","","","","","","","","","","","","","","","","",""
"","fixation","","html-keyboard-response","252","1621536","0.0-204.0","0","0","YrnLv","Scenes","","null","","","null","","","","","","","","","","","","","","","","","","","","","","","","","","","","","","","","","","","","","","","","","","","",""
"","see_reward","","html-keyboard-response","253","1621984","0.0-205.0","0","0","YrnLv","Scenes","","447","","","32","","114","","22","","","","-1","","","","","1","","","","","0","447","","","","","","","","","","","","","","","","","","","","","","","","",""
"","reward_outcome","","html-keyboard-response","254","1623999","0.0-206.0","0","0","YrnLv","Scenes","","1263","","","40","","114","","22","","","","","","","","","","","","","","","","-1","1263","","","","","","","","","","","","","","","","","","","","","","",""
"","fixation","","html-keyboard-response","255","1625008","0.0-209.0","0","0","YrnLv","Scenes","","null","","","null","","","","","","","","","","","","","","","","","","","","","","","","","","","","","","","","","","","","","","","","","","","",""
"","see_reward","","html-keyboard-response","256","1625371","0.0-210.0","0","0","YrnLv","Scenes","","361","","","32","","127","","23","","","","1","","","","","1","","","","","142","361","","","","","","","","","","","","","","","","","","","","","","","","",""
"","reward_outcome","","html-keyboard-response","257","1627387","0.0-211.0","0","0","YrnLv","Scenes","","1424","","","38","","127","","23","","","","","","","","","","","","","","","","1","1424","","","","","","","","","","","","","","","","","","","","","","",""
"","block_over","","html-keyboard-response","258","1630111","0.0-213.0-0.0","0","0","YrnLv","Scenes","","2723","","","78","","","","","","","","","","","","","","","","","","","","","","","","","","","","","","","","","","","","","","","","","","","",""
"","fixation","","html-keyboard-response","259","1631114","0.0-214.0","0","0","YrnLv","Scenes","","null","","","null","","","","","","","","","","","","","","","","","","","","","","","","","","","","","","","","","","","","","","","","","","","",""
"","see_reward","","html-keyboard-response","260","1633403","0.0-215.0","0","0","YrnLv","Scenes","","2288","","","32","","127","","24","","","","1","","","","","2","","","","","142","2288","","","","","","","","","","","","","","","","","","","","","","","","",""
"","reward_outcome","","html-keyboard-response","261","1635405","0.0-216.0","0","0","YrnLv","Scenes","","895","","","38","","127","","24","","","","","","","","","","","","","","","","1","895","","","","","","","","","","","","","","","","","","","","","","",""
"","fixation","","html-keyboard-response","262","1636419","0.0-219.0","0","0","YrnLv","Scenes","","null","","","null","","","","","","","","","","","","","","","","","","","","","","","","","","","","","","","","","","","","","","","","","","","",""
"","see_reward","","html-keyboard-response","263","1637043","0.0-220.0","0","0","YrnLv","Scenes","","623","","","32","","100","","25","","","","-1","","","","","2","","","","","0","623","","","","","","","","","","","","","","","","","","","","","","","","",""
"","reward_outcome","","html-keyboard-response","264","1639050","0.0-221.0","0","0","YrnLv","Scenes","","1588","","","40","","100","","25","","","","","","","","","","","","","","","","-1","1588","","","","","","","","","","","","","","","","","","","","","","",""
"","fixation","","html-keyboard-response","265","1640055","0.0-224.0","0","0","YrnLv","Scenes","","null","","","null","","","","","","","","","","","","","","","","","","","","","","","","","","","","","","","","","","","","","","","","","","","",""
"","see_reward","","html-keyboard-response","266","1640611","0.0-225.0","0","0","YrnLv","Scenes","","554","","","32","","100","","26","","","","-1","","","","","2","","","","","0","554","","","","","","","","","","","","","","","","","","","","","","","","",""
"","reward_outcome","","html-keyboard-response","267","1642619","0.0-226.0","0","0","YrnLv","Scenes","","1495","","","40","","100","","26","","","","","","","","","","","","","","","","-1","1495","","","","","","","","","","","","","","","","","","","","","","",""
"","fixation","","html-keyboard-response","268","1643627","0.0-229.0","0","0","YrnLv","Scenes","","null","","","null","","","","","","","","","","","","","","","","","","","","","","","","","","","","","","","","","","","","","","","","","","","",""
"","see_reward","","html-keyboard-response","269","1644066","0.0-230.0","0","0","YrnLv","Scenes","","437","","","32","","107","","27","","","","-1","","","","","2","","","","","0","437","","","","","","","","","","","","","","","","","","","","","","","","",""
"","reward_outcome","","html-keyboard-response","270","1646073","0.0-231.0","0","0","YrnLv","Scenes","","1381","","","40","","107","","27","","","","","","","","","","","","","","","","-1","1381","","","","","","","","","","","","","","","","","","","","","","",""
"","fixation","","html-keyboard-response","271","1647078","0.0-234.0","0","0","YrnLv","Scenes","","null","","","null","","","","","","","","","","","","","","","","","","","","","","","","","","","","","","","","","","","","","","","","","","","",""
"","see_reward","","html-keyboard-response","272","1647406","0.0-235.0","0","0","YrnLv","Scenes","","326","","","32","","148","","28","","","","1","","","","","2","","","","","157","326","","","","","","","","","","","","","","","","","","","","","","","","",""
"","reward_outcome","","html-keyboard-response","273","1649416","0.0-236.0","0","0","YrnLv","Scenes","","1167","","","38","","148","","28","","","","","","","","","","","","","","","","1","1167","","","","","","","","","","","","","","","","","","","","","","",""
"","fixation","","html-keyboard-response","274","1650427","0.0-239.0","0","0","YrnLv","Scenes","","null","","","null","","","","","","","","","","","","","","","","","","","","","","","","","","","","","","","","","","","","","","","","","","","",""
"","see_reward","","html-keyboard-response","275","1650698","0.0-240.0","0","0","YrnLv","Scenes","","269","","","32","","125","","29","","","","1","","","","","2","","","","","152","269","","","","","","","","","","","","","","","","","","","","","","","","",""
"","reward_outcome","","html-keyboard-response","276","1652708","0.0-241.0","0","0","YrnLv","Scenes","","1378","","","38","","125","","29","","","","","","","","","","","","","","","","1","1378","","","","","","","","","","","","","","","","","","","","","","",""
"","fixation","","html-keyboard-response","277","1653715","0.0-244.0","0","0","YrnLv","Scenes","","null","","","null","","","","","","","","","","","","","","","","","","","","","","","","","","","","","","","","","","","","","","","","","","","",""
"","see_reward","","html-keyboard-response","278","1654061","0.0-245.0","0","0","YrnLv","Scenes","","345","","","32","","133","","30","","","","-1","","","","","2","","","","","0","345","","","","","","","","","","","","","","","","","","","","","","","","",""
"","reward_outcome","","html-keyboard-response","279","1656078","0.0-246.0","0","0","YrnLv","Scenes","","985","","","40","","133","","30","","","","","","","","","","","","","","","","-1","985","","","","","","","","","","","","","","","","","","","","","","",""
"","fixation","","html-keyboard-response","280","1657092","0.0-249.0","0","0","YrnLv","Scenes","","null","","","null","","","","","","","","","","","","","","","","","","","","","","","","","","","","","","","","","","","","","","","","","","","",""
"","see_reward","","html-keyboard-response","281","1657537","0.0-250.0","0","0","YrnLv","Scenes","","444","","","32","","107","","31","","","","-1","","","","","2","","","","","0","444","","","","","","","","","","","","","","","","","","","","","","","","",""
"","reward_outcome","","html-keyboard-response","282","1659543","0.0-251.0","0","0","YrnLv","Scenes","","872","","","40","","107","","31","","","","","","","","","","","","","","","","-1","872","","","","","","","","","","","","","","","","","","","","","","",""
"","fixation","","html-keyboard-response","283","1660551","0.0-254.0","0","0","YrnLv","Scenes","","null","","","null","","","","","","","","","","","","","","","","","","","","","","","","","","","","","","","","","","","","","","","","","","","",""
"","see_reward","","html-keyboard-response","284","1661106","0.0-255.0","0","0","YrnLv","Scenes","","554","","","32","","108","","32","","","","-1","","","","","2","","","","","0","554","","","","","","","","","","","","","","","","","","","","","","","","",""
"","reward_outcome","","html-keyboard-response","285","1663123","0.0-256.0","0","0","YrnLv","Scenes","","1240","","","40","","108","","32","","","","","","","","","","","","","","","","-1","1240","","","","","","","","","","","","","","","","","","","","","","",""
"","fixation","","html-keyboard-response","286","1664135","0.0-259.0","0","0","YrnLv","Scenes","","null","","","null","","","","","","","","","","","","","","","","","","","","","","","","","","","","","","","","","","","","","","","","","","","",""
"","see_reward","","html-keyboard-response","287","1664607","0.0-260.0","0","0","YrnLv","Scenes","","470","","","32","","119","","33","","","","1","","","","","2","","","","","149","470","","","","","","","","","","","","","","","","","","","","","","","","",""
"","reward_outcome","","html-keyboard-response","288","1666616","0.0-261.0","0","0","YrnLv","Scenes","","1216","","","38","","119","","33","","","","","","","","","","","","","","","","1","1216","","","","","","","","","","","","","","","","","","","","","","",""
"","fixation","","html-keyboard-response","289","1667626","0.0-264.0","0","0","YrnLv","Scenes","","null","","","null","","","","","","","","","","","","","","","","","","","","","","","","","","","","","","","","","","","","","","","","","","","",""
"","see_reward","","html-keyboard-response","290","1668175","0.0-265.0","0","0","YrnLv","Scenes","","547","","","32","","133","","34","","","","-1","","","","","2","","","","","0","547","","","","","","","","","","","","","","","","","","","","","","","","",""
"","reward_outcome","","html-keyboard-response","291","1670186","0.0-266.0","0","0","YrnLv","Scenes","","1148","","","40","","133","","34","","","","","","","","","","","","","","","","-1","1148","","","","","","","","","","","","","","","","","","","","","","",""
"","fixation","","html-keyboard-response","292","1671201","0.0-269.0","0","0","YrnLv","Scenes","","null","","","null","","","","","","","","","","","","","","","","","","","","","","","","","","","","","","","","","","","","","","","","","","","",""
"","see_reward","","html-keyboard-response","293","1671651","0.0-270.0","0","0","YrnLv","Scenes","","448","","","32","","141","","35","","","","1","","","","","2","","","","","150","448","","","","","","","","","","","","","","","","","","","","","","","","",""
"","reward_outcome","","html-keyboard-response","294","1673665","0.0-271.0","0","0","YrnLv","Scenes","","1034","","","38","","141","","35","","","","","","","","","","","","","","","","1","1034","","","","","","","","","","","","","","","","","","","","","","",""
"","fixation","","html-keyboard-response","295","1674670","0.0-274.0","0","0","YrnLv","Scenes","","null","","","null","","","","","","","","","","","","","","","","","","","","","","","","","","","","","","","","","","","","","","","","","","","",""
"","see_reward","","html-keyboard-response","296","1675359","0.0-275.0","0","0","YrnLv","Scenes","","686","","","32","","104","","36","","","","-1","","","","","2","","","","","0","686","","","","","","","","","","","","","","","","","","","","","","","","",""
"","reward_outcome","","html-keyboard-response","297","1677362","0.0-276.0","0","0","YrnLv","Scenes","","1262","","","40","","104","","36","","","","","","","","","","","","","","","","-1","1262","","","","","","","","","","","","","","","","","","","","","","",""
"","fixation","","html-keyboard-response","298","1678370","0.0-279.0","0","0","YrnLv","Scenes","","null","","","null","","","","","","","","","","","","","","","","","","","","","","","","","","","","","","","","","","","","","","","","","","","",""
"","see_reward","","html-keyboard-response","299","1678882","0.0-280.0","0","0","YrnLv","Scenes","","510","","","32","","141","","37","","","","1","","","","","2","","","","","150","510","","","","","","","","","","","","","","","","","","","","","","","","",""
"","reward_outcome","","html-keyboard-response","300","1680897","0.0-281.0","0","0","YrnLv","Scenes","","986","","","38","","141","","37","","","","","","","","","","","","","","","","1","986","","","","","","","","","","","","","","","","","","","","","","",""
"","fixation","","html-keyboard-response","301","1681905","0.0-284.0","0","0","YrnLv","Scenes","","null","","","null","","","","","","","","","","","","","","","","","","","","","","","","","","","","","","","","","","","","","","","","","","","",""
"","see_reward","","html-keyboard-response","302","1682200","0.0-285.0","0","0","YrnLv","Scenes","","294","","","32","","104","","38","","","","-1","","","","","2","","","","","0","294","","","","","","","","","","","","","","","","","","","","","","","","",""
"","reward_outcome","","html-keyboard-response","303","1684212","0.0-286.0","0","0","YrnLv","Scenes","","1122","","","40","","104","","38","","","","","","","","","","","","","","","","-1","1122","","","","","","","","","","","","","","","","","","","","","","",""
"","fixation","","html-keyboard-response","304","1685219","0.0-289.0","0","0","YrnLv","Scenes","","null","","","null","","","","","","","","","","","","","","","","","","","","","","","","","","","","","","","","","","","","","","","","","","","",""
"","see_reward","","html-keyboard-response","305","1685511","0.0-290.0","0","0","YrnLv","Scenes","","291","","","32","","148","","39","","","","1","","","","","2","","","","","157","291","","","","","","","","","","","","","","","","","","","","","","","","",""
"","reward_outcome","","html-keyboard-response","306","1687518","0.0-291.0","0","0","YrnLv","Scenes","","1290","","","38","","148","","39","","","","","","","","","","","","","","","","1","1290","","","","","","","","","","","","","","","","","","","","","","",""
"","fixation","","html-keyboard-response","307","1688525","0.0-294.0","0","0","YrnLv","Scenes","","null","","","null","","","","","","","","","","","","","","","","","","","","","","","","","","","","","","","","","","","","","","","","","","","",""
"","see_reward","","html-keyboard-response","308","1688945","0.0-295.0","0","0","YrnLv","Scenes","","419","","","32","","114","","40","","","","-1","","","","","2","","","","","0","419","","","","","","","","","","","","","","","","","","","","","","","","",""
"","reward_outcome","","html-keyboard-response","309","1690949","0.0-296.0","0","0","YrnLv","Scenes","","918","","","40","","114","","40","","","","","","","","","","","","","","","","-1","918","","","","","","","","","","","","","","","","","","","","","","",""
"","fixation","","html-keyboard-response","310","1691960","0.0-299.0","0","0","YrnLv","Scenes","","null","","","null","","","","","","","","","","","","","","","","","","","","","","","","","","","","","","","","","","","","","","","","","","","",""
"","see_reward","","html-keyboard-response","311","1692235","0.0-300.0","0","0","YrnLv","Scenes","","274","","","32","","119","","41","","","","1","","","","","2","","","","","149","274","","","","","","","","","","","","","","","","","","","","","","","","",""
"","reward_outcome","","html-keyboard-response","312","1694249","0.0-301.0","0","0","YrnLv","Scenes","","1014","","","38","","119","","41","","","","","","","","","","","","","","","","1","1014","","","","","","","","","","","","","","","","","","","","","","",""
"","fixation","","html-keyboard-response","313","1695260","0.0-304.0","0","0","YrnLv","Scenes","","null","","","null","","","","","","","","","","","","","","","","","","","","","","","","","","","","","","","","","","","","","","","","","","","",""
"","see_reward","","html-keyboard-response","314","1695783","0.0-305.0","0","0","YrnLv","Scenes","","521","","","32","","125","","42","","","","1","","","","","2","","","","","152","521","","","","","","","","","","","","","","","","","","","","","","","","",""
"","reward_outcome","","html-keyboard-response","315","1697794","0.0-306.0","0","0","YrnLv","Scenes","","1013","","","38","","125","","42","","","","","","","","","","","","","","","","1","1013","","","","","","","","","","","","","","","","","","","","","","",""
"","fixation","","html-keyboard-response","316","1698799","0.0-309.0","0","0","YrnLv","Scenes","","null","","","null","","","","","","","","","","","","","","","","","","","","","","","","","","","","","","","","","","","","","","","","","","","",""
"","see_reward","","html-keyboard-response","317","1699372","0.0-310.0","0","0","YrnLv","Scenes","","571","","","32","","130","","43","","","","1","","","","","2","","","","","145","571","","","","","","","","","","","","","","","","","","","","","","","","",""
"","reward_outcome","","html-keyboard-response","318","1701387","0.0-311.0","0","0","YrnLv","Scenes","","875","","","38","","130","","43","","","","","","","","","","","","","","","","1","875","","","","","","","","","","","","","","","","","","","","","","",""
"","fixation","","html-keyboard-response","319","1702394","0.0-314.0","0","0","YrnLv","Scenes","","null","","","null","","","","","","","","","","","","","","","","","","","","","","","","","","","","","","","","","","","","","","","","","","","",""
"","see_reward","","html-keyboard-response","320","1702782","0.0-315.0","0","0","YrnLv","Scenes","","386","","","32","","114","","44","","","","-1","","","","","2","","","","","0","386","","","","","","","","","","","","","","","","","","","","","","","","",""
"","reward_outcome","","html-keyboard-response","321","1704787","0.0-316.0","0","0","YrnLv","Scenes","","1014","","","40","","114","","44","","","","","","","","","","","","","","","","-1","1014","","","","","","","","","","","","","","","","","","","","","","",""
"","fixation","","html-keyboard-response","322","1705797","0.0-319.0","0","0","YrnLv","Scenes","","null","","","null","","","","","","","","","","","","","","","","","","","","","","","","","","","","","","","","","","","","","","","","","","","",""
"","see_reward","","html-keyboard-response","323","1706234","0.0-320.0","0","0","YrnLv","Scenes","","436","","","32","","127","","45","","","","1","","","","","2","","","","","142","436","","","","","","","","","","","","","","","","","","","","","","","","",""
"","reward_outcome","","html-keyboard-response","324","1708244","0.0-321.0","0","0","YrnLv","Scenes","","875","","","38","","127","","45","","","","","","","","","","","","","","","","1","875","","","","","","","","","","","","","","","","","","","","","","",""
"","fixation","","html-keyboard-response","325","1709246","0.0-324.0","0","0","YrnLv","Scenes","","null","","","null","","","","","","","","","","","","","","","","","","","","","","","","","","","","","","","","","","","","","","","","","","","",""
"","see_reward","","html-keyboard-response","326","1709622","0.0-325.0","0","0","YrnLv","Scenes","","374","","","32","","130","","46","","","","1","","","","","2","","","","","145","374","","","","","","","","","","","","","","","","","","","","","","","","",""
"","reward_outcome","","html-keyboard-response","327","1711637","0.0-326.0","0","0","YrnLv","Scenes","","1061","","","38","","130","","46","","","","","","","","","","","","","","","","1","1061","","","","","","","","","","","","","","","","","","","","","","",""
"","fixation","","html-keyboard-response","328","1712648","0.0-329.0","0","0","YrnLv","Scenes","","null","","","null","","","","","","","","","","","","","","","","","","","","","","","","","","","","","","","","","","","","","","","","","","","",""
"","see_reward","","html-keyboard-response","329","1713094","0.0-330.0","0","0","YrnLv","Scenes","","445","","","32","","108","","47","","","","-1","","","","","2","","","","","0","445","","","","","","","","","","","","","","","","","","","","","","","","",""
"","reward_outcome","","html-keyboard-response","330","1715105","0.0-331.0","0","0","YrnLv","Scenes","","1152","","","40","","108","","47","","","","","","","","","","","","","","","","-1","1152","","","","","","","","","","","","","","","","","","","","","","",""
"","block_over","","html-keyboard-response","331","1717080","0.0-333.0-0.0","0","0","YrnLv","Scenes","","1974","","","78","","","","","","","","","","","","","","","","","","","","","","","","","","","","","","","","","","","","","","","","","","","",""
"","fixation","","html-keyboard-response","332","1718082","0.0-334.0","0","0","YrnLv","Scenes","","null","","","null","","","","","","","","","","","","","","","","","","","","","","","","","","","","","","","","","","","","","","","","","","","",""
"","see_reward","","html-keyboard-response","333","1718510","0.0-335.0","0","0","YrnLv","Scenes","","425","","","32","","141","","48","","","","1","","","","","3","","","","","150","425","","","","","","","","","","","","","","","","","","","","","","","","",""
"","reward_outcome","","html-keyboard-response","334","1720526","0.0-336.0","0","0","YrnLv","Scenes","","1355","","","38","","141","","48","","","","","","","","","","","","","","","","1","1355","","","","","","","","","","","","","","","","","","","","","","",""
"","fixation","","html-keyboard-response","335","1721531","0.0-339.0","0","0","YrnLv","Scenes","","null","","","null","","","","","","","","","","","","","","","","","","","","","","","","","","","","","","","","","","","","","","","","","","","",""
"","see_reward","","html-keyboard-response","336","1721826","0.0-340.0","0","0","YrnLv","Scenes","","294","","","32","","114","","49","","","","-1","","","","","3","","","","","0","294","","","","","","","","","","","","","","","","","","","","","","","","",""
"","reward_outcome","","html-keyboard-response","337","1723833","0.0-341.0","0","0","YrnLv","Scenes","","919","","","40","","114","","49","","","","","","","","","","","","","","","","-1","919","","","","","","","","","","","","","","","","","","","","","","",""
"","fixation","","html-keyboard-response","338","1724838","0.0-344.0","0","0","YrnLv","Scenes","","null","","","null","","","","","","","","","","","","","","","","","","","","","","","","","","","","","","","","","","","","","","","","","","","",""
"","see_reward","","html-keyboard-response","339","1725118","0.0-345.0","0","0","YrnLv","Scenes","","279","","","32","","104","","50","","","","-1","","","","","3","","","","","0","279","","","","","","","","","","","","","","","","","","","","","","","","",""
"","reward_outcome","","html-keyboard-response","340","1727132","0.0-346.0","0","0","YrnLv","Scenes","","850","","","40","","104","","50","","","","","","","","","","","","","","","","-1","850","","","","","","","","","","","","","","","","","","","","","","",""
"","fixation","","html-keyboard-response","341","1728141","0.0-349.0","0","0","YrnLv","Scenes","","null","","","null","","","","","","","","","","","","","","","","","","","","","","","","","","","","","","","","","","","","","","","","","","","",""
"","see_reward","","html-keyboard-response","342","1728499","0.0-350.0","0","0","YrnLv","Scenes","","357","","","32","","114","","51","","","","-1","","","","","3","","","","","0","357","","","","","","","","","","","","","","","","","","","","","","","","",""
"","reward_outcome","","html-keyboard-response","343","1730506","0.0-351.0","0","0","YrnLv","Scenes","","738","","","40","","114","","51","","","","","","","","","","","","","","","","-1","738","","","","","","","","","","","","","","","","","","","","","","",""
"","fixation","","html-keyboard-response","344","1731519","0.0-354.0","0","0","YrnLv","Scenes","","null","","","null","","","","","","","","","","","","","","","","","","","","","","","","","","","","","","","","","","","","","","","","","","","",""
"","see_reward","","html-keyboard-response","345","1731843","0.0-355.0","0","0","YrnLv","Scenes","","323","","","32","","130","","52","","","","1","","","","","3","","","","","145","323","","","","","","","","","","","","","","","","","","","","","","","","",""
"","reward_outcome","","html-keyboard-response","346","1733854","0.0-356.0","0","0","YrnLv","Scenes","","942","","","38","","130","","52","","","","","","","","","","","","","","","","1","942","","","","","","","","","","","","","","","","","","","","","","",""
"","fixation","","html-keyboard-response","347","1734862","0.0-359.0","0","0","YrnLv","Scenes","","null","","","null","","","","","","","","","","","","","","","","","","","","","","","","","","","","","","","","","","","","","","","","","","","",""
"","see_reward","","html-keyboard-response","348","1735270","0.0-360.0","0","0","YrnLv","Scenes","","406","","","32","","100","","53","","","","-1","","","","","3","","","","","0","406","","","","","","","","","","","","","","","","","","","","","","","","",""
