"success","ttype","start_time","trial_type","trial_index","time_elapsed","internal_node_id","warning","missed_checkup","PID","stim_type","view_history","rt","responses","repeat_instructions","key_press","response","stimulus_id","painting","index","stimulus_left","stimulus_right","explain_trial","reward_type","rating_left","rating_right","painting_left","painting_right","block","left_chosen","chosen_obj","unchosen_obj","explain_response","reward_amount","see_reward_rt","register_reward_response","register_reward_rt","deliberation_reward_tally","stimulus_left_deliberation_ind","stimulus_right_deliberation_ind","chosen_trial","gain_left","higher_outcome_chosen","old_pair","chosen_object","rt_pairs","left_object_chosen","rt_object","old_response","new_rating","deliberated_stim","initial_rating","outcome_eval_rt","outcome_eval_response","outcome_eval_gain","outcome_eval_acc","preamble","outcome_eval_confidence","outcome_eval_confidence_rt","total_reward_tally"
"true","full_screen","d01192023hr2311","fullscreen","0","769725","0.0-0.0","0","0","E7AW5","Scenes","","","","","","","","","","","","","","","","","","","","","","","","","","","","","","","","","","","","","","","","","","","","","","","","",""
"","rating_instructions","","instructions","1","781284","0.0-1.0-0.0","0","0","E7AW5","Scenes","[{""page_index"":0,""viewing_time"":6508},{""page_index"":1,""viewing_time"":1312},{""page_index"":0,""viewing_time"":2256},{""page_index"":1,""viewing_time"":1480}]","11556","","","","","","","","","","","","","","","","","","","","","","","","","","","","","","","","","","","","","","","","","","","","","","",""
"","rating_comprehension_check","","survey-multi-choice","2","786093","0.0-1.0-1.0","0","0","E7AW5","Scenes","","4805","{""Q0"":""True"",""Q1"":""Mouse""}","0","","","","","","","","","","","","","","","","","","","","","","","","","","","","","","","","","","","","","","","","","","","","",""
"","start_phase","","html-keyboard-response","3","795976","0.0-2.0","0","0","E7AW5","Scenes","","9879","","","78","","","","","","","","","","","","","","","","","","","","","","","","","","","","","","","","","","","","","","","","","","","",""
"","rating","","html-slider-response","4","802284","0.0-3.0","0","0","E7AW5","Scenes","","6306","","","","88","142","sergey-pesterev-y-b_FOmJXdg-unsplash.jpg","0","","","","","","","","","","","","","","","","","","","","","","","","","","","","","","","","","","","","","","","",""
"","rating","","html-slider-response","5","805276","0.0-4.0","0","0","E7AW5","Scenes","","2988","","","","55","106","ashim-d-silva-WeYamle9fDM-unsplash.jpg","1","","","","","","","","","","","","","","","","","","","","","","","","","","","","","","","","","","","","","","","",""
"","rating","","html-slider-response","6","807892","0.0-5.0","0","0","E7AW5","Scenes","","2614","","","","11","138","petr-vysohlid-9fqwGqGLUxc-unsplash.jpg","2","","","","","","","","","","","","","","","","","","","","","","","","","","","","","","","","","","","","","","","",""
"","rating","","html-slider-response","7","812004","0.0-6.0","0","0","E7AW5","Scenes","","4110","","","","35","111","claudio-testa-U3F2o6vz3bs-unsplash.jpg","3","","","","","","","","","","","","","","","","","","","","","","","","","","","","","","","","","","","","","","","",""
"","rating","","html-slider-response","8","815676","0.0-7.0","0","0","E7AW5","Scenes","","3669","","","","5","129","kurt-cotoaga-cqbLg3lZEpk-unsplash.jpg","4","","","","","","","","","","","","","","","","","","","","","","","","","","","","","","","","","","","","","","","",""
"","rating","","html-slider-response","9","818052","0.0-8.0","0","0","E7AW5","Scenes","","2374","","","","100","117","frank-mckenna-OD9EOzfSOh0-unsplash.jpg","5","","","","","","","","","","","","","","","","","","","","","","","","","","","","","","","","","","","","","","","",""
"","rating","","html-slider-response","10","820732","0.0-9.0","0","0","E7AW5","Scenes","","2676","","","","100","101","aniket-deole-T-tOgjWZ0fQ-unsplash.jpg","6","","","","","","","","","","","","","","","","","","","","","","","","","","","","","","","","","","","","","","","",""
"","rating","","html-slider-response","11","822739","0.0-10.0","0","0","E7AW5","Scenes","","2005","","","","77","132","meng-ji-8BH_M-53CyA-unsplash.jpg","7","","","","","","","","","","","","","","","","","","","","","","","","","","","","","","","","","","","","","","","",""
"","rating","","html-slider-response","12","824747","0.0-11.0","0","0","E7AW5","Scenes","","2006","","","","100","110","bruno-van-der-kraan-qez8mNJ3ilU-unsplash.jpg","8","","","","","","","","","","","","","","","","","","","","","","","","","","","","","","","","","","","","","","","",""
"","rating","","html-slider-response","13","826988","0.0-12.0","0","0","E7AW5","Scenes","","2239","","","","100","119","james-wheeler-AFC0XvICMgs-unsplash.jpg","9","","","","","","","","","","","","","","","","","","","","","","","","","","","","","","","","","","","","","","","",""
"","rating","","html-slider-response","14","829572","0.0-13.0","0","0","E7AW5","Scenes","","2582","","","","40","118","henry-be-NLF6hTe4PAg-unsplash.jpg","10","","","","","","","","","","","","","","","","","","","","","","","","","","","","","","","","","","","","","","","",""
"","rating","","html-slider-response","15","831963","0.0-14.0","0","0","E7AW5","Scenes","","2389","","","","81","134","milada-vigerova-pQMM63GE7fo-unsplash.jpg","11","","","","","","","","","","","","","","","","","","","","","","","","","","","","","","","","","","","","","","","",""
"","rating","","html-slider-response","16","836027","0.0-15.0","0","0","E7AW5","Scenes","","4062","","","","86","145","stephen-leonardi-gyIRjKPXupE-unsplash.jpg","12","","","","","","","","","","","","","","","","","","","","","","","","","","","","","","","","","","","","","","","",""
"","rating","","html-slider-response","17","838420","0.0-16.0","0","0","E7AW5","Scenes","","2391","","","","35","139","samsommer-vddccTqwal8-unsplash.jpg","13","","","","","","","","","","","","","","","","","","","","","","","","","","","","","","","","","","","","","","","",""
"","rating","","html-slider-response","18","840347","0.0-17.0","0","0","E7AW5","Scenes","","1925","","","","73","109","brigitta-schneiter-hXXRLtTxXCU-unsplash.jpg","14","","","","","","","","","","","","","","","","","","","","","","","","","","","","","","","","","","","","","","","",""
"","rating","","html-slider-response","19","843228","0.0-18.0","0","0","E7AW5","Scenes","","2879","","","","14","121","jean-pierre-brungs-qxCqkbF7tUc-unsplash.jpg","15","","","","","","","","","","","","","","","","","","","","","","","","","","","","","","","","","","","","","","","",""
"","rating","","html-slider-response","20","848636","0.0-19.0","0","0","E7AW5","Scenes","","5405","","","","32","143","sigurdur-fjalar-jonsson-1KxBabIntpE-unsplash.jpg","16","","","","","","","","","","","","","","","","","","","","","","","","","","","","","","","","","","","","","","","",""
"","rating","","html-slider-response","21","851947","0.0-20.0","0","0","E7AW5","Scenes","","3309","","","","100","137","olga-stalska-QaWRyEdlffY-unsplash.jpg","17","","","","","","","","","","","","","","","","","","","","","","","","","","","","","","","","","","","","","","","",""
"","rating","","html-slider-response","22","856117","0.0-21.0","0","0","E7AW5","Scenes","","4167","","","","34","126","jordan-mcqueen-PJCZOWuOxbU-unsplash.jpg","18","","","","","","","","","","","","","","","","","","","","","","","","","","","","","","","","","","","","","","","",""
"","rating","","html-slider-response","23","858579","0.0-22.0","0","0","E7AW5","Scenes","","2459","","","","11","103","anton-darius-FBJugtbHsWU-unsplash.jpg","19","","","","","","","","","","","","","","","","","","","","","","","","","","","","","","","","","","","","","","","",""
"","rating","","html-slider-response","24","861091","0.0-23.0","0","0","E7AW5","Scenes","","2510","","","","83","147","tobias-keller-73F4pKoUkM0-unsplash.jpg","20","","","","","","","","","","","","","","","","","","","","","","","","","","","","","","","","","","","","","","","",""
"","rating","","html-slider-response","25","863394","0.0-24.0","0","0","E7AW5","Scenes","","2302","","","","8","105","ashim-d-silva-S2Q5mdOrrVc-unsplash.jpg","21","","","","","","","","","","","","","","","","","","","","","","","","","","","","","","","","","","","","","","","",""
"","rating","","html-slider-response","26","865748","0.0-25.0","0","0","E7AW5","Scenes","","2352","","","","78","124","johannes-plenio-sPt5RIjKfpk-unsplash.jpg","22","","","","","","","","","","","","","","","","","","","","","","","","","","","","","","","","","","","","","","","",""
"","rating","","html-slider-response","27","867716","0.0-26.0","0","0","E7AW5","Scenes","","1966","","","","58","133","mickey-o-neil-xL66l--msXU-unsplash.jpg","23","","","","","","","","","","","","","","","","","","","","","","","","","","","","","","","","","","","","","","","",""
"","rating","","html-slider-response","28","870164","0.0-27.0","0","0","E7AW5","Scenes","","2447","","","","100","120","jarrett-kow-1ZOyYPOBn7I-unsplash.jpg","24","","","","","","","","","","","","","","","","","","","","","","","","","","","","","","","","","","","","","","","",""
"","rating","","html-slider-response","29","871851","0.0-28.0","0","0","E7AW5","Scenes","","1685","","","","100","148","tom-gainor-ZqLeQDjY6fY-unsplash.jpg","25","","","","","","","","","","","","","","","","","","","","","","","","","","","","","","","","","","","","","","","",""
"","rating","","html-slider-response","30","874187","0.0-29.0","0","0","E7AW5","Scenes","","2334","","","","68","112","cosmic-timetraveler-pYyOZ8q7AII-unsplash.jpg","26","","","","","","","","","","","","","","","","","","","","","","","","","","","","","","","","","","","","","","","",""
"","rating","","html-slider-response","31","879123","0.0-30.0","0","0","E7AW5","Scenes","","4934","","","","71","100","aleksandra-boguslawska-MS7KD9Ti7FQ-unsplash.jpg","27","","","","","","","","","","","","","","","","","","","","","","","","","","","","","","","","","","","","","","","",""
"","rating","","html-slider-response","32","884587","0.0-31.0","0","0","E7AW5","Scenes","","5462","","","","65","115","darrell-cassell-hoCXpPUMCoE-unsplash.jpg","28","","","","","","","","","","","","","","","","","","","","","","","","","","","","","","","","","","","","","","","",""
"","rating","","html-slider-response","33","890187","0.0-32.0","0","0","E7AW5","Scenes","","5598","","","","0","113","damian-denis-D8R_txR_0PE-unsplash.jpg","29","","","","","","","","","","","","","","","","","","","","","","","","","","","","","","","","","","","","","","","",""
"","rating","","html-slider-response","34","892803","0.0-33.0","0","0","E7AW5","Scenes","","2614","","","","70","146","thomas-morse-cuKKa0vWZSY-unsplash.jpg","30","","","","","","","","","","","","","","","","","","","","","","","","","","","","","","","","","","","","","","","",""
"","rating","","html-slider-response","35","894787","0.0-34.0","0","0","E7AW5","Scenes","","1982","","","","100","123","joel-jasmin-forestbird-efuwb5eBDrI-unsplash.jpg","31","","","","","","","","","","","","","","","","","","","","","","","","","","","","","","","","","","","","","","","",""
"","rating","","html-slider-response","36","897186","0.0-35.0","0","0","E7AW5","Scenes","","2397","","","","70","130","lina-loos-04-C1NZk1hE-unsplash.jpg","32","","","","","","","","","","","","","","","","","","","","","","","","","","","","","","","","","","","","","","","",""
"","rating","","html-slider-response","37","900778","0.0-36.0","0","0","E7AW5","Scenes","","3590","","","","28","122","jeff-king-bJHWJeiHfHc-unsplash.jpg","33","","","","","","","","","","","","","","","","","","","","","","","","","","","","","","","","","","","","","","","",""
"","rating","","html-slider-response","38","903106","0.0-37.0","0","0","E7AW5","Scenes","","2325","","","","100","140","samuele-errico-piccarini-JEBqFu2AOOA-unsplash.jpg","34","","","","","","","","","","","","","","","","","","","","","","","","","","","","","","","","","","","","","","","",""
"","rating","","html-slider-response","39","905267","0.0-38.0","0","0","E7AW5","Scenes","","2158","","","","100","144","solotravelgoals-7kLufxYoqWk-unsplash.jpg","35","","","","","","","","","","","","","","","","","","","","","","","","","","","","","","","","","","","","","","","",""
"","rating","","html-slider-response","40","908547","0.0-39.0","0","0","E7AW5","Scenes","","3277","","","","89","141","sebastian-unrau-v4e3JI7DDHI-unsplash.jpg","36","","","","","","","","","","","","","","","","","","","","","","","","","","","","","","","","","","","","","","","",""
"","rating","","html-slider-response","41","911570","0.0-40.0","0","0","E7AW5","Scenes","","3020","","","","100","125","john-lee-oMneOBYhJxY-unsplash.jpg","37","","","","","","","","","","","","","","","","","","","","","","","","","","","","","","","","","","","","","","","",""
"","rating","","html-slider-response","42","925146","0.0-41.0","0","0","E7AW5","Scenes","","13574","","","","5","149","yuriy-bogdanov-W51VK3Obcj0-unsplash.jpg","38","","","","","","","","","","","","","","","","","","","","","","","","","","","","","","","","","","","","","","","",""
"","rating","","html-slider-response","43","927538","0.0-42.0","0","0","E7AW5","Scenes","","2390","","","","85","135","mohammad-alizade-4wzRuAb-KWs-unsplash.jpg","39","","","","","","","","","","","","","","","","","","","","","","","","","","","","","","","","","","","","","","","",""
"","rating","","html-slider-response","44","929252","0.0-43.0","0","0","E7AW5","Scenes","","1711","","","","100","131","luca-bravo-hFzIoD0F_i8-unsplash.jpg","40","","","","","","","","","","","","","","","","","","","","","","","","","","","","","","","","","","","","","","","",""
"","rating","","html-slider-response","45","939235","0.0-44.0","0","0","E7AW5","Scenes","","9981","","","","62","102","anisur-rahman-K2b7UDed6uQ-unsplash.jpg","41","","","","","","","","","","","","","","","","","","","","","","","","","","","","","","","","","","","","","","","",""
"","rating","","html-slider-response","46","942635","0.0-45.0","0","0","E7AW5","Scenes","","3398","","","","61","104","artem-sapegin-XGDBdSQ70O0-unsplash.jpg","42","","","","","","","","","","","","","","","","","","","","","","","","","","","","","","","","","","","","","","","",""
"","rating","","html-slider-response","47","945881","0.0-46.0","0","0","E7AW5","Scenes","","3245","","","","39","107","benjamin-davies-Zm2n2O7Fph4-unsplash.jpg","43","","","","","","","","","","","","","","","","","","","","","","","","","","","","","","","","","","","","","","","",""
"","rating","","html-slider-response","48","948802","0.0-47.0","0","0","E7AW5","Scenes","","2918","","","","35","114","daniel-sessler-z_9VmsxR8hs-unsplash.jpg","44","","","","","","","","","","","","","","","","","","","","","","","","","","","","","","","","","","","","","","","",""
"","rating","","html-slider-response","49","951218","0.0-48.0","0","0","E7AW5","Scenes","","2414","","","","70","127","kace-rodriguez-p3OzJuT_Dks-unsplash.jpg","45","","","","","","","","","","","","","","","","","","","","","","","","","","","","","","","","","","","","","","","",""
"","rating","","html-slider-response","50","954267","0.0-49.0","0","0","E7AW5","Scenes","","3045","","","","76","128","karsten-wurth-jS0zC2PJ17A-unsplash.jpg","46","","","","","","","","","","","","","","","","","","","","","","","","","","","","","","","","","","","","","","","",""
"","rating","","html-slider-response","51","956322","0.0-50.0","0","0","E7AW5","Scenes","","2054","","","","100","108","benjamin-voros-phIFdC6lA4E-unsplash.jpg","47","","","","","","","","","","","","","","","","","","","","","","","","","","","","","","","","","","","","","","","",""
"","rating","","html-slider-response","52","959506","0.0-51.0","0","0","E7AW5","Scenes","","3182","","","","19","136","nicolas-jehly-LzVB84KkZOE-unsplash.jpg","48","","","","","","","","","","","","","","","","","","","","","","","","","","","","","","","","","","","","","","","",""
"","rating","","html-slider-response","53","961426","0.0-52.0","0","0","E7AW5","Scenes","","1918","","","","100","116","david-marcu-W5MhJ6cy1So-unsplash.jpg","49","","","","","","","","","","","","","","","","","","","","","","","","","","","","","","","","","","","","","","","",""
"","deliberation_instructions","","instructions","54","1616373","0.0-53.0-0.0","0","0","E7AW5","Scenes","[{""page_index"":0,""viewing_time"":301608},{""page_index"":1,""viewing_time"":224029},{""page_index"":2,""viewing_time"":10088},{""page_index"":3,""viewing_time"":100864},{""page_index"":2,""viewing_time"":815},{""page_index"":3,""viewing_time"":13847},{""page_index"":4,""viewing_time"":3689}]","654942","","","","","","","","","","","","","","","","","","","","","","","","","","","","","","","","","","","","","","","","","","","","","","",""
"","deliberation_comprehension_check","","survey-multi-choice","55","1636157","0.0-53.0-1.0","0","0","E7AW5","Scenes","","19777","{""Q0"":""True"",""Q1"":""True"",""Q2"":""Consider carefully and take your time (up to 10 seconds)"",""Q3"":""True"",""Q4"":""D""}","0","","","","","","","","","","","","","","","","","","","","","","","","","","","","","","","","","","","","","","","","","","","","",""
"","start_phase","","html-keyboard-response","56","1637880","0.0-54.0","0","0","E7AW5","Scenes","","1718","","","78","","","","","","","","","","","","","","","","","","","","","","","","","","","","","","","","","","","","","","","","","","","",""
"","first_deliberation_block","","html-keyboard-response","57","1640990","0.0-55.0","0","0","E7AW5","Scenes","","3109","","","78","","","","","","","","","","","","","","","","","","","","","","","","","","","","","","","","","","","","","","","","","","","",""
"","fixation","","html-keyboard-response","58","1642010","0.0-56.0-0.0","0","0","E7AW5","Scenes","","null","","","null","","","","","","","","","","","","","","","","","","","","","","","","","","","","","","","","","","","","","","","","","","","",""
"","deliberation","","html-keyboard-response","59","1644270","0.0-56.0-1.0","0","0","E7AW5","Scenes","","2258","","","68","","","","0","134","118","1","-1","81","40","milada-vigerova-pQMM63GE7fo-unsplash.jpg","henry-be-NLF6hTe4PAg-unsplash.jpg","1","1","134","118","","","","","","","","","","","","","","","","","","","","","","","","","","","",""
"","choice_confirmation","","html-keyboard-response","60","1644782","0.0-56.0-2.0-0.0","0","0","E7AW5","Scenes","","null","","","null","","","","0","134","118","","","","","","","","","","","","","","","","","","","","","","","","","","","","","","","","","","","","","",""
"","explain_trial","","survey-text","61","1654030","0.0-56.0-5.0-0.0","0","0","E7AW5","Scenes","","9242","{""Q0"":""I love the waterfall.""}","","","","","","0","134","118","","","","","","","","","","","{""Q0"":""I love the waterfall.""}","","","","","","","","","","","","","","","","","","","","","","","","","","",""
"","fixation","","html-keyboard-response","62","1655039","0.0-57.0-0.0","0","0","E7AW5","Scenes","","null","","","null","","","","","","","","","","","","","","","","","","","","","","","","","","","","","","","","","","","","","","","","","","","",""
"","deliberation","","html-keyboard-response","63","1659407","0.0-57.0-1.0","0","0","E7AW5","Scenes","","4366","","","68","","","","1","107","130","0","1","39","70","benjamin-davies-Zm2n2O7Fph4-unsplash.jpg","lina-loos-04-C1NZk1hE-unsplash.jpg","1","1","107","130","","","","","","","","","","","","","","","","","","","","","","","","","","","",""
"","choice_confirmation","","html-keyboard-response","64","1659913","0.0-57.0-2.0-0.0","0","0","E7AW5","Scenes","","null","","","null","","","","1","107","130","","","","","","","","","","","","","","","","","","","","","","","","","","","","","","","","","","","","","",""
"","fixation","","html-keyboard-response","65","1660921","0.0-58.0-0.0","0","0","E7AW5","Scenes","","null","","","null","","","","","","","","","","","","","","","","","","","","","","","","","","","","","","","","","","","","","","","","","","","",""
"","deliberation","","html-keyboard-response","66","1662422","0.0-58.0-1.0","0","0","E7AW5","Scenes","","1500","","","68","","","","2","127","106","0","-1","70","55","kace-rodriguez-p3OzJuT_Dks-unsplash.jpg","ashim-d-silva-WeYamle9fDM-unsplash.jpg","1","1","127","106","","","","","","","","","","","","","","","","","","","","","","","","","","","",""
"","choice_confirmation","","html-keyboard-response","67","1662938","0.0-58.0-2.0-0.0","0","0","E7AW5","Scenes","","null","","","null","","","","2","127","106","","","","","","","","","","","","","","","","","","","","","","","","","","","","","","","","","","","","","",""
"","fixation","","html-keyboard-response","68","1663957","0.0-59.0-0.0","0","0","E7AW5","Scenes","","null","","","null","","","","","","","","","","","","","","","","","","","","","","","","","","","","","","","","","","","","","","","","","","","",""
"","deliberation","","html-keyboard-response","69","1667351","0.0-59.0-1.0","0","0","E7AW5","Scenes","","3392","","","75","","","","3","141","145","0","-1","89","86","sebastian-unrau-v4e3JI7DDHI-unsplash.jpg","stephen-leonardi-gyIRjKPXupE-unsplash.jpg","1","0","145","141","","","","","","","","","","","","","","","","","","","","","","","","","","","",""
"","choice_confirmation","","html-keyboard-response","70","1667862","0.0-59.0-2.0-0.0","0","0","E7AW5","Scenes","","null","","","null","","","","3","141","145","","","","","","","","","","","","","","","","","","","","","","","","","","","","","","","","","","","","","",""
"","fixation","","html-keyboard-response","71","1668871","0.0-60.0-0.0","0","0","E7AW5","Scenes","","null","","","null","","","","","","","","","","","","","","","","","","","","","","","","","","","","","","","","","","","","","","","","","","","",""
"","deliberation","","html-keyboard-response","72","1671423","0.0-60.0-1.0","0","0","E7AW5","Scenes","","2550","","","75","","","","4","117","142","1","1","100","88","frank-mckenna-OD9EOzfSOh0-unsplash.jpg","sergey-pesterev-y-b_FOmJXdg-unsplash.jpg","1","0","142","117","","","","","","","","","","","","","","","","","","","","","","","","","","","",""
"","choice_confirmation","","html-keyboard-response","73","1671933","0.0-60.0-2.0-0.0","0","0","E7AW5","Scenes","","null","","","null","","","","4","117","142","","","","","","","","","","","","","","","","","","","","","","","","","","","","","","","","","","","","","",""
"","explain_trial","","survey-text","74","1691138","0.0-60.0-5.0-0.0","0","0","E7AW5","Scenes","","19203","{""Q0"":""I really like the unique-looking ice.""}","","","","","","4","117","142","","","","","","","","","","","{""Q0"":""I really like the unique-looking ice.""}","","","","","","","","","","","","","","","","","","","","","","","","","","",""
"","fixation","","html-keyboard-response","75","1692152","0.0-61.0-0.0","0","0","E7AW5","Scenes","","null","","","null","","","","","","","","","","","","","","","","","","","","","","","","","","","","","","","","","","","","","","","","","","","",""
"","deliberation","","html-keyboard-response","76","1695303","0.0-61.0-1.0","0","0","E7AW5","Scenes","","3149","","","68","","","","5","109","132","0","1","73","77","brigitta-schneiter-hXXRLtTxXCU-unsplash.jpg","meng-ji-8BH_M-53CyA-unsplash.jpg","1","1","109","132","","","","","","","","","","","","","","","","","","","","","","","","","","","",""
"","choice_confirmation","","html-keyboard-response","77","1695830","0.0-61.0-2.0-0.0","0","0","E7AW5","Scenes","","null","","","null","","","","5","109","132","","","","","","","","","","","","","","","","","","","","","","","","","","","","","","","","","","","","","",""
"","fixation","","html-keyboard-response","78","1696840","0.0-62.0-0.0","0","0","E7AW5","Scenes","","null","","","null","","","","","","","","","","","","","","","","","","","","","","","","","","","","","","","","","","","","","","","","","","","",""
"","deliberation","","html-keyboard-response","79","1699967","0.0-62.0-1.0","0","0","E7AW5","Scenes","","3126","","","68","","","","6","147","135","1","1","83","85","tobias-keller-73F4pKoUkM0-unsplash.jpg","mohammad-alizade-4wzRuAb-KWs-unsplash.jpg","1","1","147","135","","","","","","","","","","","","","","","","","","","","","","","","","","","",""
"","choice_confirmation","","html-keyboard-response","80","1700482","0.0-62.0-2.0-0.0","0","0","E7AW5","Scenes","","null","","","null","","","","6","147","135","","","","","","","","","","","","","","","","","","","","","","","","","","","","","","","","","","","","","",""
"","explain_trial","","survey-text","81","1720259","0.0-62.0-5.0-0.0","0","0","E7AW5","Scenes","","19773","{""Q0"":""This pic is more the beautiful one.""}","","","","","","6","147","135","","","","","","","","","","","{""Q0"":""This pic is more the beautiful one.""}","","","","","","","","","","","","","","","","","","","","","","","","","","",""
"","fixation","","html-keyboard-response","82","1721262","0.0-63.0-0.0","0","0","E7AW5","Scenes","","null","","","null","","","","","","","","","","","","","","","","","","","","","","","","","","","","","","","","","","","","","","","","","","","",""
"","deliberation","","html-keyboard-response","83","1725870","0.0-63.0-1.0","0","0","E7AW5","Scenes","","4606","","","75","","","","7","133","104","1","-1","58","61","mickey-o-neil-xL66l--msXU-unsplash.jpg","artem-sapegin-XGDBdSQ70O0-unsplash.jpg","1","0","104","133","","","","","","","","","","","","","","","","","","","","","","","","","","","",""
"","choice_confirmation","","html-keyboard-response","84","1726384","0.0-63.0-2.0-0.0","0","0","E7AW5","Scenes","","null","","","null","","","","7","133","104","","","","","","","","","","","","","","","","","","","","","","","","","","","","","","","","","","","","","",""
"","explain_trial","","survey-text","85","1768601","0.0-63.0-5.0-0.0","0","0","E7AW5","Scenes","","42216","{""Q0"":""I like the boat and the fog.""}","","","","","","7","133","104","","","","","","","","","","","{""Q0"":""I like the boat and the fog.""}","","","","","","","","","","","","","","","","","","","","","","","","","","",""
"","fixation","","html-keyboard-response","86","1769620","0.0-64.0-0.0","0","0","E7AW5","Scenes","","null","","","null","","","","","","","","","","","","","","","","","","","","","","","","","","","","","","","","","","","","","","","","","","","",""
"","deliberation","","html-keyboard-response","87","1773567","0.0-64.0-1.0","0","0","E7AW5","Scenes","","3944","","","75","","","","8","146","100","1","1","70","71","thomas-morse-cuKKa0vWZSY-unsplash.jpg","aleksandra-boguslawska-MS7KD9Ti7FQ-unsplash.jpg","1","0","100","146","","","","","","","","","","","","","","","","","","","","","","","","","","","",""
"","choice_confirmation","","html-keyboard-response","88","1774081","0.0-64.0-2.0-0.0","0","0","E7AW5","Scenes","","null","","","null","","","","8","146","100","","","","","","","","","","","","","","","","","","","","","","","","","","","","","","","","","","","","","",""
"","explain_trial","","survey-text","89","1785905","0.0-64.0-5.0-0.0","0","0","E7AW5","Scenes","","11822","{""Q0"":""I like the walkway to the water.""}","","","","","","8","146","100","","","","","","","","","","","{""Q0"":""I like the walkway to the water.""}","","","","","","","","","","","","","","","","","","","","","","","","","","",""
"","fixation","","html-keyboard-response","90","1786918","0.0-65.0-0.0","0","0","E7AW5","Scenes","","null","","","null","","","","","","","","","","","","","","","","","","","","","","","","","","","","","","","","","","","","","","","","","","","",""
"","deliberation","","html-keyboard-response","91","1789094","0.0-65.0-1.0","0","0","E7AW5","Scenes","","2174","","","68","","","","9","124","112","0","1","78","68","johannes-plenio-sPt5RIjKfpk-unsplash.jpg","cosmic-timetraveler-pYyOZ8q7AII-unsplash.jpg","1","1","124","112","","","","","","","","","","","","","","","","","","","","","","","","","","","",""
"","choice_confirmation","","html-keyboard-response","92","1789612","0.0-65.0-2.0-0.0","0","0","E7AW5","Scenes","","null","","","null","","","","9","124","112","","","","","","","","","","","","","","","","","","","","","","","","","","","","","","","","","","","","","",""
"","fixation","","html-keyboard-response","93","1790633","0.0-66.0-0.0","0","0","E7AW5","Scenes","","null","","","null","","","","","","","","","","","","","","","","","","","","","","","","","","","","","","","","","","","","","","","","","","","",""
"","deliberation","","html-keyboard-response","94","1793717","0.0-66.0-1.0","0","0","E7AW5","Scenes","","3081","","","68","","","","10","128","115","1","-1","76","65","karsten-wurth-jS0zC2PJ17A-unsplash.jpg","darrell-cassell-hoCXpPUMCoE-unsplash.jpg","1","1","128","115","","","","","","","","","","","","","","","","","","","","","","","","","","","",""
"","choice_confirmation","","html-keyboard-response","95","1794229","0.0-66.0-2.0-0.0","0","0","E7AW5","Scenes","","null","","","null","","","","10","128","115","","","","","","","","","","","","","","","","","","","","","","","","","","","","","","","","","","","","","",""
"","explain_trial","","survey-text","96","1801561","0.0-66.0-5.0-0.0","0","0","E7AW5","Scenes","","7330","{""Q0"":""Purple sky is cool.""}","","","","","","10","128","115","","","","","","","","","","","{""Q0"":""Purple sky is cool.""}","","","","","","","","","","","","","","","","","","","","","","","","","","",""
"","fixation","","html-keyboard-response","97","1802580","0.0-67.0-0.0","0","0","E7AW5","Scenes","","null","","","null","","","","","","","","","","","","","","","","","","","","","","","","","","","","","","","","","","","","","","","","","","","",""
"","deliberation","","html-keyboard-response","98","1806989","0.0-67.0-1.0","0","0","E7AW5","Scenes","","4408","","","68","","","","11","114","102","0","-1","35","62","daniel-sessler-z_9VmsxR8hs-unsplash.jpg","anisur-rahman-K2b7UDed6uQ-unsplash.jpg","1","1","114","102","","","","","","","","","","","","","","","","","","","","","","","","","","","",""
"","choice_confirmation","","html-keyboard-response","99","1807494","0.0-67.0-2.0-0.0","0","0","E7AW5","Scenes","","null","","","null","","","","11","114","102","","","","","","","","","","","","","","","","","","","","","","","","","","","","","","","","","","","","","",""
"","practice_deliberation_again","","html-keyboard-response","100","1809660","0.0-67.0-6.0-0.0","0","0","E7AW5","Scenes","","2164","","","78","","","","","","","","","","","","","","","","","","","","","","","","","","","","","","","","","","","","","","","","","","","",""
"","fixation","","html-keyboard-response","101","1810677","0.0-68.0-0.0","0","0","E7AW5","Scenes","","null","","","null","","","","","","","","","","","","","","","","","","","","","","","","","","","","","","","","","","","","","","","","","","","",""
"","deliberation","","html-keyboard-response","102","1813220","0.0-68.0-1.0","0","0","E7AW5","Scenes","","2541","","","68","","","","12","107","130","1","1","39","70","benjamin-davies-Zm2n2O7Fph4-unsplash.jpg","lina-loos-04-C1NZk1hE-unsplash.jpg","2","1","107","130","","","","","","","","","","","","","","","","","","","","","","","","","","","",""
"","choice_confirmation","","html-keyboard-response","103","1813734","0.0-68.0-2.0-0.0","0","0","E7AW5","Scenes","","null","","","null","","","","12","107","130","","","","","","","","","","","","","","","","","","","","","","","","","","","","","","","","","","","","","",""
"","explain_trial","","survey-text","104","1822136","0.0-68.0-5.0-0.0","0","0","E7AW5","Scenes","","8401","{""Q0"":""I like the sunset""}","","","","","","12","107","130","","","","","","","","","","","{""Q0"":""I like the sunset""}","","","","","","","","","","","","","","","","","","","","","","","","","","",""
"","fixation","","html-keyboard-response","105","1823153","0.0-69.0-0.0","0","0","E7AW5","Scenes","","null","","","null","","","","","","","","","","","","","","","","","","","","","","","","","","","","","","","","","","","","","","","","","","","",""
"","deliberation","","html-keyboard-response","106","1824636","0.0-69.0-1.0","0","0","E7AW5","Scenes","","1482","","","68","","","","13","147","135","0","1","83","85","tobias-keller-73F4pKoUkM0-unsplash.jpg","mohammad-alizade-4wzRuAb-KWs-unsplash.jpg","2","1","147","135","","","","","","","","","","","","","","","","","","","","","","","","","","","",""
"","choice_confirmation","","html-keyboard-response","107","1825150","0.0-69.0-2.0-0.0","0","0","E7AW5","Scenes","","null","","","null","","","","13","147","135","","","","","","","","","","","","","","","","","","","","","","","","","","","","","","","","","","","","","",""
"","fixation","","html-keyboard-response","108","1826160","0.0-70.0-0.0","0","0","E7AW5","Scenes","","null","","","null","","","","","","","","","","","","","","","","","","","","","","","","","","","","","","","","","","","","","","","","","","","",""
"","deliberation","","html-keyboard-response","109","1827228","0.0-70.0-1.0","0","0","E7AW5","Scenes","","1066","","","68","","","","14","124","112","1","1","78","68","johannes-plenio-sPt5RIjKfpk-unsplash.jpg","cosmic-timetraveler-pYyOZ8q7AII-unsplash.jpg","2","1","124","112","","","","","","","","","","","","","","","","","","","","","","","","","","","",""
"","choice_confirmation","","html-keyboard-response","110","1827745","0.0-70.0-2.0-0.0","0","0","E7AW5","Scenes","","null","","","null","","","","14","124","112","","","","","","","","","","","","","","","","","","","","","","","","","","","","","","","","","","","","","",""
"","explain_trial","","survey-text","111","1844656","0.0-70.0-5.0-0.0","0","0","E7AW5","Scenes","","16910","{""Q0"":""I like the red leaves and dark forest.""}","","","","","","14","124","112","","","","","","","","","","","{""Q0"":""I like the red leaves and dark forest.""}","","","","","","","","","","","","","","","","","","","","","","","","","","",""
"","fixation","","html-keyboard-response","112","1845670","0.0-71.0-0.0","0","0","E7AW5","Scenes","","null","","","null","","","","","","","","","","","","","","","","","","","","","","","","","","","","","","","","","","","","","","","","","","","",""
"","deliberation","","html-keyboard-response","113","1846980","0.0-71.0-1.0","0","0","E7AW5","Scenes","","1307","","","68","","","","15","134","118","0","-1","81","40","milada-vigerova-pQMM63GE7fo-unsplash.jpg","henry-be-NLF6hTe4PAg-unsplash.jpg","2","1","134","118","","","","","","","","","","","","","","","","","","","","","","","","","","","",""
"","choice_confirmation","","html-keyboard-response","114","1847499","0.0-71.0-2.0-0.0","0","0","E7AW5","Scenes","","null","","","null","","","","15","134","118","","","","","","","","","","","","","","","","","","","","","","","","","","","","","","","","","","","","","",""
"","fixation","","html-keyboard-response","115","1848517","0.0-72.0-0.0","0","0","E7AW5","Scenes","","null","","","null","","","","","","","","","","","","","","","","","","","","","","","","","","","","","","","","","","","","","","","","","","","",""
"","deliberation","","html-keyboard-response","116","1849364","0.0-72.0-1.0","0","0","E7AW5","Scenes","","845","","","68","","","","16","127","106","1","-1","70","55","kace-rodriguez-p3OzJuT_Dks-unsplash.jpg","ashim-d-silva-WeYamle9fDM-unsplash.jpg","2","1","127","106","","","","","","","","","","","","","","","","","","","","","","","","","","","",""
"","choice_confirmation","","html-keyboard-response","117","1849876","0.0-72.0-2.0-0.0","0","0","E7AW5","Scenes","","null","","","null","","","","16","127","106","","","","","","","","","","","","","","","","","","","","","","","","","","","","","","","","","","","","","",""
"","explain_trial","","survey-text","118","1862897","0.0-72.0-5.0-0.0","0","0","E7AW5","Scenes","","13019","{""Q0"":""love the rocks and ocean ""}","","","","","","16","127","106","","","","","","","","","","","{""Q0"":""love the rocks and ocean ""}","","","","","","","","","","","","","","","","","","","","","","","","","","",""
"","fixation","","html-keyboard-response","119","1863903","0.0-73.0-0.0","0","0","E7AW5","Scenes","","null","","","null","","","","","","","","","","","","","","","","","","","","","","","","","","","","","","","","","","","","","","","","","","","",""
"","deliberation","","html-keyboard-response","120","1865484","0.0-73.0-1.0","0","0","E7AW5","Scenes","","1579","","","75","","","","17","146","100","0","1","70","71","thomas-morse-cuKKa0vWZSY-unsplash.jpg","aleksandra-boguslawska-MS7KD9Ti7FQ-unsplash.jpg","2","0","100","146","","","","","","","","","","","","","","","","","","","","","","","","","","","",""
"","choice_confirmation","","html-keyboard-response","121","1865993","0.0-73.0-2.0-0.0","0","0","E7AW5","Scenes","","null","","","null","","","","17","146","100","","","","","","","","","","","","","","","","","","","","","","","","","","","","","","","","","","","","","",""
"","fixation","","html-keyboard-response","122","1867009","0.0-74.0-0.0","0","0","E7AW5","Scenes","","null","","","null","","","","","","","","","","","","","","","","","","","","","","","","","","","","","","","","","","","","","","","","","","","",""
"","deliberation","","html-keyboard-response","123","1871668","0.0-74.0-1.0","0","0","E7AW5","Scenes","","4657","","","75","","","","18","109","132","1","1","73","77","brigitta-schneiter-hXXRLtTxXCU-unsplash.jpg","meng-ji-8BH_M-53CyA-unsplash.jpg","2","0","132","109","","","","","","","","","","","","","","","","","","","","","","","","","","","",""
"","choice_confirmation","","html-keyboard-response","124","1872185","0.0-74.0-2.0-0.0","0","0","E7AW5","Scenes","","null","","","null","","","","18","109","132","","","","","","","","","","","","","","","","","","","","","","","","","","","","","","","","","","","","","",""
"","explain_trial","","survey-text","125","1884642","0.0-74.0-5.0-0.0","0","0","E7AW5","Scenes","","12453","{""Q0"":""I like the clouds and the really blue water.""}","","","","","","18","109","132","","","","","","","","","","","{""Q0"":""I like the clouds and the really blue water.""}","","","","","","","","","","","","","","","","","","","","","","","","","","",""
"","fixation","","html-keyboard-response","126","1885652","0.0-75.0-0.0","0","0","E7AW5","Scenes","","null","","","null","","","","","","","","","","","","","","","","","","","","","","","","","","","","","","","","","","","","","","","","","","","",""
"","deliberation","","html-keyboard-response","127","1888126","0.0-75.0-1.0","0","0","E7AW5","Scenes","","2471","","","75","","","","19","141","145","1","-1","89","86","sebastian-unrau-v4e3JI7DDHI-unsplash.jpg","stephen-leonardi-gyIRjKPXupE-unsplash.jpg","2","0","145","141","","","","","","","","","","","","","","","","","","","","","","","","","","","",""
"","choice_confirmation","","html-keyboard-response","128","1888638","0.0-75.0-2.0-0.0","0","0","E7AW5","Scenes","","null","","","null","","","","19","141","145","","","","","","","","","","","","","","","","","","","","","","","","","","","","","","","","","","","","","",""
"","explain_trial","","survey-text","129","1921432","0.0-75.0-5.0-0.0","0","0","E7AW5","Scenes","","32782","{""Q0"":""I like the spooky forest look.""}","","","","","","19","141","145","","","","","","","","","","","{""Q0"":""I like the spooky forest look.""}","","","","","","","","","","","","","","","","","","","","","","","","","","",""
"","fixation","","html-keyboard-response","130","1922438","0.0-76.0-0.0","0","0","E7AW5","Scenes","","null","","","null","","","","","","","","","","","","","","","","","","","","","","","","","","","","","","","","","","","","","","","","","","","",""
"","deliberation","","html-keyboard-response","131","1924243","0.0-76.0-1.0","0","0","E7AW5","Scenes","","1802","","","75","","","","20","133","104","0","-1","58","61","mickey-o-neil-xL66l--msXU-unsplash.jpg","artem-sapegin-XGDBdSQ70O0-unsplash.jpg","2","0","104","133","","","","","","","","","","","","","","","","","","","","","","","","","","","",""
"","choice_confirmation","","html-keyboard-response","132","1924758","0.0-76.0-2.0-0.0","0","0","E7AW5","Scenes","","null","","","null","","","","20","133","104","","","","","","","","","","","","","","","","","","","","","","","","","","","","","","","","","","","","","",""
"","fixation","","html-keyboard-response","133","1925768","0.0-77.0-0.0","0","0","E7AW5","Scenes","","null","","","null","","","","","","","","","","","","","","","","","","","","","","","","","","","","","","","","","","","","","","","","","","","",""
"","deliberation","","html-keyboard-response","134","1927310","0.0-77.0-1.0","0","0","E7AW5","Scenes","","1541","","","75","","","","21","117","142","0","1","100","88","frank-mckenna-OD9EOzfSOh0-unsplash.jpg","sergey-pesterev-y-b_FOmJXdg-unsplash.jpg","2","0","142","117","","","","","","","","","","","","","","","","","","","","","","","","","","","",""
"","choice_confirmation","","html-keyboard-response","135","1927846","0.0-77.0-2.0-0.0","0","0","E7AW5","Scenes","","null","","","null","","","","21","117","142","","","","","","","","","","","","","","","","","","","","","","","","","","","","","","","","","","","","","",""
"","fixation","","html-keyboard-response","136","1928860","0.0-78.0-0.0","0","0","E7AW5","Scenes","","null","","","null","","","","","","","","","","","","","","","","","","","","","","","","","","","","","","","","","","","","","","","","","","","",""
"","deliberation","","html-keyboard-response","137","1931356","0.0-78.0-1.0","0","0","E7AW5","Scenes","","2494","","","68","","","","22","114","102","1","-1","35","62","daniel-sessler-z_9VmsxR8hs-unsplash.jpg","anisur-rahman-K2b7UDed6uQ-unsplash.jpg","2","1","114","102","","","","","","","","","","","","","","","","","","","","","","","","","","","",""
"","choice_confirmation","","html-keyboard-response","138","1931874","0.0-78.0-2.0-0.0","0","0","E7AW5","Scenes","","null","","","null","","","","22","114","102","","","","","","","","","","","","","","","","","","","","","","","","","","","","","","","","","","","","","",""
"","explain_trial","","survey-text","139","1941255","0.0-78.0-5.0-0.0","0","0","E7AW5","Scenes","","9379","{""Q0"":""I like the lonely island in the water""}","","","","","","22","114","102","","","","","","","","","","","{""Q0"":""I like the lonely island in the water""}","","","","","","","","","","","","","","","","","","","","","","","","","","",""
"","fixation","","html-keyboard-response","140","1942263","0.0-79.0-0.0","0","0","E7AW5","Scenes","","null","","","null","","","","","","","","","","","","","","","","","","","","","","","","","","","","","","","","","","","","","","","","","","","",""
"","deliberation","","html-keyboard-response","141","1944867","0.0-79.0-1.0","0","0","E7AW5","Scenes","","2602","","","68","","","","23","128","115","0","-1","76","65","karsten-wurth-jS0zC2PJ17A-unsplash.jpg","darrell-cassell-hoCXpPUMCoE-unsplash.jpg","2","1","128","115","","","","","","","","","","","","","","","","","","","","","","","","","","","",""
"","choice_confirmation","","html-keyboard-response","142","1945390","0.0-79.0-2.0-0.0","0","0","E7AW5","Scenes","","null","","","null","","","","23","128","115","","","","","","","","","","","","","","","","","","","","","","","","","","","","","","","","","","","","","",""
"","start_critical_deliberation_block","","html-keyboard-response","143","1948211","0.0-79.0-7.0-0.0","0","0","E7AW5","Scenes","","2821","","","78","","","","","","","","","","","","","","","","","","","","","","","","","","","","","","","","","","","","","","","","","","","",""
"","fixation","","html-keyboard-response","144","1949227","0.0-80.0-0.0","0","0","E7AW5","Scenes","","null","","","null","","","","","","","","","","","","","","","","","","","","","","","","","","","","","","","","","","","","","","","","","","","",""
"","deliberation","","html-keyboard-response","145","1950468","0.0-80.0-1.0","0","0","E7AW5","Scenes","","1238","","","68","","","","24","134","118","0","-1","81","40","milada-vigerova-pQMM63GE7fo-unsplash.jpg","henry-be-NLF6hTe4PAg-unsplash.jpg","3","1","134","118","","","","","","","","","","","","","","","","","","","","","","","","","","","",""
"","choice_confirmation","","html-keyboard-response","146","1950976","0.0-80.0-2.0-0.0","0","0","E7AW5","Scenes","","null","","","null","","","","24","134","118","","","","","","","","","","","","","","","","","","","","","","","","","","","","","","","","","","","","","",""
"","fixation","","html-keyboard-response","147","1951987","0.0-81.0-0.0","0","0","E7AW5","Scenes","","null","","","null","","","","","","","","","","","","","","","","","","","","","","","","","","","","","","","","","","","","","","","","","","","",""
"","deliberation","","html-keyboard-response","148","1953435","0.0-81.0-1.0","0","0","E7AW5","Scenes","","1447","","","68","","","","25","127","106","0","-1","70","55","kace-rodriguez-p3OzJuT_Dks-unsplash.jpg","ashim-d-silva-WeYamle9fDM-unsplash.jpg","3","1","127","106","","","","","","","","","","","","","","","","","","","","","","","","","","","",""
"","choice_confirmation","","html-keyboard-response","149","1953946","0.0-81.0-2.0-0.0","0","0","E7AW5","Scenes","","null","","","null","","","","25","127","106","","","","","","","","","","","","","","","","","","","","","","","","","","","","","","","","","","","","","",""
"","fixation","","html-keyboard-response","150","1954958","0.0-82.0-0.0","0","0","E7AW5","Scenes","","null","","","null","","","","","","","","","","","","","","","","","","","","","","","","","","","","","","","","","","","","","","","","","","","",""
"","deliberation","","html-keyboard-response","151","1956132","0.0-82.0-1.0","0","0","E7AW5","Scenes","","1171","","","68","","","","26","107","130","0","1","39","70","benjamin-davies-Zm2n2O7Fph4-unsplash.jpg","lina-loos-04-C1NZk1hE-unsplash.jpg","3","1","107","130","","","","","","","","","","","","","","","","","","","","","","","","","","","",""
"","choice_confirmation","","html-keyboard-response","152","1956642","0.0-82.0-2.0-0.0","0","0","E7AW5","Scenes","","null","","","null","","","","26","107","130","","","","","","","","","","","","","","","","","","","","","","","","","","","","","","","","","","","","","",""
"","fixation","","html-keyboard-response","153","1957647","0.0-83.0-0.0","0","0","E7AW5","Scenes","","null","","","null","","","","","","","","","","","","","","","","","","","","","","","","","","","","","","","","","","","","","","","","","","","",""
"","deliberation","","html-keyboard-response","154","1958757","0.0-83.0-1.0","0","0","E7AW5","Scenes","","1107","","","75","","","","27","141","145","0","-1","89","86","sebastian-unrau-v4e3JI7DDHI-unsplash.jpg","stephen-leonardi-gyIRjKPXupE-unsplash.jpg","3","0","145","141","","","","","","","","","","","","","","","","","","","","","","","","","","","",""
"","choice_confirmation","","html-keyboard-response","155","1959269","0.0-83.0-2.0-0.0","0","0","E7AW5","Scenes","","null","","","null","","","","27","141","145","","","","","","","","","","","","","","","","","","","","","","","","","","","","","","","","","","","","","",""
"","fixation","","html-keyboard-response","156","1960280","0.0-84.0-0.0","0","0","E7AW5","Scenes","","null","","","null","","","","","","","","","","","","","","","","","","","","","","","","","","","","","","","","","","","","","","","","","","","",""
"","deliberation","","html-keyboard-response","157","1961293","0.0-84.0-1.0","0","0","E7AW5","Scenes","","1011","","","68","","","","28","114","102","0","-1","35","62","daniel-sessler-z_9VmsxR8hs-unsplash.jpg","anisur-rahman-K2b7UDed6uQ-unsplash.jpg","3","1","114","102","","","","","","","","","","","","","","","","","","","","","","","","","","","",""
"","choice_confirmation","","html-keyboard-response","158","1961808","0.0-84.0-2.0-0.0","0","0","E7AW5","Scenes","","null","","","null","","","","28","114","102","","","","","","","","","","","","","","","","","","","","","","","","","","","","","","","","","","","","","",""
"","fixation","","html-keyboard-response","159","1962819","0.0-85.0-0.0","0","0","E7AW5","Scenes","","null","","","null","","","","","","","","","","","","","","","","","","","","","","","","","","","","","","","","","","","","","","","","","","","",""
"","deliberation","","html-keyboard-response","160","1964075","0.0-85.0-1.0","0","0","E7AW5","Scenes","","1254","","","68","","","","29","147","135","0","1","83","85","tobias-keller-73F4pKoUkM0-unsplash.jpg","mohammad-alizade-4wzRuAb-KWs-unsplash.jpg","3","1","147","135","","","","","","","","","","","","","","","","","","","","","","","","","","","",""
"","choice_confirmation","","html-keyboard-response","161","1964587","0.0-85.0-2.0-0.0","0","0","E7AW5","Scenes","","null","","","null","","","","29","147","135","","","","","","","","","","","","","","","","","","","","","","","","","","","","","","","","","","","","","",""
"","fixation","","html-keyboard-response","162","1965604","0.0-86.0-0.0","0","0","E7AW5","Scenes","","null","","","null","","","","","","","","","","","","","","","","","","","","","","","","","","","","","","","","","","","","","","","","","","","",""
"","deliberation","","html-keyboard-response","163","1967356","0.0-86.0-1.0","0","0","E7AW5","Scenes","","1748","","","75","","","","30","109","132","0","1","73","77","brigitta-schneiter-hXXRLtTxXCU-unsplash.jpg","meng-ji-8BH_M-53CyA-unsplash.jpg","3","0","132","109","","","","","","","","","","","","","","","","","","","","","","","","","","","",""
"","choice_confirmation","","html-keyboard-response","164","1967871","0.0-86.0-2.0-0.0","0","0","E7AW5","Scenes","","null","","","null","","","","30","109","132","","","","","","","","","","","","","","","","","","","","","","","","","","","","","","","","","","","","","",""
"","fixation","","html-keyboard-response","165","1968882","0.0-87.0-0.0","0","0","E7AW5","Scenes","","null","","","null","","","","","","","","","","","","","","","","","","","","","","","","","","","","","","","","","","","","","","","","","","","",""
"","deliberation","","html-keyboard-response","166","1969811","0.0-87.0-1.0","0","0","E7AW5","Scenes","","929","","","75","","","","31","117","142","0","1","100","88","frank-mckenna-OD9EOzfSOh0-unsplash.jpg","sergey-pesterev-y-b_FOmJXdg-unsplash.jpg","3","0","142","117","","","","","","","","","","","","","","","","","","","","","","","","","","","",""
"","choice_confirmation","","html-keyboard-response","167","1970331","0.0-87.0-2.0-0.0","0","0","E7AW5","Scenes","","null","","","null","","","","31","117","142","","","","","","","","","","","","","","","","","","","","","","","","","","","","","","","","","","","","","",""
"","fixation","","html-keyboard-response","168","1971338","0.0-88.0-0.0","0","0","E7AW5","Scenes","","null","","","null","","","","","","","","","","","","","","","","","","","","","","","","","","","","","","","","","","","","","","","","","","","",""
"","deliberation","","html-keyboard-response","169","1973131","0.0-88.0-1.0","0","0","E7AW5","Scenes","","1790","","","68","","","","32","128","115","0","-1","76","65","karsten-wurth-jS0zC2PJ17A-unsplash.jpg","darrell-cassell-hoCXpPUMCoE-unsplash.jpg","3","1","128","115","","","","","","","","","","","","","","","","","","","","","","","","","","","",""
"","choice_confirmation","","html-keyboard-response","170","1973641","0.0-88.0-2.0-0.0","0","0","E7AW5","Scenes","","null","","","null","","","","32","128","115","","","","","","","","","","","","","","","","","","","","","","","","","","","","","","","","","","","","","",""
"","fixation","","html-keyboard-response","171","1974656","0.0-89.0-0.0","0","0","E7AW5","Scenes","","null","","","null","","","","","","","","","","","","","","","","","","","","","","","","","","","","","","","","","","","","","","","","","","","",""
"","deliberation","","html-keyboard-response","172","1975731","0.0-89.0-1.0","0","0","E7AW5","Scenes","","1074","","","68","","","","33","124","112","0","1","78","68","johannes-plenio-sPt5RIjKfpk-unsplash.jpg","cosmic-timetraveler-pYyOZ8q7AII-unsplash.jpg","3","1","124","112","","","","","","","","","","","","","","","","","","","","","","","","","","","",""
"","choice_confirmation","","html-keyboard-response","173","1976258","0.0-89.0-2.0-0.0","0","0","E7AW5","Scenes","","null","","","null","","","","33","124","112","","","","","","","","","","","","","","","","","","","","","","","","","","","","","","","","","","","","","",""
"","fixation","","html-keyboard-response","174","1977264","0.0-90.0-0.0","0","0","E7AW5","Scenes","","null","","","null","","","","","","","","","","","","","","","","","","","","","","","","","","","","","","","","","","","","","","","","","","","",""
"","deliberation","","html-keyboard-response","175","1978315","0.0-90.0-1.0","0","0","E7AW5","Scenes","","1049","","","75","","","","34","146","100","0","1","70","71","thomas-morse-cuKKa0vWZSY-unsplash.jpg","aleksandra-boguslawska-MS7KD9Ti7FQ-unsplash.jpg","3","0","100","146","","","","","","","","","","","","","","","","","","","","","","","","","","","",""
"","choice_confirmation","","html-keyboard-response","176","1978834","0.0-90.0-2.0-0.0","0","0","E7AW5","Scenes","","null","","","null","","","","34","146","100","","","","","","","","","","","","","","","","","","","","","","","","","","","","","","","","","","","","","",""
"","fixation","","html-keyboard-response","177","1979844","0.0-91.0-0.0","0","0","E7AW5","Scenes","","null","","","null","","","","","","","","","","","","","","","","","","","","","","","","","","","","","","","","","","","","","","","","","","","",""
"","deliberation","","html-keyboard-response","178","1981075","0.0-91.0-1.0","0","0","E7AW5","Scenes","","1229","","","75","","","","35","133","104","0","-1","58","61","mickey-o-neil-xL66l--msXU-unsplash.jpg","artem-sapegin-XGDBdSQ70O0-unsplash.jpg","3","0","104","133","","","","","","","","","","","","","","","","","","","","","","","","","","","",""
"","choice_confirmation","","html-keyboard-response","179","1981600","0.0-91.0-2.0-0.0","0","0","E7AW5","Scenes","","null","","","null","","","","35","133","104","","","","","","","","","","","","","","","","","","","","","","","","","","","","","","","","","","","","","",""
"","reward_learning_instructions","","instructions","180","2028310","0.0-92.0-0.0","0","0","E7AW5","Scenes","[{""page_index"":0,""viewing_time"":21356},{""page_index"":1,""viewing_time"":23352},{""page_index"":2,""viewing_time"":2000}]","46709","","","","","","","","","","","","","","","","","","","","","","","","","","","","","","","","","","","","","","","","","","","","","","",""
"","reward_comprehension_check","","survey-multi-choice","181","2036401","0.0-92.0-1.0","0","0","E7AW5","Scenes","","8086","{""Q0"":""True"",""Q1"":""True"",""Q2"":""Press the space bar to see its outcome"",""Q3"":""Press the relevant key while the outcome is presented""}","0","","","","","","","","","","","","","","","","","","","","","","","","","","","","","","","","","","","","","","","","","","","","",""
"","start_phase","","html-keyboard-response","182","2037578","0.0-93.0","0","0","E7AW5","Scenes","","1174","","","78","","","","","","","","","","","","","","","","","","","","","","","","","","","","","","","","","","","","","","","","","","","",""
"","fixation","","html-keyboard-response","183","2038591","0.0-94.0","0","0","E7AW5","Scenes","","null","","","null","","","","","","","","","","","","","","","","","","","","","","","","","","","","","","","","","","","","","","","","","","","",""
"","see_reward","","html-keyboard-response","184","2039786","0.0-95.0","0","0","E7AW5","Scenes","","1189","","","32","","107","","0","","","","1","","","","","1","","","","","143","1189","","","","","","","","","","","","","","","","","","","","","","","","",""
"","reward_outcome","","html-keyboard-response","185","2041801","0.0-96.0","0","0","E7AW5","Scenes","","null","","","null","","107","","0","","","","","","","","","","","","","","","","NaN","null","","","","","","","","","","","","","","","","","","","","","","",""
"","respond_faster","","html-keyboard-response","186","2043323","0.0-97.0-0.0","1","0","E7AW5","Scenes","","null","","","null","","","","","","","","","","","","","","","","","","","","","","","","","","","","","","","","","","","","","","","","","","","",""
"","fixation","","html-keyboard-response","187","2044332","0.0-99.0","0","0","E7AW5","Scenes","","null","","","null","","","","","","","","","","","","","","","","","","","","","","","","","","","","","","","","","","","","","","","","","","","",""
"","see_reward","","html-keyboard-response","188","2045106","0.0-100.0","0","0","E7AW5","Scenes","","772","","","32","","100","","1","","","","1","","","","","1","","","","","150","772","","","","","","","","","","","","","","","","","","","","","","","","",""
"","reward_outcome","","html-keyboard-response","189","2047121","0.0-101.0","0","0","E7AW5","Scenes","","576","","","38","","100","","1","","","","","","","","","","","","","","","","1","576","","","","","","","","","","","","","","","","","","","","","","",""
"","fixation","","html-keyboard-response","190","2048130","0.0-104.0","0","0","E7AW5","Scenes","","null","","","null","","","","","","","","","","","","","","","","","","","","","","","","","","","","","","","","","","","","","","","","","","","",""
"","see_reward","","html-keyboard-response","191","2048970","0.0-105.0","0","0","E7AW5","Scenes","","839","","","32","","145","","2","","","","-1","","","","","1","","","","","0","839","","","","","","","","","","","","","","","","","","","","","","","","",""
"","reward_outcome","","html-keyboard-response","192","2050975","0.0-106.0","0","0","E7AW5","Scenes","","886","","","40","","145","","2","","","","","","","","","","","","","","","","-1","886","","","","","","","","","","","","","","","","","","","","","","",""
"","fixation","","html-keyboard-response","193","2051990","0.0-109.0","0","0","E7AW5","Scenes","","null","","","null","","","","","","","","","","","","","","","","","","","","","","","","","","","","","","","","","","","","","","","","","","","",""
"","see_reward","","html-keyboard-response","194","2052650","0.0-110.0","0","0","E7AW5","Scenes","","658","","","32","","132","","3","","","","1","","","","","1","","","","","144","658","","","","","","","","","","","","","","","","","","","","","","","","",""
"","reward_outcome","","html-keyboard-response","195","2054657","0.0-111.0","0","0","E7AW5","Scenes","","686","","","38","","132","","3","","","","","","","","","","","","","","","","1","686","","","","","","","","","","","","","","","","","","","","","","",""
"","fixation","","html-keyboard-response","196","2055665","0.0-114.0","0","0","E7AW5","Scenes","","null","","","null","","","","","","","","","","","","","","","","","","","","","","","","","","","","","","","","","","","","","","","","","","","",""
"","see_reward","","html-keyboard-response","197","2056313","0.0-115.0","0","0","E7AW5","Scenes","","647","","","32","","142","","4","","","","1","","","","","1","","","","","152","647","","","","","","","","","","","","","","","","","","","","","","","","",""
"","reward_outcome","","html-keyboard-response","198","2058332","0.0-116.0","0","0","E7AW5","Scenes","","655","","","38","","142","","4","","","","","","","","","","","","","","","","1","655","","","","","","","","","","","","","","","","","","","","","","",""
"","fixation","","html-keyboard-response","199","2059357","0.0-119.0","0","0","E7AW5","Scenes","","null","","","null","","","","","","","","","","","","","","","","","","","","","","","","","","","","","","","","","","","","","","","","","","","",""
"","see_reward","","html-keyboard-response","200","2059941","0.0-120.0","0","0","E7AW5","Scenes","","581","","","32","","124","","5","","","","1","","","","","1","","","","","147","581","","","","","","","","","","","","","","","","","","","","","","","","",""
"","reward_outcome","","html-keyboard-response","201","2061962","0.0-121.0","0","0","E7AW5","Scenes","","547","","","38","","124","","5","","","","","","","","","","","","","","","","1","547","","","","","","","","","","","","","","","","","","","","","","",""
"","fixation","","html-keyboard-response","202","2062980","0.0-124.0","0","0","E7AW5","Scenes","","null","","","null","","","","","","","","","","","","","","","","","","","","","","","","","","","","","","","","","","","","","","","","","","","",""
"","see_reward","","html-keyboard-response","203","2063586","0.0-125.0","0","0","E7AW5","Scenes","","605","","","32","","127","","6","","","","-1","","","","","1","","","","","0","605","","","","","","","","","","","","","","","","","","","","","","","","",""
"","reward_outcome","","html-keyboard-response","204","2065593","0.0-126.0","0","0","E7AW5","Scenes","","679","","","40","","127","","6","","","","","","","","","","","","","","","","-1","679","","","","","","","","","","","","","","","","","","","","","","",""
"","fixation","","html-keyboard-response","205","2066599","0.0-129.0","0","0","E7AW5","Scenes","","null","","","null","","","","","","","","","","","","","","","","","","","","","","","","","","","","","","","","","","","","","","","","","","","",""
"","see_reward","","html-keyboard-response","206","2067154","0.0-130.0","0","0","E7AW5","Scenes","","553","","","32","","100","","7","","","","1","","","","","1","","","","","150","553","","","","","","","","","","","","","","","","","","","","","","","","",""
"","reward_outcome","","html-keyboard-response","207","2069177","0.0-131.0","0","0","E7AW5","Scenes","","398","","","38","","100","","7","","","","","","","","","","","","","","","","1","398","","","","","","","","","","","","","","","","","","","","","","",""
"","fixation","","html-keyboard-response","208","2070185","0.0-134.0","0","0","E7AW5","Scenes","","null","","","null","","","","","","","","","","","","","","","","","","","","","","","","","","","","","","","","","","","","","","","","","","","",""
"","see_reward","","html-keyboard-response","209","2071100","0.0-135.0","0","0","E7AW5","Scenes","","912","","","32","","132","","8","","","","1","","","","","1","","","","","144","912","","","","","","","","","","","","","","","","","","","","","","","","",""
"","reward_outcome","","html-keyboard-response","210","2073121","0.0-136.0","0","0","E7AW5","Scenes","","476","","","38","","132","","8","","","","","","","","","","","","","","","","1","476","","","","","","","","","","","","","","","","","","","","","","",""
"","fixation","","html-keyboard-response","211","2074136","0.0-139.0","0","0","E7AW5","Scenes","","null","","","null","","","","","","","","","","","","","","","","","","","","","","","","","","","","","","","","","","","","","","","","","","","",""
"","see_reward","","html-keyboard-response","212","2074763","0.0-140.0","0","0","E7AW5","Scenes","","622","","","32","","114","","9","","","","-1","","","","","1","","","","","0","622","","","","","","","","","","","","","","","","","","","","","","","","",""
"","reward_outcome","","html-keyboard-response","213","2076779","0.0-141.0","0","0","E7AW5","Scenes","","598","","","40","","114","","9","","","","","","","","","","","","","","","","-1","598","","","","","","","","","","","","","","","","","","","","","","",""
"","fixation","","html-keyboard-response","214","2077794","0.0-144.0","0","0","E7AW5","Scenes","","null","","","null","","","","","","","","","","","","","","","","","","","","","","","","","","","","","","","","","","","","","","","","","","","",""
"","see_reward","","html-keyboard-response","215","2078419","0.0-145.0","0","0","E7AW5","Scenes","","623","","","32","","127","","10","","","","-1","","","","","1","","","","","0","623","","","","","","","","","","","","","","","","","","","","","","","","",""
"","reward_outcome","","html-keyboard-response","216","2080425","0.0-146.0","0","0","E7AW5","Scenes","","333","","","40","","127","","10","","","","","","","","","","","","","","","","-1","333","","","","","","","","","","","","","","","","","","","","","","",""
"","fixation","","html-keyboard-response","217","2081440","0.0-149.0","0","0","E7AW5","Scenes","","null","","","null","","","","","","","","","","","","","","","","","","","","","","","","","","","","","","","","","","","","","","","","","","","",""
"","see_reward","","html-keyboard-response","218","2082107","0.0-150.0","0","0","E7AW5","Scenes","","665","","","32","","104","","11","","","","-1","","","","","1","","","","","0","665","","","","","","","","","","","","","","","","","","","","","","","","",""
"","reward_outcome","","html-keyboard-response","219","2084123","0.0-151.0","0","0","E7AW5","Scenes","","613","","","40","","104","","11","","","","","","","","","","","","","","","","-1","613","","","","","","","","","","","","","","","","","","","","","","",""
"","fixation","","html-keyboard-response","220","2085137","0.0-154.0","0","0","E7AW5","Scenes","","null","","","null","","","","","","","","","","","","","","","","","","","","","","","","","","","","","","","","","","","","","","","","","","","",""
"","see_reward","","html-keyboard-response","221","2085793","0.0-155.0","0","0","E7AW5","Scenes","","654","","","32","","145","","12","","","","-1","","","","","1","","","","","0","654","","","","","","","","","","","","","","","","","","","","","","","","",""
"","reward_outcome","","html-keyboard-response","222","2087807","0.0-156.0","0","0","E7AW5","Scenes","","430","","","40","","145","","12","","","","","","","","","","","","","","","","-1","430","","","","","","","","","","","","","","","","","","","","","","",""
"","fixation","","html-keyboard-response","223","2088829","0.0-159.0","0","0","E7AW5","Scenes","","null","","","null","","","","","","","","","","","","","","","","","","","","","","","","","","","","","","","","","","","","","","","","","","","",""
"","see_reward","","html-keyboard-response","224","2089435","0.0-160.0","0","0","E7AW5","Scenes","","603","","","32","","142","","13","","","","1","","","","","1","","","","","152","603","","","","","","","","","","","","","","","","","","","","","","","","",""
"","reward_outcome","","html-keyboard-response","225","2091449","0.0-161.0","0","0","E7AW5","Scenes","","300","","","38","","142","","13","","","","","","","","","","","","","","","","1","300","","","","","","","","","","","","","","","","","","","","","","",""
"","fixation","","html-keyboard-response","226","2092468","0.0-164.0","0","0","E7AW5","Scenes","","null","","","null","","","","","","","","","","","","","","","","","","","","","","","","","","","","","","","","","","","","","","","","","","","",""
"","see_reward","","html-keyboard-response","227","2093050","0.0-165.0","0","0","E7AW5","Scenes","","581","","","32","","134","","14","","","","-1","","","","","1","","","","","0","581","","","","","","","","","","","","","","","","","","","","","","","","",""
"","reward_outcome","","html-keyboard-response","228","2095054","0.0-166.0","0","0","E7AW5","Scenes","","869","","","40","","134","","14","","","","","","","","","","","","","","","","-1","869","","","","","","","","","","","","","","","","","","","","","","",""
"","fixation","","html-keyboard-response","229","2096066","0.0-169.0","0","0","E7AW5","Scenes","","null","","","null","","","","","","","","","","","","","","","","","","","","","","","","","","","","","","","","","","","","","","","","","","","",""
"","see_reward","","html-keyboard-response","230","2096554","0.0-170.0","0","0","E7AW5","Scenes","","485","","","32","","147","","15","","","","1","","","","","1","","","","","158","485","","","","","","","","","","","","","","","","","","","","","","","","",""
"","reward_outcome","","html-keyboard-response","231","2098562","0.0-171.0","0","0","E7AW5","Scenes","","581","","","38","","147","","15","","","","","","","","","","","","","","","","1","581","","","","","","","","","","","","","","","","","","","","","","",""
"","fixation","","html-keyboard-response","232","2099574","0.0-174.0","0","0","E7AW5","Scenes","","null","","","null","","","","","","","","","","","","","","","","","","","","","","","","","","","","","","","","","","","","","","","","","","","",""
"","see_reward","","html-keyboard-response","233","2100025","0.0-175.0","0","0","E7AW5","Scenes","","449","","","32","","107","","16","","","","1","","","","","1","","","","","143","449","","","","","","","","","","","","","","","","","","","","","","","","",""
"","reward_outcome","","html-keyboard-response","234","2102044","0.0-176.0","0","0","E7AW5","Scenes","","598","","","38","","107","","16","","","","","","","","","","","","","","","","1","598","","","","","","","","","","","","","","","","","","","","","","",""
"","fixation","","html-keyboard-response","235","2103067","0.0-179.0","0","0","E7AW5","Scenes","","null","","","null","","","","","","","","","","","","","","","","","","","","","","","","","","","","","","","","","","","","","","","","","","","",""
"","see_reward","","html-keyboard-response","236","2103458","0.0-180.0","0","0","E7AW5","Scenes","","389","","","32","","104","","17","","","","-1","","","","","1","","","","","0","389","","","","","","","","","","","","","","","","","","","","","","","","",""
"","reward_outcome","","html-keyboard-response","237","2105474","0.0-181.0","0","0","E7AW5","Scenes","","422","","","40","","104","","17","","","","","","","","","","","","","","","","-1","422","","","","","","","","","","","","","","","","","","","","","","",""
"","fixation","","html-keyboard-response","238","2106480","0.0-184.0","0","0","E7AW5","Scenes","","null","","","null","","","","","","","","","","","","","","","","","","","","","","","","","","","","","","","","","","","","","","","","","","","",""
"","see_reward","","html-keyboard-response","239","2106969","0.0-185.0","0","0","E7AW5","Scenes","","487","","","32","","128","","18","","","","-1","","","","","1","","","","","0","487","","","","","","","","","","","","","","","","","","","","","","","","",""
"","reward_outcome","","html-keyboard-response","240","2108982","0.0-186.0","0","0","E7AW5","Scenes","","607","","","40","","128","","18","","","","","","","","","","","","","","","","-1","607","","","","","","","","","","","","","","","","","","","","","","",""
"","fixation","","html-keyboard-response","241","2110006","0.0-189.0","0","0","E7AW5","Scenes","","null","","","null","","","","","","","","","","","","","","","","","","","","","","","","","","","","","","","","","","","","","","","","","","","",""
"","see_reward","","html-keyboard-response","242","2110657","0.0-190.0","0","0","E7AW5","Scenes","","649","","","32","","114","","19","","","","-1","","","","","1","","","","","0","649","","","","","","","","","","","","","","","","","","","","","","","","",""
"","reward_outcome","","html-keyboard-response","243","2112662","0.0-191.0","0","0","E7AW5","Scenes","","726","","","40","","114","","19","","","","","","","","","","","","","","","","-1","726","","","","","","","","","","","","","","","","","","","","","","",""
"","fixation","","html-keyboard-response","244","2113677","0.0-194.0","0","0","E7AW5","Scenes","","null","","","null","","","","","","","","","","","","","","","","","","","","","","","","","","","","","","","","","","","","","","","","","","","",""
"","see_reward","","html-keyboard-response","245","2114049","0.0-195.0","0","0","E7AW5","Scenes","","371","","","32","","124","","20","","","","1","","","","","1","","","","","147","371","","","","","","","","","","","","","","","","","","","","","","","","",""
"","reward_outcome","","html-keyboard-response","246","2116054","0.0-196.0","0","0","E7AW5","Scenes","","470","","","38","","124","","20","","","","","","","","","","","","","","","","1","470","","","","","","","","","","","","","","","","","","","","","","",""
"","fixation","","html-keyboard-response","247","2117070","0.0-199.0","0","0","E7AW5","Scenes","","null","","","null","","","","","","","","","","","","","","","","","","","","","","","","","","","","","","","","","","","","","","","","","","","",""
"","see_reward","","html-keyboard-response","248","2117673","0.0-200.0","0","0","E7AW5","Scenes","","601","","","32","","147","","21","","","","1","","","","","1","","","","","158","601","","","","","","","","","","","","","","","","","","","","","","","","",""
"","reward_outcome","","html-keyboard-response","249","2119680","0.0-201.0","0","0","E7AW5","Scenes","","599","","","38","","147","","21","","","","","","","","","","","","","","","","1","599","","","","","","","","","","","","","","","","","","","","","","",""
"","fixation","","html-keyboard-response","250","2120688","0.0-204.0","0","0","E7AW5","Scenes","","null","","","null","","","","","","","","","","","","","","","","","","","","","","","","","","","","","","","","","","","","","","","","","","","",""
"","see_reward","","html-keyboard-response","251","2121073","0.0-205.0","0","0","E7AW5","Scenes","","383","","","32","","128","","22","","","","-1","","","","","1","","","","","0","383","","","","","","","","","","","","","","","","","","","","","","","","",""
"","reward_outcome","","html-keyboard-response","252","2123078","0.0-206.0","0","0","E7AW5","Scenes","","702","","","40","","128","","22","","","","","","","","","","","","","","","","-1","702","","","","","","","","","","","","","","","","","","","","","","",""
"","fixation","","html-keyboard-response","253","2124090","0.0-209.0","0","0","E7AW5","Scenes","","null","","","null","","","","","","","","","","","","","","","","","","","","","","","","","","","","","","","","","","","","","","","","","","","",""
"","see_reward","","html-keyboard-response","254","2124489","0.0-210.0","0","0","E7AW5","Scenes","","397","","","32","","134","","23","","","","-1","","","","","1","","","","","0","397","","","","","","","","","","","","","","","","","","","","","","","","",""
"","reward_outcome","","html-keyboard-response","255","2126508","0.0-211.0","0","0","E7AW5","Scenes","","430","","","40","","134","","23","","","","","","","","","","","","","","","","-1","430","","","","","","","","","","","","","","","","","","","","","","",""
"","block_over","","html-keyboard-response","256","2128272","0.0-213.0-0.0","0","0","E7AW5","Scenes","","1764","","","78","","","","","","","","","","","","","","","","","","","","","","","","","","","","","","","","","","","","","","","","","","","",""
"","fixation","","html-keyboard-response","257","2129294","0.0-214.0","0","0","E7AW5","Scenes","","null","","","null","","","","","","","","","","","","","","","","","","","","","","","","","","","","","","","","","","","","","","","","","","","",""
"","see_reward","","html-keyboard-response","258","2130193","0.0-215.0","0","0","E7AW5","Scenes","","896","","","32","","132","","24","","","","1","","","","","2","","","","","144","896","","","","","","","","","","","","","","","","","","","","","","","","",""
"","reward_outcome","","html-keyboard-response","259","2132208","0.0-216.0","0","0","E7AW5","Scenes","","678","","","38","","132","","24","","","","","","","","","","","","","","","","1","678","","","","","","","","","","","","","","","","","","","","","","",""
"","fixation","","html-keyboard-response","260","2133223","0.0-219.0","0","0","E7AW5","Scenes","","null","","","null","","","","","","","","","","","","","","","","","","","","","","","","","","","","","","","","","","","","","","","","","","","",""
"","see_reward","","html-keyboard-response","261","2133632","0.0-220.0","0","0","E7AW5","Scenes","","407","","","32","","114","","25","","","","-1","","","","","2","","","","","0","407","","","","","","","","","","","","","","","","","","","","","","","","",""
"","reward_outcome","","html-keyboard-response","262","2135644","0.0-221.0","0","0","E7AW5","Scenes","","399","","","40","","114","","25","","","","","","","","","","","","","","","","-1","399","","","","","","","","","","","","","","","","","","","","","","",""
"","fixation","","html-keyboard-response","263","2136667","0.0-224.0","0","0","E7AW5","Scenes","","null","","","null","","","","","","","","","","","","","","","","","","","","","","","","","","","","","","","","","","","","","","","","","","","",""
"","see_reward","","html-keyboard-response","264","2136962","0.0-225.0","0","0","E7AW5","Scenes","","293","","","32","","124","","26","","","","1","","","","","2","","","","","147","293","","","","","","","","","","","","","","","","","","","","","","","","",""
"","reward_outcome","","html-keyboard-response","265","2138967","0.0-226.0","0","0","E7AW5","Scenes","","693","","","38","","124","","26","","","","","","","","","","","","","","","","1","693","","","","","","","","","","","","","","","","","","","","","","",""
"","fixation","","html-keyboard-response","266","2139989","0.0-229.0","0","0","E7AW5","Scenes","","null","","","null","","","","","","","","","","","","","","","","","","","","","","","","","","","","","","","","","","","","","","","","","","","",""
"","see_reward","","html-keyboard-response","267","2140282","0.0-230.0","0","0","E7AW5","Scenes","","289","","","32","","134","","27","","","","-1","","","","","2","","","","","0","289","","","","","","","","","","","","","","","","","","","","","","","","",""
"","reward_outcome","","html-keyboard-response","268","2142300","0.0-231.0","0","0","E7AW5","Scenes","","437","","","40","","134","","27","","","","","","","","","","","","","","","","-1","437","","","","","","","","","","","","","","","","","","","","","","",""
"","fixation","","html-keyboard-response","269","2143312","0.0-234.0","0","0","E7AW5","Scenes","","null","","","null","","","","","","","","","","","","","","","","","","","","","","","","","","","","","","","","","","","","","","","","","","","",""
"","see_reward","","html-keyboard-response","270","2143584","0.0-235.0","0","0","E7AW5","Scenes","","271","","","32","","127","","28","","","","-1","","","","","2","","","","","0","271","","","","","","","","","","","","","","","","","","","","","","","","",""
"","reward_outcome","","html-keyboard-response","271","2145590","0.0-236.0","0","0","E7AW5","Scenes","","478","","","40","","127","","28","","","","","","","","","","","","","","","","-1","478","","","","","","","","","","","","","","","","","","","","","","",""
"","fixation","","html-keyboard-response","272","2146603","0.0-239.0","0","0","E7AW5","Scenes","","null","","","null","","","","","","","","","","","","","","","","","","","","","","","","","","","","","","","","","","","","","","","","","","","",""
"","see_reward","","html-keyboard-response","273","2146944","0.0-240.0","0","0","E7AW5","Scenes","","339","","","32","","134","","29","","","","-1","","","","","2","","","","","0","339","","","","","","","","","","","","","","","","","","","","","","","","",""
"","reward_outcome","","html-keyboard-response","274","2148962","0.0-241.0","0","0","E7AW5","Scenes","","415","","","40","","134","","29","","","","","","","","","","","","","","","","-1","415","","","","","","","","","","","","","","","","","","","","","","",""
"","fixation","","html-keyboard-response","275","2149968","0.0-244.0","0","0","E7AW5","Scenes","","null","","","null","","","","","","","","","","","","","","","","","","","","","","","","","","","","","","","","","","","","","","","","","","","",""
"","see_reward","","html-keyboard-response","276","2150408","0.0-245.0","0","0","E7AW5","Scenes","","437","","","32","","100","","30","","","","1","","","","","2","","","","","150","437","","","","","","","","","","","","","","","","","","","","","","","","",""
"","reward_outcome","","html-keyboard-response","277","2152425","0.0-246.0","0","0","E7AW5","Scenes","","374","","","38","","100","","30","","","","","","","","","","","","","","","","1","374","","","","","","","","","","","","","","","","","","","","","","",""
"","fixation","","html-keyboard-response","278","2153439","0.0-249.0","0","0","E7AW5","Scenes","","null","","","null","","","","","","","","","","","","","","","","","","","","","","","","","","","","","","","","","","","","","","","","","","","",""
"","see_reward","","html-keyboard-response","279","2153776","0.0-250.0","0","0","E7AW5","Scenes","","335","","","32","","142","","31","","","","1","","","","","2","","","","","152","335","","","","","","","","","","","","","","","","","","","","","","","","",""
"","reward_outcome","","html-keyboard-response","280","2155787","0.0-251.0","0","0","E7AW5","Scenes","","461","","","38","","142","","31","","","","","","","","","","","","","","","","1","461","","","","","","","","","","","","","","","","","","","","","","",""
"","fixation","","html-keyboard-response","281","2156799","0.0-254.0","0","0","E7AW5","Scenes","","null","","","null","","","","","","","","","","","","","","","","","","","","","","","","","","","","","","","","","","","","","","","","","","","",""
"","see_reward","","html-keyboard-response","282","2157128","0.0-255.0","0","0","E7AW5","Scenes","","328","","","32","","107","","32","","","","1","","","","","2","","","","","143","328","","","","","","","","","","","","","","","","","","","","","","","","",""
"","reward_outcome","","html-keyboard-response","283","2159142","0.0-256.0","0","0","E7AW5","Scenes","","535","","","38","","107","","32","","","","","","","","","","","","","","","","1","535","","","","","","","","","","","","","","","","","","","","","","",""
"","fixation","","html-keyboard-response","284","2160159","0.0-259.0","0","0","E7AW5","Scenes","","null","","","null","","","","","","","","","","","","","","","","","","","","","","","","","","","","","","","","","","","","","","","","","","","",""
"","see_reward","","html-keyboard-response","285","2160824","0.0-260.0","0","0","E7AW5","Scenes","","663","","","32","","107","","33","","","","1","","","","","2","","","","","143","663","","","","","","","","","","","","","","","","","","","","","","","","",""
"","reward_outcome","","html-keyboard-response","286","2162844","0.0-261.0","0","0","E7AW5","Scenes","","686","","","38","","107","","33","","","","","","","","","","","","","","","","1","686","","","","","","","","","","","","","","","","","","","","","","",""
"","fixation","","html-keyboard-response","287","2163856","0.0-264.0","0","0","E7AW5","Scenes","","null","","","null","","","","","","","","","","","","","","","","","","","","","","","","","","","","","","","","","","","","","","","","","","","",""
"","see_reward","","html-keyboard-response","288","2164480","0.0-265.0","0","0","E7AW5","Scenes","","622","","","32","","132","","34","","","","1","","","","","2","","","","","144","622","","","","","","","","","","","","","","","","","","","","","","","","",""
"","reward_outcome","","html-keyboard-response","289","2166488","0.0-266.0","0","0","E7AW5","Scenes","","342","","","38","","132","","34","","","","","","","","","","","","","","","","1","342","","","","","","","","","","","","","","","","","","","","","","",""
"","fixation","","html-keyboard-response","290","2167499","0.0-269.0","0","0","E7AW5","Scenes","","null","","","null","","","","","","","","","","","","","","","","","","","","","","","","","","","","","","","","","","","","","","","","","","","",""
"","see_reward","","html-keyboard-response","291","2168080","0.0-270.0","0","0","E7AW5","Scenes","","579","","","32","","114","","35","","","","-1","","","","","2","","","","","0","579","","","","","","","","","","","","","","","","","","","","","","","","",""
"","reward_outcome","","html-keyboard-response","292","2170087","0.0-271.0","0","0","E7AW5","Scenes","","326","","","40","","114","","35","","","","","","","","","","","","","","","","-1","326","","","","","","","","","","","","","","","","","","","","","","",""
"","fixation","","html-keyboard-response","293","2171098","0.0-274.0","0","0","E7AW5","Scenes","","null","","","null","","","","","","","","","","","","","","","","","","","","","","","","","","","","","","","","","","","","","","","","","","","",""
"","see_reward","","html-keyboard-response","294","2171496","0.0-275.0","0","0","E7AW5","Scenes","","396","","","32","","145","","36","","","","-1","","","","","2","","","","","0","396","","","","","","","","","","","","","","","","","","","","","","","","",""
"","reward_outcome","","html-keyboard-response","295","2173503","0.0-276.0","0","0","E7AW5","Scenes","","422","","","40","","145","","36","","","","","","","","","","","","","","","","-1","422","","","","","","","","","","","","","","","","","","","","","","",""
"","fixation","","html-keyboard-response","296","2174514","0.0-279.0","0","0","E7AW5","Scenes","","null","","","null","","","","","","","","","","","","","","","","","","","","","","","","","","","","","","","","","","","","","","","","","","","",""
"","see_reward","","html-keyboard-response","297","2175216","0.0-280.0","0","0","E7AW5","Scenes","","700","","","32","","127","","37","","","","-1","","","","","2","","","","","0","700","","","","","","","","","","","","","","","","","","","","","","","","",""
"","reward_outcome","","html-keyboard-response","298","2177222","0.0-281.0","0","0","E7AW5","Scenes","","422","","","40","","127","","37","","","","","","","","","","","","","","","","-1","422","","","","","","","","","","","","","","","","","","","","","","",""
"","fixation","","html-keyboard-response","299","2178243","0.0-284.0","0","0","E7AW5","Scenes","","null","","","null","","","","","","","","","","","","","","","","","","","","","","","","","","","","","","","","","","","","","","","","","","","",""
"","see_reward","","html-keyboard-response","300","2178816","0.0-285.0","0","0","E7AW5","Scenes","","570","","","32","","128","","38","","","","-1","","","","","2","","","","","0","570","","","","","","","","","","","","","","","","","","","","","","","","",""
"","reward_outcome","","html-keyboard-response","301","2180824","0.0-286.0","0","0","E7AW5","Scenes","","550","","","40","","128","","38","","","","","","","","","","","","","","","","-1","550","","","","","","","","","","","","","","","","","","","","","","",""
"","fixation","","html-keyboard-response","302","2181843","0.0-289.0","0","0","E7AW5","Scenes","","null","","","null","","","","","","","","","","","","","","","","","","","","","","","","","","","","","","","","","","","","","","","","","","","",""
"","see_reward","","html-keyboard-response","303","2182944","0.0-290.0","0","0","E7AW5","Scenes","","1099","","","32","","104","","39","","","","-1","","","","","2","","","","","0","1099","","","","","","","","","","","","","","","","","","","","","","","","",""
"","reward_outcome","","html-keyboard-response","304","2184964","0.0-291.0","0","0","E7AW5","Scenes","","455","","","40","","104","","39","","","","","","","","","","","","","","","","-1","455","","","","","","","","","","","","","","","","","","","","","","",""
"","fixation","","html-keyboard-response","305","2185983","0.0-294.0","0","0","E7AW5","Scenes","","null","","","null","","","","","","","","","","","","","","","","","","","","","","","","","","","","","","","","","","","","","","","","","","","",""
"","see_reward","","html-keyboard-response","306","2186688","0.0-295.0","0","0","E7AW5","Scenes","","703","","","32","","124","","40","","","","1","","","","","2","","","","","147","703","","","","","","","","","","","","","","","","","","","","","","","","",""
"","reward_outcome","","html-keyboard-response","307","2188703","0.0-296.0","0","0","E7AW5","Scenes","","495","","","38","","124","","40","","","","","","","","","","","","","","","","1","495","","","","","","","","","","","","","","","","","","","","","","",""
"","fixation","","html-keyboard-response","308","2189723","0.0-299.0","0","0","E7AW5","Scenes","","null","","","null","","","","","","","","","","","","","","","","","","","","","","","","","","","","","","","","","","","","","","","","","","","",""
"","see_reward","","html-keyboard-response","309","2190344","0.0-300.0","0","0","E7AW5","Scenes","","620","","","32","","100","","41","","","","1","","","","","2","","","","","150","620","","","","","","","","","","","","","","","","","","","","","","","","",""
"","reward_outcome","","html-keyboard-response","310","2192359","0.0-301.0","0","0","E7AW5","Scenes","","430","","","38","","100","","41","","","","","","","","","","","","","","","","1","430","","","","","","","","","","","","","","","","","","","","","","",""
"","fixation","","html-keyboard-response","311","2193376","0.0-304.0","0","0","E7AW5","Scenes","","null","","","null","","","","","","","","","","","","","","","","","","","","","","","","","","","","","","","","","","","","","","","","","","","",""
"","see_reward","","html-keyboard-response","312","2194359","0.0-305.0","0","0","E7AW5","Scenes","","982","","","32","","104","","42","","","","-1","","","","","2","","","","","0","982","","","","","","","","","","","","","","","","","","","","","","","","",""
"","reward_outcome","","html-keyboard-response","313","2196379","0.0-306.0","0","0","E7AW5","Scenes","","663","","","40","","104","","42","","","","","","","","","","","","","","","","-1","663","","","","","","","","","","","","","","","","","","","","","","",""
"","fixation","","html-keyboard-response","314","2197399","0.0-309.0","0","0","E7AW5","Scenes","","null","","","null","","","","","","","","","","","","","","","","","","","","","","","","","","","","","","","","","","","","","","","","","","","",""
"","see_reward","","html-keyboard-response","315","2198616","0.0-310.0","0","0","E7AW5","Scenes","","1216","","","32","","145","","43","","","","-1","","","","","2","","","","","0","1216","","","","","","","","","","","","","","","","","","","","","","","","",""
"","reward_outcome","","html-keyboard-response","316","2200634","0.0-311.0","0","0","E7AW5","Scenes","","351","","","40","","145","","43","","","","","","","","","","","","","","","","-1","351","","","","","","","","","","","","","","","","","","","","","","",""
"","fixation","","html-keyboard-response","317","2201641","0.0-314.0","0","0","E7AW5","Scenes","","null","","","null","","","","","","","","","","","","","","","","","","","","","","","","","","","","","","","","","","","","","","","","","","","",""
"","see_reward","","html-keyboard-response","318","2202208","0.0-315.0","0","0","E7AW5","Scenes","","566","","","32","","147","","44","","","","1","","","","","2","","","","","158","566","","","","","","","","","","","","","","","","","","","","","","","","",""
"","reward_outcome","","html-keyboard-response","319","2204218","0.0-316.0","0","0","E7AW5","Scenes","","486","","","38","","147","","44","","","","","","","","","","","","","","","","1","486","","","","","","","","","","","","","","","","","","","","","","",""
"","fixation","","html-keyboard-response","320","2205222","0.0-319.0","0","0","E7AW5","Scenes","","null","","","null","","","","","","","","","","","","","","","","","","","","","","","","","","","","","","","","","","","","","","","","","","","",""
"","see_reward","","html-keyboard-response","321","2205735","0.0-320.0","0","0","E7AW5","Scenes","","512","","","32","","147","","45","","","","1","","","","","2","","","","","158","512","","","","","","","","","","","","","","","","","","","","","","","","",""
"","reward_outcome","","html-keyboard-response","322","2207750","0.0-321.0","0","0","E7AW5","Scenes","","447","","","38","","147","","45","","","","","","","","","","","","","","","","1","447","","","","","","","","","","","","","","","","","","","","","","",""
"","fixation","","html-keyboard-response","323","2208767","0.0-324.0","0","0","E7AW5","Scenes","","null","","","null","","","","","","","","","","","","","","","","","","","","","","","","","","","","","","","","","","","","","","","","","","","",""
"","see_reward","","html-keyboard-response","324","2209367","0.0-325.0","0","0","E7AW5","Scenes","","600","","","32","","142","","46","","","","1","","","","","2","","","","","152","600","","","","","","","","","","","","","","","","","","","","","","","","",""
"","reward_outcome","","html-keyboard-response","325","2211384","0.0-326.0","0","0","E7AW5","Scenes","","310","","","38","","142","","46","","","","","","","","","","","","","","","","1","310","","","","","","","","","","","","","","","","","","","","","","",""
"","fixation","","html-keyboard-response","326","2212399","0.0-329.0","0","0","E7AW5","Scenes","","null","","","null","","","","","","","","","","","","","","","","","","","","","","","","","","","","","","","","","","","","","","","","","","","",""
"","see_reward","","html-keyboard-response","327","2212952","0.0-330.0","0","0","E7AW5","Scenes","","552","","","32","","128","","47","","","","-1","","","","","2","","","","","0","552","","","","","","","","","","","","","","","","","","","","","","","","",""
"","reward_outcome","","html-keyboard-response","328","2214967","0.0-331.0","0","0","E7AW5","Scenes","","741","","","40","","128","","47","","","","","","","","","","","","","","","","-1","741","","","","","","","","","","","","","","","","","","","","","","",""
"","block_over","","html-keyboard-response","329","2216527","0.0-333.0-0.0","0","0","E7AW5","Scenes","","1559","","","78","","","","","","","","","","","","","","","","","","","","","","","","","","","","","","","","","","","","","","","","","","","",""
"","fixation","","html-keyboard-response","330","2217546","0.0-334.0","0","0","E7AW5","Scenes","","null","","","null","","","","","","","","","","","","","","","","","","","","","","","","","","","","","","","","","","","","","","","","","","","",""
"","see_reward","","html-keyboard-response","331","2218039","0.0-335.0","0","0","E7AW5","Scenes","","492","","","32","","124","","48","","","","1","","","","","3","","","","","147","492","","","","","","","","","","","","","","","","","","","","","","","","",""
"","reward_outcome","","html-keyboard-response","332","2220058","0.0-336.0","0","0","E7AW5","Scenes","","358","","","38","","124","","48","","","","","","","","","","","","","","","","1","358","","","","","","","","","","","","","","","","","","","","","","",""
"","fixation","","html-keyboard-response","333","2221062","0.0-339.0","0","0","E7AW5","Scenes","","null","","","null","","","","","","","","","","","","","","","","","","","","","","","","","","","","","","","","","","","","","","","","","","","",""
"","see_reward","","html-keyboard-response","334","2221575","0.0-340.0","0","0","E7AW5","Scenes","","511","","","32","","100","","49","","","","1","","","","","3","","","","","150","511","","","","","","","","","","","","","","","","","","","","","","","","",""
"","reward_outcome","","html-keyboard-response","335","2223593","0.0-341.0","0","0","E7AW5","Scenes","","374","","","38","","100","","49","","","","","","","","","","","","","","","","1","374","","","","","","","","","","","","","","","","","","","","","","",""
"","fixation","","html-keyboard-response","336","2224609","0.0-344.0","0","0","E7AW5","Scenes","","null","","","null","","","","","","","","","","","","","","","","","","","","","","","","","","","","","","","","","","","","","","","","","","","",""
"","see_reward","","html-keyboard-response","337","2224928","0.0-345.0","0","0","E7AW5","Scenes","","317","","","32","","142","","50","","","","1","","","","","3","","","","","152","317","","","","","","","","","","","","","","","","","","","","","","","","",""
"","reward_outcome","","html-keyboard-response","338","2226936","0.0-346.0","0","0","E7AW5","Scenes","","375","","","38","","142","","50","","","","","","","","","","","","","","","","1","375","","","","","","","","","","","","","","","","","","","","","","",""
"","fixation","","html-keyboard-response","339","2227954","0.0-349.0","0","0","E7AW5","Scenes","","null","","","null","","","","","","","","","","","","","","","","","","","","","","","","","","","","","","","","","","","","","","","","","","","",""
"","see_reward","","html-keyboard-response","340","2228439","0.0-350.0","0","0","E7AW5","Scenes","","483","","","32","","124","","51","","","","1","","","","","3","","","","","147","483","","","","","","","","","","","","","","","","","","","","","","","","",""
"","reward_outcome","","html-keyboard-response","341","2230448","0.0-351.0","0","0","E7AW5","Scenes","","334","","","38","","124","","51","","","","","","","","","","","","","","","","1","334","","","","","","","","","","","","","","","","","","","","","","",""
"","fixation","","html-keyboard-response","342","2231455","0.0-354.0","0","0","E7AW5","Scenes","","null","","","null","","","","","","","","","","","","","","","","","","","","","","","","","","","","","","","","","","","","","","","","","","","",""
"","see_reward","","html-keyboard-response","343","2232135","0.0-355.0","0","0","E7AW5","Scenes","","679","","","32","","147","","52","","","","1","","","","","3","","","","","158","679","","","","","","","","","","","","","","","","","","","","","","","","",""
"","reward_outcome","","html-keyboard-response","344","2234143","0.0-356.0","0","0","E7AW5","Scenes","","406","","","38","","147","","52","","","","","","","","","","","","","","","","1","406","","","","","","","","","","","","","","","","","","","","","","",""
"","fixation","","html-keyboard-response","345","2235164","0.0-359.0","0","0","E7AW5","Scenes","","null","","","null","","","","","","","","","","","","","","","","","","","","","","","","","","","","","","","","","","","","","","","","","","","",""
"","see_reward","","html-keyboard-response","346","2236000","0.0-360.0","0","0","E7AW5","Scenes","","834","","","32","","107","","53","","","","1","","","","","3","","","","","143","834","","","","","","","","","","","","","","","","","","","","","","","","",""
"","reward_outcome","","html-keyboard-response","347","2238006","0.0-361.0","0","0","E7AW5","Scenes","","381","","","38","","107","","53","","","","","","","","","","","","","","","","1","381","","","","","","","","","","","","","","","","","","","","","","",""
"","fixation","","html-keyboard-response","348","2239022","0.0-364.0","0","0","E7AW5","Scenes","","null","","","null","","","","","","","","","","","","","","","","","","","","","","","","","","","","","","","","","","","","","","","","","","","",""
"","see_reward","","html-keyboard-response","349","2239639","0.0-365.0","0","0","E7AW5","Scenes","","615","","","32","","147","","54","","","","1","","","","","3","","","","","158","615","","","","","","","","","","","","","","","","","","","","","","","","",""
"","reward_outcome","","html-keyboard-response","350","2241651","0.0-366.0","0","0","E7AW5","Scenes","","302","","","38","","147","","54","","","","","","","","","","","","","","","","1","302","","","","","","","","","","","","","","","","","","","","","","",""
"","fixation","","html-keyboard-response","351","2242667","0.0-369.0","0","0","E7AW5","Scenes","","null","","","null","","","","","","","","","","","","","","","","","","","","","","","","","","","","","","","","","","","","","","","","","","","",""
"","see_reward","","html-keyboard-response","352","2243727","0.0-370.0","0","0","E7AW5","Scenes","","1058","","","32","","114","","55","","","","-1","","","","","3","","","","","0","1058","","","","","","","","","","","","","","","","","","","","","","","","",""
"","reward_outcome","","html-keyboard-response","353","2245741","0.0-371.0","0","0","E7AW5","Scenes","","238","","","40","","114","","55","","","","","","","","","","","","","","","","-1","238","","","","","","","","","","","","","","","","","","","","","","",""
