"success","ttype","start_time","trial_type","trial_index","time_elapsed","internal_node_id","warning","missed_checkup","PID","stim_type","view_history","rt","responses","repeat_instructions","key_press","response","stimulus_id","painting","index","stimulus_left","stimulus_right","explain_trial","reward_type","rating_left","rating_right","painting_left","painting_right","block","left_chosen","chosen_obj","unchosen_obj","explain_response","reward_amount","see_reward_rt","register_reward_response","register_reward_rt","deliberation_reward_tally","stimulus_left_deliberation_ind","stimulus_right_deliberation_ind","chosen_trial","gain_left","higher_outcome_chosen","old_pair","chosen_object","rt_pairs","left_object_chosen","rt_object","old_response","new_rating","deliberated_stim","initial_rating","outcome_eval_rt","outcome_eval_response","outcome_eval_gain","outcome_eval_acc","preamble","outcome_eval_confidence","outcome_eval_confidence_rt","total_reward_tally"
"true","full_screen","d01192023hr2049","fullscreen","0","12740","0.0-0.0","0","0","SfzKV","Scenes","","","","","","","","","","","","","","","","","","","","","","","","","","","","","","","","","","","","","","","","","","","","","","","","",""
"","rating_instructions","","instructions","1","580462","0.0-1.0-0.0","0","0","SfzKV","Scenes","[{""page_index"":0,""viewing_time"":564222},{""page_index"":1,""viewing_time"":3496}]","567719","","","","","","","","","","","","","","","","","","","","","","","","","","","","","","","","","","","","","","","","","","","","","","",""
"","rating_comprehension_check","","survey-multi-choice","2","585749","0.0-1.0-1.0","0","0","SfzKV","Scenes","","5281","{""Q0"":""True"",""Q1"":""Mouse""}","0","","","","","","","","","","","","","","","","","","","","","","","","","","","","","","","","","","","","","","","","","","","","",""
"","start_phase","","html-keyboard-response","3","592279","0.0-2.0","0","0","SfzKV","Scenes","","6523","","","78","","","","","","","","","","","","","","","","","","","","","","","","","","","","","","","","","","","","","","","","","","","",""
"","rating","","html-slider-response","4","603335","0.0-3.0","0","0","SfzKV","Scenes","","11052","","","","80","102","anisur-rahman-K2b7UDed6uQ-unsplash.jpg","0","","","","","","","","","","","","","","","","","","","","","","","","","","","","","","","","","","","","","","","",""
"","rating","","html-slider-response","5","606827","0.0-4.0","0","0","SfzKV","Scenes","","3488","","","","98","119","james-wheeler-AFC0XvICMgs-unsplash.jpg","1","","","","","","","","","","","","","","","","","","","","","","","","","","","","","","","","","","","","","","","",""
"","rating","","html-slider-response","6","611386","0.0-5.0","0","0","SfzKV","Scenes","","4557","","","","71","100","aleksandra-boguslawska-MS7KD9Ti7FQ-unsplash.jpg","2","","","","","","","","","","","","","","","","","","","","","","","","","","","","","","","","","","","","","","","",""
"","rating","","html-slider-response","7","615170","0.0-6.0","0","0","SfzKV","Scenes","","3781","","","","82","132","meng-ji-8BH_M-53CyA-unsplash.jpg","3","","","","","","","","","","","","","","","","","","","","","","","","","","","","","","","","","","","","","","","",""
"","rating","","html-slider-response","8","619978","0.0-7.0","0","0","SfzKV","Scenes","","4805","","","","70","116","david-marcu-W5MhJ6cy1So-unsplash.jpg","4","","","","","","","","","","","","","","","","","","","","","","","","","","","","","","","","","","","","","","","",""
"","rating","","html-slider-response","9","623794","0.0-8.0","0","0","SfzKV","Scenes","","3813","","","","67","115","darrell-cassell-hoCXpPUMCoE-unsplash.jpg","5","","","","","","","","","","","","","","","","","","","","","","","","","","","","","","","","","","","","","","","",""
"","rating","","html-slider-response","10","628762","0.0-9.0","0","0","SfzKV","Scenes","","4965","","","","98","101","aniket-deole-T-tOgjWZ0fQ-unsplash.jpg","6","","","","","","","","","","","","","","","","","","","","","","","","","","","","","","","","","","","","","","","",""
"","rating","","html-slider-response","11","633522","0.0-10.0","0","0","SfzKV","Scenes","","4756","","","","68","133","mickey-o-neil-xL66l--msXU-unsplash.jpg","7","","","","","","","","","","","","","","","","","","","","","","","","","","","","","","","","","","","","","","","",""
"","rating","","html-slider-response","12","636959","0.0-11.0","0","0","SfzKV","Scenes","","3435","","","","93","147","tobias-keller-73F4pKoUkM0-unsplash.jpg","8","","","","","","","","","","","","","","","","","","","","","","","","","","","","","","","","","","","","","","","",""
"","rating","","html-slider-response","13","644143","0.0-12.0","0","0","SfzKV","Scenes","","7182","","","","41","146","thomas-morse-cuKKa0vWZSY-unsplash.jpg","9","","","","","","","","","","","","","","","","","","","","","","","","","","","","","","","","","","","","","","","",""
"","rating","","html-slider-response","14","649903","0.0-13.0","0","0","SfzKV","Scenes","","5757","","","","44","139","samsommer-vddccTqwal8-unsplash.jpg","10","","","","","","","","","","","","","","","","","","","","","","","","","","","","","","","","","","","","","","","",""
"","rating","","html-slider-response","15","654186","0.0-14.0","0","0","SfzKV","Scenes","","4280","","","","50","106","ashim-d-silva-WeYamle9fDM-unsplash.jpg","11","","","","","","","","","","","","","","","","","","","","","","","","","","","","","","","","","","","","","","","",""
"","rating","","html-slider-response","16","658790","0.0-15.0","0","0","SfzKV","Scenes","","4602","","","","24","136","nicolas-jehly-LzVB84KkZOE-unsplash.jpg","12","","","","","","","","","","","","","","","","","","","","","","","","","","","","","","","","","","","","","","","",""
"","rating","","html-slider-response","17","664366","0.0-16.0","0","0","SfzKV","Scenes","","5573","","","","68","143","sigurdur-fjalar-jonsson-1KxBabIntpE-unsplash.jpg","13","","","","","","","","","","","","","","","","","","","","","","","","","","","","","","","","","","","","","","","",""
"","rating","","html-slider-response","18","670070","0.0-17.0","0","0","SfzKV","Scenes","","5701","","","","64","105","ashim-d-silva-S2Q5mdOrrVc-unsplash.jpg","14","","","","","","","","","","","","","","","","","","","","","","","","","","","","","","","","","","","","","","","",""
"","rating","","html-slider-response","19","674361","0.0-18.0","0","0","SfzKV","Scenes","","4288","","","","95","108","benjamin-voros-phIFdC6lA4E-unsplash.jpg","15","","","","","","","","","","","","","","","","","","","","","","","","","","","","","","","","","","","","","","","",""
"","rating","","html-slider-response","20","679354","0.0-19.0","0","0","SfzKV","Scenes","","4990","","","","57","144","solotravelgoals-7kLufxYoqWk-unsplash.jpg","16","","","","","","","","","","","","","","","","","","","","","","","","","","","","","","","","","","","","","","","",""
"","rating","","html-slider-response","21","684349","0.0-20.0","0","0","SfzKV","Scenes","","4993","","","","100","112","cosmic-timetraveler-pYyOZ8q7AII-unsplash.jpg","17","","","","","","","","","","","","","","","","","","","","","","","","","","","","","","","","","","","","","","","",""
"","rating","","html-slider-response","22","686885","0.0-21.0","0","0","SfzKV","Scenes","","2533","","","","100","131","luca-bravo-hFzIoD0F_i8-unsplash.jpg","18","","","","","","","","","","","","","","","","","","","","","","","","","","","","","","","","","","","","","","","",""
"","rating","","html-slider-response","23","691721","0.0-22.0","0","0","SfzKV","Scenes","","4833","","","","55","138","petr-vysohlid-9fqwGqGLUxc-unsplash.jpg","19","","","","","","","","","","","","","","","","","","","","","","","","","","","","","","","","","","","","","","","",""
"","rating","","html-slider-response","24","698948","0.0-23.0","0","0","SfzKV","Scenes","","7225","","","","60","120","jarrett-kow-1ZOyYPOBn7I-unsplash.jpg","20","","","","","","","","","","","","","","","","","","","","","","","","","","","","","","","","","","","","","","","",""
"","rating","","html-slider-response","25","706892","0.0-24.0","0","0","SfzKV","Scenes","","7942","","","","54","122","jeff-king-bJHWJeiHfHc-unsplash.jpg","21","","","","","","","","","","","","","","","","","","","","","","","","","","","","","","","","","","","","","","","",""
"","rating","","html-slider-response","26","713868","0.0-25.0","0","0","SfzKV","Scenes","","6973","","","","57","111","claudio-testa-U3F2o6vz3bs-unsplash.jpg","22","","","","","","","","","","","","","","","","","","","","","","","","","","","","","","","","","","","","","","","",""
"","rating","","html-slider-response","27","718851","0.0-26.0","0","0","SfzKV","Scenes","","4980","","","","98","114","daniel-sessler-z_9VmsxR8hs-unsplash.jpg","23","","","","","","","","","","","","","","","","","","","","","","","","","","","","","","","","","","","","","","","",""
"","rating","","html-slider-response","28","726844","0.0-27.0","0","0","SfzKV","Scenes","","7990","","","","71","124","johannes-plenio-sPt5RIjKfpk-unsplash.jpg","24","","","","","","","","","","","","","","","","","","","","","","","","","","","","","","","","","","","","","","","",""
"","rating","","html-slider-response","29","730540","0.0-28.0","0","0","SfzKV","Scenes","","3693","","","","71","118","henry-be-NLF6hTe4PAg-unsplash.jpg","25","","","","","","","","","","","","","","","","","","","","","","","","","","","","","","","","","","","","","","","",""
"","rating","","html-slider-response","30","737267","0.0-29.0","0","0","SfzKV","Scenes","","6725","","","","50","142","sergey-pesterev-y-b_FOmJXdg-unsplash.jpg","26","","","","","","","","","","","","","","","","","","","","","","","","","","","","","","","","","","","","","","","",""
"","rating","","html-slider-response","31","741243","0.0-30.0","0","0","SfzKV","Scenes","","3973","","","","96","104","artem-sapegin-XGDBdSQ70O0-unsplash.jpg","27","","","","","","","","","","","","","","","","","","","","","","","","","","","","","","","","","","","","","","","",""
"","rating","","html-slider-response","32","748660","0.0-31.0","0","0","SfzKV","Scenes","","7414","","","","56","107","benjamin-davies-Zm2n2O7Fph4-unsplash.jpg","28","","","","","","","","","","","","","","","","","","","","","","","","","","","","","","","","","","","","","","","",""
"","rating","","html-slider-response","33","755186","0.0-32.0","0","0","SfzKV","Scenes","","6524","","","","95","125","john-lee-oMneOBYhJxY-unsplash.jpg","29","","","","","","","","","","","","","","","","","","","","","","","","","","","","","","","","","","","","","","","",""
"","rating","","html-slider-response","34","759128","0.0-33.0","0","0","SfzKV","Scenes","","3939","","","","87","123","joel-jasmin-forestbird-efuwb5eBDrI-unsplash.jpg","30","","","","","","","","","","","","","","","","","","","","","","","","","","","","","","","","","","","","","","","",""
"","rating","","html-slider-response","35","761976","0.0-34.0","0","0","SfzKV","Scenes","","2845","","","","57","135","mohammad-alizade-4wzRuAb-KWs-unsplash.jpg","31","","","","","","","","","","","","","","","","","","","","","","","","","","","","","","","","","","","","","","","",""
"","rating","","html-slider-response","36","765736","0.0-35.0","0","0","SfzKV","Scenes","","3759","","","","36","126","jordan-mcqueen-PJCZOWuOxbU-unsplash.jpg","32","","","","","","","","","","","","","","","","","","","","","","","","","","","","","","","","","","","","","","","",""
"","rating","","html-slider-response","37","769424","0.0-36.0","0","0","SfzKV","Scenes","","3686","","","","67","117","frank-mckenna-OD9EOzfSOh0-unsplash.jpg","33","","","","","","","","","","","","","","","","","","","","","","","","","","","","","","","","","","","","","","","",""
"","rating","","html-slider-response","38","776903","0.0-37.0","0","0","SfzKV","Scenes","","7477","","","","93","134","milada-vigerova-pQMM63GE7fo-unsplash.jpg","34","","","","","","","","","","","","","","","","","","","","","","","","","","","","","","","","","","","","","","","",""
"","rating","","html-slider-response","39","784783","0.0-38.0","0","0","SfzKV","Scenes","","7878","","","","67","103","anton-darius-FBJugtbHsWU-unsplash.jpg","35","","","","","","","","","","","","","","","","","","","","","","","","","","","","","","","","","","","","","","","",""
"","rating","","html-slider-response","40","788520","0.0-39.0","0","0","SfzKV","Scenes","","3733","","","","50","129","kurt-cotoaga-cqbLg3lZEpk-unsplash.jpg","36","","","","","","","","","","","","","","","","","","","","","","","","","","","","","","","","","","","","","","","",""
"","rating","","html-slider-response","41","794312","0.0-40.0","0","0","SfzKV","Scenes","","5790","","","","70","130","lina-loos-04-C1NZk1hE-unsplash.jpg","37","","","","","","","","","","","","","","","","","","","","","","","","","","","","","","","","","","","","","","","",""
"","rating","","html-slider-response","42","798367","0.0-41.0","0","0","SfzKV","Scenes","","4052","","","","88","110","bruno-van-der-kraan-qez8mNJ3ilU-unsplash.jpg","38","","","","","","","","","","","","","","","","","","","","","","","","","","","","","","","","","","","","","","","",""
"","rating","","html-slider-response","43","809918","0.0-42.0","0","0","SfzKV","Scenes","","11549","","","","48","113","damian-denis-D8R_txR_0PE-unsplash.jpg","39","","","","","","","","","","","","","","","","","","","","","","","","","","","","","","","","","","","","","","","",""
"","rating","","html-slider-response","44","815154","0.0-43.0","0","0","SfzKV","Scenes","","5234","","","","68","141","sebastian-unrau-v4e3JI7DDHI-unsplash.jpg","40","","","","","","","","","","","","","","","","","","","","","","","","","","","","","","","","","","","","","","","",""
"","rating","","html-slider-response","45","819800","0.0-44.0","0","0","SfzKV","Scenes","","4644","","","","85","128","karsten-wurth-jS0zC2PJ17A-unsplash.jpg","41","","","","","","","","","","","","","","","","","","","","","","","","","","","","","","","","","","","","","","","",""
"","rating","","html-slider-response","46","824056","0.0-45.0","0","0","SfzKV","Scenes","","4254","","","","55","145","stephen-leonardi-gyIRjKPXupE-unsplash.jpg","42","","","","","","","","","","","","","","","","","","","","","","","","","","","","","","","","","","","","","","","",""
"","rating","","html-slider-response","47","827096","0.0-46.0","0","0","SfzKV","Scenes","","3037","","","","76","148","tom-gainor-ZqLeQDjY6fY-unsplash.jpg","43","","","","","","","","","","","","","","","","","","","","","","","","","","","","","","","","","","","","","","","",""
"","rating","","html-slider-response","48","830488","0.0-47.0","0","0","SfzKV","Scenes","","3389","","","","74","127","kace-rodriguez-p3OzJuT_Dks-unsplash.jpg","44","","","","","","","","","","","","","","","","","","","","","","","","","","","","","","","","","","","","","","","",""
"","rating","","html-slider-response","49","837903","0.0-48.0","0","0","SfzKV","Scenes","","7413","","","","89","140","samuele-errico-piccarini-JEBqFu2AOOA-unsplash.jpg","45","","","","","","","","","","","","","","","","","","","","","","","","","","","","","","","","","","","","","","","",""
"","rating","","html-slider-response","50","848523","0.0-49.0","0","0","SfzKV","Scenes","","10617","","","","59","121","jean-pierre-brungs-qxCqkbF7tUc-unsplash.jpg","46","","","","","","","","","","","","","","","","","","","","","","","","","","","","","","","","","","","","","","","",""
"","rating","","html-slider-response","51","851399","0.0-50.0","0","0","SfzKV","Scenes","","2874","","","","72","109","brigitta-schneiter-hXXRLtTxXCU-unsplash.jpg","47","","","","","","","","","","","","","","","","","","","","","","","","","","","","","","","","","","","","","","","",""
"","rating","","html-slider-response","52","855535","0.0-51.0","0","0","SfzKV","Scenes","","4134","","","","34","149","yuriy-bogdanov-W51VK3Obcj0-unsplash.jpg","48","","","","","","","","","","","","","","","","","","","","","","","","","","","","","","","","","","","","","","","",""
"","rating","","html-slider-response","53","862154","0.0-52.0","0","0","SfzKV","Scenes","","6616","","","","100","137","olga-stalska-QaWRyEdlffY-unsplash.jpg","49","","","","","","","","","","","","","","","","","","","","","","","","","","","","","","","","","","","","","","","",""
"","deliberation_instructions","","instructions","54","936941","0.0-53.0-0.0","0","0","SfzKV","Scenes","[{""page_index"":0,""viewing_time"":21032},{""page_index"":1,""viewing_time"":11615},{""page_index"":2,""viewing_time"":11408},{""page_index"":3,""viewing_time"":28791},{""page_index"":4,""viewing_time"":1937}]","74784","","","","","","","","","","","","","","","","","","","","","","","","","","","","","","","","","","","","","","","","","","","","","","",""
"","deliberation_comprehension_check","","survey-multi-choice","55","969100","0.0-53.0-1.0","0","0","SfzKV","Scenes","","32150","{""Q0"":""True"",""Q1"":""True"",""Q2"":""Consider carefully and take your time (up to 10 seconds)"",""Q3"":""False"",""Q4"":""D""}","1","","","","","","","","","","","","","","","","","","","","","","","","","","","","","","","","","","","","","","","","","","","","",""
"","missed_instruction_checkup","","html-keyboard-response","56","971037","0.0-53.0-2.0-0.0","0","1","SfzKV","Scenes","","1930","","","78","","","","","","","","","","","","","","","","","","","","","","","","","","","","","","","","","","","","","","","","","","","",""
"","deliberation_instructions","","instructions","57","988450","0.0-53.1-0.1","0","0","SfzKV","Scenes","[{""page_index"":0,""viewing_time"":3467},{""page_index"":1,""viewing_time"":1760},{""page_index"":2,""viewing_time"":9575},{""page_index"":3,""viewing_time"":1688},{""page_index"":4,""viewing_time"":920}]","17411","","","","","","","","","","","","","","","","","","","","","","","","","","","","","","","","","","","","","","","","","","","","","","",""
"","deliberation_comprehension_check","","survey-multi-choice","58","998127","0.0-53.1-1.1","0","0","SfzKV","Scenes","","9669","{""Q0"":""True"",""Q1"":""True"",""Q2"":""Consider carefully and take your time (up to 10 seconds)"",""Q3"":""True"",""Q4"":""D""}","0","","","","","","","","","","","","","","","","","","","","","","","","","","","","","","","","","","","","","","","","","","","","",""
"","start_phase","","html-keyboard-response","59","1002447","0.0-54.0","0","0","SfzKV","Scenes","","4315","","","78","","","","","","","","","","","","","","","","","","","","","","","","","","","","","","","","","","","","","","","","","","","",""
"","first_deliberation_block","","html-keyboard-response","60","1007488","0.0-55.0","0","0","SfzKV","Scenes","","5039","","","78","","","","","","","","","","","","","","","","","","","","","","","","","","","","","","","","","","","","","","","","","","","",""
"","fixation","","html-keyboard-response","61","1008503","0.0-56.0-0.0","0","0","SfzKV","Scenes","","null","","","null","","","","","","","","","","","","","","","","","","","","","","","","","","","","","","","","","","","","","","","","","","","",""
"","deliberation","","html-keyboard-response","62","1011527","0.0-56.0-1.0","0","0","SfzKV","Scenes","","3021","","","75","","","","0","100","135","1","1","71","57","aleksandra-boguslawska-MS7KD9Ti7FQ-unsplash.jpg","mohammad-alizade-4wzRuAb-KWs-unsplash.jpg","1","0","135","100","","","","","","","","","","","","","","","","","","","","","","","","","","","",""
"","choice_confirmation","","html-keyboard-response","63","1012037","0.0-56.0-2.0-0.0","0","0","SfzKV","Scenes","","null","","","null","","","","0","100","135","","","","","","","","","","","","","","","","","","","","","","","","","","","","","","","","","","","","","",""
"","explain_trial","","survey-text","64","1035585","0.0-56.0-5.0-0.0","0","0","SfzKV","Scenes","","23545","{""Q0"":""It's less ordinary of the 2 photos and I believe it would sell for a higher price.""}","","","","","","0","100","135","","","","","","","","","","","{""Q0"":""It's less ordinary of the 2 photos and I believe it would sell for a higher price.""}","","","","","","","","","","","","","","","","","","","","","","","","","","",""
"","fixation","","html-keyboard-response","65","1036600","0.0-57.0-0.0","0","0","SfzKV","Scenes","","null","","","null","","","","","","","","","","","","","","","","","","","","","","","","","","","","","","","","","","","","","","","","","","","",""
"","deliberation","","html-keyboard-response","66","1039367","0.0-57.0-1.0","0","0","SfzKV","Scenes","","2765","","","75","","","","1","118","141","1","-1","71","68","henry-be-NLF6hTe4PAg-unsplash.jpg","sebastian-unrau-v4e3JI7DDHI-unsplash.jpg","1","0","141","118","","","","","","","","","","","","","","","","","","","","","","","","","","","",""
"","choice_confirmation","","html-keyboard-response","67","1039876","0.0-57.0-2.0-0.0","0","0","SfzKV","Scenes","","null","","","null","","","","1","118","141","","","","","","","","","","","","","","","","","","","","","","","","","","","","","","","","","","","","","",""
"","explain_trial","","survey-text","68","1063039","0.0-57.0-5.0-0.0","0","0","SfzKV","Scenes","","23161","{""Q0"":""It looks more professional and more beautiful, thus likely to sell at a higher price.""}","","","","","","1","118","141","","","","","","","","","","","{""Q0"":""It looks more professional and more beautiful, thus likely to sell at a higher price.""}","","","","","","","","","","","","","","","","","","","","","","","","","","",""
"","fixation","","html-keyboard-response","69","1064046","0.0-58.0-0.0","0","0","SfzKV","Scenes","","null","","","null","","","","","","","","","","","","","","","","","","","","","","","","","","","","","","","","","","","","","","","","","","","",""
"","deliberation","","html-keyboard-response","70","1067845","0.0-58.0-1.0","0","0","SfzKV","Scenes","","3796","","","68","","","","2","103","124","1","-1","67","71","anton-darius-FBJugtbHsWU-unsplash.jpg","johannes-plenio-sPt5RIjKfpk-unsplash.jpg","1","1","103","124","","","","","","","","","","","","","","","","","","","","","","","","","","","",""
"","choice_confirmation","","html-keyboard-response","71","1068352","0.0-58.0-2.0-0.0","0","0","SfzKV","Scenes","","null","","","null","","","","2","103","124","","","","","","","","","","","","","","","","","","","","","","","","","","","","","","","","","","","","","",""
"","explain_trial","","survey-text","72","1100454","0.0-58.0-5.0-0.0","0","0","SfzKV","Scenes","","32099","{""Q0"":""The right photo, while nice, almost looks fake, like a drawing or CG.""}","","","","","","2","103","124","","","","","","","","","","","{""Q0"":""The right photo, while nice, almost looks fake, like a drawing or CG.""}","","","","","","","","","","","","","","","","","","","","","","","","","","",""
"","fixation","","html-keyboard-response","73","1101467","0.0-59.0-0.0","0","0","SfzKV","Scenes","","null","","","null","","","","","","","","","","","","","","","","","","","","","","","","","","","","","","","","","","","","","","","","","","","",""
"","deliberation","","html-keyboard-response","74","1105612","0.0-59.0-1.0","0","0","SfzKV","Scenes","","4143","","","75","","","","3","143","121","0","-1","68","59","sigurdur-fjalar-jonsson-1KxBabIntpE-unsplash.jpg","jean-pierre-brungs-qxCqkbF7tUc-unsplash.jpg","1","0","121","143","","","","","","","","","","","","","","","","","","","","","","","","","","","",""
"","choice_confirmation","","html-keyboard-response","75","1106121","0.0-59.0-2.0-0.0","0","0","SfzKV","Scenes","","null","","","null","","","","3","143","121","","","","","","","","","","","","","","","","","","","","","","","","","","","","","","","","","","","","","",""
"","fixation","","html-keyboard-response","76","1107132","0.0-60.0-0.0","0","0","SfzKV","Scenes","","null","","","null","","","","","","","","","","","","","","","","","","","","","","","","","","","","","","","","","","","","","","","","","","","",""
"","deliberation","","html-keyboard-response","77","1110227","0.0-60.0-1.0","0","0","SfzKV","Scenes","","3093","","","75","","","","4","117","123","1","1","67","87","frank-mckenna-OD9EOzfSOh0-unsplash.jpg","joel-jasmin-forestbird-efuwb5eBDrI-unsplash.jpg","1","0","123","117","","","","","","","","","","","","","","","","","","","","","","","","","","","",""
"","choice_confirmation","","html-keyboard-response","78","1110740","0.0-60.0-2.0-0.0","0","0","SfzKV","Scenes","","null","","","null","","","","4","117","123","","","","","","","","","","","","","","","","","","","","","","","","","","","","","","","","","","","","","",""
"","explain_trial","","survey-text","79","1141965","0.0-60.0-5.0-0.0","0","0","SfzKV","Scenes","","31222","{""Q0"":""The imagery in the left photo is too ordinary when compared to the right.""}","","","","","","4","117","123","","","","","","","","","","","{""Q0"":""The imagery in the left photo is too ordinary when compared to the right.""}","","","","","","","","","","","","","","","","","","","","","","","","","","",""
"","fixation","","html-keyboard-response","80","1142977","0.0-61.0-0.0","0","0","SfzKV","Scenes","","null","","","null","","","","","","","","","","","","","","","","","","","","","","","","","","","","","","","","","","","","","","","","","","","",""
"","deliberation","","html-keyboard-response","81","1147787","0.0-61.0-1.0","0","0","SfzKV","Scenes","","4808","","","75","","","","5","132","102","0","1","82","80","meng-ji-8BH_M-53CyA-unsplash.jpg","anisur-rahman-K2b7UDed6uQ-unsplash.jpg","1","0","102","132","","","","","","","","","","","","","","","","","","","","","","","","","","","",""
"","choice_confirmation","","html-keyboard-response","82","1148298","0.0-61.0-2.0-0.0","0","0","SfzKV","Scenes","","null","","","null","","","","5","132","102","","","","","","","","","","","","","","","","","","","","","","","","","","","","","","","","","","","","","",""
"","fixation","","html-keyboard-response","83","1149311","0.0-62.0-0.0","0","0","SfzKV","Scenes","","null","","","null","","","","","","","","","","","","","","","","","","","","","","","","","","","","","","","","","","","","","","","","","","","",""
"","deliberation","","html-keyboard-response","84","1152443","0.0-62.0-1.0","0","0","SfzKV","Scenes","","3130","","","75","","","","6","111","144","0","-1","57","57","claudio-testa-U3F2o6vz3bs-unsplash.jpg","solotravelgoals-7kLufxYoqWk-unsplash.jpg","1","0","144","111","","","","","","","","","","","","","","","","","","","","","","","","","","","",""
"","choice_confirmation","","html-keyboard-response","85","1152951","0.0-62.0-2.0-0.0","0","0","SfzKV","Scenes","","null","","","null","","","","6","111","144","","","","","","","","","","","","","","","","","","","","","","","","","","","","","","","","","","","","","",""
"","fixation","","html-keyboard-response","86","1153960","0.0-63.0-0.0","0","0","SfzKV","Scenes","","null","","","null","","","","","","","","","","","","","","","","","","","","","","","","","","","","","","","","","","","","","","","","","","","",""
"","deliberation","","html-keyboard-response","87","1156475","0.0-63.0-1.0","0","0","SfzKV","Scenes","","2513","","","68","","","","7","130","127","1","-1","70","74","lina-loos-04-C1NZk1hE-unsplash.jpg","kace-rodriguez-p3OzJuT_Dks-unsplash.jpg","1","1","130","127","","","","","","","","","","","","","","","","","","","","","","","","","","","",""
"","choice_confirmation","","html-keyboard-response","88","1156983","0.0-63.0-2.0-0.0","0","0","SfzKV","Scenes","","null","","","null","","","","7","130","127","","","","","","","","","","","","","","","","","","","","","","","","","","","","","","","","","","","","","",""
"","explain_trial","","survey-text","89","1190853","0.0-63.0-5.0-0.0","0","0","SfzKV","Scenes","","33868","{""Q0"":""It's got far more to it than the right photo.""}","","","","","","7","130","127","","","","","","","","","","","{""Q0"":""It's got far more to it than the right photo.""}","","","","","","","","","","","","","","","","","","","","","","","","","","",""
"","fixation","","html-keyboard-response","90","1191857","0.0-64.0-0.0","0","0","SfzKV","Scenes","","null","","","null","","","","","","","","","","","","","","","","","","","","","","","","","","","","","","","","","","","","","","","","","","","",""
"","deliberation","","html-keyboard-response","91","1195986","0.0-64.0-1.0","0","0","SfzKV","Scenes","","4127","","","68","","","","8","109","148","0","1","72","76","brigitta-schneiter-hXXRLtTxXCU-unsplash.jpg","tom-gainor-ZqLeQDjY6fY-unsplash.jpg","1","1","109","148","","","","","","","","","","","","","","","","","","","","","","","","","","","",""
"","choice_confirmation","","html-keyboard-response","92","1196495","0.0-64.0-2.0-0.0","0","0","SfzKV","Scenes","","null","","","null","","","","8","109","148","","","","","","","","","","","","","","","","","","","","","","","","","","","","","","","","","","","","","",""
"","fixation","","html-keyboard-response","93","1197509","0.0-65.0-0.0","0","0","SfzKV","Scenes","","null","","","null","","","","","","","","","","","","","","","","","","","","","","","","","","","","","","","","","","","","","","","","","","","",""
"","deliberation","","html-keyboard-response","94","1199466","0.0-65.0-1.0","0","0","SfzKV","Scenes","","1956","","","68","","","","9","105","120","0","1","64","60","ashim-d-silva-S2Q5mdOrrVc-unsplash.jpg","jarrett-kow-1ZOyYPOBn7I-unsplash.jpg","1","1","105","120","","","","","","","","","","","","","","","","","","","","","","","","","","","",""
"","choice_confirmation","","html-keyboard-response","95","1199976","0.0-65.0-2.0-0.0","0","0","SfzKV","Scenes","","null","","","null","","","","9","105","120","","","","","","","","","","","","","","","","","","","","","","","","","","","","","","","","","","","","","",""
"","fixation","","html-keyboard-response","96","1200988","0.0-66.0-0.0","0","0","SfzKV","Scenes","","null","","","null","","","","","","","","","","","","","","","","","","","","","","","","","","","","","","","","","","","","","","","","","","","",""
"","deliberation","","html-keyboard-response","97","1203634","0.0-66.0-1.0","0","0","SfzKV","Scenes","","2645","","","75","","","","10","115","128","0","-1","67","85","darrell-cassell-hoCXpPUMCoE-unsplash.jpg","karsten-wurth-jS0zC2PJ17A-unsplash.jpg","1","0","128","115","","","","","","","","","","","","","","","","","","","","","","","","","","","",""
"","choice_confirmation","","html-keyboard-response","98","1204143","0.0-66.0-2.0-0.0","0","0","SfzKV","Scenes","","null","","","null","","","","10","115","128","","","","","","","","","","","","","","","","","","","","","","","","","","","","","","","","","","","","","",""
"","fixation","","html-keyboard-response","99","1205155","0.0-67.0-0.0","0","0","SfzKV","Scenes","","null","","","null","","","","","","","","","","","","","","","","","","","","","","","","","","","","","","","","","","","","","","","","","","","",""
"","deliberation","","html-keyboard-response","100","1209482","0.0-67.0-1.0","0","0","SfzKV","Scenes","","4325","","","68","","","","11","133","116","1","1","68","70","mickey-o-neil-xL66l--msXU-unsplash.jpg","david-marcu-W5MhJ6cy1So-unsplash.jpg","1","1","133","116","","","","","","","","","","","","","","","","","","","","","","","","","","","",""
"","choice_confirmation","","html-keyboard-response","101","1209993","0.0-67.0-2.0-0.0","0","0","SfzKV","Scenes","","null","","","null","","","","11","133","116","","","","","","","","","","","","","","","","","","","","","","","","","","","","","","","","","","","","","",""
"","explain_trial","","survey-text","102","1228491","0.0-67.0-5.0-0.0","0","0","SfzKV","Scenes","","18496","{""Q0"":""The photo on the right just seems too commonplace.""}","","","","","","11","133","116","","","","","","","","","","","{""Q0"":""The photo on the right just seems too commonplace.""}","","","","","","","","","","","","","","","","","","","","","","","","","","",""
"","practice_deliberation_again","","html-keyboard-response","103","1242099","0.0-67.0-6.0-0.0","0","0","SfzKV","Scenes","","13606","","","78","","","","","","","","","","","","","","","","","","","","","","","","","","","","","","","","","","","","","","","","","","","",""
"","fixation","","html-keyboard-response","104","1243112","0.0-68.0-0.0","0","0","SfzKV","Scenes","","null","","","null","","","","","","","","","","","","","","","","","","","","","","","","","","","","","","","","","","","","","","","","","","","",""
"","deliberation","","html-keyboard-response","105","1245219","0.0-68.0-1.0","0","0","SfzKV","Scenes","","2104","","","75","","","","12","118","141","0","-1","71","68","henry-be-NLF6hTe4PAg-unsplash.jpg","sebastian-unrau-v4e3JI7DDHI-unsplash.jpg","2","0","141","118","","","","","","","","","","","","","","","","","","","","","","","","","","","",""
"","choice_confirmation","","html-keyboard-response","106","1245727","0.0-68.0-2.0-0.0","0","0","SfzKV","Scenes","","null","","","null","","","","12","118","141","","","","","","","","","","","","","","","","","","","","","","","","","","","","","","","","","","","","","",""
"","fixation","","html-keyboard-response","107","1246737","0.0-69.0-0.0","0","0","SfzKV","Scenes","","null","","","null","","","","","","","","","","","","","","","","","","","","","","","","","","","","","","","","","","","","","","","","","","","",""
"","deliberation","","html-keyboard-response","108","1247779","0.0-69.0-1.0","0","0","SfzKV","Scenes","","1040","","","68","","","","13","105","120","1","1","64","60","ashim-d-silva-S2Q5mdOrrVc-unsplash.jpg","jarrett-kow-1ZOyYPOBn7I-unsplash.jpg","2","1","105","120","","","","","","","","","","","","","","","","","","","","","","","","","","","",""
"","choice_confirmation","","html-keyboard-response","109","1248287","0.0-69.0-2.0-0.0","0","0","SfzKV","Scenes","","null","","","null","","","","13","105","120","","","","","","","","","","","","","","","","","","","","","","","","","","","","","","","","","","","","","",""
"","explain_trial","","survey-text","110","1279295","0.0-69.0-5.0-0.0","0","0","SfzKV","Scenes","","31006","{""Q0"":""Clearly, from an art dealer's view, this photo is superior in terms of marketability. ""}","","","","","","13","105","120","","","","","","","","","","","{""Q0"":""Clearly, from an art dealer's view, this photo is superior in terms of marketability. ""}","","","","","","","","","","","","","","","","","","","","","","","","","","",""
"","fixation","","html-keyboard-response","111","1280304","0.0-70.0-0.0","0","0","SfzKV","Scenes","","null","","","null","","","","","","","","","","","","","","","","","","","","","","","","","","","","","","","","","","","","","","","","","","","",""
"","deliberation","","html-keyboard-response","112","1281938","0.0-70.0-1.0","0","0","SfzKV","Scenes","","1632","","","75","","","","14","117","123","0","1","67","87","frank-mckenna-OD9EOzfSOh0-unsplash.jpg","joel-jasmin-forestbird-efuwb5eBDrI-unsplash.jpg","2","0","123","117","","","","","","","","","","","","","","","","","","","","","","","","","","","",""
"","choice_confirmation","","html-keyboard-response","113","1282447","0.0-70.0-2.0-0.0","0","0","SfzKV","Scenes","","null","","","null","","","","14","117","123","","","","","","","","","","","","","","","","","","","","","","","","","","","","","","","","","","","","","",""
"","fixation","","html-keyboard-response","114","1283454","0.0-71.0-0.0","0","0","SfzKV","Scenes","","null","","","null","","","","","","","","","","","","","","","","","","","","","","","","","","","","","","","","","","","","","","","","","","","",""
"","deliberation","","html-keyboard-response","115","1284609","0.0-71.0-1.0","0","0","SfzKV","Scenes","","1153","","","75","","","","15","100","135","0","1","71","57","aleksandra-boguslawska-MS7KD9Ti7FQ-unsplash.jpg","mohammad-alizade-4wzRuAb-KWs-unsplash.jpg","2","0","135","100","","","","","","","","","","","","","","","","","","","","","","","","","","","",""
"","choice_confirmation","","html-keyboard-response","116","1285120","0.0-71.0-2.0-0.0","0","0","SfzKV","Scenes","","null","","","null","","","","15","100","135","","","","","","","","","","","","","","","","","","","","","","","","","","","","","","","","","","","","","",""
"","fixation","","html-keyboard-response","117","1286131","0.0-72.0-0.0","0","0","SfzKV","Scenes","","null","","","null","","","","","","","","","","","","","","","","","","","","","","","","","","","","","","","","","","","","","","","","","","","",""
"","deliberation","","html-keyboard-response","118","1287426","0.0-72.0-1.0","0","0","SfzKV","Scenes","","1294","","","75","","","","16","143","121","1","-1","68","59","sigurdur-fjalar-jonsson-1KxBabIntpE-unsplash.jpg","jean-pierre-brungs-qxCqkbF7tUc-unsplash.jpg","2","0","121","143","","","","","","","","","","","","","","","","","","","","","","","","","","","",""
"","choice_confirmation","","html-keyboard-response","119","1287936","0.0-72.0-2.0-0.0","0","0","SfzKV","Scenes","","null","","","null","","","","16","143","121","","","","","","","","","","","","","","","","","","","","","","","","","","","","","","","","","","","","","",""
"","explain_trial","","survey-text","120","1309368","0.0-72.0-5.0-0.0","0","0","SfzKV","Scenes","","21430","{""Q0"":""It has a more vast feeling.""}","","","","","","16","143","121","","","","","","","","","","","{""Q0"":""It has a more vast feeling.""}","","","","","","","","","","","","","","","","","","","","","","","","","","",""
"","fixation","","html-keyboard-response","121","1310372","0.0-73.0-0.0","0","0","SfzKV","Scenes","","null","","","null","","","","","","","","","","","","","","","","","","","","","","","","","","","","","","","","","","","","","","","","","","","",""
"","deliberation","","html-keyboard-response","122","1312554","0.0-73.0-1.0","0","0","SfzKV","Scenes","","2179","","","68","","","","17","133","116","0","1","68","70","mickey-o-neil-xL66l--msXU-unsplash.jpg","david-marcu-W5MhJ6cy1So-unsplash.jpg","2","1","133","116","","","","","","","","","","","","","","","","","","","","","","","","","","","",""
"","choice_confirmation","","html-keyboard-response","123","1313066","0.0-73.0-2.0-0.0","0","0","SfzKV","Scenes","","null","","","null","","","","17","133","116","","","","","","","","","","","","","","","","","","","","","","","","","","","","","","","","","","","","","",""
"","fixation","","html-keyboard-response","124","1314079","0.0-74.0-0.0","0","0","SfzKV","Scenes","","null","","","null","","","","","","","","","","","","","","","","","","","","","","","","","","","","","","","","","","","","","","","","","","","",""
"","deliberation","","html-keyboard-response","125","1315577","0.0-74.0-1.0","0","0","SfzKV","Scenes","","1496","","","68","","","","18","103","124","0","-1","67","71","anton-darius-FBJugtbHsWU-unsplash.jpg","johannes-plenio-sPt5RIjKfpk-unsplash.jpg","2","1","103","124","","","","","","","","","","","","","","","","","","","","","","","","","","","",""
"","choice_confirmation","","html-keyboard-response","126","1316088","0.0-74.0-2.0-0.0","0","0","SfzKV","Scenes","","null","","","null","","","","18","103","124","","","","","","","","","","","","","","","","","","","","","","","","","","","","","","","","","","","","","",""
"","fixation","","html-keyboard-response","127","1317095","0.0-75.0-0.0","0","0","SfzKV","Scenes","","null","","","null","","","","","","","","","","","","","","","","","","","","","","","","","","","","","","","","","","","","","","","","","","","",""
"","deliberation","","html-keyboard-response","128","1318154","0.0-75.0-1.0","0","0","SfzKV","Scenes","","1057","","","75","","","","19","111","144","1","-1","57","57","claudio-testa-U3F2o6vz3bs-unsplash.jpg","solotravelgoals-7kLufxYoqWk-unsplash.jpg","2","0","144","111","","","","","","","","","","","","","","","","","","","","","","","","","","","",""
"","choice_confirmation","","html-keyboard-response","129","1318663","0.0-75.0-2.0-0.0","0","0","SfzKV","Scenes","","null","","","null","","","","19","111","144","","","","","","","","","","","","","","","","","","","","","","","","","","","","","","","","","","","","","",""
"","explain_trial","","survey-text","130","1361455","0.0-75.0-5.0-0.0","0","0","SfzKV","Scenes","","42790","{""Q0"":""Both photos are great, but the one on the right is more professional looking, in my opinion.""}","","","","","","19","111","144","","","","","","","","","","","{""Q0"":""Both photos are great, but the one on the right is more professional looking, in my opinion.""}","","","","","","","","","","","","","","","","","","","","","","","","","","",""
"","fixation","","html-keyboard-response","131","1362462","0.0-76.0-0.0","0","0","SfzKV","Scenes","","null","","","null","","","","","","","","","","","","","","","","","","","","","","","","","","","","","","","","","","","","","","","","","","","",""
"","deliberation","","html-keyboard-response","132","1365678","0.0-76.0-1.0","0","0","SfzKV","Scenes","","3214","","","75","","","","20","132","102","1","1","82","80","meng-ji-8BH_M-53CyA-unsplash.jpg","anisur-rahman-K2b7UDed6uQ-unsplash.jpg","2","0","102","132","","","","","","","","","","","","","","","","","","","","","","","","","","","",""
"","choice_confirmation","","html-keyboard-response","133","1366186","0.0-76.0-2.0-0.0","0","0","SfzKV","Scenes","","null","","","null","","","","20","132","102","","","","","","","","","","","","","","","","","","","","","","","","","","","","","","","","","","","","","",""
"","explain_trial","","survey-text","134","1379644","0.0-76.0-5.0-0.0","0","0","SfzKV","Scenes","","13455","{""Q0"":""It's exceptionally vivid.""}","","","","","","20","132","102","","","","","","","","","","","{""Q0"":""It's exceptionally vivid.""}","","","","","","","","","","","","","","","","","","","","","","","","","","",""
"","fixation","","html-keyboard-response","135","1380653","0.0-77.0-0.0","0","0","SfzKV","Scenes","","null","","","null","","","","","","","","","","","","","","","","","","","","","","","","","","","","","","","","","","","","","","","","","","","",""
"","deliberation","","html-keyboard-response","136","1383038","0.0-77.0-1.0","0","0","SfzKV","Scenes","","2383","","","68","","","","21","130","127","0","-1","70","74","lina-loos-04-C1NZk1hE-unsplash.jpg","kace-rodriguez-p3OzJuT_Dks-unsplash.jpg","2","1","130","127","","","","","","","","","","","","","","","","","","","","","","","","","","","",""
"","choice_confirmation","","html-keyboard-response","137","1383550","0.0-77.0-2.0-0.0","0","0","SfzKV","Scenes","","null","","","null","","","","21","130","127","","","","","","","","","","","","","","","","","","","","","","","","","","","","","","","","","","","","","",""
"","fixation","","html-keyboard-response","138","1384560","0.0-78.0-0.0","0","0","SfzKV","Scenes","","null","","","null","","","","","","","","","","","","","","","","","","","","","","","","","","","","","","","","","","","","","","","","","","","",""
"","deliberation","","html-keyboard-response","139","1386093","0.0-78.0-1.0","0","0","SfzKV","Scenes","","1531","","","75","","","","22","115","128","1","-1","67","85","darrell-cassell-hoCXpPUMCoE-unsplash.jpg","karsten-wurth-jS0zC2PJ17A-unsplash.jpg","2","0","128","115","","","","","","","","","","","","","","","","","","","","","","","","","","","",""
"","choice_confirmation","","html-keyboard-response","140","1386600","0.0-78.0-2.0-0.0","0","0","SfzKV","Scenes","","null","","","null","","","","22","115","128","","","","","","","","","","","","","","","","","","","","","","","","","","","","","","","","","","","","","",""
"","explain_trial","","survey-text","141","1416374","0.0-78.0-5.0-0.0","0","0","SfzKV","Scenes","","29772","{""Q0"":""It looks like a dream home setting and the left photo is just average.""}","","","","","","22","115","128","","","","","","","","","","","{""Q0"":""It looks like a dream home setting and the left photo is just average.""}","","","","","","","","","","","","","","","","","","","","","","","","","","",""
"","fixation","","html-keyboard-response","142","1417379","0.0-79.0-0.0","0","0","SfzKV","Scenes","","null","","","null","","","","","","","","","","","","","","","","","","","","","","","","","","","","","","","","","","","","","","","","","","","",""
"","deliberation","","html-keyboard-response","143","1420988","0.0-79.0-1.0","0","0","SfzKV","Scenes","","3607","","","68","","","","23","109","148","1","1","72","76","brigitta-schneiter-hXXRLtTxXCU-unsplash.jpg","tom-gainor-ZqLeQDjY6fY-unsplash.jpg","2","1","109","148","","","","","","","","","","","","","","","","","","","","","","","","","","","",""
"","choice_confirmation","","html-keyboard-response","144","1421493","0.0-79.0-2.0-0.0","0","0","SfzKV","Scenes","","null","","","null","","","","23","109","148","","","","","","","","","","","","","","","","","","","","","","","","","","","","","","","","","","","","","",""
"","explain_trial","","survey-text","145","1447939","0.0-79.0-5.0-0.0","0","0","SfzKV","Scenes","","26444","{""Q0"":""I think it's better quality. It flows better.""}","","","","","","23","109","148","","","","","","","","","","","{""Q0"":""I think it's better quality. It flows better.""}","","","","","","","","","","","","","","","","","","","","","","","","","","",""
"","start_critical_deliberation_block","","html-keyboard-response","146","1458889","0.0-79.0-7.0-0.0","0","0","SfzKV","Scenes","","10947","","","78","","","","","","","","","","","","","","","","","","","","","","","","","","","","","","","","","","","","","","","","","","","",""
"","fixation","","html-keyboard-response","147","1459896","0.0-80.0-0.0","0","0","SfzKV","Scenes","","null","","","null","","","","","","","","","","","","","","","","","","","","","","","","","","","","","","","","","","","","","","","","","","","",""
"","deliberation","","html-keyboard-response","148","1463056","0.0-80.0-1.0","0","0","SfzKV","Scenes","","3157","","","75","","","","24","143","121","0","-1","68","59","sigurdur-fjalar-jonsson-1KxBabIntpE-unsplash.jpg","jean-pierre-brungs-qxCqkbF7tUc-unsplash.jpg","3","0","121","143","","","","","","","","","","","","","","","","","","","","","","","","","","","",""
"","choice_confirmation","","html-keyboard-response","149","1463567","0.0-80.0-2.0-0.0","0","0","SfzKV","Scenes","","null","","","null","","","","24","143","121","","","","","","","","","","","","","","","","","","","","","","","","","","","","","","","","","","","","","",""
"","fixation","","html-keyboard-response","150","1464583","0.0-81.0-0.0","0","0","SfzKV","Scenes","","null","","","null","","","","","","","","","","","","","","","","","","","","","","","","","","","","","","","","","","","","","","","","","","","",""
"","deliberation","","html-keyboard-response","151","1465928","0.0-81.0-1.0","0","0","SfzKV","Scenes","","1343","","","75","","","","25","100","135","0","1","71","57","aleksandra-boguslawska-MS7KD9Ti7FQ-unsplash.jpg","mohammad-alizade-4wzRuAb-KWs-unsplash.jpg","3","0","135","100","","","","","","","","","","","","","","","","","","","","","","","","","","","",""
"","choice_confirmation","","html-keyboard-response","152","1466432","0.0-81.0-2.0-0.0","0","0","SfzKV","Scenes","","null","","","null","","","","25","100","135","","","","","","","","","","","","","","","","","","","","","","","","","","","","","","","","","","","","","",""
"","fixation","","html-keyboard-response","153","1467448","0.0-82.0-0.0","0","0","SfzKV","Scenes","","null","","","null","","","","","","","","","","","","","","","","","","","","","","","","","","","","","","","","","","","","","","","","","","","",""
"","deliberation","","html-keyboard-response","154","1468400","0.0-82.0-1.0","0","0","SfzKV","Scenes","","950","","","68","","","","26","105","120","0","1","64","60","ashim-d-silva-S2Q5mdOrrVc-unsplash.jpg","jarrett-kow-1ZOyYPOBn7I-unsplash.jpg","3","1","105","120","","","","","","","","","","","","","","","","","","","","","","","","","","","",""
"","choice_confirmation","","html-keyboard-response","155","1468913","0.0-82.0-2.0-0.0","0","0","SfzKV","Scenes","","null","","","null","","","","26","105","120","","","","","","","","","","","","","","","","","","","","","","","","","","","","","","","","","","","","","",""
"","fixation","","html-keyboard-response","156","1469924","0.0-83.0-0.0","0","0","SfzKV","Scenes","","null","","","null","","","","","","","","","","","","","","","","","","","","","","","","","","","","","","","","","","","","","","","","","","","",""
"","deliberation","","html-keyboard-response","157","1471121","0.0-83.0-1.0","0","0","SfzKV","Scenes","","1193","","","68","","","","27","130","127","0","-1","70","74","lina-loos-04-C1NZk1hE-unsplash.jpg","kace-rodriguez-p3OzJuT_Dks-unsplash.jpg","3","1","130","127","","","","","","","","","","","","","","","","","","","","","","","","","","","",""
"","choice_confirmation","","html-keyboard-response","158","1471632","0.0-83.0-2.0-0.0","0","0","SfzKV","Scenes","","null","","","null","","","","27","130","127","","","","","","","","","","","","","","","","","","","","","","","","","","","","","","","","","","","","","",""
"","fixation","","html-keyboard-response","159","1472649","0.0-84.0-0.0","0","0","SfzKV","Scenes","","null","","","null","","","","","","","","","","","","","","","","","","","","","","","","","","","","","","","","","","","","","","","","","","","",""
"","deliberation","","html-keyboard-response","160","1473552","0.0-84.0-1.0","0","0","SfzKV","Scenes","","901","","","68","","","","28","133","116","0","1","68","70","mickey-o-neil-xL66l--msXU-unsplash.jpg","david-marcu-W5MhJ6cy1So-unsplash.jpg","3","1","133","116","","","","","","","","","","","","","","","","","","","","","","","","","","","",""
"","choice_confirmation","","html-keyboard-response","161","1474056","0.0-84.0-2.0-0.0","0","0","SfzKV","Scenes","","null","","","null","","","","28","133","116","","","","","","","","","","","","","","","","","","","","","","","","","","","","","","","","","","","","","",""
"","fixation","","html-keyboard-response","162","1475067","0.0-85.0-0.0","0","0","SfzKV","Scenes","","null","","","null","","","","","","","","","","","","","","","","","","","","","","","","","","","","","","","","","","","","","","","","","","","",""
"","deliberation","","html-keyboard-response","163","1476040","0.0-85.0-1.0","0","0","SfzKV","Scenes","","971","","","75","","","","29","111","144","0","-1","57","57","claudio-testa-U3F2o6vz3bs-unsplash.jpg","solotravelgoals-7kLufxYoqWk-unsplash.jpg","3","0","144","111","","","","","","","","","","","","","","","","","","","","","","","","","","","",""
"","choice_confirmation","","html-keyboard-response","164","1476549","0.0-85.0-2.0-0.0","0","0","SfzKV","Scenes","","null","","","null","","","","29","111","144","","","","","","","","","","","","","","","","","","","","","","","","","","","","","","","","","","","","","",""
"","fixation","","html-keyboard-response","165","1477557","0.0-86.0-0.0","0","0","SfzKV","Scenes","","null","","","null","","","","","","","","","","","","","","","","","","","","","","","","","","","","","","","","","","","","","","","","","","","",""
"","deliberation","","html-keyboard-response","166","1478408","0.0-86.0-1.0","0","0","SfzKV","Scenes","","850","","","75","","","","30","132","102","0","1","82","80","meng-ji-8BH_M-53CyA-unsplash.jpg","anisur-rahman-K2b7UDed6uQ-unsplash.jpg","3","0","102","132","","","","","","","","","","","","","","","","","","","","","","","","","","","",""
"","choice_confirmation","","html-keyboard-response","167","1478918","0.0-86.0-2.0-0.0","0","0","SfzKV","Scenes","","null","","","null","","","","30","132","102","","","","","","","","","","","","","","","","","","","","","","","","","","","","","","","","","","","","","",""
"","fixation","","html-keyboard-response","168","1479926","0.0-87.0-0.0","0","0","SfzKV","Scenes","","null","","","null","","","","","","","","","","","","","","","","","","","","","","","","","","","","","","","","","","","","","","","","","","","",""
"","deliberation","","html-keyboard-response","169","1481032","0.0-87.0-1.0","0","0","SfzKV","Scenes","","1103","","","68","","","","31","103","124","0","-1","67","71","anton-darius-FBJugtbHsWU-unsplash.jpg","johannes-plenio-sPt5RIjKfpk-unsplash.jpg","3","1","103","124","","","","","","","","","","","","","","","","","","","","","","","","","","","",""
"","choice_confirmation","","html-keyboard-response","170","1481539","0.0-87.0-2.0-0.0","0","0","SfzKV","Scenes","","null","","","null","","","","31","103","124","","","","","","","","","","","","","","","","","","","","","","","","","","","","","","","","","","","","","",""
"","fixation","","html-keyboard-response","171","1482549","0.0-88.0-0.0","0","0","SfzKV","Scenes","","null","","","null","","","","","","","","","","","","","","","","","","","","","","","","","","","","","","","","","","","","","","","","","","","",""
"","deliberation","","html-keyboard-response","172","1483458","0.0-88.0-1.0","0","0","SfzKV","Scenes","","907","","","75","","","","32","115","128","0","-1","67","85","darrell-cassell-hoCXpPUMCoE-unsplash.jpg","karsten-wurth-jS0zC2PJ17A-unsplash.jpg","3","0","128","115","","","","","","","","","","","","","","","","","","","","","","","","","","","",""
"","choice_confirmation","","html-keyboard-response","173","1483968","0.0-88.0-2.0-0.0","0","0","SfzKV","Scenes","","null","","","null","","","","32","115","128","","","","","","","","","","","","","","","","","","","","","","","","","","","","","","","","","","","","","",""
"","fixation","","html-keyboard-response","174","1484984","0.0-89.0-0.0","0","0","SfzKV","Scenes","","null","","","null","","","","","","","","","","","","","","","","","","","","","","","","","","","","","","","","","","","","","","","","","","","",""
"","deliberation","","html-keyboard-response","175","1486257","0.0-89.0-1.0","0","0","SfzKV","Scenes","","1271","","","68","","","","33","109","148","0","1","72","76","brigitta-schneiter-hXXRLtTxXCU-unsplash.jpg","tom-gainor-ZqLeQDjY6fY-unsplash.jpg","3","1","109","148","","","","","","","","","","","","","","","","","","","","","","","","","","","",""
"","choice_confirmation","","html-keyboard-response","176","1486765","0.0-89.0-2.0-0.0","0","0","SfzKV","Scenes","","null","","","null","","","","33","109","148","","","","","","","","","","","","","","","","","","","","","","","","","","","","","","","","","","","","","",""
"","fixation","","html-keyboard-response","177","1487774","0.0-90.0-0.0","0","0","SfzKV","Scenes","","null","","","null","","","","","","","","","","","","","","","","","","","","","","","","","","","","","","","","","","","","","","","","","","","",""
"","deliberation","","html-keyboard-response","178","1489417","0.0-90.0-1.0","0","0","SfzKV","Scenes","","1641","","","75","","","","34","118","141","0","-1","71","68","henry-be-NLF6hTe4PAg-unsplash.jpg","sebastian-unrau-v4e3JI7DDHI-unsplash.jpg","3","0","141","118","","","","","","","","","","","","","","","","","","","","","","","","","","","",""
"","choice_confirmation","","html-keyboard-response","179","1489925","0.0-90.0-2.0-0.0","0","0","SfzKV","Scenes","","null","","","null","","","","34","118","141","","","","","","","","","","","","","","","","","","","","","","","","","","","","","","","","","","","","","",""
"","fixation","","html-keyboard-response","180","1490935","0.0-91.0-0.0","0","0","SfzKV","Scenes","","null","","","null","","","","","","","","","","","","","","","","","","","","","","","","","","","","","","","","","","","","","","","","","","","",""
"","deliberation","","html-keyboard-response","181","1491921","0.0-91.0-1.0","0","0","SfzKV","Scenes","","984","","","75","","","","35","117","123","0","1","67","87","frank-mckenna-OD9EOzfSOh0-unsplash.jpg","joel-jasmin-forestbird-efuwb5eBDrI-unsplash.jpg","3","0","123","117","","","","","","","","","","","","","","","","","","","","","","","","","","","",""
"","choice_confirmation","","html-keyboard-response","182","1492445","0.0-91.0-2.0-0.0","0","0","SfzKV","Scenes","","null","","","null","","","","35","117","123","","","","","","","","","","","","","","","","","","","","","","","","","","","","","","","","","","","","","",""
"","reward_learning_instructions","","instructions","183","1552665","0.0-92.0-0.0","0","0","SfzKV","Scenes","[{""page_index"":0,""viewing_time"":27379},{""page_index"":1,""viewing_time"":31695},{""page_index"":2,""viewing_time"":1144}]","60218","","","","","","","","","","","","","","","","","","","","","","","","","","","","","","","","","","","","","","","","","","","","","","",""
"","reward_comprehension_check","","survey-multi-choice","184","1564921","0.0-92.0-1.0","0","0","SfzKV","Scenes","","12252","{""Q0"":""True"",""Q1"":""True"",""Q2"":""Press the space bar to see its outcome"",""Q3"":""Press the relevant key while the outcome is presented""}","0","","","","","","","","","","","","","","","","","","","","","","","","","","","","","","","","","","","","","","","","","","","","",""
"","start_phase","","html-keyboard-response","185","1566654","0.0-93.0","0","0","SfzKV","Scenes","","1728","","","78","","","","","","","","","","","","","","","","","","","","","","","","","","","","","","","","","","","","","","","","","","","",""
"","fixation","","html-keyboard-response","186","1567667","0.0-94.0","0","0","SfzKV","Scenes","","null","","","null","","","","","","","","","","","","","","","","","","","","","","","","","","","","","","","","","","","","","","","","","","","",""
"","see_reward","","html-keyboard-response","187","1568966","0.0-95.0","0","0","SfzKV","Scenes","","1297","","","32","","135","","0","","","","1","","","","","1","","","","","144","1297","","","","","","","","","","","","","","","","","","","","","","","","",""
"","reward_outcome","","html-keyboard-response","188","1570978","0.0-96.0","0","0","SfzKV","Scenes","","1653","","","38","","135","","0","","","","","","","","","","","","","","","","1","1653","","","","","","","","","","","","","","","","","","","","","","",""
"","fixation","","html-keyboard-response","189","1571991","0.0-99.0","0","0","SfzKV","Scenes","","null","","","null","","","","","","","","","","","","","","","","","","","","","","","","","","","","","","","","","","","","","","","","","","","",""
"","see_reward","","html-keyboard-response","190","1573327","0.0-100.0","0","0","SfzKV","Scenes","","1335","","","32","","130","","1","","","","-1","","","","","1","","","","","0","1335","","","","","","","","","","","","","","","","","","","","","","","","",""
"","reward_outcome","","html-keyboard-response","191","1575337","0.0-101.0","0","0","SfzKV","Scenes","","797","","","40","","130","","1","","","","","","","","","","","","","","","","-1","797","","","","","","","","","","","","","","","","","","","","","","",""
"","fixation","","html-keyboard-response","192","1576351","0.0-104.0","0","0","SfzKV","Scenes","","null","","","null","","","","","","","","","","","","","","","","","","","","","","","","","","","","","","","","","","","","","","","","","","","",""
"","see_reward","","html-keyboard-response","193","1577222","0.0-105.0","0","0","SfzKV","Scenes","","868","","","32","","121","","2","","","","-1","","","","","1","","","","","0","868","","","","","","","","","","","","","","","","","","","","","","","","",""
"","reward_outcome","","html-keyboard-response","194","1579231","0.0-106.0","0","0","SfzKV","Scenes","","790","","","40","","121","","2","","","","","","","","","","","","","","","","-1","790","","","","","","","","","","","","","","","","","","","","","","",""
"","fixation","","html-keyboard-response","195","1580236","0.0-109.0","0","0","SfzKV","Scenes","","null","","","null","","","","","","","","","","","","","","","","","","","","","","","","","","","","","","","","","","","","","","","","","","","",""
"","see_reward","","html-keyboard-response","196","1580878","0.0-110.0","0","0","SfzKV","Scenes","","640","","","32","","109","","3","","","","1","","","","","1","","","","","150","640","","","","","","","","","","","","","","","","","","","","","","","","",""
"","reward_outcome","","html-keyboard-response","197","1582890","0.0-111.0","0","0","SfzKV","Scenes","","734","","","38","","109","","3","","","","","","","","","","","","","","","","1","734","","","","","","","","","","","","","","","","","","","","","","",""
"","fixation","","html-keyboard-response","198","1583900","0.0-114.0","0","0","SfzKV","Scenes","","null","","","null","","","","","","","","","","","","","","","","","","","","","","","","","","","","","","","","","","","","","","","","","","","",""
"","see_reward","","html-keyboard-response","199","1584758","0.0-115.0","0","0","SfzKV","Scenes","","855","","","32","","109","","4","","","","1","","","","","1","","","","","150","855","","","","","","","","","","","","","","","","","","","","","","","","",""
"","reward_outcome","","html-keyboard-response","200","1586764","0.0-116.0","0","0","SfzKV","Scenes","","494","","","38","","109","","4","","","","","","","","","","","","","","","","1","494","","","","","","","","","","","","","","","","","","","","","","",""
"","fixation","","html-keyboard-response","201","1587767","0.0-119.0","0","0","SfzKV","Scenes","","null","","","null","","","","","","","","","","","","","","","","","","","","","","","","","","","","","","","","","","","","","","","","","","","",""
"","see_reward","","html-keyboard-response","202","1588629","0.0-120.0","0","0","SfzKV","Scenes","","860","","","32","","128","","5","","","","-1","","","","","1","","","","","0","860","","","","","","","","","","","","","","","","","","","","","","","","",""
"","reward_outcome","","html-keyboard-response","203","1590641","0.0-121.0","0","0","SfzKV","Scenes","","582","","","40","","128","","5","","","","","","","","","","","","","","","","-1","582","","","","","","","","","","","","","","","","","","","","","","",""
"","fixation","","html-keyboard-response","204","1591651","0.0-124.0","0","0","SfzKV","Scenes","","null","","","null","","","","","","","","","","","","","","","","","","","","","","","","","","","","","","","","","","","","","","","","","","","",""
"","see_reward","","html-keyboard-response","205","1592333","0.0-125.0","0","0","SfzKV","Scenes","","680","","","32","","144","","6","","","","-1","","","","","1","","","","","0","680","","","","","","","","","","","","","","","","","","","","","","","","",""
"","reward_outcome","","html-keyboard-response","206","1594338","0.0-126.0","0","0","SfzKV","Scenes","","837","","","40","","144","","6","","","","","","","","","","","","","","","","-1","837","","","","","","","","","","","","","","","","","","","","","","",""
"","fixation","","html-keyboard-response","207","1595353","0.0-129.0","0","0","SfzKV","Scenes","","null","","","null","","","","","","","","","","","","","","","","","","","","","","","","","","","","","","","","","","","","","","","","","","","",""
"","see_reward","","html-keyboard-response","208","1595989","0.0-130.0","0","0","SfzKV","Scenes","","635","","","32","","123","","7","","","","1","","","","","1","","","","","141","635","","","","","","","","","","","","","","","","","","","","","","","","",""
"","reward_outcome","","html-keyboard-response","209","1597997","0.0-131.0","0","0","SfzKV","Scenes","","590","","","38","","123","","7","","","","","","","","","","","","","","","","1","590","","","","","","","","","","","","","","","","","","","","","","",""
"","fixation","","html-keyboard-response","210","1599011","0.0-134.0","0","0","SfzKV","Scenes","","null","","","null","","","","","","","","","","","","","","","","","","","","","","","","","","","","","","","","","","","","","","","","","","","",""
"","see_reward","","html-keyboard-response","211","1599709","0.0-135.0","0","0","SfzKV","Scenes","","696","","","32","","133","","8","","","","1","","","","","1","","","","","147","696","","","","","","","","","","","","","","","","","","","","","","","","",""
"","reward_outcome","","html-keyboard-response","212","1601722","0.0-136.0","0","0","SfzKV","Scenes","","598","","","38","","133","","8","","","","","","","","","","","","","","","","1","598","","","","","","","","","","","","","","","","","","","","","","",""
"","fixation","","html-keyboard-response","213","1602733","0.0-139.0","0","0","SfzKV","Scenes","","null","","","null","","","","","","","","","","","","","","","","","","","","","","","","","","","","","","","","","","","","","","","","","","","",""
"","see_reward","","html-keyboard-response","214","1603429","0.0-140.0","0","0","SfzKV","Scenes","","694","","","32","","105","","9","","","","1","","","","","1","","","","","150","694","","","","","","","","","","","","","","","","","","","","","","","","",""
"","reward_outcome","","html-keyboard-response","215","1605436","0.0-141.0","0","0","SfzKV","Scenes","","614","","","38","","105","","9","","","","","","","","","","","","","","","","1","614","","","","","","","","","","","","","","","","","","","","","","",""
"","fixation","","html-keyboard-response","216","1606451","0.0-144.0","0","0","SfzKV","Scenes","","null","","","null","","","","","","","","","","","","","","","","","","","","","","","","","","","","","","","","","","","","","","","","","","","",""
"","see_reward","","html-keyboard-response","217","1607213","0.0-145.0","0","0","SfzKV","Scenes","","760","","","32","","133","","10","","","","1","","","","","1","","","","","147","760","","","","","","","","","","","","","","","","","","","","","","","","",""
"","reward_outcome","","html-keyboard-response","218","1609221","0.0-146.0","0","0","SfzKV","Scenes","","423","","","38","","133","","10","","","","","","","","","","","","","","","","1","423","","","","","","","","","","","","","","","","","","","","","","",""
"","fixation","","html-keyboard-response","219","1610231","0.0-149.0","0","0","SfzKV","Scenes","","null","","","null","","","","","","","","","","","","","","","","","","","","","","","","","","","","","","","","","","","","","","","","","","","",""
"","see_reward","","html-keyboard-response","220","1610952","0.0-150.0","0","0","SfzKV","Scenes","","719","","","32","","103","","11","","","","-1","","","","","1","","","","","0","719","","","","","","","","","","","","","","","","","","","","","","","","",""
"","reward_outcome","","html-keyboard-response","221","1612965","0.0-151.0","0","0","SfzKV","Scenes","","533","","","40","","103","","11","","","","","","","","","","","","","","","","-1","533","","","","","","","","","","","","","","","","","","","","","","",""
"","fixation","","html-keyboard-response","222","1613981","0.0-154.0","0","0","SfzKV","Scenes","","null","","","null","","","","","","","","","","","","","","","","","","","","","","","","","","","","","","","","","","","","","","","","","","","",""
"","see_reward","","html-keyboard-response","223","1614639","0.0-155.0","0","0","SfzKV","Scenes","","656","","","32","","130","","12","","","","-1","","","","","1","","","","","0","656","","","","","","","","","","","","","","","","","","","","","","","","",""
"","reward_outcome","","html-keyboard-response","224","1616646","0.0-156.0","0","0","SfzKV","Scenes","","805","","","40","","130","","12","","","","","","","","","","","","","","","","-1","805","","","","","","","","","","","","","","","","","","","","","","",""
"","fixation","","html-keyboard-response","225","1617653","0.0-159.0","0","0","SfzKV","Scenes","","null","","","null","","","","","","","","","","","","","","","","","","","","","","","","","","","","","","","","","","","","","","","","","","","",""
"","see_reward","","html-keyboard-response","226","1618376","0.0-160.0","0","0","SfzKV","Scenes","","721","","","32","","102","","13","","","","1","","","","","1","","","","","157","721","","","","","","","","","","","","","","","","","","","","","","","","",""
"","reward_outcome","","html-keyboard-response","227","1620384","0.0-161.0","0","0","SfzKV","Scenes","","541","","","38","","102","","13","","","","","","","","","","","","","","","","1","541","","","","","","","","","","","","","","","","","","","","","","",""
"","fixation","","html-keyboard-response","228","1621391","0.0-164.0","0","0","SfzKV","Scenes","","null","","","null","","","","","","","","","","","","","","","","","","","","","","","","","","","","","","","","","","","","","","","","","","","",""
"","see_reward","","html-keyboard-response","229","1622167","0.0-165.0","0","0","SfzKV","Scenes","","774","","","32","","135","","14","","","","1","","","","","1","","","","","144","774","","","","","","","","","","","","","","","","","","","","","","","","",""
"","reward_outcome","","html-keyboard-response","230","1624182","0.0-166.0","0","0","SfzKV","Scenes","","502","","","38","","135","","14","","","","","","","","","","","","","","","","1","502","","","","","","","","","","","","","","","","","","","","","","",""
"","fixation","","html-keyboard-response","231","1625196","0.0-169.0","0","0","SfzKV","Scenes","","null","","","null","","","","","","","","","","","","","","","","","","","","","","","","","","","","","","","","","","","","","","","","","","","",""
"","see_reward","","html-keyboard-response","232","1625839","0.0-170.0","0","0","SfzKV","Scenes","","641","","","32","","141","","15","","","","-1","","","","","1","","","","","0","641","","","","","","","","","","","","","","","","","","","","","","","","",""
"","reward_outcome","","html-keyboard-response","233","1627854","0.0-171.0","0","0","SfzKV","Scenes","","574","","","40","","141","","15","","","","","","","","","","","","","","","","-1","574","","","","","","","","","","","","","","","","","","","","","","",""
"","fixation","","html-keyboard-response","234","1628863","0.0-174.0","0","0","SfzKV","Scenes","","null","","","null","","","","","","","","","","","","","","","","","","","","","","","","","","","","","","","","","","","","","","","","","","","",""
"","see_reward","","html-keyboard-response","235","1629463","0.0-175.0","0","0","SfzKV","Scenes","","598","","","32","","128","","16","","","","-1","","","","","1","","","","","0","598","","","","","","","","","","","","","","","","","","","","","","","","",""
"","reward_outcome","","html-keyboard-response","236","1631473","0.0-176.0","0","0","SfzKV","Scenes","","447","","","40","","128","","16","","","","","","","","","","","","","","","","-1","447","","","","","","","","","","","","","","","","","","","","","","",""
"","fixation","","html-keyboard-response","237","1632477","0.0-179.0","0","0","SfzKV","Scenes","","null","","","null","","","","","","","","","","","","","","","","","","","","","","","","","","","","","","","","","","","","","","","","","","","",""
"","see_reward","","html-keyboard-response","238","1632999","0.0-180.0","0","0","SfzKV","Scenes","","520","","","32","","141","","17","","","","-1","","","","","1","","","","","0","520","","","","","","","","","","","","","","","","","","","","","","","","",""
"","reward_outcome","","html-keyboard-response","239","1635013","0.0-181.0","0","0","SfzKV","Scenes","","558","","","40","","141","","17","","","","","","","","","","","","","","","","-1","558","","","","","","","","","","","","","","","","","","","","","","",""
"","fixation","","html-keyboard-response","240","1636025","0.0-184.0","0","0","SfzKV","Scenes","","null","","","null","","","","","","","","","","","","","","","","","","","","","","","","","","","","","","","","","","","","","","","","","","","",""
"","see_reward","","html-keyboard-response","241","1636927","0.0-185.0","0","0","SfzKV","Scenes","","900","","","32","","121","","18","","","","-1","","","","","1","","","","","0","900","","","","","","","","","","","","","","","","","","","","","","","","",""
"","reward_outcome","","html-keyboard-response","242","1638937","0.0-186.0","0","0","SfzKV","Scenes","","517","","","40","","121","","18","","","","","","","","","","","","","","","","-1","517","","","","","","","","","","","","","","","","","","","","","","",""
"","fixation","","html-keyboard-response","243","1639943","0.0-189.0","0","0","SfzKV","Scenes","","null","","","null","","","","","","","","","","","","","","","","","","","","","","","","","","","","","","","","","","","","","","","","","","","",""
"","see_reward","","html-keyboard-response","244","1640527","0.0-190.0","0","0","SfzKV","Scenes","","582","","","32","","144","","19","","","","-1","","","","","1","","","","","0","582","","","","","","","","","","","","","","","","","","","","","","","","",""
"","reward_outcome","","html-keyboard-response","245","1642542","0.0-191.0","0","0","SfzKV","Scenes","","549","","","40","","144","","19","","","","","","","","","","","","","","","","-1","549","","","","","","","","","","","","","","","","","","","","","","",""
"","fixation","","html-keyboard-response","246","1643553","0.0-194.0","0","0","SfzKV","Scenes","","null","","","null","","","","","","","","","","","","","","","","","","","","","","","","","","","","","","","","","","","","","","","","","","","",""
"","see_reward","","html-keyboard-response","247","1644286","0.0-195.0","0","0","SfzKV","Scenes","","731","","","32","","105","","20","","","","1","","","","","1","","","","","150","731","","","","","","","","","","","","","","","","","","","","","","","","",""
"","reward_outcome","","html-keyboard-response","248","1646296","0.0-196.0","0","0","SfzKV","Scenes","","413","","","38","","105","","20","","","","","","","","","","","","","","","","1","413","","","","","","","","","","","","","","","","","","","","","","",""
"","fixation","","html-keyboard-response","249","1647303","0.0-199.0","0","0","SfzKV","Scenes","","null","","","null","","","","","","","","","","","","","","","","","","","","","","","","","","","","","","","","","","","","","","","","","","","",""
"","see_reward","","html-keyboard-response","250","1647878","0.0-200.0","0","0","SfzKV","Scenes","","573","","","32","","123","","21","","","","1","","","","","1","","","","","141","573","","","","","","","","","","","","","","","","","","","","","","","","",""
"","reward_outcome","","html-keyboard-response","251","1649891","0.0-201.0","0","0","SfzKV","Scenes","","326","","","38","","123","","21","","","","","","","","","","","","","","","","1","326","","","","","","","","","","","","","","","","","","","","","","",""
"","fixation","","html-keyboard-response","252","1650903","0.0-204.0","0","0","SfzKV","Scenes","","null","","","null","","","","","","","","","","","","","","","","","","","","","","","","","","","","","","","","","","","","","","","","","","","",""
"","see_reward","","html-keyboard-response","253","1651479","0.0-205.0","0","0","SfzKV","Scenes","","572","","","32","","102","","22","","","","1","","","","","1","","","","","157","572","","","","","","","","","","","","","","","","","","","","","","","","",""
"","reward_outcome","","html-keyboard-response","254","1653489","0.0-206.0","0","0","SfzKV","Scenes","","493","","","38","","102","","22","","","","","","","","","","","","","","","","1","493","","","","","","","","","","","","","","","","","","","","","","",""
"","fixation","","html-keyboard-response","255","1654493","0.0-209.0","0","0","SfzKV","Scenes","","null","","","null","","","","","","","","","","","","","","","","","","","","","","","","","","","","","","","","","","","","","","","","","","","",""
"","see_reward","","html-keyboard-response","256","1655094","0.0-210.0","0","0","SfzKV","Scenes","","599","","","32","","103","","23","","","","-1","","","","","1","","","","","0","599","","","","","","","","","","","","","","","","","","","","","","","","",""
"","reward_outcome","","html-keyboard-response","257","1657106","0.0-211.0","0","0","SfzKV","Scenes","","374","","","40","","103","","23","","","","","","","","","","","","","","","","-1","374","","","","","","","","","","","","","","","","","","","","","","",""
"","block_over","","html-keyboard-response","258","1659702","0.0-213.0-0.0","0","0","SfzKV","Scenes","","2594","","","78","","","","","","","","","","","","","","","","","","","","","","","","","","","","","","","","","","","","","","","","","","","",""
"","fixation","","html-keyboard-response","259","1660715","0.0-214.0","0","0","SfzKV","Scenes","","null","","","null","","","","","","","","","","","","","","","","","","","","","","","","","","","","","","","","","","","","","","","","","","","",""
"","see_reward","","html-keyboard-response","260","1661238","0.0-215.0","0","0","SfzKV","Scenes","","521","","","32","","141","","24","","","","-1","","","","","2","","","","","0","521","","","","","","","","","","","","","","","","","","","","","","","","",""
"","reward_outcome","","html-keyboard-response","261","1663251","0.0-216.0","0","0","SfzKV","Scenes","","726","","","40","","141","","24","","","","","","","","","","","","","","","","-1","726","","","","","","","","","","","","","","","","","","","","","","",""
"","fixation","","html-keyboard-response","262","1664269","0.0-219.0","0","0","SfzKV","Scenes","","null","","","null","","","","","","","","","","","","","","","","","","","","","","","","","","","","","","","","","","","","","","","","","","","",""
"","see_reward","","html-keyboard-response","263","1664934","0.0-220.0","0","0","SfzKV","Scenes","","663","","","32","","133","","25","","","","1","","","","","2","","","","","147","663","","","","","","","","","","","","","","","","","","","","","","","","",""
"","reward_outcome","","html-keyboard-response","264","1666943","0.0-221.0","0","0","SfzKV","Scenes","","454","","","38","","133","","25","","","","","","","","","","","","","","","","1","454","","","","","","","","","","","","","","","","","","","","","","",""
"","fixation","","html-keyboard-response","265","1667953","0.0-224.0","0","0","SfzKV","Scenes","","null","","","null","","","","","","","","","","","","","","","","","","","","","","","","","","","","","","","","","","","","","","","","","","","",""
"","see_reward","","html-keyboard-response","266","1668438","0.0-225.0","0","0","SfzKV","Scenes","","482","","","32","","121","","26","","","","-1","","","","","2","","","","","0","482","","","","","","","","","","","","","","","","","","","","","","","","",""
"","reward_outcome","","html-keyboard-response","267","1670453","0.0-226.0","0","0","SfzKV","Scenes","","597","","","40","","121","","26","","","","","","","","","","","","","","","","-1","597","","","","","","","","","","","","","","","","","","","","","","",""
"","fixation","","html-keyboard-response","268","1671468","0.0-229.0","0","0","SfzKV","Scenes","","null","","","null","","","","","","","","","","","","","","","","","","","","","","","","","","","","","","","","","","","","","","","","","","","",""
"","see_reward","","html-keyboard-response","269","1671935","0.0-230.0","0","0","SfzKV","Scenes","","465","","","32","","128","","27","","","","-1","","","","","2","","","","","0","465","","","","","","","","","","","","","","","","","","","","","","","","",""
"","reward_outcome","","html-keyboard-response","270","1673942","0.0-231.0","0","0","SfzKV","Scenes","","534","","","40","","128","","27","","","","","","","","","","","","","","","","-1","534","","","","","","","","","","","","","","","","","","","","","","",""
"","fixation","","html-keyboard-response","271","1674954","0.0-234.0","0","0","SfzKV","Scenes","","null","","","null","","","","","","","","","","","","","","","","","","","","","","","","","","","","","","","","","","","","","","","","","","","",""
"","see_reward","","html-keyboard-response","272","1675535","0.0-235.0","0","0","SfzKV","Scenes","","579","","","32","","130","","28","","","","-1","","","","","2","","","","","0","579","","","","","","","","","","","","","","","","","","","","","","","","",""
"","reward_outcome","","html-keyboard-response","273","1677551","0.0-236.0","0","0","SfzKV","Scenes","","654","","","40","","130","","28","","","","","","","","","","","","","","","","-1","654","","","","","","","","","","","","","","","","","","","","","","",""
"","fixation","","html-keyboard-response","274","1678564","0.0-239.0","0","0","SfzKV","Scenes","","null","","","null","","","","","","","","","","","","","","","","","","","","","","","","","","","","","","","","","","","","","","","","","","","",""
"","see_reward","","html-keyboard-response","275","1679175","0.0-240.0","0","0","SfzKV","Scenes","","609","","","32","","135","","29","","","","1","","","","","2","","","","","144","609","","","","","","","","","","","","","","","","","","","","","","","","",""
"","reward_outcome","","html-keyboard-response","276","1681188","0.0-241.0","0","0","SfzKV","Scenes","","518","","","38","","135","","29","","","","","","","","","","","","","","","","1","518","","","","","","","","","","","","","","","","","","","","","","",""
"","fixation","","html-keyboard-response","277","1682194","0.0-244.0","0","0","SfzKV","Scenes","","null","","","null","","","","","","","","","","","","","","","","","","","","","","","","","","","","","","","","","","","","","","","","","","","",""
"","see_reward","","html-keyboard-response","278","1682823","0.0-245.0","0","0","SfzKV","Scenes","","627","","","32","","105","","30","","","","1","","","","","2","","","","","150","627","","","","","","","","","","","","","","","","","","","","","","","","",""
"","reward_outcome","","html-keyboard-response","279","1684831","0.0-246.0","0","0","SfzKV","Scenes","","406","","","38","","105","","30","","","","","","","","","","","","","","","","1","406","","","","","","","","","","","","","","","","","","","","","","",""
"","fixation","","html-keyboard-response","280","1685848","0.0-249.0","0","0","SfzKV","Scenes","","null","","","null","","","","","","","","","","","","","","","","","","","","","","","","","","","","","","","","","","","","","","","","","","","",""
"","see_reward","","html-keyboard-response","281","1686487","0.0-250.0","0","0","SfzKV","Scenes","","636","","","32","","133","","31","","","","1","","","","","2","","","","","147","636","","","","","","","","","","","","","","","","","","","","","","","","",""
"","reward_outcome","","html-keyboard-response","282","1688498","0.0-251.0","0","0","SfzKV","Scenes","","405","","","38","","133","","31","","","","","","","","","","","","","","","","1","405","","","","","","","","","","","","","","","","","","","","","","",""
"","fixation","","html-keyboard-response","283","1689511","0.0-254.0","0","0","SfzKV","Scenes","","null","","","null","","","","","","","","","","","","","","","","","","","","","","","","","","","","","","","","","","","","","","","","","","","",""
"","see_reward","","html-keyboard-response","284","1690102","0.0-255.0","0","0","SfzKV","Scenes","","589","","","32","","130","","32","","","","-1","","","","","2","","","","","0","589","","","","","","","","","","","","","","","","","","","","","","","","",""
"","reward_outcome","","html-keyboard-response","285","1692116","0.0-256.0","0","0","SfzKV","Scenes","","557","","","40","","130","","32","","","","","","","","","","","","","","","","-1","557","","","","","","","","","","","","","","","","","","","","","","",""
"","fixation","","html-keyboard-response","286","1693121","0.0-259.0","0","0","SfzKV","Scenes","","null","","","null","","","","","","","","","","","","","","","","","","","","","","","","","","","","","","","","","","","","","","","","","","","",""
"","see_reward","","html-keyboard-response","287","1693463","0.0-260.0","0","0","SfzKV","Scenes","","340","","","32","","103","","33","","","","-1","","","","","2","","","","","0","340","","","","","","","","","","","","","","","","","","","","","","","","",""
"","reward_outcome","","html-keyboard-response","288","1695477","0.0-261.0","0","0","SfzKV","Scenes","","533","","","40","","103","","33","","","","","","","","","","","","","","","","-1","533","","","","","","","","","","","","","","","","","","","","","","",""
"","fixation","","html-keyboard-response","289","1696488","0.0-264.0","0","0","SfzKV","Scenes","","null","","","null","","","","","","","","","","","","","","","","","","","","","","","","","","","","","","","","","","","","","","","","","","","",""
"","see_reward","","html-keyboard-response","290","1697006","0.0-265.0","0","0","SfzKV","Scenes","","516","","","32","","144","","34","","","","-1","","","","","2","","","","","0","516","","","","","","","","","","","","","","","","","","","","","","","","",""
"","reward_outcome","","html-keyboard-response","291","1699021","0.0-266.0","0","0","SfzKV","Scenes","","527","","","40","","144","","34","","","","","","","","","","","","","","","","-1","527","","","","","","","","","","","","","","","","","","","","","","",""
"","fixation","","html-keyboard-response","292","1700038","0.0-269.0","0","0","SfzKV","Scenes","","null","","","null","","","","","","","","","","","","","","","","","","","","","","","","","","","","","","","","","","","","","","","","","","","",""
"","see_reward","","html-keyboard-response","293","1700566","0.0-270.0","0","0","SfzKV","Scenes","","526","","","32","","103","","35","","","","-1","","","","","2","","","","","0","526","","","","","","","","","","","","","","","","","","","","","","","","",""
"","reward_outcome","","html-keyboard-response","294","1702576","0.0-271.0","0","0","SfzKV","Scenes","","390","","","40","","103","","35","","","","","","","","","","","","","","","","-1","390","","","","","","","","","","","","","","","","","","","","","","",""
"","fixation","","html-keyboard-response","295","1703588","0.0-274.0","0","0","SfzKV","Scenes","","null","","","null","","","","","","","","","","","","","","","","","","","","","","","","","","","","","","","","","","","","","","","","","","","",""
"","see_reward","","html-keyboard-response","296","1704015","0.0-275.0","0","0","SfzKV","Scenes","","424","","","32","","105","","36","","","","1","","","","","2","","","","","150","424","","","","","","","","","","","","","","","","","","","","","","","","",""
"","reward_outcome","","html-keyboard-response","297","1706030","0.0-276.0","0","0","SfzKV","Scenes","","461","","","38","","105","","36","","","","","","","","","","","","","","","","1","461","","","","","","","","","","","","","","","","","","","","","","",""
"","fixation","","html-keyboard-response","298","1707041","0.0-279.0","0","0","SfzKV","Scenes","","null","","","null","","","","","","","","","","","","","","","","","","","","","","","","","","","","","","","","","","","","","","","","","","","",""
"","see_reward","","html-keyboard-response","299","1707550","0.0-280.0","0","0","SfzKV","Scenes","","507","","","32","","123","","37","","","","1","","","","","2","","","","","141","507","","","","","","","","","","","","","","","","","","","","","","","","",""
"","reward_outcome","","html-keyboard-response","300","1709564","0.0-281.0","0","0","SfzKV","Scenes","","558","","","38","","123","","37","","","","","","","","","","","","","","","","1","558","","","","","","","","","","","","","","","","","","","","","","",""
"","fixation","","html-keyboard-response","301","1710581","0.0-284.0","0","0","SfzKV","Scenes","","null","","","null","","","","","","","","","","","","","","","","","","","","","","","","","","","","","","","","","","","","","","","","","","","",""
"","see_reward","","html-keyboard-response","302","1711142","0.0-285.0","0","0","SfzKV","Scenes","","559","","","32","","135","","38","","","","1","","","","","2","","","","","144","559","","","","","","","","","","","","","","","","","","","","","","","","",""
"","reward_outcome","","html-keyboard-response","303","1713157","0.0-286.0","0","0","SfzKV","Scenes","","605","","","38","","135","","38","","","","","","","","","","","","","","","","1","605","","","","","","","","","","","","","","","","","","","","","","",""
"","fixation","","html-keyboard-response","304","1714175","0.0-289.0","0","0","SfzKV","Scenes","","null","","","null","","","","","","","","","","","","","","","","","","","","","","","","","","","","","","","","","","","","","","","","","","","",""
"","see_reward","","html-keyboard-response","305","1714822","0.0-290.0","0","0","SfzKV","Scenes","","645","","","32","","144","","39","","","","-1","","","","","2","","","","","0","645","","","","","","","","","","","","","","","","","","","","","","","","",""
"","reward_outcome","","html-keyboard-response","306","1716830","0.0-291.0","0","0","SfzKV","Scenes","","478","","","40","","144","","39","","","","","","","","","","","","","","","","-1","478","","","","","","","","","","","","","","","","","","","","","","",""
"","fixation","","html-keyboard-response","307","1717847","0.0-294.0","0","0","SfzKV","Scenes","","null","","","null","","","","","","","","","","","","","","","","","","","","","","","","","","","","","","","","","","","","","","","","","","","",""
"","see_reward","","html-keyboard-response","308","1718517","0.0-295.0","0","0","SfzKV","Scenes","","668","","","32","","141","","40","","","","-1","","","","","2","","","","","0","668","","","","","","","","","","","","","","","","","","","","","","","","",""
"","reward_outcome","","html-keyboard-response","309","1720535","0.0-296.0","0","0","SfzKV","Scenes","","790","","","40","","141","","40","","","","","","","","","","","","","","","","-1","790","","","","","","","","","","","","","","","","","","","","","","",""
"","fixation","","html-keyboard-response","310","1721550","0.0-299.0","0","0","SfzKV","Scenes","","null","","","null","","","","","","","","","","","","","","","","","","","","","","","","","","","","","","","","","","","","","","","","","","","",""
"","see_reward","","html-keyboard-response","311","1722429","0.0-300.0","0","0","SfzKV","Scenes","","877","","","32","","121","","41","","","","-1","","","","","2","","","","","0","877","","","","","","","","","","","","","","","","","","","","","","","","",""
"","reward_outcome","","html-keyboard-response","312","1724445","0.0-301.0","0","0","SfzKV","Scenes","","503","","","40","","121","","41","","","","","","","","","","","","","","","","-1","503","","","","","","","","","","","","","","","","","","","","","","",""
"","fixation","","html-keyboard-response","313","1725455","0.0-304.0","0","0","SfzKV","Scenes","","null","","","null","","","","","","","","","","","","","","","","","","","","","","","","","","","","","","","","","","","","","","","","","","","",""
"","see_reward","","html-keyboard-response","314","1726149","0.0-305.0","0","0","SfzKV","Scenes","","692","","","32","","128","","42","","","","-1","","","","","2","","","","","0","692","","","","","","","","","","","","","","","","","","","","","","","","",""
"","reward_outcome","","html-keyboard-response","315","1728164","0.0-306.0","0","0","SfzKV","Scenes","","614","","","40","","128","","42","","","","","","","","","","","","","","","","-1","614","","","","","","","","","","","","","","","","","","","","","","",""
"","fixation","","html-keyboard-response","316","1729171","0.0-309.0","0","0","SfzKV","Scenes","","null","","","null","","","","","","","","","","","","","","","","","","","","","","","","","","","","","","","","","","","","","","","","","","","",""
"","see_reward","","html-keyboard-response","317","1729781","0.0-310.0","0","0","SfzKV","Scenes","","608","","","32","","102","","43","","","","1","","","","","2","","","","","157","608","","","","","","","","","","","","","","","","","","","","","","","","",""
"","reward_outcome","","html-keyboard-response","318","1731801","0.0-311.0","0","0","SfzKV","Scenes","","462","","","38","","102","","43","","","","","","","","","","","","","","","","1","462","","","","","","","","","","","","","","","","","","","","","","",""
"","fixation","","html-keyboard-response","319","1732815","0.0-314.0","0","0","SfzKV","Scenes","","null","","","null","","","","","","","","","","","","","","","","","","","","","","","","","","","","","","","","","","","","","","","","","","","",""
"","see_reward","","html-keyboard-response","320","1733447","0.0-315.0","0","0","SfzKV","Scenes","","631","","","32","","109","","44","","","","1","","","","","2","","","","","150","631","","","","","","","","","","","","","","","","","","","","","","","","",""
"","reward_outcome","","html-keyboard-response","321","1735463","0.0-316.0","0","0","SfzKV","Scenes","","542","","","38","","109","","44","","","","","","","","","","","","","","","","1","542","","","","","","","","","","","","","","","","","","","","","","",""
"","fixation","","html-keyboard-response","322","1736473","0.0-319.0","0","0","SfzKV","Scenes","","null","","","null","","","","","","","","","","","","","","","","","","","","","","","","","","","","","","","","","","","","","","","","","","","",""
"","see_reward","","html-keyboard-response","323","1737071","0.0-320.0","0","0","SfzKV","Scenes","","596","","","32","","123","","45","","","","1","","","","","2","","","","","141","596","","","","","","","","","","","","","","","","","","","","","","","","",""
"","reward_outcome","","html-keyboard-response","324","1739085","0.0-321.0","0","0","SfzKV","Scenes","","542","","","38","","123","","45","","","","","","","","","","","","","","","","1","542","","","","","","","","","","","","","","","","","","","","","","",""
"","fixation","","html-keyboard-response","325","1740089","0.0-324.0","0","0","SfzKV","Scenes","","null","","","null","","","","","","","","","","","","","","","","","","","","","","","","","","","","","","","","","","","","","","","","","","","",""
"","see_reward","","html-keyboard-response","326","1740518","0.0-325.0","0","0","SfzKV","Scenes","","428","","","32","","102","","46","","","","1","","","","","2","","","","","157","428","","","","","","","","","","","","","","","","","","","","","","","","",""
"","reward_outcome","","html-keyboard-response","327","1742536","0.0-326.0","0","0","SfzKV","Scenes","","502","","","38","","102","","46","","","","","","","","","","","","","","","","1","502","","","","","","","","","","","","","","","","","","","","","","",""
"","fixation","","html-keyboard-response","328","1743549","0.0-329.0","0","0","SfzKV","Scenes","","null","","","null","","","","","","","","","","","","","","","","","","","","","","","","","","","","","","","","","","","","","","","","","","","",""
"","see_reward","","html-keyboard-response","329","1744070","0.0-330.0","0","0","SfzKV","Scenes","","518","","","32","","109","","47","","","","1","","","","","2","","","","","150","518","","","","","","","","","","","","","","","","","","","","","","","","",""
"","reward_outcome","","html-keyboard-response","330","1746082","0.0-331.0","0","0","SfzKV","Scenes","","462","","","38","","109","","47","","","","","","","","","","","","","","","","1","462","","","","","","","","","","","","","","","","","","","","","","",""
"","block_over","","html-keyboard-response","331","1748695","0.0-333.0-0.0","0","0","SfzKV","Scenes","","2611","","","78","","","","","","","","","","","","","","","","","","","","","","","","","","","","","","","","","","","","","","","","","","","",""
"","fixation","","html-keyboard-response","332","1749706","0.0-334.0","0","0","SfzKV","Scenes","","null","","","null","","","","","","","","","","","","","","","","","","","","","","","","","","","","","","","","","","","","","","","","","","","",""
"","see_reward","","html-keyboard-response","333","1750686","0.0-335.0","0","0","SfzKV","Scenes","","978","","","32","","103","","48","","","","-1","","","","","3","","","","","0","978","","","","","","","","","","","","","","","","","","","","","","","","",""
"","reward_outcome","","html-keyboard-response","334","1752694","0.0-336.0","0","0","SfzKV","Scenes","","398","","","40","","103","","48","","","","","","","","","","","","","","","","-1","398","","","","","","","","","","","","","","","","","","","","","","",""
"","fixation","","html-keyboard-response","335","1753696","0.0-339.0","0","0","SfzKV","Scenes","","null","","","null","","","","","","","","","","","","","","","","","","","","","","","","","","","","","","","","","","","","","","","","","","","",""
"","see_reward","","html-keyboard-response","336","1754310","0.0-340.0","0","0","SfzKV","Scenes","","612","","","32","","105","","49","","","","1","","","","","3","","","","","150","612","","","","","","","","","","","","","","","","","","","","","","","","",""
"","reward_outcome","","html-keyboard-response","337","1756313","0.0-341.0","0","0","SfzKV","Scenes","","375","","","38","","105","","49","","","","","","","","","","","","","","","","1","375","","","","","","","","","","","","","","","","","","","","","","",""
"","fixation","","html-keyboard-response","338","1757324","0.0-344.0","0","0","SfzKV","Scenes","","null","","","null","","","","","","","","","","","","","","","","","","","","","","","","","","","","","","","","","","","","","","","","","","","",""
"","see_reward","","html-keyboard-response","339","1757894","0.0-345.0","0","0","SfzKV","Scenes","","568","","","32","","133","","50","","","","1","","","","","3","","","","","147","568","","","","","","","","","","","","","","","","","","","","","","","","",""
"","reward_outcome","","html-keyboard-response","340","1759903","0.0-346.0","0","0","SfzKV","Scenes","","343","","","38","","133","","50","","","","","","","","","","","","","","","","1","343","","","","","","","","","","","","","","","","","","","","","","",""
"","fixation","","html-keyboard-response","341","1760919","0.0-349.0","0","0","SfzKV","Scenes","","null","","","null","","","","","","","","","","","","","","","","","","","","","","","","","","","","","","","","","","","","","","","","","","","",""
"","see_reward","","html-keyboard-response","342","1761390","0.0-350.0","0","0","SfzKV","Scenes","","469","","","32","","102","","51","","","","1","","","","","3","","","","","157","469","","","","","","","","","","","","","","","","","","","","","","","","",""
"","reward_outcome","","html-keyboard-response","343","1763409","0.0-351.0","0","0","SfzKV","Scenes","","406","","","38","","102","","51","","","","","","","","","","","","","","","","1","406","","","","","","","","","","","","","","","","","","","","","","",""
"","fixation","","html-keyboard-response","344","1764422","0.0-354.0","0","0","SfzKV","Scenes","","null","","","null","","","","","","","","","","","","","","","","","","","","","","","","","","","","","","","","","","","","","","","","","","","",""
"","see_reward","","html-keyboard-response","345","1765006","0.0-355.0","0","0","SfzKV","Scenes","","582","","","32","","141","","52","","","","-1","","","","","3","","","","","0","582","","","","","","","","","","","","","","","","","","","","","","","","",""
"","reward_outcome","","html-keyboard-response","346","1767009","0.0-356.0","0","0","SfzKV","Scenes","","549","","","40","","141","","52","","","","","","","","","","","","","","","","-1","549","","","","","","","","","","","","","","","","","","","","","","",""
"","fixation","","html-keyboard-response","347","1768023","0.0-359.0","0","0","SfzKV","Scenes","","null","","","null","","","","","","","","","","","","","","","","","","","","","","","","","","","","","","","","","","","","","","","","","","","",""
"","see_reward","","html-keyboard-response","348","1768430","0.0-360.0","0","0","SfzKV","Scenes","","405","","","32","","135","","53","","","","1","","","","","3","","","","","144","405","","","","","","","","","","","","","","","","","","","","","","","","",""
"","reward_outcome","","html-keyboard-response","349","1770435","0.0-361.0","0","0","SfzKV","Scenes","","493","","","38","","135","","53","","","","","","","","","","","","","","","","1","493","","","","","","","","","","","","","","","","","","","","","","",""
"","fixation","","html-keyboard-response","350","1771449","0.0-364.0","0","0","SfzKV","Scenes","","null","","","null","","","","","","","","","","","","","","","","","","","","","","","","","","","","","","","","","","","","","","","","","","","",""
