"success","ttype","start_time","trial_type","trial_index","time_elapsed","internal_node_id","warning","missed_checkup","PID","stim_type","view_history","rt","responses","repeat_instructions","key_press","response","stimulus_id","painting","index","stimulus_left","stimulus_right","explain_trial","reward_type","rating_left","rating_right","painting_left","painting_right","block","left_chosen","chosen_obj","unchosen_obj","explain_response","reward_amount","see_reward_rt","register_reward_response","register_reward_rt","deliberation_reward_tally","stimulus_left_deliberation_ind","stimulus_right_deliberation_ind","chosen_trial","gain_left","higher_outcome_chosen","old_pair","chosen_object","rt_pairs","left_object_chosen","rt_object","old_response","new_rating","deliberated_stim","initial_rating","outcome_eval_rt","outcome_eval_response","outcome_eval_gain","outcome_eval_acc","preamble","outcome_eval_confidence","outcome_eval_confidence_rt","total_reward_tally"
"true","full_screen","d01192023hr2035","fullscreen","0","15752","0.0-0.0","0","0","WHNCb","Scenes","","","","","","","","","","","","","","","","","","","","","","","","","","","","","","","","","","","","","","","","","","","","","","","","",""
"","rating_instructions","","instructions","1","27579","0.0-1.0-0.0","0","0","WHNCb","Scenes","[{""page_index"":0,""viewing_time"":8369},{""page_index"":1,""viewing_time"":3454}]","11825","","","","","","","","","","","","","","","","","","","","","","","","","","","","","","","","","","","","","","","","","","","","","","",""
"","rating_comprehension_check","","survey-multi-choice","2","35828","0.0-1.0-1.0","0","0","WHNCb","Scenes","","8242","{""Q0"":""True"",""Q1"":""Mouse""}","0","","","","","","","","","","","","","","","","","","","","","","","","","","","","","","","","","","","","","","","","","","","","",""
"","start_phase","","html-keyboard-response","3","41709","0.0-2.0","0","0","WHNCb","Scenes","","5876","","","78","","","","","","","","","","","","","","","","","","","","","","","","","","","","","","","","","","","","","","","","","","","",""
"","rating","","html-slider-response","4","45980","0.0-3.0","0","0","WHNCb","Scenes","","4266","","","","77","135","mohammad-alizade-4wzRuAb-KWs-unsplash.jpg","0","","","","","","","","","","","","","","","","","","","","","","","","","","","","","","","","","","","","","","","",""
"","rating","","html-slider-response","5","49531","0.0-4.0","0","0","WHNCb","Scenes","","3547","","","","99","125","john-lee-oMneOBYhJxY-unsplash.jpg","1","","","","","","","","","","","","","","","","","","","","","","","","","","","","","","","","","","","","","","","",""
"","rating","","html-slider-response","6","53239","0.0-5.0","0","0","WHNCb","Scenes","","3704","","","","67","129","kurt-cotoaga-cqbLg3lZEpk-unsplash.jpg","2","","","","","","","","","","","","","","","","","","","","","","","","","","","","","","","","","","","","","","","",""
"","rating","","html-slider-response","7","55325","0.0-6.0","0","0","WHNCb","Scenes","","2082","","","","66","114","daniel-sessler-z_9VmsxR8hs-unsplash.jpg","3","","","","","","","","","","","","","","","","","","","","","","","","","","","","","","","","","","","","","","","",""
"","rating","","html-slider-response","8","58199","0.0-7.0","0","0","WHNCb","Scenes","","2870","","","","67","137","olga-stalska-QaWRyEdlffY-unsplash.jpg","4","","","","","","","","","","","","","","","","","","","","","","","","","","","","","","","","","","","","","","","",""
"","rating","","html-slider-response","9","60811","0.0-8.0","0","0","WHNCb","Scenes","","2608","","","","58","126","jordan-mcqueen-PJCZOWuOxbU-unsplash.jpg","5","","","","","","","","","","","","","","","","","","","","","","","","","","","","","","","","","","","","","","","",""
"","rating","","html-slider-response","10","63311","0.0-9.0","0","0","WHNCb","Scenes","","2497","","","","77","100","aleksandra-boguslawska-MS7KD9Ti7FQ-unsplash.jpg","6","","","","","","","","","","","","","","","","","","","","","","","","","","","","","","","","","","","","","","","",""
"","rating","","html-slider-response","11","66129","0.0-10.0","0","0","WHNCb","Scenes","","2814","","","","99","104","artem-sapegin-XGDBdSQ70O0-unsplash.jpg","7","","","","","","","","","","","","","","","","","","","","","","","","","","","","","","","","","","","","","","","",""
"","rating","","html-slider-response","12","68580","0.0-11.0","0","0","WHNCb","Scenes","","2447","","","","58","116","david-marcu-W5MhJ6cy1So-unsplash.jpg","8","","","","","","","","","","","","","","","","","","","","","","","","","","","","","","","","","","","","","","","",""
"","rating","","html-slider-response","13","71831","0.0-12.0","0","0","WHNCb","Scenes","","3247","","","","100","123","joel-jasmin-forestbird-efuwb5eBDrI-unsplash.jpg","9","","","","","","","","","","","","","","","","","","","","","","","","","","","","","","","","","","","","","","","",""
"","rating","","html-slider-response","14","74611","0.0-13.0","0","0","WHNCb","Scenes","","2775","","","","55","117","frank-mckenna-OD9EOzfSOh0-unsplash.jpg","10","","","","","","","","","","","","","","","","","","","","","","","","","","","","","","","","","","","","","","","",""
"","rating","","html-slider-response","15","77337","0.0-14.0","0","0","WHNCb","Scenes","","2721","","","","62","111","claudio-testa-U3F2o6vz3bs-unsplash.jpg","11","","","","","","","","","","","","","","","","","","","","","","","","","","","","","","","","","","","","","","","",""
"","rating","","html-slider-response","16","81038","0.0-15.0","0","0","WHNCb","Scenes","","3697","","","","78","101","aniket-deole-T-tOgjWZ0fQ-unsplash.jpg","12","","","","","","","","","","","","","","","","","","","","","","","","","","","","","","","","","","","","","","","",""
"","rating","","html-slider-response","17","83733","0.0-16.0","0","0","WHNCb","Scenes","","2691","","","","77","128","karsten-wurth-jS0zC2PJ17A-unsplash.jpg","13","","","","","","","","","","","","","","","","","","","","","","","","","","","","","","","","","","","","","","","",""
"","rating","","html-slider-response","18","88953","0.0-17.0","0","0","WHNCb","Scenes","","5216","","","","34","112","cosmic-timetraveler-pYyOZ8q7AII-unsplash.jpg","14","","","","","","","","","","","","","","","","","","","","","","","","","","","","","","","","","","","","","","","",""
"","rating","","html-slider-response","19","91510","0.0-18.0","0","0","WHNCb","Scenes","","2553","","","","84","139","samsommer-vddccTqwal8-unsplash.jpg","15","","","","","","","","","","","","","","","","","","","","","","","","","","","","","","","","","","","","","","","",""
"","rating","","html-slider-response","20","94614","0.0-19.0","0","0","WHNCb","Scenes","","3101","","","","67","103","anton-darius-FBJugtbHsWU-unsplash.jpg","16","","","","","","","","","","","","","","","","","","","","","","","","","","","","","","","","","","","","","","","",""
"","rating","","html-slider-response","21","97248","0.0-20.0","0","0","WHNCb","Scenes","","2630","","","","66","130","lina-loos-04-C1NZk1hE-unsplash.jpg","17","","","","","","","","","","","","","","","","","","","","","","","","","","","","","","","","","","","","","","","",""
"","rating","","html-slider-response","22","100150","0.0-21.0","0","0","WHNCb","Scenes","","2898","","","","93","131","luca-bravo-hFzIoD0F_i8-unsplash.jpg","18","","","","","","","","","","","","","","","","","","","","","","","","","","","","","","","","","","","","","","","",""
"","rating","","html-slider-response","23","103407","0.0-22.0","0","0","WHNCb","Scenes","","3254","","","","47","107","benjamin-davies-Zm2n2O7Fph4-unsplash.jpg","19","","","","","","","","","","","","","","","","","","","","","","","","","","","","","","","","","","","","","","","",""
"","rating","","html-slider-response","24","106097","0.0-23.0","0","0","WHNCb","Scenes","","2686","","","","46","118","henry-be-NLF6hTe4PAg-unsplash.jpg","20","","","","","","","","","","","","","","","","","","","","","","","","","","","","","","","","","","","","","","","",""
"","rating","","html-slider-response","25","109103","0.0-24.0","0","0","WHNCb","Scenes","","3003","","","","58","142","sergey-pesterev-y-b_FOmJXdg-unsplash.jpg","21","","","","","","","","","","","","","","","","","","","","","","","","","","","","","","","","","","","","","","","",""
"","rating","","html-slider-response","26","111808","0.0-25.0","0","0","WHNCb","Scenes","","2701","","","","64","134","milada-vigerova-pQMM63GE7fo-unsplash.jpg","22","","","","","","","","","","","","","","","","","","","","","","","","","","","","","","","","","","","","","","","",""
"","rating","","html-slider-response","27","114505","0.0-26.0","0","0","WHNCb","Scenes","","2693","","","","59","143","sigurdur-fjalar-jonsson-1KxBabIntpE-unsplash.jpg","23","","","","","","","","","","","","","","","","","","","","","","","","","","","","","","","","","","","","","","","",""
"","rating","","html-slider-response","28","117446","0.0-27.0","0","0","WHNCb","Scenes","","2937","","","","54","138","petr-vysohlid-9fqwGqGLUxc-unsplash.jpg","24","","","","","","","","","","","","","","","","","","","","","","","","","","","","","","","","","","","","","","","",""
"","rating","","html-slider-response","29","120403","0.0-28.0","0","0","WHNCb","Scenes","","2954","","","","79","110","bruno-van-der-kraan-qez8mNJ3ilU-unsplash.jpg","25","","","","","","","","","","","","","","","","","","","","","","","","","","","","","","","","","","","","","","","",""
"","rating","","html-slider-response","30","123353","0.0-29.0","0","0","WHNCb","Scenes","","2947","","","","56","113","damian-denis-D8R_txR_0PE-unsplash.jpg","26","","","","","","","","","","","","","","","","","","","","","","","","","","","","","","","","","","","","","","","",""
"","rating","","html-slider-response","31","126347","0.0-30.0","0","0","WHNCb","Scenes","","2989","","","","65","124","johannes-plenio-sPt5RIjKfpk-unsplash.jpg","27","","","","","","","","","","","","","","","","","","","","","","","","","","","","","","","","","","","","","","","",""
"","rating","","html-slider-response","32","128752","0.0-31.0","0","0","WHNCb","Scenes","","2402","","","","94","147","tobias-keller-73F4pKoUkM0-unsplash.jpg","28","","","","","","","","","","","","","","","","","","","","","","","","","","","","","","","","","","","","","","","",""
"","rating","","html-slider-response","33","131232","0.0-32.0","0","0","WHNCb","Scenes","","2476","","","","94","119","james-wheeler-AFC0XvICMgs-unsplash.jpg","29","","","","","","","","","","","","","","","","","","","","","","","","","","","","","","","","","","","","","","","",""
"","rating","","html-slider-response","34","133825","0.0-33.0","0","0","WHNCb","Scenes","","2588","","","","46","133","mickey-o-neil-xL66l--msXU-unsplash.jpg","30","","","","","","","","","","","","","","","","","","","","","","","","","","","","","","","","","","","","","","","",""
"","rating","","html-slider-response","35","137245","0.0-34.0","0","0","WHNCb","Scenes","","3417","","","","94","140","samuele-errico-piccarini-JEBqFu2AOOA-unsplash.jpg","31","","","","","","","","","","","","","","","","","","","","","","","","","","","","","","","","","","","","","","","",""
"","rating","","html-slider-response","36","139902","0.0-35.0","0","0","WHNCb","Scenes","","2653","","","","47","102","anisur-rahman-K2b7UDed6uQ-unsplash.jpg","32","","","","","","","","","","","","","","","","","","","","","","","","","","","","","","","","","","","","","","","",""
"","rating","","html-slider-response","37","143152","0.0-36.0","0","0","WHNCb","Scenes","","3246","","","","34","141","sebastian-unrau-v4e3JI7DDHI-unsplash.jpg","33","","","","","","","","","","","","","","","","","","","","","","","","","","","","","","","","","","","","","","","",""
"","rating","","html-slider-response","38","145614","0.0-37.0","0","0","WHNCb","Scenes","","2459","","","","36","149","yuriy-bogdanov-W51VK3Obcj0-unsplash.jpg","34","","","","","","","","","","","","","","","","","","","","","","","","","","","","","","","","","","","","","","","",""
"","rating","","html-slider-response","39","148488","0.0-38.0","0","0","WHNCb","Scenes","","2870","","","","55","121","jean-pierre-brungs-qxCqkbF7tUc-unsplash.jpg","35","","","","","","","","","","","","","","","","","","","","","","","","","","","","","","","","","","","","","","","",""
"","rating","","html-slider-response","40","150892","0.0-39.0","0","0","WHNCb","Scenes","","2399","","","","80","109","brigitta-schneiter-hXXRLtTxXCU-unsplash.jpg","36","","","","","","","","","","","","","","","","","","","","","","","","","","","","","","","","","","","","","","","",""
"","rating","","html-slider-response","41","154012","0.0-40.0","0","0","WHNCb","Scenes","","3116","","","","43","105","ashim-d-silva-S2Q5mdOrrVc-unsplash.jpg","37","","","","","","","","","","","","","","","","","","","","","","","","","","","","","","","","","","","","","","","",""
"","rating","","html-slider-response","42","156464","0.0-41.0","0","0","WHNCb","Scenes","","2448","","","","57","132","meng-ji-8BH_M-53CyA-unsplash.jpg","38","","","","","","","","","","","","","","","","","","","","","","","","","","","","","","","","","","","","","","","",""
"","rating","","html-slider-response","43","159214","0.0-42.0","0","0","WHNCb","Scenes","","2746","","","","56","136","nicolas-jehly-LzVB84KkZOE-unsplash.jpg","39","","","","","","","","","","","","","","","","","","","","","","","","","","","","","","","","","","","","","","","",""
"","rating","","html-slider-response","44","161618","0.0-43.0","0","0","WHNCb","Scenes","","2400","","","","76","127","kace-rodriguez-p3OzJuT_Dks-unsplash.jpg","40","","","","","","","","","","","","","","","","","","","","","","","","","","","","","","","","","","","","","","","",""
"","rating","","html-slider-response","45","164464","0.0-44.0","0","0","WHNCb","Scenes","","2842","","","","70","120","jarrett-kow-1ZOyYPOBn7I-unsplash.jpg","41","","","","","","","","","","","","","","","","","","","","","","","","","","","","","","","","","","","","","","","",""
"","rating","","html-slider-response","46","169487","0.0-45.0","0","0","WHNCb","Scenes","","5019","","","","41","144","solotravelgoals-7kLufxYoqWk-unsplash.jpg","42","","","","","","","","","","","","","","","","","","","","","","","","","","","","","","","","","","","","","","","",""
"","rating","","html-slider-response","47","172231","0.0-46.0","0","0","WHNCb","Scenes","","2740","","","","59","146","thomas-morse-cuKKa0vWZSY-unsplash.jpg","43","","","","","","","","","","","","","","","","","","","","","","","","","","","","","","","","","","","","","","","",""
"","rating","","html-slider-response","48","175454","0.0-47.0","0","0","WHNCb","Scenes","","3219","","","","50","122","jeff-king-bJHWJeiHfHc-unsplash.jpg","44","","","","","","","","","","","","","","","","","","","","","","","","","","","","","","","","","","","","","","","",""
"","rating","","html-slider-response","49","178372","0.0-48.0","0","0","WHNCb","Scenes","","2915","","","","44","115","darrell-cassell-hoCXpPUMCoE-unsplash.jpg","45","","","","","","","","","","","","","","","","","","","","","","","","","","","","","","","","","","","","","","","",""
"","rating","","html-slider-response","50","180999","0.0-49.0","0","0","WHNCb","Scenes","","2623","","","","81","108","benjamin-voros-phIFdC6lA4E-unsplash.jpg","46","","","","","","","","","","","","","","","","","","","","","","","","","","","","","","","","","","","","","","","",""
"","rating","","html-slider-response","51","184669","0.0-50.0","0","0","WHNCb","Scenes","","3666","","","","64","106","ashim-d-silva-WeYamle9fDM-unsplash.jpg","47","","","","","","","","","","","","","","","","","","","","","","","","","","","","","","","","","","","","","","","",""
"","rating","","html-slider-response","52","187211","0.0-51.0","0","0","WHNCb","Scenes","","2538","","","","86","145","stephen-leonardi-gyIRjKPXupE-unsplash.jpg","48","","","","","","","","","","","","","","","","","","","","","","","","","","","","","","","","","","","","","","","",""
"","rating","","html-slider-response","53","189468","0.0-52.0","0","0","WHNCb","Scenes","","2254","","","","76","148","tom-gainor-ZqLeQDjY6fY-unsplash.jpg","49","","","","","","","","","","","","","","","","","","","","","","","","","","","","","","","","","","","","","","","",""
"","deliberation_instructions","","instructions","54","260529","0.0-53.0-0.0","0","0","WHNCb","Scenes","[{""page_index"":0,""viewing_time"":13251},{""page_index"":1,""viewing_time"":16457},{""page_index"":2,""viewing_time"":17624},{""page_index"":3,""viewing_time"":20717},{""page_index"":4,""viewing_time"":3004}]","71054","","","","","","","","","","","","","","","","","","","","","","","","","","","","","","","","","","","","","","","","","","","","","","",""
"","deliberation_comprehension_check","","survey-multi-choice","55","298782","0.0-53.0-1.0","0","0","WHNCb","Scenes","","38242","{""Q0"":""True"",""Q1"":""True"",""Q2"":""Consider carefully and take your time (up to 10 seconds)"",""Q3"":""True"",""Q4"":""D""}","0","","","","","","","","","","","","","","","","","","","","","","","","","","","","","","","","","","","","","","","","","","","","",""
"","start_phase","","html-keyboard-response","56","300880","0.0-54.0","0","0","WHNCb","Scenes","","2093","","","78","","","","","","","","","","","","","","","","","","","","","","","","","","","","","","","","","","","","","","","","","","","",""
"","first_deliberation_block","","html-keyboard-response","57","304063","0.0-55.0","0","0","WHNCb","Scenes","","3180","","","78","","","","","","","","","","","","","","","","","","","","","","","","","","","","","","","","","","","","","","","","","","","",""
"","fixation","","html-keyboard-response","58","305069","0.0-56.0-0.0","0","0","WHNCb","Scenes","","null","","","null","","","","","","","","","","","","","","","","","","","","","","","","","","","","","","","","","","","","","","","","","","","",""
"","deliberation","","html-keyboard-response","59","308851","0.0-56.0-1.0","0","0","WHNCb","Scenes","","3780","","","68","","","","0","135","106","0","1","77","64","mohammad-alizade-4wzRuAb-KWs-unsplash.jpg","ashim-d-silva-WeYamle9fDM-unsplash.jpg","1","1","135","106","","","","","","","","","","","","","","","","","","","","","","","","","","","",""
"","choice_confirmation","","html-keyboard-response","60","309363","0.0-56.0-2.0-0.0","0","0","WHNCb","Scenes","","null","","","null","","","","0","135","106","","","","","","","","","","","","","","","","","","","","","","","","","","","","","","","","","","","","","",""
"","fixation","","html-keyboard-response","61","310383","0.0-57.0-0.0","0","0","WHNCb","Scenes","","null","","","null","","","","","","","","","","","","","","","","","","","","","","","","","","","","","","","","","","","","","","","","","","","",""
"","deliberation","","html-keyboard-response","62","313460","0.0-57.0-1.0","0","0","WHNCb","Scenes","","3074","","","68","","","","1","134","111","1","1","64","62","milada-vigerova-pQMM63GE7fo-unsplash.jpg","claudio-testa-U3F2o6vz3bs-unsplash.jpg","1","1","134","111","","","","","","","","","","","","","","","","","","","","","","","","","","","",""
"","choice_confirmation","","html-keyboard-response","63","313979","0.0-57.0-2.0-0.0","0","0","WHNCb","Scenes","","null","","","null","","","","1","134","111","","","","","","","","","","","","","","","","","","","","","","","","","","","","","","","","","","","","","",""
"","explain_trial","","survey-text","64","326381","0.0-57.0-5.0-0.0","0","0","WHNCb","Scenes","","12397","{""Q0"":""I love the way the water looks ""}","","","","","","1","134","111","","","","","","","","","","","{""Q0"":""I love the way the water looks ""}","","","","","","","","","","","","","","","","","","","","","","","","","","",""
"","fixation","","html-keyboard-response","65","327392","0.0-58.0-0.0","0","0","WHNCb","Scenes","","null","","","null","","","","","","","","","","","","","","","","","","","","","","","","","","","","","","","","","","","","","","","","","","","",""
"","deliberation","","html-keyboard-response","66","330508","0.0-58.0-1.0","0","0","WHNCb","Scenes","","3114","","","68","","","","2","124","100","0","-1","65","77","johannes-plenio-sPt5RIjKfpk-unsplash.jpg","aleksandra-boguslawska-MS7KD9Ti7FQ-unsplash.jpg","1","1","124","100","","","","","","","","","","","","","","","","","","","","","","","","","","","",""
"","choice_confirmation","","html-keyboard-response","67","331018","0.0-58.0-2.0-0.0","0","0","WHNCb","Scenes","","null","","","null","","","","2","124","100","","","","","","","","","","","","","","","","","","","","","","","","","","","","","","","","","","","","","",""
"","fixation","","html-keyboard-response","68","332029","0.0-59.0-0.0","0","0","WHNCb","Scenes","","null","","","null","","","","","","","","","","","","","","","","","","","","","","","","","","","","","","","","","","","","","","","","","","","",""
"","deliberation","","html-keyboard-response","69","333243","0.0-59.0-1.0","0","0","WHNCb","Scenes","","1211","","","68","","","","3","148","116","1","1","76","58","tom-gainor-ZqLeQDjY6fY-unsplash.jpg","david-marcu-W5MhJ6cy1So-unsplash.jpg","1","1","148","116","","","","","","","","","","","","","","","","","","","","","","","","","","","",""
"","choice_confirmation","","html-keyboard-response","70","333754","0.0-59.0-2.0-0.0","0","0","WHNCb","Scenes","","null","","","null","","","","3","148","116","","","","","","","","","","","","","","","","","","","","","","","","","","","","","","","","","","","","","",""
"","explain_trial","","survey-text","71","349029","0.0-59.0-5.0-0.0","0","0","WHNCb","Scenes","","15271","{""Q0"":""The coloring is extravagant. ""}","","","","","","3","148","116","","","","","","","","","","","{""Q0"":""The coloring is extravagant. ""}","","","","","","","","","","","","","","","","","","","","","","","","","","",""
"","fixation","","html-keyboard-response","72","350041","0.0-60.0-0.0","0","0","WHNCb","Scenes","","null","","","null","","","","","","","","","","","","","","","","","","","","","","","","","","","","","","","","","","","","","","","","","","","",""
"","deliberation","","html-keyboard-response","73","352316","0.0-60.0-1.0","0","0","WHNCb","Scenes","","2272","","","68","","","","4","114","136","0","-1","66","56","daniel-sessler-z_9VmsxR8hs-unsplash.jpg","nicolas-jehly-LzVB84KkZOE-unsplash.jpg","1","1","114","136","","","","","","","","","","","","","","","","","","","","","","","","","","","",""
"","choice_confirmation","","html-keyboard-response","74","352828","0.0-60.0-2.0-0.0","0","0","WHNCb","Scenes","","null","","","null","","","","4","114","136","","","","","","","","","","","","","","","","","","","","","","","","","","","","","","","","","","","","","",""
"","fixation","","html-keyboard-response","75","353844","0.0-61.0-0.0","0","0","WHNCb","Scenes","","null","","","null","","","","","","","","","","","","","","","","","","","","","","","","","","","","","","","","","","","","","","","","","","","",""
"","deliberation","","html-keyboard-response","76","357110","0.0-61.0-1.0","0","0","WHNCb","Scenes","","3262","","","68","","","","5","113","126","0","-1","56","58","damian-denis-D8R_txR_0PE-unsplash.jpg","jordan-mcqueen-PJCZOWuOxbU-unsplash.jpg","1","1","113","126","","","","","","","","","","","","","","","","","","","","","","","","","","","",""
"","choice_confirmation","","html-keyboard-response","77","357628","0.0-61.0-2.0-0.0","0","0","WHNCb","Scenes","","null","","","null","","","","5","113","126","","","","","","","","","","","","","","","","","","","","","","","","","","","","","","","","","","","","","",""
"","fixation","","html-keyboard-response","78","358651","0.0-62.0-0.0","0","0","WHNCb","Scenes","","null","","","null","","","","","","","","","","","","","","","","","","","","","","","","","","","","","","","","","","","","","","","","","","","",""
"","deliberation","","html-keyboard-response","79","360333","0.0-62.0-1.0","0","0","WHNCb","Scenes","","1680","","","68","","","","6","129","130","0","-1","67","66","kurt-cotoaga-cqbLg3lZEpk-unsplash.jpg","lina-loos-04-C1NZk1hE-unsplash.jpg","1","1","129","130","","","","","","","","","","","","","","","","","","","","","","","","","","","",""
"","choice_confirmation","","html-keyboard-response","80","360844","0.0-62.0-2.0-0.0","0","0","WHNCb","Scenes","","null","","","null","","","","6","129","130","","","","","","","","","","","","","","","","","","","","","","","","","","","","","","","","","","","","","",""
"","fixation","","html-keyboard-response","81","361866","0.0-63.0-0.0","0","0","WHNCb","Scenes","","null","","","null","","","","","","","","","","","","","","","","","","","","","","","","","","","","","","","","","","","","","","","","","","","",""
"","deliberation","","html-keyboard-response","82","364024","0.0-63.0-1.0","0","0","WHNCb","Scenes","","2156","","","75","","","","7","121","143","1","1","55","59","jean-pierre-brungs-qxCqkbF7tUc-unsplash.jpg","sigurdur-fjalar-jonsson-1KxBabIntpE-unsplash.jpg","1","0","143","121","","","","","","","","","","","","","","","","","","","","","","","","","","","",""
"","choice_confirmation","","html-keyboard-response","83","364529","0.0-63.0-2.0-0.0","0","0","WHNCb","Scenes","","null","","","null","","","","7","121","143","","","","","","","","","","","","","","","","","","","","","","","","","","","","","","","","","","","","","",""
"","explain_trial","","survey-text","84","384028","0.0-63.0-5.0-0.0","0","0","WHNCb","Scenes","","19496","{""Q0"":""Love the water and the one mountain standing tall""}","","","","","","7","121","143","","","","","","","","","","","{""Q0"":""Love the water and the one mountain standing tall""}","","","","","","","","","","","","","","","","","","","","","","","","","","",""
"","fixation","","html-keyboard-response","85","385038","0.0-64.0-0.0","0","0","WHNCb","Scenes","","null","","","null","","","","","","","","","","","","","","","","","","","","","","","","","","","","","","","","","","","","","","","","","","","",""
"","deliberation","","html-keyboard-response","86","388428","0.0-64.0-1.0","0","0","WHNCb","Scenes","","3387","","","75","","","","8","103","127","1","1","67","76","anton-darius-FBJugtbHsWU-unsplash.jpg","kace-rodriguez-p3OzJuT_Dks-unsplash.jpg","1","0","127","103","","","","","","","","","","","","","","","","","","","","","","","","","","","",""
"","choice_confirmation","","html-keyboard-response","87","388937","0.0-64.0-2.0-0.0","0","0","WHNCb","Scenes","","null","","","null","","","","8","103","127","","","","","","","","","","","","","","","","","","","","","","","","","","","","","","","","","","","","","",""
"","explain_trial","","survey-text","88","414633","0.0-64.0-5.0-0.0","0","0","WHNCb","Scenes","","25692","{""Q0"":""Just beautiful with the water and color tones""}","","","","","","8","103","127","","","","","","","","","","","{""Q0"":""Just beautiful with the water and color tones""}","","","","","","","","","","","","","","","","","","","","","","","","","","",""
"","fixation","","html-keyboard-response","89","415653","0.0-65.0-0.0","0","0","WHNCb","Scenes","","null","","","null","","","","","","","","","","","","","","","","","","","","","","","","","","","","","","","","","","","","","","","","","","","",""
"","deliberation","","html-keyboard-response","90","419228","0.0-65.0-1.0","0","0","WHNCb","Scenes","","3571","","","68","","","","9","137","142","1","-1","67","58","olga-stalska-QaWRyEdlffY-unsplash.jpg","sergey-pesterev-y-b_FOmJXdg-unsplash.jpg","1","1","137","142","","","","","","","","","","","","","","","","","","","","","","","","","","","",""
"","choice_confirmation","","html-keyboard-response","91","419733","0.0-65.0-2.0-0.0","0","0","WHNCb","Scenes","","null","","","null","","","","9","137","142","","","","","","","","","","","","","","","","","","","","","","","","","","","","","","","","","","","","","",""
"","explain_trial","","survey-text","92","471951","0.0-65.0-5.0-0.0","0","0","WHNCb","Scenes","","52214","{""Q0"":""a perfect mixture of cold and hot. Looks tropical but also tundra like with the mountains""}","","","","","","9","137","142","","","","","","","","","","","{""Q0"":""a perfect mixture of cold and hot. Looks tropical but also tundra like with the mountains""}","","","","","","","","","","","","","","","","","","","","","","","","","","",""
"","fixation","","html-keyboard-response","93","472963","0.0-66.0-0.0","0","0","WHNCb","Scenes","","null","","","null","","","","","","","","","","","","","","","","","","","","","","","","","","","","","","","","","","","","","","","","","","","",""
"","deliberation","","html-keyboard-response","94","476653","0.0-66.0-1.0","0","0","WHNCb","Scenes","","3687","","","75","","","","10","146","128","0","-1","59","77","thomas-morse-cuKKa0vWZSY-unsplash.jpg","karsten-wurth-jS0zC2PJ17A-unsplash.jpg","1","0","128","146","","","","","","","","","","","","","","","","","","","","","","","","","","","",""
"","choice_confirmation","","html-keyboard-response","95","477171","0.0-66.0-2.0-0.0","0","0","WHNCb","Scenes","","null","","","null","","","","10","146","128","","","","","","","","","","","","","","","","","","","","","","","","","","","","","","","","","","","","","",""
"","fixation","","html-keyboard-response","96","478192","0.0-67.0-0.0","0","0","WHNCb","Scenes","","null","","","null","","","","","","","","","","","","","","","","","","","","","","","","","","","","","","","","","","","","","","","","","","","",""
"","deliberation","","html-keyboard-response","97","481292","0.0-67.0-1.0","0","0","WHNCb","Scenes","","3097","","","75","","","","11","132","120","1","1","57","70","meng-ji-8BH_M-53CyA-unsplash.jpg","jarrett-kow-1ZOyYPOBn7I-unsplash.jpg","1","0","120","132","","","","","","","","","","","","","","","","","","","","","","","","","","","",""
"","choice_confirmation","","html-keyboard-response","98","481801","0.0-67.0-2.0-0.0","0","0","WHNCb","Scenes","","null","","","null","","","","11","132","120","","","","","","","","","","","","","","","","","","","","","","","","","","","","","","","","","","","","","",""
"","explain_trial","","survey-text","99","515826","0.0-67.0-5.0-0.0","0","0","WHNCb","Scenes","","34021","{""Q0"":""The coloring of the trees and the water color makes me think of fall and the summer with a splash of winter""}","","","","","","11","132","120","","","","","","","","","","","{""Q0"":""The coloring of the trees and the water color makes me think of fall and the summer with a splash of winter""}","","","","","","","","","","","","","","","","","","","","","","","","","","",""
"","practice_deliberation_again","","html-keyboard-response","100","520477","0.0-67.0-6.0-0.0","0","0","WHNCb","Scenes","","4649","","","78","","","","","","","","","","","","","","","","","","","","","","","","","","","","","","","","","","","","","","","","","","","",""
"","fixation","","html-keyboard-response","101","521484","0.0-68.0-0.0","0","0","WHNCb","Scenes","","null","","","null","","","","","","","","","","","","","","","","","","","","","","","","","","","","","","","","","","","","","","","","","","","",""
"","deliberation","","html-keyboard-response","102","523440","0.0-68.0-1.0","0","0","WHNCb","Scenes","","1953","","","68","","","","12","124","100","1","-1","65","77","johannes-plenio-sPt5RIjKfpk-unsplash.jpg","aleksandra-boguslawska-MS7KD9Ti7FQ-unsplash.jpg","2","1","124","100","","","","","","","","","","","","","","","","","","","","","","","","","","","",""
"","choice_confirmation","","html-keyboard-response","103","523953","0.0-68.0-2.0-0.0","0","0","WHNCb","Scenes","","null","","","null","","","","12","124","100","","","","","","","","","","","","","","","","","","","","","","","","","","","","","","","","","","","","","",""
"","explain_trial","","survey-text","104","540144","0.0-68.0-5.0-0.0","0","0","WHNCb","Scenes","","16187","{""Q0"":""Reminds me of a light at the end of a tunnel""}","","","","","","12","124","100","","","","","","","","","","","{""Q0"":""Reminds me of a light at the end of a tunnel""}","","","","","","","","","","","","","","","","","","","","","","","","","","",""
"","fixation","","html-keyboard-response","105","541153","0.0-69.0-0.0","0","0","WHNCb","Scenes","","null","","","null","","","","","","","","","","","","","","","","","","","","","","","","","","","","","","","","","","","","","","","","","","","",""
"","deliberation","","html-keyboard-response","106","544285","0.0-69.0-1.0","0","0","WHNCb","Scenes","","3130","","","68","","","","13","134","111","0","1","64","62","milada-vigerova-pQMM63GE7fo-unsplash.jpg","claudio-testa-U3F2o6vz3bs-unsplash.jpg","2","1","134","111","","","","","","","","","","","","","","","","","","","","","","","","","","","",""
"","choice_confirmation","","html-keyboard-response","107","544798","0.0-69.0-2.0-0.0","0","0","WHNCb","Scenes","","null","","","null","","","","13","134","111","","","","","","","","","","","","","","","","","","","","","","","","","","","","","","","","","","","","","",""
"","fixation","","html-keyboard-response","108","545817","0.0-70.0-0.0","0","0","WHNCb","Scenes","","null","","","null","","","","","","","","","","","","","","","","","","","","","","","","","","","","","","","","","","","","","","","","","","","",""
"","deliberation","","html-keyboard-response","109","552119","0.0-70.0-1.0","0","0","WHNCb","Scenes","","6300","","","75","","","","14","113","126","1","-1","56","58","damian-denis-D8R_txR_0PE-unsplash.jpg","jordan-mcqueen-PJCZOWuOxbU-unsplash.jpg","2","0","126","113","","","","","","","","","","","","","","","","","","","","","","","","","","","",""
"","choice_confirmation","","html-keyboard-response","110","552634","0.0-70.0-2.0-0.0","0","0","WHNCb","Scenes","","null","","","null","","","","14","113","126","","","","","","","","","","","","","","","","","","","","","","","","","","","","","","","","","","","","","",""
"","explain_trial","","survey-text","111","586779","0.0-70.0-5.0-0.0","0","0","WHNCb","Scenes","","34141","{""Q0"":""this picture just really grabbed my attention. Something about a sunset over a grain field""}","","","","","","14","113","126","","","","","","","","","","","{""Q0"":""this picture just really grabbed my attention. Something about a sunset over a grain field""}","","","","","","","","","","","","","","","","","","","","","","","","","","",""
"","fixation","","html-keyboard-response","112","587787","0.0-71.0-0.0","0","0","WHNCb","Scenes","","null","","","null","","","","","","","","","","","","","","","","","","","","","","","","","","","","","","","","","","","","","","","","","","","",""
"","deliberation","","html-keyboard-response","113","589795","0.0-71.0-1.0","0","0","WHNCb","Scenes","","2004","","","68","","","","15","148","116","0","1","76","58","tom-gainor-ZqLeQDjY6fY-unsplash.jpg","david-marcu-W5MhJ6cy1So-unsplash.jpg","2","1","148","116","","","","","","","","","","","","","","","","","","","","","","","","","","","",""
"","choice_confirmation","","html-keyboard-response","114","590302","0.0-71.0-2.0-0.0","0","0","WHNCb","Scenes","","null","","","null","","","","15","148","116","","","","","","","","","","","","","","","","","","","","","","","","","","","","","","","","","","","","","",""
"","fixation","","html-keyboard-response","115","591327","0.0-72.0-0.0","0","0","WHNCb","Scenes","","null","","","null","","","","","","","","","","","","","","","","","","","","","","","","","","","","","","","","","","","","","","","","","","","",""
"","deliberation","","html-keyboard-response","116","594461","0.0-72.0-1.0","0","0","WHNCb","Scenes","","3131","","","68","","","","16","129","130","1","-1","67","66","kurt-cotoaga-cqbLg3lZEpk-unsplash.jpg","lina-loos-04-C1NZk1hE-unsplash.jpg","2","1","129","130","","","","","","","","","","","","","","","","","","","","","","","","","","","",""
"","choice_confirmation","","html-keyboard-response","117","594965","0.0-72.0-2.0-0.0","0","0","WHNCb","Scenes","","null","","","null","","","","16","129","130","","","","","","","","","","","","","","","","","","","","","","","","","","","","","","","","","","","","","",""
"","explain_trial","","survey-text","118","610157","0.0-72.0-5.0-0.0","0","0","WHNCb","Scenes","","15188","{""Q0"":""Love the cold icy look over the tall mountains""}","","","","","","16","129","130","","","","","","","","","","","{""Q0"":""Love the cold icy look over the tall mountains""}","","","","","","","","","","","","","","","","","","","","","","","","","","",""
"","fixation","","html-keyboard-response","119","611168","0.0-73.0-0.0","0","0","WHNCb","Scenes","","null","","","null","","","","","","","","","","","","","","","","","","","","","","","","","","","","","","","","","","","","","","","","","","","",""
"","deliberation","","html-keyboard-response","120","612770","0.0-73.0-1.0","0","0","WHNCb","Scenes","","1599","","","75","","","","17","146","128","1","-1","59","77","thomas-morse-cuKKa0vWZSY-unsplash.jpg","karsten-wurth-jS0zC2PJ17A-unsplash.jpg","2","0","128","146","","","","","","","","","","","","","","","","","","","","","","","","","","","",""
"","choice_confirmation","","html-keyboard-response","121","613290","0.0-73.0-2.0-0.0","0","0","WHNCb","Scenes","","null","","","null","","","","17","146","128","","","","","","","","","","","","","","","","","","","","","","","","","","","","","","","","","","","","","",""
"","explain_trial","","survey-text","122","635727","0.0-73.0-5.0-0.0","0","0","WHNCb","Scenes","","22433","{""Q0"":""something about seclusion that renders my mind helpless and in need of being alone""}","","","","","","17","146","128","","","","","","","","","","","{""Q0"":""something about seclusion that renders my mind helpless and in need of being alone""}","","","","","","","","","","","","","","","","","","","","","","","","","","",""
"","fixation","","html-keyboard-response","123","636746","0.0-74.0-0.0","0","0","WHNCb","Scenes","","null","","","null","","","","","","","","","","","","","","","","","","","","","","","","","","","","","","","","","","","","","","","","","","","",""
"","deliberation","","html-keyboard-response","124","640563","0.0-74.0-1.0","0","0","WHNCb","Scenes","","3814","","","68","","","","18","121","143","0","1","55","59","jean-pierre-brungs-qxCqkbF7tUc-unsplash.jpg","sigurdur-fjalar-jonsson-1KxBabIntpE-unsplash.jpg","2","1","121","143","","","","","","","","","","","","","","","","","","","","","","","","","","","",""
"","choice_confirmation","","html-keyboard-response","125","641075","0.0-74.0-2.0-0.0","0","0","WHNCb","Scenes","","null","","","null","","","","18","121","143","","","","","","","","","","","","","","","","","","","","","","","","","","","","","","","","","","","","","",""
"","fixation","","html-keyboard-response","126","642082","0.0-75.0-0.0","0","0","WHNCb","Scenes","","null","","","null","","","","","","","","","","","","","","","","","","","","","","","","","","","","","","","","","","","","","","","","","","","",""
"","deliberation","","html-keyboard-response","127","643900","0.0-75.0-1.0","0","0","WHNCb","Scenes","","1816","","","75","","","","19","132","120","0","1","57","70","meng-ji-8BH_M-53CyA-unsplash.jpg","jarrett-kow-1ZOyYPOBn7I-unsplash.jpg","2","0","120","132","","","","","","","","","","","","","","","","","","","","","","","","","","","",""
"","choice_confirmation","","html-keyboard-response","128","644412","0.0-75.0-2.0-0.0","0","0","WHNCb","Scenes","","null","","","null","","","","19","132","120","","","","","","","","","","","","","","","","","","","","","","","","","","","","","","","","","","","","","",""
"","fixation","","html-keyboard-response","129","645429","0.0-76.0-0.0","0","0","WHNCb","Scenes","","null","","","null","","","","","","","","","","","","","","","","","","","","","","","","","","","","","","","","","","","","","","","","","","","",""
"","deliberation","","html-keyboard-response","130","648082","0.0-76.0-1.0","0","0","WHNCb","Scenes","","2650","","","68","","","","20","137","142","0","-1","67","58","olga-stalska-QaWRyEdlffY-unsplash.jpg","sergey-pesterev-y-b_FOmJXdg-unsplash.jpg","2","1","137","142","","","","","","","","","","","","","","","","","","","","","","","","","","","",""
"","choice_confirmation","","html-keyboard-response","131","648598","0.0-76.0-2.0-0.0","0","0","WHNCb","Scenes","","null","","","null","","","","20","137","142","","","","","","","","","","","","","","","","","","","","","","","","","","","","","","","","","","","","","",""
"","fixation","","html-keyboard-response","132","649618","0.0-77.0-0.0","0","0","WHNCb","Scenes","","null","","","null","","","","","","","","","","","","","","","","","","","","","","","","","","","","","","","","","","","","","","","","","","","",""
"","deliberation","","html-keyboard-response","133","653404","0.0-77.0-1.0","0","0","WHNCb","Scenes","","3782","","","75","","","","21","114","136","1","-1","66","56","daniel-sessler-z_9VmsxR8hs-unsplash.jpg","nicolas-jehly-LzVB84KkZOE-unsplash.jpg","2","0","136","114","","","","","","","","","","","","","","","","","","","","","","","","","","","",""
"","choice_confirmation","","html-keyboard-response","134","653911","0.0-77.0-2.0-0.0","0","0","WHNCb","Scenes","","null","","","null","","","","21","114","136","","","","","","","","","","","","","","","","","","","","","","","","","","","","","","","","","","","","","",""
"","explain_trial","","survey-text","135","685973","0.0-77.0-5.0-0.0","0","0","WHNCb","Scenes","","32058","{""Q0"":""JUST LOOK AT THAT SUN! never have I ever seen such a perfect sun shaped so big and white.""}","","","","","","21","114","136","","","","","","","","","","","{""Q0"":""JUST LOOK AT THAT SUN! never have I ever seen such a perfect sun shaped so big and white.""}","","","","","","","","","","","","","","","","","","","","","","","","","","",""
"","fixation","","html-keyboard-response","136","686983","0.0-78.0-0.0","0","0","WHNCb","Scenes","","null","","","null","","","","","","","","","","","","","","","","","","","","","","","","","","","","","","","","","","","","","","","","","","","",""
"","deliberation","","html-keyboard-response","137","690157","0.0-78.0-1.0","0","0","WHNCb","Scenes","","3171","","","75","","","","22","103","127","0","1","67","76","anton-darius-FBJugtbHsWU-unsplash.jpg","kace-rodriguez-p3OzJuT_Dks-unsplash.jpg","2","0","127","103","","","","","","","","","","","","","","","","","","","","","","","","","","","",""
"","choice_confirmation","","html-keyboard-response","138","690675","0.0-78.0-2.0-0.0","0","0","WHNCb","Scenes","","null","","","null","","","","22","103","127","","","","","","","","","","","","","","","","","","","","","","","","","","","","","","","","","","","","","",""
"","fixation","","html-keyboard-response","139","691687","0.0-79.0-0.0","0","0","WHNCb","Scenes","","null","","","null","","","","","","","","","","","","","","","","","","","","","","","","","","","","","","","","","","","","","","","","","","","",""
"","deliberation","","html-keyboard-response","140","693735","0.0-79.0-1.0","0","0","WHNCb","Scenes","","2046","","","68","","","","23","135","106","1","1","77","64","mohammad-alizade-4wzRuAb-KWs-unsplash.jpg","ashim-d-silva-WeYamle9fDM-unsplash.jpg","2","1","135","106","","","","","","","","","","","","","","","","","","","","","","","","","","","",""
"","choice_confirmation","","html-keyboard-response","141","694241","0.0-79.0-2.0-0.0","0","0","WHNCb","Scenes","","null","","","null","","","","23","135","106","","","","","","","","","","","","","","","","","","","","","","","","","","","","","","","","","","","","","",""
"","explain_trial","","survey-text","142","733584","0.0-79.0-5.0-0.0","0","0","WHNCb","Scenes","","39339","{""Q0"":""Just the perfect picture of the stars above a desolate mountain landscape""}","","","","","","23","135","106","","","","","","","","","","","{""Q0"":""Just the perfect picture of the stars above a desolate mountain landscape""}","","","","","","","","","","","","","","","","","","","","","","","","","","",""
"","start_critical_deliberation_block","","html-keyboard-response","143","737833","0.0-79.0-7.0-0.0","0","0","WHNCb","Scenes","","4247","","","78","","","","","","","","","","","","","","","","","","","","","","","","","","","","","","","","","","","","","","","","","","","",""
"","fixation","","html-keyboard-response","144","738841","0.0-80.0-0.0","0","0","WHNCb","Scenes","","null","","","null","","","","","","","","","","","","","","","","","","","","","","","","","","","","","","","","","","","","","","","","","","","",""
"","deliberation","","html-keyboard-response","145","742168","0.0-80.0-1.0","0","0","WHNCb","Scenes","","3324","","","75","","","","24","132","120","0","1","57","70","meng-ji-8BH_M-53CyA-unsplash.jpg","jarrett-kow-1ZOyYPOBn7I-unsplash.jpg","3","0","120","132","","","","","","","","","","","","","","","","","","","","","","","","","","","",""
"","choice_confirmation","","html-keyboard-response","146","742682","0.0-80.0-2.0-0.0","0","0","WHNCb","Scenes","","null","","","null","","","","24","132","120","","","","","","","","","","","","","","","","","","","","","","","","","","","","","","","","","","","","","",""
"","fixation","","html-keyboard-response","147","743700","0.0-81.0-0.0","0","0","WHNCb","Scenes","","null","","","null","","","","","","","","","","","","","","","","","","","","","","","","","","","","","","","","","","","","","","","","","","","",""
"","deliberation","","html-keyboard-response","148","745272","0.0-81.0-1.0","0","0","WHNCb","Scenes","","1570","","","75","","","","25","114","136","0","-1","66","56","daniel-sessler-z_9VmsxR8hs-unsplash.jpg","nicolas-jehly-LzVB84KkZOE-unsplash.jpg","3","0","136","114","","","","","","","","","","","","","","","","","","","","","","","","","","","",""
"","choice_confirmation","","html-keyboard-response","149","745787","0.0-81.0-2.0-0.0","0","0","WHNCb","Scenes","","null","","","null","","","","25","114","136","","","","","","","","","","","","","","","","","","","","","","","","","","","","","","","","","","","","","",""
"","fixation","","html-keyboard-response","150","746805","0.0-82.0-0.0","0","0","WHNCb","Scenes","","null","","","null","","","","","","","","","","","","","","","","","","","","","","","","","","","","","","","","","","","","","","","","","","","",""
"","deliberation","","html-keyboard-response","151","748100","0.0-82.0-1.0","0","0","WHNCb","Scenes","","1293","","","75","","","","26","146","128","0","-1","59","77","thomas-morse-cuKKa0vWZSY-unsplash.jpg","karsten-wurth-jS0zC2PJ17A-unsplash.jpg","3","0","128","146","","","","","","","","","","","","","","","","","","","","","","","","","","","",""
"","choice_confirmation","","html-keyboard-response","152","748609","0.0-82.0-2.0-0.0","0","0","WHNCb","Scenes","","null","","","null","","","","26","146","128","","","","","","","","","","","","","","","","","","","","","","","","","","","","","","","","","","","","","",""
"","fixation","","html-keyboard-response","153","749615","0.0-83.0-0.0","0","0","WHNCb","Scenes","","null","","","null","","","","","","","","","","","","","","","","","","","","","","","","","","","","","","","","","","","","","","","","","","","",""
"","deliberation","","html-keyboard-response","154","751653","0.0-83.0-1.0","0","0","WHNCb","Scenes","","2036","","","68","","","","27","121","143","0","1","55","59","jean-pierre-brungs-qxCqkbF7tUc-unsplash.jpg","sigurdur-fjalar-jonsson-1KxBabIntpE-unsplash.jpg","3","1","121","143","","","","","","","","","","","","","","","","","","","","","","","","","","","",""
"","choice_confirmation","","html-keyboard-response","155","752162","0.0-83.0-2.0-0.0","0","0","WHNCb","Scenes","","null","","","null","","","","27","121","143","","","","","","","","","","","","","","","","","","","","","","","","","","","","","","","","","","","","","",""
"","fixation","","html-keyboard-response","156","753168","0.0-84.0-0.0","0","0","WHNCb","Scenes","","null","","","null","","","","","","","","","","","","","","","","","","","","","","","","","","","","","","","","","","","","","","","","","","","",""
"","deliberation","","html-keyboard-response","157","754201","0.0-84.0-1.0","0","0","WHNCb","Scenes","","1030","","","68","","","","28","148","116","0","1","76","58","tom-gainor-ZqLeQDjY6fY-unsplash.jpg","david-marcu-W5MhJ6cy1So-unsplash.jpg","3","1","148","116","","","","","","","","","","","","","","","","","","","","","","","","","","","",""
"","choice_confirmation","","html-keyboard-response","158","754717","0.0-84.0-2.0-0.0","0","0","WHNCb","Scenes","","null","","","null","","","","28","148","116","","","","","","","","","","","","","","","","","","","","","","","","","","","","","","","","","","","","","",""
"","fixation","","html-keyboard-response","159","755730","0.0-85.0-0.0","0","0","WHNCb","Scenes","","null","","","null","","","","","","","","","","","","","","","","","","","","","","","","","","","","","","","","","","","","","","","","","","","",""
"","deliberation","","html-keyboard-response","160","756920","0.0-85.0-1.0","0","0","WHNCb","Scenes","","1188","","","68","","","","29","135","106","0","1","77","64","mohammad-alizade-4wzRuAb-KWs-unsplash.jpg","ashim-d-silva-WeYamle9fDM-unsplash.jpg","3","1","135","106","","","","","","","","","","","","","","","","","","","","","","","","","","","",""
"","choice_confirmation","","html-keyboard-response","161","757435","0.0-85.0-2.0-0.0","0","0","WHNCb","Scenes","","null","","","null","","","","29","135","106","","","","","","","","","","","","","","","","","","","","","","","","","","","","","","","","","","","","","",""
"","fixation","","html-keyboard-response","162","758452","0.0-86.0-0.0","0","0","WHNCb","Scenes","","null","","","null","","","","","","","","","","","","","","","","","","","","","","","","","","","","","","","","","","","","","","","","","","","",""
"","deliberation","","html-keyboard-response","163","759865","0.0-86.0-1.0","0","0","WHNCb","Scenes","","1411","","","68","","","","30","137","142","0","-1","67","58","olga-stalska-QaWRyEdlffY-unsplash.jpg","sergey-pesterev-y-b_FOmJXdg-unsplash.jpg","3","1","137","142","","","","","","","","","","","","","","","","","","","","","","","","","","","",""
"","choice_confirmation","","html-keyboard-response","164","760374","0.0-86.0-2.0-0.0","0","0","WHNCb","Scenes","","null","","","null","","","","30","137","142","","","","","","","","","","","","","","","","","","","","","","","","","","","","","","","","","","","","","",""
"","fixation","","html-keyboard-response","165","761388","0.0-87.0-0.0","0","0","WHNCb","Scenes","","null","","","null","","","","","","","","","","","","","","","","","","","","","","","","","","","","","","","","","","","","","","","","","","","",""
"","deliberation","","html-keyboard-response","166","763164","0.0-87.0-1.0","0","0","WHNCb","Scenes","","1773","","","75","","","","31","113","126","0","-1","56","58","damian-denis-D8R_txR_0PE-unsplash.jpg","jordan-mcqueen-PJCZOWuOxbU-unsplash.jpg","3","0","126","113","","","","","","","","","","","","","","","","","","","","","","","","","","","",""
"","choice_confirmation","","html-keyboard-response","167","763671","0.0-87.0-2.0-0.0","0","0","WHNCb","Scenes","","null","","","null","","","","31","113","126","","","","","","","","","","","","","","","","","","","","","","","","","","","","","","","","","","","","","",""
"","fixation","","html-keyboard-response","168","764678","0.0-88.0-0.0","0","0","WHNCb","Scenes","","null","","","null","","","","","","","","","","","","","","","","","","","","","","","","","","","","","","","","","","","","","","","","","","","",""
"","deliberation","","html-keyboard-response","169","766645","0.0-88.0-1.0","0","0","WHNCb","Scenes","","1965","","","68","","","","32","134","111","0","1","64","62","milada-vigerova-pQMM63GE7fo-unsplash.jpg","claudio-testa-U3F2o6vz3bs-unsplash.jpg","3","1","134","111","","","","","","","","","","","","","","","","","","","","","","","","","","","",""
"","choice_confirmation","","html-keyboard-response","170","767151","0.0-88.0-2.0-0.0","0","0","WHNCb","Scenes","","null","","","null","","","","32","134","111","","","","","","","","","","","","","","","","","","","","","","","","","","","","","","","","","","","","","",""
"","fixation","","html-keyboard-response","171","768169","0.0-89.0-0.0","0","0","WHNCb","Scenes","","null","","","null","","","","","","","","","","","","","","","","","","","","","","","","","","","","","","","","","","","","","","","","","","","",""
"","deliberation","","html-keyboard-response","172","769402","0.0-89.0-1.0","0","0","WHNCb","Scenes","","1230","","","68","","","","33","129","130","0","-1","67","66","kurt-cotoaga-cqbLg3lZEpk-unsplash.jpg","lina-loos-04-C1NZk1hE-unsplash.jpg","3","1","129","130","","","","","","","","","","","","","","","","","","","","","","","","","","","",""
"","choice_confirmation","","html-keyboard-response","173","769912","0.0-89.0-2.0-0.0","0","0","WHNCb","Scenes","","null","","","null","","","","33","129","130","","","","","","","","","","","","","","","","","","","","","","","","","","","","","","","","","","","","","",""
"","fixation","","html-keyboard-response","174","770934","0.0-90.0-0.0","0","0","WHNCb","Scenes","","null","","","null","","","","","","","","","","","","","","","","","","","","","","","","","","","","","","","","","","","","","","","","","","","",""
"","deliberation","","html-keyboard-response","175","772058","0.0-90.0-1.0","0","0","WHNCb","Scenes","","1121","","","75","","","","34","103","127","0","1","67","76","anton-darius-FBJugtbHsWU-unsplash.jpg","kace-rodriguez-p3OzJuT_Dks-unsplash.jpg","3","0","127","103","","","","","","","","","","","","","","","","","","","","","","","","","","","",""
"","choice_confirmation","","html-keyboard-response","176","772570","0.0-90.0-2.0-0.0","0","0","WHNCb","Scenes","","null","","","null","","","","34","103","127","","","","","","","","","","","","","","","","","","","","","","","","","","","","","","","","","","","","","",""
"","fixation","","html-keyboard-response","177","773589","0.0-91.0-0.0","0","0","WHNCb","Scenes","","null","","","null","","","","","","","","","","","","","","","","","","","","","","","","","","","","","","","","","","","","","","","","","","","",""
"","deliberation","","html-keyboard-response","178","774162","0.0-91.0-1.0","0","0","WHNCb","Scenes","","571","","","68","","","","35","124","100","0","-1","65","77","johannes-plenio-sPt5RIjKfpk-unsplash.jpg","aleksandra-boguslawska-MS7KD9Ti7FQ-unsplash.jpg","3","1","124","100","","","","","","","","","","","","","","","","","","","","","","","","","","","",""
"","choice_confirmation","","html-keyboard-response","179","774682","0.0-91.0-2.0-0.0","0","0","WHNCb","Scenes","","null","","","null","","","","35","124","100","","","","","","","","","","","","","","","","","","","","","","","","","","","","","","","","","","","","","",""
"","reward_learning_instructions","","instructions","180","815648","0.0-92.0-0.0","0","0","WHNCb","Scenes","[{""page_index"":0,""viewing_time"":23933},{""page_index"":1,""viewing_time"":15049},{""page_index"":2,""viewing_time"":1982}]","40965","","","","","","","","","","","","","","","","","","","","","","","","","","","","","","","","","","","","","","","","","","","","","","",""
"","reward_comprehension_check","","survey-multi-choice","181","829394","0.0-92.0-1.0","0","0","WHNCb","Scenes","","13742","{""Q0"":""True"",""Q1"":""True"",""Q2"":""Press the space bar to see its outcome"",""Q3"":""Press the relevant key while the outcome is presented""}","0","","","","","","","","","","","","","","","","","","","","","","","","","","","","","","","","","","","","","","","","","","","","",""
"","start_phase","","html-keyboard-response","182","830871","0.0-93.0","0","0","WHNCb","Scenes","","1475","","","78","","","","","","","","","","","","","","","","","","","","","","","","","","","","","","","","","","","","","","","","","","","",""
"","fixation","","html-keyboard-response","183","831888","0.0-94.0","0","0","WHNCb","Scenes","","null","","","null","","","","","","","","","","","","","","","","","","","","","","","","","","","","","","","","","","","","","","","","","","","",""
"","see_reward","","html-keyboard-response","184","834068","0.0-95.0","0","0","WHNCb","Scenes","","2177","","","32","","134","","0","","","","1","","","","","1","","","","","140","2177","","","","","","","","","","","","","","","","","","","","","","","","",""
"","reward_outcome","","html-keyboard-response","185","836077","0.0-96.0","0","0","WHNCb","Scenes","","null","","","null","","134","","0","","","","","","","","","","","","","","","","NaN","null","","","","","","","","","","","","","","","","","","","","","","",""
"","respond_faster","","html-keyboard-response","186","837592","0.0-97.0-0.0","1","0","WHNCb","Scenes","","null","","","null","","","","","","","","","","","","","","","","","","","","","","","","","","","","","","","","","","","","","","","","","","","",""
"","fixation","","html-keyboard-response","187","838606","0.0-99.0","0","0","WHNCb","Scenes","","null","","","null","","","","","","","","","","","","","","","","","","","","","","","","","","","","","","","","","","","","","","","","","","","",""
"","see_reward","","html-keyboard-response","188","839422","0.0-100.0","0","0","WHNCb","Scenes","","814","","","32","","148","","1","","","","1","","","","","1","","","","","152","814","","","","","","","","","","","","","","","","","","","","","","","","",""
"","reward_outcome","","html-keyboard-response","189","841444","0.0-101.0","0","0","WHNCb","Scenes","","1381","","","38","","148","","1","","","","","","","","","","","","","","","","1","1381","","","","","","","","","","","","","","","","","","","","","","",""
"","fixation","","html-keyboard-response","190","842461","0.0-104.0","0","0","WHNCb","Scenes","","null","","","null","","","","","","","","","","","","","","","","","","","","","","","","","","","","","","","","","","","","","","","","","","","",""
"","see_reward","","html-keyboard-response","191","843204","0.0-105.0","0","0","WHNCb","Scenes","","742","","","32","","134","","2","","","","1","","","","","1","","","","","140","742","","","","","","","","","","","","","","","","","","","","","","","","",""
"","reward_outcome","","html-keyboard-response","192","845229","0.0-106.0","0","0","WHNCb","Scenes","","813","","","38","","134","","2","","","","","","","","","","","","","","","","1","813","","","","","","","","","","","","","","","","","","","","","","",""
"","fixation","","html-keyboard-response","193","846241","0.0-109.0","0","0","WHNCb","Scenes","","null","","","null","","","","","","","","","","","","","","","","","","","","","","","","","","","","","","","","","","","","","","","","","","","",""
"","see_reward","","html-keyboard-response","194","846852","0.0-110.0","0","0","WHNCb","Scenes","","608","","","32","","127","","3","","","","1","","","","","1","","","","","160","608","","","","","","","","","","","","","","","","","","","","","","","","",""
"","reward_outcome","","html-keyboard-response","195","848875","0.0-111.0","0","0","WHNCb","Scenes","","553","","","38","","127","","3","","","","","","","","","","","","","","","","1","553","","","","","","","","","","","","","","","","","","","","","","",""
"","fixation","","html-keyboard-response","196","849890","0.0-114.0","0","0","WHNCb","Scenes","","null","","","null","","","","","","","","","","","","","","","","","","","","","","","","","","","","","","","","","","","","","","","","","","","",""
"","see_reward","","html-keyboard-response","197","850783","0.0-115.0","0","0","WHNCb","Scenes","","891","","","32","","136","","4","","","","-1","","","","","1","","","","","0","891","","","","","","","","","","","","","","","","","","","","","","","","",""
"","reward_outcome","","html-keyboard-response","198","852806","0.0-116.0","0","0","WHNCb","Scenes","","1264","","","40","","136","","4","","","","","","","","","","","","","","","","-1","1264","","","","","","","","","","","","","","","","","","","","","","",""
"","fixation","","html-keyboard-response","199","853815","0.0-119.0","0","0","WHNCb","Scenes","","null","","","null","","","","","","","","","","","","","","","","","","","","","","","","","","","","","","","","","","","","","","","","","","","",""
"","see_reward","","html-keyboard-response","200","854322","0.0-120.0","0","0","WHNCb","Scenes","","505","","","32","","120","","5","","","","1","","","","","1","","","","","150","505","","","","","","","","","","","","","","","","","","","","","","","","",""
"","reward_outcome","","html-keyboard-response","201","856339","0.0-121.0","0","0","WHNCb","Scenes","","731","","","38","","120","","5","","","","","","","","","","","","","","","","1","731","","","","","","","","","","","","","","","","","","","","","","",""
"","fixation","","html-keyboard-response","202","857355","0.0-124.0","0","0","WHNCb","Scenes","","null","","","null","","","","","","","","","","","","","","","","","","","","","","","","","","","","","","","","","","","","","","","","","","","",""
"","see_reward","","html-keyboard-response","203","857864","0.0-125.0","0","0","WHNCb","Scenes","","507","","","32","","148","","6","","","","1","","","","","1","","","","","152","507","","","","","","","","","","","","","","","","","","","","","","","","",""
"","reward_outcome","","html-keyboard-response","204","859878","0.0-126.0","0","0","WHNCb","Scenes","","703","","","38","","148","","6","","","","","","","","","","","","","","","","1","703","","","","","","","","","","","","","","","","","","","","","","",""
"","fixation","","html-keyboard-response","205","860894","0.0-129.0","0","0","WHNCb","Scenes","","null","","","null","","","","","","","","","","","","","","","","","","","","","","","","","","","","","","","","","","","","","","","","","","","",""
"","see_reward","","html-keyboard-response","206","861154","0.0-130.0","0","0","WHNCb","Scenes","","257","","","32","","137","","7","","","","-1","","","","","1","","","","","0","257","","","","","","","","","","","","","","","","","","","","","","","","",""
"","reward_outcome","","html-keyboard-response","207","863162","0.0-131.0","0","0","WHNCb","Scenes","","739","","","40","","137","","7","","","","","","","","","","","","","","","","-1","739","","","","","","","","","","","","","","","","","","","","","","",""
"","fixation","","html-keyboard-response","208","864173","0.0-134.0","0","0","WHNCb","Scenes","","null","","","null","","","","","","","","","","","","","","","","","","","","","","","","","","","","","","","","","","","","","","","","","","","",""
"","see_reward","","html-keyboard-response","209","864471","0.0-135.0","0","0","WHNCb","Scenes","","295","","","32","","121","","8","","","","1","","","","","1","","","","","152","295","","","","","","","","","","","","","","","","","","","","","","","","",""
"","reward_outcome","","html-keyboard-response","210","866479","0.0-136.0","0","0","WHNCb","Scenes","","759","","","38","","121","","8","","","","","","","","","","","","","","","","1","759","","","","","","","","","","","","","","","","","","","","","","",""
"","fixation","","html-keyboard-response","211","867494","0.0-139.0","0","0","WHNCb","Scenes","","null","","","null","","","","","","","","","","","","","","","","","","","","","","","","","","","","","","","","","","","","","","","","","","","",""
"","see_reward","","html-keyboard-response","212","867814","0.0-140.0","0","0","WHNCb","Scenes","","318","","","32","","121","","9","","","","1","","","","","1","","","","","152","318","","","","","","","","","","","","","","","","","","","","","","","","",""
"","reward_outcome","","html-keyboard-response","213","869826","0.0-141.0","0","0","WHNCb","Scenes","","635","","","38","","121","","9","","","","","","","","","","","","","","","","1","635","","","","","","","","","","","","","","","","","","","","","","",""
"","fixation","","html-keyboard-response","214","870849","0.0-144.0","0","0","WHNCb","Scenes","","null","","","null","","","","","","","","","","","","","","","","","","","","","","","","","","","","","","","","","","","","","","","","","","","",""
"","see_reward","","html-keyboard-response","215","871144","0.0-145.0","0","0","WHNCb","Scenes","","293","","","32","","135","","10","","","","1","","","","","1","","","","","151","293","","","","","","","","","","","","","","","","","","","","","","","","",""
"","reward_outcome","","html-keyboard-response","216","873163","0.0-146.0","0","0","WHNCb","Scenes","","474","","","38","","135","","10","","","","","","","","","","","","","","","","1","474","","","","","","","","","","","","","","","","","","","","","","",""
"","fixation","","html-keyboard-response","217","874187","0.0-149.0","0","0","WHNCb","Scenes","","null","","","null","","","","","","","","","","","","","","","","","","","","","","","","","","","","","","","","","","","","","","","","","","","",""
"","see_reward","","html-keyboard-response","218","874450","0.0-150.0","0","0","WHNCb","Scenes","","261","","","32","","128","","11","","","","-1","","","","","1","","","","","0","261","","","","","","","","","","","","","","","","","","","","","","","","",""
"","reward_outcome","","html-keyboard-response","219","876471","0.0-151.0","0","0","WHNCb","Scenes","","686","","","40","","128","","11","","","","","","","","","","","","","","","","-1","686","","","","","","","","","","","","","","","","","","","","","","",""
"","fixation","","html-keyboard-response","220","877487","0.0-154.0","0","0","WHNCb","Scenes","","null","","","null","","","","","","","","","","","","","","","","","","","","","","","","","","","","","","","","","","","","","","","","","","","",""
"","see_reward","","html-keyboard-response","221","878094","0.0-155.0","0","0","WHNCb","Scenes","","605","","","32","","124","","12","","","","-1","","","","","1","","","","","0","605","","","","","","","","","","","","","","","","","","","","","","","","",""
"","reward_outcome","","html-keyboard-response","222","880108","0.0-156.0","0","0","WHNCb","Scenes","","605","","","40","","124","","12","","","","","","","","","","","","","","","","-1","605","","","","","","","","","","","","","","","","","","","","","","",""
"","fixation","","html-keyboard-response","223","881121","0.0-159.0","0","0","WHNCb","Scenes","","null","","","null","","","","","","","","","","","","","","","","","","","","","","","","","","","","","","","","","","","","","","","","","","","",""
"","see_reward","","html-keyboard-response","224","881849","0.0-160.0","0","0","WHNCb","Scenes","","726","","","32","","136","","13","","","","-1","","","","","1","","","","","0","726","","","","","","","","","","","","","","","","","","","","","","","","",""
"","reward_outcome","","html-keyboard-response","225","883862","0.0-161.0","0","0","WHNCb","Scenes","","564","","","40","","136","","13","","","","","","","","","","","","","","","","-1","564","","","","","","","","","","","","","","","","","","","","","","",""
"","fixation","","html-keyboard-response","226","884879","0.0-164.0","0","0","WHNCb","Scenes","","null","","","null","","","","","","","","","","","","","","","","","","","","","","","","","","","","","","","","","","","","","","","","","","","",""
"","see_reward","","html-keyboard-response","227","885552","0.0-165.0","0","0","WHNCb","Scenes","","670","","","32","","137","","14","","","","-1","","","","","1","","","","","0","670","","","","","","","","","","","","","","","","","","","","","","","","",""
"","reward_outcome","","html-keyboard-response","228","887560","0.0-166.0","0","0","WHNCb","Scenes","","492","","","40","","137","","14","","","","","","","","","","","","","","","","-1","492","","","","","","","","","","","","","","","","","","","","","","",""
"","fixation","","html-keyboard-response","229","888580","0.0-169.0","0","0","WHNCb","Scenes","","null","","","null","","","","","","","","","","","","","","","","","","","","","","","","","","","","","","","","","","","","","","","","","","","",""
"","see_reward","","html-keyboard-response","230","889238","0.0-170.0","0","0","WHNCb","Scenes","","658","","","32","","128","","15","","","","-1","","","","","1","","","","","0","658","","","","","","","","","","","","","","","","","","","","","","","","",""
"","reward_outcome","","html-keyboard-response","231","891248","0.0-171.0","0","0","WHNCb","Scenes","","398","","","40","","128","","15","","","","","","","","","","","","","","","","-1","398","","","","","","","","","","","","","","","","","","","","","","",""
"","fixation","","html-keyboard-response","232","892257","0.0-174.0","0","0","WHNCb","Scenes","","null","","","null","","","","","","","","","","","","","","","","","","","","","","","","","","","","","","","","","","","","","","","","","","","",""
"","see_reward","","html-keyboard-response","233","892582","0.0-175.0","0","0","WHNCb","Scenes","","323","","","32","","127","","16","","","","1","","","","","1","","","","","160","323","","","","","","","","","","","","","","","","","","","","","","","","",""
"","reward_outcome","","html-keyboard-response","234","894600","0.0-176.0","0","0","WHNCb","Scenes","","543","","","38","","127","","16","","","","","","","","","","","","","","","","1","543","","","","","","","","","","","","","","","","","","","","","","",""
"","fixation","","html-keyboard-response","235","895609","0.0-179.0","0","0","WHNCb","Scenes","","null","","","null","","","","","","","","","","","","","","","","","","","","","","","","","","","","","","","","","","","","","","","","","","","",""
"","see_reward","","html-keyboard-response","236","895888","0.0-180.0","0","0","WHNCb","Scenes","","277","","","32","","126","","17","","","","-1","","","","","1","","","","","0","277","","","","","","","","","","","","","","","","","","","","","","","","",""
"","reward_outcome","","html-keyboard-response","237","897902","0.0-181.0","0","0","WHNCb","Scenes","","565","","","40","","126","","17","","","","","","","","","","","","","","","","-1","565","","","","","","","","","","","","","","","","","","","","","","",""
"","fixation","","html-keyboard-response","238","898921","0.0-184.0","0","0","WHNCb","Scenes","","null","","","null","","","","","","","","","","","","","","","","","","","","","","","","","","","","","","","","","","","","","","","","","","","",""
"","see_reward","","html-keyboard-response","239","899452","0.0-185.0","0","0","WHNCb","Scenes","","529","","","32","","135","","18","","","","1","","","","","1","","","","","151","529","","","","","","","","","","","","","","","","","","","","","","","","",""
"","reward_outcome","","html-keyboard-response","240","901475","0.0-186.0","0","0","WHNCb","Scenes","","501","","","38","","135","","18","","","","","","","","","","","","","","","","1","501","","","","","","","","","","","","","","","","","","","","","","",""
"","fixation","","html-keyboard-response","241","902496","0.0-189.0","0","0","WHNCb","Scenes","","null","","","null","","","","","","","","","","","","","","","","","","","","","","","","","","","","","","","","","","","","","","","","","","","",""
"","see_reward","","html-keyboard-response","242","902929","0.0-190.0","0","0","WHNCb","Scenes","","432","","","32","","129","","19","","","","-1","","","","","1","","","","","0","432","","","","","","","","","","","","","","","","","","","","","","","","",""
"","reward_outcome","","html-keyboard-response","243","904943","0.0-191.0","0","0","WHNCb","Scenes","","551","","","40","","129","","19","","","","","","","","","","","","","","","","-1","551","","","","","","","","","","","","","","","","","","","","","","",""
"","fixation","","html-keyboard-response","244","905957","0.0-194.0","0","0","WHNCb","Scenes","","null","","","null","","","","","","","","","","","","","","","","","","","","","","","","","","","","","","","","","","","","","","","","","","","",""
"","see_reward","","html-keyboard-response","245","906427","0.0-195.0","0","0","WHNCb","Scenes","","468","","","32","","126","","20","","","","-1","","","","","1","","","","","0","468","","","","","","","","","","","","","","","","","","","","","","","","",""
"","reward_outcome","","html-keyboard-response","246","908439","0.0-196.0","0","0","WHNCb","Scenes","","444","","","40","","126","","20","","","","","","","","","","","","","","","","-1","444","","","","","","","","","","","","","","","","","","","","","","",""
"","fixation","","html-keyboard-response","247","909453","0.0-199.0","0","0","WHNCb","Scenes","","null","","","null","","","","","","","","","","","","","","","","","","","","","","","","","","","","","","","","","","","","","","","","","","","",""
"","see_reward","","html-keyboard-response","248","909851","0.0-200.0","0","0","WHNCb","Scenes","","396","","","32","","124","","21","","","","-1","","","","","1","","","","","0","396","","","","","","","","","","","","","","","","","","","","","","","","",""
"","reward_outcome","","html-keyboard-response","249","911874","0.0-201.0","0","0","WHNCb","Scenes","","496","","","40","","124","","21","","","","","","","","","","","","","","","","-1","496","","","","","","","","","","","","","","","","","","","","","","",""
"","fixation","","html-keyboard-response","250","912887","0.0-204.0","0","0","WHNCb","Scenes","","null","","","null","","","","","","","","","","","","","","","","","","","","","","","","","","","","","","","","","","","","","","","","","","","",""
"","see_reward","","html-keyboard-response","251","913377","0.0-205.0","0","0","WHNCb","Scenes","","487","","","32","","120","","22","","","","1","","","","","1","","","","","150","487","","","","","","","","","","","","","","","","","","","","","","","","",""
"","reward_outcome","","html-keyboard-response","252","915381","0.0-206.0","0","0","WHNCb","Scenes","","660","","","38","","120","","22","","","","","","","","","","","","","","","","1","660","","","","","","","","","","","","","","","","","","","","","","",""
"","fixation","","html-keyboard-response","253","916399","0.0-209.0","0","0","WHNCb","Scenes","","null","","","null","","","","","","","","","","","","","","","","","","","","","","","","","","","","","","","","","","","","","","","","","","","",""
"","see_reward","","html-keyboard-response","254","916788","0.0-210.0","0","0","WHNCb","Scenes","","387","","","32","","129","","23","","","","-1","","","","","1","","","","","0","387","","","","","","","","","","","","","","","","","","","","","","","","",""
"","reward_outcome","","html-keyboard-response","255","918804","0.0-211.0","0","0","WHNCb","Scenes","","483","","","40","","129","","23","","","","","","","","","","","","","","","","-1","483","","","","","","","","","","","","","","","","","","","","","","",""
"","block_over","","html-keyboard-response","256","922600","0.0-213.0-0.0","0","0","WHNCb","Scenes","","3794","","","78","","","","","","","","","","","","","","","","","","","","","","","","","","","","","","","","","","","","","","","","","","","",""
"","fixation","","html-keyboard-response","257","923612","0.0-214.0","0","0","WHNCb","Scenes","","null","","","null","","","","","","","","","","","","","","","","","","","","","","","","","","","","","","","","","","","","","","","","","","","",""
"","see_reward","","html-keyboard-response","258","924280","0.0-215.0","0","0","WHNCb","Scenes","","667","","","32","","120","","24","","","","1","","","","","2","","","","","150","667","","","","","","","","","","","","","","","","","","","","","","","","",""
"","reward_outcome","","html-keyboard-response","259","926295","0.0-216.0","0","0","WHNCb","Scenes","","592","","","38","","120","","24","","","","","","","","","","","","","","","","1","592","","","","","","","","","","","","","","","","","","","","","","",""
"","fixation","","html-keyboard-response","260","927303","0.0-219.0","0","0","WHNCb","Scenes","","null","","","null","","","","","","","","","","","","","","","","","","","","","","","","","","","","","","","","","","","","","","","","","","","",""
"","see_reward","","html-keyboard-response","261","927689","0.0-220.0","0","0","WHNCb","Scenes","","383","","","32","","124","","25","","","","-1","","","","","2","","","","","0","383","","","","","","","","","","","","","","","","","","","","","","","","",""
"","reward_outcome","","html-keyboard-response","262","929695","0.0-221.0","0","0","WHNCb","Scenes","","460","","","40","","124","","25","","","","","","","","","","","","","","","","-1","460","","","","","","","","","","","","","","","","","","","","","","",""
"","fixation","","html-keyboard-response","263","930707","0.0-224.0","0","0","WHNCb","Scenes","","null","","","null","","","","","","","","","","","","","","","","","","","","","","","","","","","","","","","","","","","","","","","","","","","",""
"","see_reward","","html-keyboard-response","264","931159","0.0-225.0","0","0","WHNCb","Scenes","","451","","","32","","134","","26","","","","1","","","","","2","","","","","140","451","","","","","","","","","","","","","","","","","","","","","","","","",""
"","reward_outcome","","html-keyboard-response","265","933169","0.0-226.0","0","0","WHNCb","Scenes","","636","","","38","","134","","26","","","","","","","","","","","","","","","","1","636","","","","","","","","","","","","","","","","","","","","","","",""
"","fixation","","html-keyboard-response","266","934181","0.0-229.0","0","0","WHNCb","Scenes","","null","","","null","","","","","","","","","","","","","","","","","","","","","","","","","","","","","","","","","","","","","","","","","","","",""
"","see_reward","","html-keyboard-response","267","934464","0.0-230.0","0","0","WHNCb","Scenes","","281","","","32","","129","","27","","","","-1","","","","","2","","","","","0","281","","","","","","","","","","","","","","","","","","","","","","","","",""
"","reward_outcome","","html-keyboard-response","268","936471","0.0-231.0","0","0","WHNCb","Scenes","","407","","","40","","129","","27","","","","","","","","","","","","","","","","-1","407","","","","","","","","","","","","","","","","","","","","","","",""
"","fixation","","html-keyboard-response","269","937491","0.0-234.0","0","0","WHNCb","Scenes","","null","","","null","","","","","","","","","","","","","","","","","","","","","","","","","","","","","","","","","","","","","","","","","","","",""
"","see_reward","","html-keyboard-response","270","937810","0.0-235.0","0","0","WHNCb","Scenes","","317","","","32","","127","","28","","","","1","","","","","2","","","","","160","317","","","","","","","","","","","","","","","","","","","","","","","","",""
"","reward_outcome","","html-keyboard-response","271","939824","0.0-236.0","0","0","WHNCb","Scenes","","472","","","38","","127","","28","","","","","","","","","","","","","","","","1","472","","","","","","","","","","","","","","","","","","","","","","",""
"","fixation","","html-keyboard-response","272","940837","0.0-239.0","0","0","WHNCb","Scenes","","null","","","null","","","","","","","","","","","","","","","","","","","","","","","","","","","","","","","","","","","","","","","","","","","",""
"","see_reward","","html-keyboard-response","273","941046","0.0-240.0","0","0","WHNCb","Scenes","","207","","","32","","127","","29","","","","1","","","","","2","","","","","160","207","","","","","","","","","","","","","","","","","","","","","","","","",""
"","reward_outcome","","html-keyboard-response","274","943059","0.0-241.0","0","0","WHNCb","Scenes","","637","","","38","","127","","29","","","","","","","","","","","","","","","","1","637","","","","","","","","","","","","","","","","","","","","","","",""
"","fixation","","html-keyboard-response","275","944072","0.0-244.0","0","0","WHNCb","Scenes","","null","","","null","","","","","","","","","","","","","","","","","","","","","","","","","","","","","","","","","","","","","","","","","","","",""
"","see_reward","","html-keyboard-response","276","944396","0.0-245.0","0","0","WHNCb","Scenes","","322","","","32","","148","","30","","","","1","","","","","2","","","","","152","322","","","","","","","","","","","","","","","","","","","","","","","","",""
"","reward_outcome","","html-keyboard-response","277","946404","0.0-246.0","0","0","WHNCb","Scenes","","471","","","38","","148","","30","","","","","","","","","","","","","","","","1","471","","","","","","","","","","","","","","","","","","","","","","",""
"","fixation","","html-keyboard-response","278","947422","0.0-249.0","0","0","WHNCb","Scenes","","null","","","null","","","","","","","","","","","","","","","","","","","","","","","","","","","","","","","","","","","","","","","","","","","",""
"","see_reward","","html-keyboard-response","279","947697","0.0-250.0","0","0","WHNCb","Scenes","","274","","","32","","128","","31","","","","-1","","","","","2","","","","","0","274","","","","","","","","","","","","","","","","","","","","","","","","",""
"","reward_outcome","","html-keyboard-response","280","949712","0.0-251.0","0","0","WHNCb","Scenes","","642","","","40","","128","","31","","","","","","","","","","","","","","","","-1","642","","","","","","","","","","","","","","","","","","","","","","",""
"","fixation","","html-keyboard-response","281","950726","0.0-254.0","0","0","WHNCb","Scenes","","null","","","null","","","","","","","","","","","","","","","","","","","","","","","","","","","","","","","","","","","","","","","","","","","",""
"","see_reward","","html-keyboard-response","282","951136","0.0-255.0","0","0","WHNCb","Scenes","","407","","","32","","121","","32","","","","1","","","","","2","","","","","152","407","","","","","","","","","","","","","","","","","","","","","","","","",""
"","reward_outcome","","html-keyboard-response","283","953153","0.0-256.0","0","0","WHNCb","Scenes","","935","","","38","","121","","32","","","","","","","","","","","","","","","","1","935","","","","","","","","","","","","","","","","","","","","","","",""
"","fixation","","html-keyboard-response","284","954158","0.0-259.0","0","0","WHNCb","Scenes","","null","","","null","","","","","","","","","","","","","","","","","","","","","","","","","","","","","","","","","","","","","","","","","","","",""
"","see_reward","","html-keyboard-response","285","954416","0.0-260.0","0","0","WHNCb","Scenes","","256","","","32","","137","","33","","","","-1","","","","","2","","","","","0","256","","","","","","","","","","","","","","","","","","","","","","","","",""
"","reward_outcome","","html-keyboard-response","286","956433","0.0-261.0","0","0","WHNCb","Scenes","","480","","","40","","137","","33","","","","","","","","","","","","","","","","-1","480","","","","","","","","","","","","","","","","","","","","","","",""
"","fixation","","html-keyboard-response","287","957453","0.0-264.0","0","0","WHNCb","Scenes","","null","","","null","","","","","","","","","","","","","","","","","","","","","","","","","","","","","","","","","","","","","","","","","","","",""
"","see_reward","","html-keyboard-response","288","958150","0.0-265.0","0","0","WHNCb","Scenes","","696","","","32","","121","","34","","","","1","","","","","2","","","","","152","696","","","","","","","","","","","","","","","","","","","","","","","","",""
"","reward_outcome","","html-keyboard-response","289","960172","0.0-266.0","0","0","WHNCb","Scenes","","452","","","38","","121","","34","","","","","","","","","","","","","","","","1","452","","","","","","","","","","","","","","","","","","","","","","",""
"","fixation","","html-keyboard-response","290","961185","0.0-269.0","0","0","WHNCb","Scenes","","null","","","null","","","","","","","","","","","","","","","","","","","","","","","","","","","","","","","","","","","","","","","","","","","",""
"","see_reward","","html-keyboard-response","291","961453","0.0-270.0","0","0","WHNCb","Scenes","","265","","","32","","135","","35","","","","1","","","","","2","","","","","151","265","","","","","","","","","","","","","","","","","","","","","","","","",""
"","reward_outcome","","html-keyboard-response","292","963469","0.0-271.0","0","0","WHNCb","Scenes","","780","","","38","","135","","35","","","","","","","","","","","","","","","","1","780","","","","","","","","","","","","","","","","","","","","","","",""
"","fixation","","html-keyboard-response","293","964489","0.0-274.0","0","0","WHNCb","Scenes","","null","","","null","","","","","","","","","","","","","","","","","","","","","","","","","","","","","","","","","","","","","","","","","","","",""
"","see_reward","","html-keyboard-response","294","964919","0.0-275.0","0","0","WHNCb","Scenes","","429","","","32","","126","","36","","","","-1","","","","","2","","","","","0","429","","","","","","","","","","","","","","","","","","","","","","","","",""
"","reward_outcome","","html-keyboard-response","295","966939","0.0-276.0","0","0","WHNCb","Scenes","","540","","","40","","126","","36","","","","","","","","","","","","","","","","-1","540","","","","","","","","","","","","","","","","","","","","","","",""
"","fixation","","html-keyboard-response","296","967943","0.0-279.0","0","0","WHNCb","Scenes","","null","","","null","","","","","","","","","","","","","","","","","","","","","","","","","","","","","","","","","","","","","","","","","","","",""
"","see_reward","","html-keyboard-response","297","968205","0.0-280.0","0","0","WHNCb","Scenes","","259","","","32","","136","","37","","","","-1","","","","","2","","","","","0","259","","","","","","","","","","","","","","","","","","","","","","","","",""
"","reward_outcome","","html-keyboard-response","298","970226","0.0-281.0","0","0","WHNCb","Scenes","","463","","","40","","136","","37","","","","","","","","","","","","","","","","-1","463","","","","","","","","","","","","","","","","","","","","","","",""
"","fixation","","html-keyboard-response","299","971242","0.0-284.0","0","0","WHNCb","Scenes","","null","","","null","","","","","","","","","","","","","","","","","","","","","","","","","","","","","","","","","","","","","","","","","","","",""
"","see_reward","","html-keyboard-response","300","971517","0.0-285.0","0","0","WHNCb","Scenes","","273","","","32","","137","","38","","","","-1","","","","","2","","","","","0","273","","","","","","","","","","","","","","","","","","","","","","","","",""
"","reward_outcome","","html-keyboard-response","301","973531","0.0-286.0","0","0","WHNCb","Scenes","","547","","","40","","137","","38","","","","","","","","","","","","","","","","-1","547","","","","","","","","","","","","","","","","","","","","","","",""
"","fixation","","html-keyboard-response","302","974555","0.0-289.0","0","0","WHNCb","Scenes","","null","","","null","","","","","","","","","","","","","","","","","","","","","","","","","","","","","","","","","","","","","","","","","","","",""
"","see_reward","","html-keyboard-response","303","975233","0.0-290.0","0","0","WHNCb","Scenes","","677","","","32","","136","","39","","","","-1","","","","","2","","","","","0","677","","","","","","","","","","","","","","","","","","","","","","","","",""
"","reward_outcome","","html-keyboard-response","304","977242","0.0-291.0","0","0","WHNCb","Scenes","","408","","","40","","136","","39","","","","","","","","","","","","","","","","-1","408","","","","","","","","","","","","","","","","","","","","","","",""
"","fixation","","html-keyboard-response","305","978258","0.0-294.0","0","0","WHNCb","Scenes","","null","","","null","","","","","","","","","","","","","","","","","","","","","","","","","","","","","","","","","","","","","","","","","","","",""
"","see_reward","","html-keyboard-response","306","978538","0.0-295.0","0","0","WHNCb","Scenes","","279","","","32","","148","","40","","","","1","","","","","2","","","","","152","279","","","","","","","","","","","","","","","","","","","","","","","","",""
"","reward_outcome","","html-keyboard-response","307","980557","0.0-296.0","0","0","WHNCb","Scenes","","453","","","38","","148","","40","","","","","","","","","","","","","","","","1","453","","","","","","","","","","","","","","","","","","","","","","",""
"","fixation","","html-keyboard-response","308","981568","0.0-299.0","0","0","WHNCb","Scenes","","null","","","null","","","","","","","","","","","","","","","","","","","","","","","","","","","","","","","","","","","","","","","","","","","",""
"","see_reward","","html-keyboard-response","309","981963","0.0-300.0","0","0","WHNCb","Scenes","","392","","","32","","126","","41","","","","-1","","","","","2","","","","","0","392","","","","","","","","","","","","","","","","","","","","","","","","",""
"","reward_outcome","","html-keyboard-response","310","983968","0.0-301.0","0","0","WHNCb","Scenes","","426","","","40","","126","","41","","","","","","","","","","","","","","","","-1","426","","","","","","","","","","","","","","","","","","","","","","",""
"","fixation","","html-keyboard-response","311","984975","0.0-304.0","0","0","WHNCb","Scenes","","null","","","null","","","","","","","","","","","","","","","","","","","","","","","","","","","","","","","","","","","","","","","","","","","",""
"","see_reward","","html-keyboard-response","312","985198","0.0-305.0","0","0","WHNCb","Scenes","","221","","","32","","124","","42","","","","-1","","","","","2","","","","","0","221","","","","","","","","","","","","","","","","","","","","","","","","",""
"","reward_outcome","","html-keyboard-response","313","987221","0.0-306.0","0","0","WHNCb","Scenes","","427","","","40","","124","","42","","","","","","","","","","","","","","","","-1","427","","","","","","","","","","","","","","","","","","","","","","",""
"","fixation","","html-keyboard-response","314","988241","0.0-309.0","0","0","WHNCb","Scenes","","null","","","null","","","","","","","","","","","","","","","","","","","","","","","","","","","","","","","","","","","","","","","","","","","",""
"","see_reward","","html-keyboard-response","315","988525","0.0-310.0","0","0","WHNCb","Scenes","","282","","","32","","134","","43","","","","1","","","","","2","","","","","140","282","","","","","","","","","","","","","","","","","","","","","","","","",""
"","reward_outcome","","html-keyboard-response","316","990536","0.0-311.0","0","0","WHNCb","Scenes","","734","","","38","","134","","43","","","","","","","","","","","","","","","","1","734","","","","","","","","","","","","","","","","","","","","","","",""
"","fixation","","html-keyboard-response","317","991543","0.0-314.0","0","0","WHNCb","Scenes","","null","","","null","","","","","","","","","","","","","","","","","","","","","","","","","","","","","","","","","","","","","","","","","","","",""
"","see_reward","","html-keyboard-response","318","992050","0.0-315.0","0","0","WHNCb","Scenes","","505","","","32","","129","","44","","","","-1","","","","","2","","","","","0","505","","","","","","","","","","","","","","","","","","","","","","","","",""
"","reward_outcome","","html-keyboard-response","319","994053","0.0-316.0","0","0","WHNCb","Scenes","","399","","","40","","129","","44","","","","","","","","","","","","","","","","-1","399","","","","","","","","","","","","","","","","","","","","","","",""
"","fixation","","html-keyboard-response","320","995068","0.0-319.0","0","0","WHNCb","Scenes","","null","","","null","","","","","","","","","","","","","","","","","","","","","","","","","","","","","","","","","","","","","","","","","","","",""
"","see_reward","","html-keyboard-response","321","995568","0.0-320.0","0","0","WHNCb","Scenes","","497","","","32","","120","","45","","","","1","","","","","2","","","","","150","497","","","","","","","","","","","","","","","","","","","","","","","","",""
"","reward_outcome","","html-keyboard-response","322","997579","0.0-321.0","0","0","WHNCb","Scenes","","473","","","38","","120","","45","","","","","","","","","","","","","","","","1","473","","","","","","","","","","","","","","","","","","","","","","",""
"","fixation","","html-keyboard-response","323","998589","0.0-324.0","0","0","WHNCb","Scenes","","null","","","null","","","","","","","","","","","","","","","","","","","","","","","","","","","","","","","","","","","","","","","","","","","",""
"","see_reward","","html-keyboard-response","324","998864","0.0-325.0","0","0","WHNCb","Scenes","","273","","","32","","135","","46","","","","1","","","","","2","","","","","151","273","","","","","","","","","","","","","","","","","","","","","","","","",""
"","reward_outcome","","html-keyboard-response","325","1000883","0.0-326.0","0","0","WHNCb","Scenes","","512","","","38","","135","","46","","","","","","","","","","","","","","","","1","512","","","","","","","","","","","","","","","","","","","","","","",""
"","fixation","","html-keyboard-response","326","1001890","0.0-329.0","0","0","WHNCb","Scenes","","null","","","null","","","","","","","","","","","","","","","","","","","","","","","","","","","","","","","","","","","","","","","","","","","",""
"","see_reward","","html-keyboard-response","327","1002156","0.0-330.0","0","0","WHNCb","Scenes","","264","","","32","","128","","47","","","","-1","","","","","2","","","","","0","264","","","","","","","","","","","","","","","","","","","","","","","","",""
"","reward_outcome","","html-keyboard-response","328","1004173","0.0-331.0","0","0","WHNCb","Scenes","","421","","","40","","128","","47","","","","","","","","","","","","","","","","-1","421","","","","","","","","","","","","","","","","","","","","","","",""
"","block_over","","html-keyboard-response","329","1005896","0.0-333.0-0.0","0","0","WHNCb","Scenes","","1721","","","78","","","","","","","","","","","","","","","","","","","","","","","","","","","","","","","","","","","","","","","","","","","",""
"","fixation","","html-keyboard-response","330","1006905","0.0-334.0","0","0","WHNCb","Scenes","","null","","","null","","","","","","","","","","","","","","","","","","","","","","","","","","","","","","","","","","","","","","","","","","","",""
"","see_reward","","html-keyboard-response","331","1007262","0.0-335.0","0","0","WHNCb","Scenes","","356","","","32","","136","","48","","","","-1","","","","","3","","","","","0","356","","","","","","","","","","","","","","","","","","","","","","","","",""
"","reward_outcome","","html-keyboard-response","332","1009284","0.0-336.0","0","0","WHNCb","Scenes","","433","","","40","","136","","48","","","","","","","","","","","","","","","","-1","433","","","","","","","","","","","","","","","","","","","","","","",""
"","fixation","","html-keyboard-response","333","1010302","0.0-339.0","0","0","WHNCb","Scenes","","null","","","null","","","","","","","","","","","","","","","","","","","","","","","","","","","","","","","","","","","","","","","","","","","",""
"","see_reward","","html-keyboard-response","334","1010734","0.0-340.0","0","0","WHNCb","Scenes","","430","","","32","","121","","49","","","","1","","","","","3","","","","","152","430","","","","","","","","","","","","","","","","","","","","","","","","",""
"","reward_outcome","","html-keyboard-response","335","1012753","0.0-341.0","0","0","WHNCb","Scenes","","638","","","38","","121","","49","","","","","","","","","","","","","","","","1","638","","","","","","","","","","","","","","","","","","","","","","",""
"","fixation","","html-keyboard-response","336","1013767","0.0-344.0","0","0","WHNCb","Scenes","","null","","","null","","","","","","","","","","","","","","","","","","","","","","","","","","","","","","","","","","","","","","","","","","","",""
"","see_reward","","html-keyboard-response","337","1014085","0.0-345.0","0","0","WHNCb","Scenes","","317","","","32","","126","","50","","","","-1","","","","","3","","","","","0","317","","","","","","","","","","","","","","","","","","","","","","","","",""
"","reward_outcome","","html-keyboard-response","338","1016095","0.0-346.0","0","0","WHNCb","Scenes","","369","","","40","","126","","50","","","","","","","","","","","","","","","","-1","369","","","","","","","","","","","","","","","","","","","","","","",""
"","fixation","","html-keyboard-response","339","1017116","0.0-349.0","0","0","WHNCb","Scenes","","null","","","null","","","","","","","","","","","","","","","","","","","","","","","","","","","","","","","","","","","","","","","","","","","",""
"","see_reward","","html-keyboard-response","340","1017386","0.0-350.0","0","0","WHNCb","Scenes","","269","","","32","","137","","51","","","","-1","","","","","3","","","","","0","269","","","","","","","","","","","","","","","","","","","","","","","","",""
"","reward_outcome","","html-keyboard-response","341","1019404","0.0-351.0","0","0","WHNCb","Scenes","","525","","","40","","137","","51","","","","","","","","","","","","","","","","-1","525","","","","","","","","","","","","","","","","","","","","","","",""
"","fixation","","html-keyboard-response","342","1020417","0.0-354.0","0","0","WHNCb","Scenes","","null","","","null","","","","","","","","","","","","","","","","","","","","","","","","","","","","","","","","","","","","","","","","","","","",""
"","see_reward","","html-keyboard-response","343","1020714","0.0-355.0","0","0","WHNCb","Scenes","","295","","","32","","134","","52","","","","1","","","","","3","","","","","140","295","","","","","","","","","","","","","","","","","","","","","","","","",""
"","reward_outcome","","html-keyboard-response","344","1022726","0.0-356.0","0","0","WHNCb","Scenes","","487","","","38","","134","","52","","","","","","","","","","","","","","","","1","487","","","","","","","","","","","","","","","","","","","","","","",""
"","fixation","","html-keyboard-response","345","1023749","0.0-359.0","0","0","WHNCb","Scenes","","null","","","null","","","","","","","","","","","","","","","","","","","","","","","","","","","","","","","","","","","","","","","","","","","",""
"","see_reward","","html-keyboard-response","346","1023985","0.0-360.0","0","0","WHNCb","Scenes","","234","","","32","","127","","53","","","","1","","","","","3","","","","","160","234","","","","","","","","","","","","","","","","","","","","","","","","",""
"","reward_outcome","","html-keyboard-response","347","1026002","0.0-361.0","0","0","WHNCb","Scenes","","473","","","38","","127","","53","","","","","","","","","","","","","","","","1","473","","","","","","","","","","","","","","","","","","","","","","",""
"","fixation","","html-keyboard-response","348","1027021","0.0-364.0","0","0","WHNCb","Scenes","","null","","","null","","","","","","","","","","","","","","","","","","","","","","","","","","","","","","","","","","","","","","","","","","","",""
"","see_reward","","html-keyboard-response","349","1027462","0.0-365.0","0","0","WHNCb","Scenes","","440","","","32","","121","","54","","","","1","","","","","3","","","","","152","440","","","","","","","","","","","","","","","","","","","","","","","","",""
"","reward_outcome","","html-keyboard-response","350","1029471","0.0-366.0","0","0","WHNCb","Scenes","","432","","","38","","121","","54","","","","","","","","","","","","","","","","1","432","","","","","","","","","","","","","","","","","","","","","","",""
"","fixation","","html-keyboard-response","351","1030489","0.0-369.0","0","0","WHNCb","Scenes","","null","","","null","","","","","","","","","","","","","","","","","","","","","","","","","","","","","","","","","","","","","","","","","","","",""
"","see_reward","","html-keyboard-response","352","1030801","0.0-370.0","0","0","WHNCb","Scenes","","311","","","32","","120","","55","","","","1","","","","","3","","","","","150","311","","","","","","","","","","","","","","","","","","","","","","","","",""
