success,ttype,start_time,trial_type,trial_index,time_elapsed,internal_node_id,warning,missed_checkup,PID,view_history,rt,responses,repeat_instructions,key_press,response,stimulus_id,painting,index,stimulus_left,stimulus_right,explain_trial,reward_type,rating_left,rating_right,painting_left,painting_right,block,left_chosen,chosen_obj,unchosen_obj,explain_response,reward_amount,see_reward_rt,register_reward_response,register_reward_rt,deliberation_reward_tally,stimulus_left_deliberation_ind,stimulus_right_deliberation_ind,chosen_trial,gain_left,higher_outcome_chosen,old_pair,chosen_object,rt_pairs,left_object_chosen,rt_object,old_response,new_rating,deliberated_stim,initial_rating,outcome_eval_rt,outcome_eval_response,outcome_eval_gain,outcome_eval_acc,preamble,outcome_eval_confidence,outcome_eval_confidence_rt,total_reward_tally,stim_type
TRUE,full_screen,d04132020hr1604,fullscreen,0,2160,0.0-0.0,0,0,0TZUd,,,,,,,,,,,,,,,,,,,,,,,,,,,,,,,,,,,,,,,,,,,,,,,,,,
,rating_instructions,,instructions,1,4429,0.0-1.0-0.0,0,0,0TZUd,"[{""page_index"":0,""viewing_time"":1552},{""page_index"":1,""viewing_time"":712}]",2265,,,,,,,,,,,,,,,,,,,,,,,,,,,,,,,,,,,,,,,,,,,,,,,,
,rating_comprehension_check,,survey-multi-choice,2,8138,0.0-1.0-1.0,0,0,0TZUd,,3703,"{""Q0"":""True"",""Q1"":""Mouse""}",0,,,,,,,,,,,,,,,,,,,,,,,,,,,,,,,,,,,,,,,,,,,,,,
,start_phase,,html-keyboard-response,3,10221,0.0-2.0,0,0,0TZUd,,2078,,,78,,,,,,,,,,,,,,,,,,,,,,,,,,,,,,,,,,,,,,,,,,,,,
,rating,,html-slider-response,4,12772,0.0-3.0,0,0,0TZUd,,2544,,,,56,61,Grigb1.jpg,0,,,,,,,,,,,,,,,,,,,,,,,,,,,,,,,,,,,,,,,,,
,rating,,html-slider-response,5,14728,0.0-4.0,0,0,0TZUd,,1948,,,,36,57,Lassa1.jpg,1,,,,,,,,,,,,,,,,,,,,,,,,,,,,,,,,,,,,,,,,,
,rating,,html-slider-response,6,16869,0.0-5.0,0,0,0TZUd,,2131,,,,12,2,Dekb1n.jpg,2,,,,,,,,,,,,,,,,,,,,,,,,,,,,,,,,,,,,,,,,,
,rating,,html-slider-response,7,18459,0.0-6.0,0,0,0TZUd,,1583,,,,56,3,Klib1n.jpg,3,,,,,,,,,,,,,,,,,,,,,,,,,,,,,,,,,,,,,,,,,
,rating,,html-slider-response,8,20949,0.0-7.0,0,0,0TZUd,,2486,,,,67,20,Picb1n.jpg,4,,,,,,,,,,,,,,,,,,,,,,,,,,,,,,,,,,,,,,,,,
,rating,,html-slider-response,9,22777,0.0-8.0,0,0,0TZUd,,1826,,,,38,52,Dekoa1.jpg,5,,,,,,,,,,,,,,,,,,,,,,,,,,,,,,,,,,,,,,,,,
,rating,,html-slider-response,10,24492,0.0-9.0,0,0,0TZUd,,1711,,,,61,64,Vincb1.jpg,6,,,,,,,,,,,,,,,,,,,,,,,,,,,,,,,,,,,,,,,,,
,rating,,html-slider-response,11,26375,0.0-10.0,0,0,0TZUd,,1877,,,,28,24,Lewa1n.jpg,7,,,,,,,,,,,,,,,,,,,,,,,,,,,,,,,,,,,,,,,,,
,rating,,html-slider-response,12,28221,0.0-11.0,0,0,0TZUd,,1840,,,,19,42,Mackc1.jpg,8,,,,,,,,,,,,,,,,,,,,,,,,,,,,,,,,,,,,,,,,,
,rating,,html-slider-response,13,30965,0.0-12.0,0,0,0TZUd,,2738,,,,86,29,Klinb1.jpg,9,,,,,,,,,,,,,,,,,,,,,,,,,,,,,,,,,,,,,,,,,
,rating,,html-slider-response,14,34559,0.0-13.0,0,0,0TZUd,,3589,,,,0,45,Lasc1n.jpg,10,,,,,,,,,,,,,,,,,,,,,,,,,,,,,,,,,,,,,,,,,
,rating,,html-slider-response,15,36274,0.0-14.0,0,0,0TZUd,,1712,,,,21,49,Lewc1n.jpg,11,,,,,,,,,,,,,,,,,,,,,,,,,,,,,,,,,,,,,,,,,
,rating,,html-slider-response,16,38466,0.0-15.0,0,0,0TZUd,,2188,,,,0,15,Lassc1.jpg,12,,,,,,,,,,,,,,,,,,,,,,,,,,,,,,,,,,,,,,,,,
,rating,,html-slider-response,17,40800,0.0-16.0,0,0,0TZUd,,2330,,,,35,44,Mackb1.jpg,13,,,,,,,,,,,,,,,,,,,,,,,,,,,,,,,,,,,,,,,,,
,rating,,html-slider-response,18,43439,0.0-17.0,0,0,0TZUd,,2634,,,,54,56,Clib1n.jpg,14,,,,,,,,,,,,,,,,,,,,,,,,,,,,,,,,,,,,,,,,,
,rating,,html-slider-response,19,45284,0.0-18.0,0,0,0TZUd,,1840,,,,38,22,Klina1.jpg,15,,,,,,,,,,,,,,,,,,,,,,,,,,,,,,,,,,,,,,,,,
,rating,,html-slider-response,20,47155,0.0-19.0,0,0,0TZUd,,1865,,,,58,21,Kupkc1.jpg,16,,,,,,,,,,,,,,,,,,,,,,,,,,,,,,,,,,,,,,,,,
,rating,,html-slider-response,21,50567,0.0-20.0,0,0,0TZUd,,3406,,,,18,63,Lewia1.jpg,17,,,,,,,,,,,,,,,,,,,,,,,,,,,,,,,,,,,,,,,,,
,rating,,html-slider-response,22,52640,0.0-21.0,0,0,0TZUd,,2068,,,,27,18,Krab1n.jpg,18,,,,,,,,,,,,,,,,,,,,,,,,,,,,,,,,,,,,,,,,,
,rating,,html-slider-response,23,54945,0.0-22.0,0,0,0TZUd,,2300,,,,42,59,Macka1.jpg,19,,,,,,,,,,,,,,,,,,,,,,,,,,,,,,,,,,,,,,,,,
,rating,,html-slider-response,24,56665,0.0-23.0,0,0,0TZUd,,1714,,,,23,7,Macb1n.jpg,20,,,,,,,,,,,,,,,,,,,,,,,,,,,,,,,,,,,,,,,,,
,rating,,html-slider-response,25,58786,0.0-24.0,0,0,0TZUd,,2117,,,,62,43,Clifb1.jpg,21,,,,,,,,,,,,,,,,,,,,,,,,,,,,,,,,,,,,,,,,,
,rating,,html-slider-response,26,60480,0.0-25.0,0,0,0TZUd,,1690,,,,39,31,Picac1.jpg,22,,,,,,,,,,,,,,,,,,,,,,,,,,,,,,,,,,,,,,,,,
,rating,,html-slider-response,27,62722,0.0-26.0,0,0,0TZUd,,2237,,,,38,51,Lewic1.jpg,23,,,,,,,,,,,,,,,,,,,,,,,,,,,,,,,,,,,,,,,,,
,rating,,html-slider-response,28,64512,0.0-27.0,0,0,0TZUd,,1785,,,,13,37,Deka1n.jpg,24,,,,,,,,,,,,,,,,,,,,,,,,,,,,,,,,,,,,,,,,,
,rating,,html-slider-response,29,66183,0.0-28.0,0,0,0TZUd,,1666,,,,59,26,Klid1n.jpg,25,,,,,,,,,,,,,,,,,,,,,,,,,,,,,,,,,,,,,,,,,
,rating,,html-slider-response,30,68037,0.0-29.0,0,0,0TZUd,,1850,,,,36,40,Vinc1n.jpg,26,,,,,,,,,,,,,,,,,,,,,,,,,,,,,,,,,,,,,,,,,
,rating,,html-slider-response,31,70189,0.0-30.0,0,0,0TZUd,,2148,,,,27,55,Clia1n.jpg,27,,,,,,,,,,,,,,,,,,,,,,,,,,,,,,,,,,,,,,,,,
,rating,,html-slider-response,32,71845,0.0-31.0,0,0,0TZUd,,1652,,,,37,30,Kraa1n.jpg,28,,,,,,,,,,,,,,,,,,,,,,,,,,,,,,,,,,,,,,,,,
,rating,,html-slider-response,33,75171,0.0-32.0,0,0,0TZUd,,3322,,,,63,69,Picad1.jpg,29,,,,,,,,,,,,,,,,,,,,,,,,,,,,,,,,,,,,,,,,,
,rating,,html-slider-response,34,77157,0.0-33.0,0,0,0TZUd,,1982,,,,40,58,Klinc1.jpg,30,,,,,,,,,,,,,,,,,,,,,,,,,,,,,,,,,,,,,,,,,
,rating,,html-slider-response,35,78662,0.0-34.0,0,0,0TZUd,,1501,,,,37,67,Picab1.jpg,31,,,,,,,,,,,,,,,,,,,,,,,,,,,,,,,,,,,,,,,,,
,rating,,html-slider-response,36,81236,0.0-35.0,0,0,0TZUd,,2569,,,,61,47,Vina1n.jpg,32,,,,,,,,,,,,,,,,,,,,,,,,,,,,,,,,,,,,,,,,,
,rating,,html-slider-response,37,82993,0.0-36.0,0,0,0TZUd,,1752,,,,76,62,Mona1n.jpg,33,,,,,,,,,,,,,,,,,,,,,,,,,,,,,,,,,,,,,,,,,
,rating,,html-slider-response,38,84435,0.0-37.0,0,0,0TZUd,,1437,,,,40,25,Dekob1.jpg,34,,,,,,,,,,,,,,,,,,,,,,,,,,,,,,,,,,,,,,,,,
,rating,,html-slider-response,39,85861,0.0-38.0,0,0,0TZUd,,1422,,,,37,53,Macc1n.jpg,35,,,,,,,,,,,,,,,,,,,,,,,,,,,,,,,,,,,,,,,,,
,rating,,html-slider-response,40,87026,0.0-39.0,0,0,0TZUd,,1161,,,,43,60,Kupc1n.jpg,36,,,,,,,,,,,,,,,,,,,,,,,,,,,,,,,,,,,,,,,,,
,rating,,html-slider-response,41,88437,0.0-40.0,0,0,0TZUd,,1407,,,,65,50,Klic1n.jpg,37,,,,,,,,,,,,,,,,,,,,,,,,,,,,,,,,,,,,,,,,,
,rating,,html-slider-response,42,90662,0.0-41.0,0,0,0TZUd,,2221,,,,22,27,Gustc1.jpg,38,,,,,,,,,,,,,,,,,,,,,,,,,,,,,,,,,,,,,,,,,
,rating,,html-slider-response,43,92181,0.0-42.0,0,0,0TZUd,,1514,,,,66,28,Pice1n.jpg,39,,,,,,,,,,,,,,,,,,,,,,,,,,,,,,,,,,,,,,,,,
,rating,,html-slider-response,44,93759,0.0-43.0,0,0,0TZUd,,1573,,,,35,35,Gusa1n.jpg,40,,,,,,,,,,,,,,,,,,,,,,,,,,,,,,,,,,,,,,,,,
,rating,,html-slider-response,45,95495,0.0-44.0,0,0,0TZUd,,1732,,,,61,54,Rohla1.jpg,41,,,,,,,,,,,,,,,,,,,,,,,,,,,,,,,,,,,,,,,,,
,rating,,html-slider-response,46,97494,0.0-45.0,0,0,0TZUd,,1946,,,,86,9,Klind1.jpg,42,,,,,,,,,,,,,,,,,,,,,,,,,,,,,,,,,,,,,,,,,
,rating,,html-slider-response,47,99250,0.0-46.0,0,0,0TZUd,,1753,,,,35,39,Kupb1n.jpg,43,,,,,,,,,,,,,,,,,,,,,,,,,,,,,,,,,,,,,,,,,
,rating,,html-slider-response,48,100810,0.0-47.0,0,0,0TZUd,,1555,,,,68,23,Rohlb1.jpg,44,,,,,,,,,,,,,,,,,,,,,,,,,,,,,,,,,,,,,,,,,
,rating,,html-slider-response,49,102299,0.0-48.0,0,0,0TZUd,,1485,,,,62,33,Kline1.jpg,45,,,,,,,,,,,,,,,,,,,,,,,,,,,,,,,,,,,,,,,,,
,rating,,html-slider-response,50,103861,0.0-49.0,0,0,0TZUd,,1558,,,,62,16,Vincc1.jpg,46,,,,,,,,,,,,,,,,,,,,,,,,,,,,,,,,,,,,,,,,,
,rating,,html-slider-response,51,105760,0.0-50.0,0,0,0TZUd,,1895,,,,39,10,Vinb1n.jpg,47,,,,,,,,,,,,,,,,,,,,,,,,,,,,,,,,,,,,,,,,,
,rating,,html-slider-response,52,107811,0.0-51.0,0,0,0TZUd,,2046,,,,32,34,Lasb1n.jpg,48,,,,,,,,,,,,,,,,,,,,,,,,,,,,,,,,,,,,,,,,,
,rating,,html-slider-response,53,110934,0.0-52.0,0,0,0TZUd,,3119,,,,80,1,Monda1.jpg,49,,,,,,,,,,,,,,,,,,,,,,,,,,,,,,,,,,,,,,,,,
,rating,,html-slider-response,54,114141,0.0-53.0,0,0,0TZUd,,3203,,,,18,19,Picc1n.jpg,50,,,,,,,,,,,,,,,,,,,,,,,,,,,,,,,,,,,,,,,,,
,rating,,html-slider-response,55,116273,0.0-54.0,0,0,0TZUd,,2127,,,,23,32,Kupkb1.jpg,51,,,,,,,,,,,,,,,,,,,,,,,,,,,,,,,,,,,,,,,,,
,rating,,html-slider-response,56,118427,0.0-55.0,0,0,0TZUd,,2150,,,,34,36,Gustb1.jpg,52,,,,,,,,,,,,,,,,,,,,,,,,,,,,,,,,,,,,,,,,,
,rating,,html-slider-response,57,121042,0.0-56.0,0,0,0TZUd,,2610,,,,18,4,Krasb1.jpg,53,,,,,,,,,,,,,,,,,,,,,,,,,,,,,,,,,,,,,,,,,
,rating,,html-slider-response,58,122899,0.0-57.0,0,0,0TZUd,,1852,,,,62,41,Picae1.jpg,54,,,,,,,,,,,,,,,,,,,,,,,,,,,,,,,,,,,,,,,,,
,rating,,html-slider-response,59,124660,0.0-58.0,0,0,0TZUd,,1758,,,,60,14,Grib1n.jpg,55,,,,,,,,,,,,,,,,,,,,,,,,,,,,,,,,,,,,,,,,,
,rating,,html-slider-response,60,126490,0.0-59.0,0,0,0TZUd,,1826,,,,34,38,Krasa1.jpg,56,,,,,,,,,,,,,,,,,,,,,,,,,,,,,,,,,,,,,,,,,
,rating,,html-slider-response,61,128289,0.0-60.0,0,0,0TZUd,,1795,,,,14,13,Kupka1.jpg,57,,,,,,,,,,,,,,,,,,,,,,,,,,,,,,,,,,,,,,,,,
,rating,,html-slider-response,62,129801,0.0-61.0,0,0,0TZUd,,1507,,,,29,68,Mondb1.jpg,58,,,,,,,,,,,,,,,,,,,,,,,,,,,,,,,,,,,,,,,,,
,rating,,html-slider-response,63,132004,0.0-62.0,0,0,0TZUd,,2199,,,,54,46,Lewb1n.jpg,59,,,,,,,,,,,,,,,,,,,,,,,,,,,,,,,,,,,,,,,,,
,deliberation_instructions,,instructions,64,155826,0.0-63.0-0.0,0,0,0TZUd,"[{""page_index"":0,""viewing_time"":9402},{""page_index"":1,""viewing_time"":6878},{""page_index"":2,""viewing_time"":5909},{""page_index"":3,""viewing_time"":1623}]",23813,,,,,,,,,,,,,,,,,,,,,,,,,,,,,,,,,,,,,,,,,,,,,,,,
,deliberation_comprehension_check,,survey-multi-choice,65,177329,0.0-63.0-1.0,0,0,0TZUd,,21490,"{""Q0"":""True"",""Q1"":""True"",""Q2"":""Consider carefully and take your time (up to 10 seconds)"",""Q3"":""True"",""Q4"":""D""}",0,,,,,,,,,,,,,,,,,,,,,,,,,,,,,,,,,,,,,,,,,,,,,,
,start_phase,,html-keyboard-response,66,179316,0.0-64.0,0,0,0TZUd,,1976,,,78,,,,,,,,,,,,,,,,,,,,,,,,,,,,,,,,,,,,,,,,,,,,,
,first_deliberation_block,,html-keyboard-response,67,181805,0.0-65.0,0,0,0TZUd,,2486,,,78,,,,,,,,,,,,,,,,,,,,,,,,,,,,,,,,,,,,,,,,,,,,,
,fixation,,html-keyboard-response,68,182809,0.0-66.0-0.0,0,0,0TZUd,,null,,,null,,,,,,,,,,,,,,,,,,,,,,,,,,,,,,,,,,,,,,,,,,,,,
,deliberation,,html-keyboard-response,69,184167,0.0-66.0-1.0,0,0,0TZUd,,1353,,,68,,,,0,59,58,0,1,42,40,Macka1.jpg,Klinc1.jpg,1,1,59,58,,,,,,,,,,,,,,,,,,,,,,,,,,,,,
,choice_confirmation,,html-keyboard-response,70,184673,0.0-66.0-2.0-0.0,0,0,0TZUd,,null,,,null,,,,0,59,58,,,,,,,,,,,,,,,,,,,,,,,,,,,,,,,,,,,,,,,
,fixation,,html-keyboard-response,71,185691,0.0-67.0-0.0,0,0,0TZUd,,null,,,null,,,,,,,,,,,,,,,,,,,,,,,,,,,,,,,,,,,,,,,,,,,,,
,deliberation,,html-keyboard-response,72,186981,0.0-67.0-1.0,0,0,0TZUd,,1285,,,68,,,,1,46,10,0,-1,54,39,Lewb1n.jpg,Vinb1n.jpg,1,1,46,10,,,,,,,,,,,,,,,,,,,,,,,,,,,,,
,choice_confirmation,,html-keyboard-response,73,187488,0.0-67.0-2.0-0.0,0,0,0TZUd,,null,,,null,,,,1,46,10,,,,,,,,,,,,,,,,,,,,,,,,,,,,,,,,,,,,,,,
,fixation,,html-keyboard-response,74,188499,0.0-68.0-0.0,0,0,0TZUd,,null,,,null,,,,,,,,,,,,,,,,,,,,,,,,,,,,,,,,,,,,,,,,,,,,,
,deliberation,,html-keyboard-response,75,189649,0.0-68.0-1.0,0,0,0TZUd,,1146,,,75,,,,2,44,56,0,1,35,54,Mackb1.jpg,Clib1n.jpg,1,0,56,44,,,,,,,,,,,,,,,,,,,,,,,,,,,,,
,choice_confirmation,,html-keyboard-response,76,190156,0.0-68.0-2.0-0.0,0,0,0TZUd,,null,,,null,,,,2,44,56,,,,,,,,,,,,,,,,,,,,,,,,,,,,,,,,,,,,,,,
,fixation,,html-keyboard-response,77,191174,0.0-69.0-0.0,0,0,0TZUd,,null,,,null,,,,,,,,,,,,,,,,,,,,,,,,,,,,,,,,,,,,,,,,,,,,,
,deliberation,,html-keyboard-response,78,192437,0.0-69.0-1.0,0,0,0TZUd,,1259,,,68,,,,3,57,25,1,-1,36,40,Lassa1.jpg,Dekob1.jpg,1,1,57,25,,,,,,,,,,,,,,,,,,,,,,,,,,,,,
,choice_confirmation,,html-keyboard-response,79,192955,0.0-69.0-2.0-0.0,0,0,0TZUd,,null,,,null,,,,3,57,25,,,,,,,,,,,,,,,,,,,,,,,,,,,,,,,,,,,,,,,
,explain_trial,,survey-text,80,210875,0.0-69.0-5.0-0.0,0,0,0TZUd,,17914,"{""Q0"":""It looks like it took more skill to paint. ""}",,,,,,3,57,25,,,,,,,,,,,"{""Q0"":""It looks like it took more skill to paint. ""}",,,,,,,,,,,,,,,,,,,,,,,,,,,,
,fixation,,html-keyboard-response,81,211885,0.0-70.0-0.0,0,0,0TZUd,,null,,,null,,,,,,,,,,,,,,,,,,,,,,,,,,,,,,,,,,,,,,,,,,,,,
,deliberation,,html-keyboard-response,82,213766,0.0-70.0-1.0,0,0,0TZUd,,1877,,,75,,,,4,30,39,1,-1,37,35,Kraa1n.jpg,Kupb1n.jpg,1,0,39,30,,,,,,,,,,,,,,,,,,,,,,,,,,,,,
,choice_confirmation,,html-keyboard-response,83,214273,0.0-70.0-2.0-0.0,0,0,0TZUd,,null,,,null,,,,4,30,39,,,,,,,,,,,,,,,,,,,,,,,,,,,,,,,,,,,,,,,
,explain_trial,,survey-text,84,223200,0.0-70.0-5.0-0.0,0,0,0TZUd,,8923,"{""Q0"":""I like the details more""}",,,,,,4,30,39,,,,,,,,,,,"{""Q0"":""I like the details more""}",,,,,,,,,,,,,,,,,,,,,,,,,,,,
,fixation,,html-keyboard-response,85,224216,0.0-71.0-0.0,0,0,0TZUd,,null,,,null,,,,,,,,,,,,,,,,,,,,,,,,,,,,,,,,,,,,,,,,,,,,,
,deliberation,,html-keyboard-response,86,227451,0.0-71.0-1.0,0,0,0TZUd,,3230,,,75,,,,5,38,35,1,-1,34,35,Krasa1.jpg,Gusa1n.jpg,1,0,35,38,,,,,,,,,,,,,,,,,,,,,,,,,,,,,
,choice_confirmation,,html-keyboard-response,87,227969,0.0-71.0-2.0-0.0,0,0,0TZUd,,null,,,null,,,,5,38,35,,,,,,,,,,,,,,,,,,,,,,,,,,,,,,,,,,,,,,,
,explain_trial,,survey-text,88,235075,0.0-71.0-5.0-0.0,0,0,0TZUd,,7102,"{""Q0"":""historical value""}",,,,,,5,38,35,,,,,,,,,,,"{""Q0"":""historical value""}",,,,,,,,,,,,,,,,,,,,,,,,,,,,
,fixation,,html-keyboard-response,89,236080,0.0-72.0-0.0,0,0,0TZUd,,null,,,null,,,,,,,,,,,,,,,,,,,,,,,,,,,,,,,,,,,,,,,,,,,,,
,deliberation,,html-keyboard-response,90,239023,0.0-72.0-1.0,0,0,0TZUd,,2938,,,75,,,,6,51,53,0,1,38,37,Lewic1.jpg,Macc1n.jpg,1,0,53,51,,,,,,,,,,,,,,,,,,,,,,,,,,,,,
,choice_confirmation,,html-keyboard-response,91,239541,0.0-72.0-2.0-0.0,0,0,0TZUd,,null,,,null,,,,6,51,53,,,,,,,,,,,,,,,,,,,,,,,,,,,,,,,,,,,,,,,
,fixation,,html-keyboard-response,92,240554,0.0-73.0-0.0,0,0,0TZUd,,null,,,null,,,,,,,,,,,,,,,,,,,,,,,,,,,,,,,,,,,,,,,,,,,,,
,deliberation,,html-keyboard-response,93,242718,0.0-73.0-1.0,0,0,0TZUd,,2160,,,75,,,,7,60,31,0,1,43,39,Kupc1n.jpg,Picac1.jpg,1,0,31,60,,,,,,,,,,,,,,,,,,,,,,,,,,,,,
,choice_confirmation,,html-keyboard-response,94,243225,0.0-73.0-2.0-0.0,0,0,0TZUd,,null,,,null,,,,7,60,31,,,,,,,,,,,,,,,,,,,,,,,,,,,,,,,,,,,,,,,
,fixation,,html-keyboard-response,95,244238,0.0-74.0-0.0,0,0,0TZUd,,null,,,null,,,,,,,,,,,,,,,,,,,,,,,,,,,,,,,,,,,,,,,,,,,,,
,deliberation,,html-keyboard-response,96,245775,0.0-74.0-1.0,0,0,0TZUd,,1532,,,68,,,,8,21,22,1,-1,58,38,Kupkc1.jpg,Klina1.jpg,1,1,21,22,,,,,,,,,,,,,,,,,,,,,,,,,,,,,
,choice_confirmation,,html-keyboard-response,97,246291,0.0-74.0-2.0-0.0,0,0,0TZUd,,null,,,null,,,,8,21,22,,,,,,,,,,,,,,,,,,,,,,,,,,,,,,,,,,,,,,,
,explain_trial,,survey-text,98,252498,0.0-74.0-5.0-0.0,0,0,0TZUd,,6201,"{""Q0"":""it is prettier""}",,,,,,8,21,22,,,,,,,,,,,"{""Q0"":""it is prettier""}",,,,,,,,,,,,,,,,,,,,,,,,,,,,
,fixation,,html-keyboard-response,99,253504,0.0-75.0-0.0,0,0,0TZUd,,null,,,null,,,,,,,,,,,,,,,,,,,,,,,,,,,,,,,,,,,,,,,,,,,,,
,deliberation,,html-keyboard-response,100,255528,0.0-75.0-1.0,0,0,0TZUd,,2021,,,68,,,,9,36,52,1,-1,34,38,Gustb1.jpg,Dekoa1.jpg,1,1,36,52,,,,,,,,,,,,,,,,,,,,,,,,,,,,,
,choice_confirmation,,html-keyboard-response,101,256040,0.0-75.0-2.0-0.0,0,0,0TZUd,,null,,,null,,,,9,36,52,,,,,,,,,,,,,,,,,,,,,,,,,,,,,,,,,,,,,,,
,explain_trial,,survey-text,102,263511,0.0-75.0-5.0-0.0,0,0,0TZUd,,7467,"{""Q0"":""there is more going on ""}",,,,,,9,36,52,,,,,,,,,,,"{""Q0"":""there is more going on ""}",,,,,,,,,,,,,,,,,,,,,,,,,,,,
,fixation,,html-keyboard-response,103,264518,0.0-76.0-0.0,0,0,0TZUd,,null,,,null,,,,,,,,,,,,,,,,,,,,,,,,,,,,,,,,,,,,,,,,,,,,,
,deliberation,,html-keyboard-response,104,265947,0.0-76.0-1.0,0,0,0TZUd,,1424,,,75,,,,10,67,3,0,1,37,56,Picab1.jpg,Klib1n.jpg,1,0,3,67,,,,,,,,,,,,,,,,,,,,,,,,,,,,,
,choice_confirmation,,html-keyboard-response,105,266454,0.0-76.0-2.0-0.0,0,0,0TZUd,,null,,,null,,,,10,67,3,,,,,,,,,,,,,,,,,,,,,,,,,,,,,,,,,,,,,,,
,fixation,,html-keyboard-response,106,267467,0.0-77.0-0.0,0,0,0TZUd,,null,,,null,,,,,,,,,,,,,,,,,,,,,,,,,,,,,,,,,,,,,,,,,,,,,
,deliberation,,html-keyboard-response,107,269021,0.0-77.0-1.0,0,0,0TZUd,,1551,,,75,,,,11,40,61,1,1,36,56,Vinc1n.jpg,Grigb1.jpg,1,0,61,40,,,,,,,,,,,,,,,,,,,,,,,,,,,,,
,choice_confirmation,,html-keyboard-response,108,269531,0.0-77.0-2.0-0.0,0,0,0TZUd,,null,,,null,,,,11,40,61,,,,,,,,,,,,,,,,,,,,,,,,,,,,,,,,,,,,,,,
,explain_trial,,survey-text,109,277159,0.0-77.0-5.0-0.0,0,0,0TZUd,,7625,"{""Q0"":""It is more detailed""}",,,,,,11,40,61,,,,,,,,,,,"{""Q0"":""It is more detailed""}",,,,,,,,,,,,,,,,,,,,,,,,,,,,
,practice_deliberation_again,,html-keyboard-response,110,281515,0.0-77.0-6.0-0.0,0,0,0TZUd,,4353,,,78,,,,,,,,,,,,,,,,,,,,,,,,,,,,,,,,,,,,,,,,,,,,,
,fixation,,html-keyboard-response,111,282526,0.0-78.0-0.0,0,0,0TZUd,,null,,,null,,,,,,,,,,,,,,,,,,,,,,,,,,,,,,,,,,,,,,,,,,,,,
,deliberation,,html-keyboard-response,112,284045,0.0-78.0-1.0,0,0,0TZUd,,1517,,,75,,,,12,60,31,1,1,43,39,Kupc1n.jpg,Picac1.jpg,2,0,31,60,,,,,,,,,,,,,,,,,,,,,,,,,,,,,
,choice_confirmation,,html-keyboard-response,113,284561,0.0-78.0-2.0-0.0,0,0,0TZUd,,null,,,null,,,,12,60,31,,,,,,,,,,,,,,,,,,,,,,,,,,,,,,,,,,,,,,,
,explain_trial,,survey-text,114,289787,0.0-78.0-5.0-0.0,0,0,0TZUd,,5221,"{""Q0"":""It is prettier""}",,,,,,12,60,31,,,,,,,,,,,"{""Q0"":""It is prettier""}",,,,,,,,,,,,,,,,,,,,,,,,,,,,
,fixation,,html-keyboard-response,115,290793,0.0-79.0-0.0,0,0,0TZUd,,null,,,null,,,,,,,,,,,,,,,,,,,,,,,,,,,,,,,,,,,,,,,,,,,,,
,deliberation,,html-keyboard-response,116,291788,0.0-79.0-1.0,0,0,0TZUd,,991,,,75,,,,13,38,35,0,-1,34,35,Krasa1.jpg,Gusa1n.jpg,2,0,35,38,,,,,,,,,,,,,,,,,,,,,,,,,,,,,
,choice_confirmation,,html-keyboard-response,117,292294,0.0-79.0-2.0-0.0,0,0,0TZUd,,null,,,null,,,,13,38,35,,,,,,,,,,,,,,,,,,,,,,,,,,,,,,,,,,,,,,,
,fixation,,html-keyboard-response,118,293309,0.0-80.0-0.0,0,0,0TZUd,,null,,,null,,,,,,,,,,,,,,,,,,,,,,,,,,,,,,,,,,,,,,,,,,,,,
,deliberation,,html-keyboard-response,119,294767,0.0-80.0-1.0,0,0,0TZUd,,1454,,,68,,,,14,46,10,1,-1,54,39,Lewb1n.jpg,Vinb1n.jpg,2,1,46,10,,,,,,,,,,,,,,,,,,,,,,,,,,,,,
,choice_confirmation,,html-keyboard-response,120,295279,0.0-80.0-2.0-0.0,0,0,0TZUd,,null,,,null,,,,14,46,10,,,,,,,,,,,,,,,,,,,,,,,,,,,,,,,,,,,,,,,
,explain_trial,,survey-text,121,302773,0.0-80.0-5.0-0.0,0,0,0TZUd,,7489,"{""Q0"":""It has more of a story""}",,,,,,14,46,10,,,,,,,,,,,"{""Q0"":""It has more of a story""}",,,,,,,,,,,,,,,,,,,,,,,,,,,,
,fixation,,html-keyboard-response,122,303780,0.0-81.0-0.0,0,0,0TZUd,,null,,,null,,,,,,,,,,,,,,,,,,,,,,,,,,,,,,,,,,,,,,,,,,,,,
,deliberation,,html-keyboard-response,123,305203,0.0-81.0-1.0,0,0,0TZUd,,1418,,,75,,,,15,51,53,1,1,38,37,Lewic1.jpg,Macc1n.jpg,2,0,53,51,,,,,,,,,,,,,,,,,,,,,,,,,,,,,
,choice_confirmation,,html-keyboard-response,124,305716,0.0-81.0-2.0-0.0,0,0,0TZUd,,null,,,null,,,,15,51,53,,,,,,,,,,,,,,,,,,,,,,,,,,,,,,,,,,,,,,,
,explain_trial,,survey-text,125,310353,0.0-81.0-5.0-0.0,0,0,0TZUd,,4633,"{""Q0"":""more details""}",,,,,,15,51,53,,,,,,,,,,,"{""Q0"":""more details""}",,,,,,,,,,,,,,,,,,,,,,,,,,,,
,fixation,,html-keyboard-response,126,311362,0.0-82.0-0.0,0,0,0TZUd,,null,,,null,,,,,,,,,,,,,,,,,,,,,,,,,,,,,,,,,,,,,,,,,,,,,
,deliberation,,html-keyboard-response,127,312522,0.0-82.0-1.0,0,0,0TZUd,,1155,,,68,,,,16,36,52,0,-1,34,38,Gustb1.jpg,Dekoa1.jpg,2,1,36,52,,,,,,,,,,,,,,,,,,,,,,,,,,,,,
,choice_confirmation,,html-keyboard-response,128,313026,0.0-82.0-2.0-0.0,0,0,0TZUd,,null,,,null,,,,16,36,52,,,,,,,,,,,,,,,,,,,,,,,,,,,,,,,,,,,,,,,
,fixation,,html-keyboard-response,129,314041,0.0-83.0-0.0,0,0,0TZUd,,null,,,null,,,,,,,,,,,,,,,,,,,,,,,,,,,,,,,,,,,,,,,,,,,,,
,deliberation,,html-keyboard-response,130,314911,0.0-83.0-1.0,0,0,0TZUd,,865,,,68,,,,17,21,22,0,-1,58,38,Kupkc1.jpg,Klina1.jpg,2,1,21,22,,,,,,,,,,,,,,,,,,,,,,,,,,,,,
,choice_confirmation,,html-keyboard-response,131,315424,0.0-83.0-2.0-0.0,0,0,0TZUd,,null,,,null,,,,17,21,22,,,,,,,,,,,,,,,,,,,,,,,,,,,,,,,,,,,,,,,
,fixation,,html-keyboard-response,132,316441,0.0-84.0-0.0,0,0,0TZUd,,null,,,null,,,,,,,,,,,,,,,,,,,,,,,,,,,,,,,,,,,,,,,,,,,,,
,deliberation,,html-keyboard-response,133,317845,0.0-84.0-1.0,0,0,0TZUd,,1399,,,75,,,,18,30,39,0,-1,37,35,Kraa1n.jpg,Kupb1n.jpg,2,0,39,30,,,,,,,,,,,,,,,,,,,,,,,,,,,,,
,choice_confirmation,,html-keyboard-response,134,318358,0.0-84.0-2.0-0.0,0,0,0TZUd,,null,,,null,,,,18,30,39,,,,,,,,,,,,,,,,,,,,,,,,,,,,,,,,,,,,,,,
,fixation,,html-keyboard-response,135,319372,0.0-85.0-0.0,0,0,0TZUd,,null,,,null,,,,,,,,,,,,,,,,,,,,,,,,,,,,,,,,,,,,,,,,,,,,,
,deliberation,,html-keyboard-response,136,320226,0.0-85.0-1.0,0,0,0TZUd,,849,,,75,,,,19,40,61,0,1,36,56,Vinc1n.jpg,Grigb1.jpg,2,0,61,40,,,,,,,,,,,,,,,,,,,,,,,,,,,,,
,choice_confirmation,,html-keyboard-response,137,320740,0.0-85.0-2.0-0.0,0,0,0TZUd,,null,,,null,,,,19,40,61,,,,,,,,,,,,,,,,,,,,,,,,,,,,,,,,,,,,,,,
,fixation,,html-keyboard-response,138,321758,0.0-86.0-0.0,0,0,0TZUd,,null,,,null,,,,,,,,,,,,,,,,,,,,,,,,,,,,,,,,,,,,,,,,,,,,,
,deliberation,,html-keyboard-response,139,322916,0.0-86.0-1.0,0,0,0TZUd,,1154,,,68,,,,20,57,25,0,-1,36,40,Lassa1.jpg,Dekob1.jpg,2,1,57,25,,,,,,,,,,,,,,,,,,,,,,,,,,,,,
,choice_confirmation,,html-keyboard-response,140,323424,0.0-86.0-2.0-0.0,0,0,0TZUd,,null,,,null,,,,20,57,25,,,,,,,,,,,,,,,,,,,,,,,,,,,,,,,,,,,,,,,
,fixation,,html-keyboard-response,141,324439,0.0-87.0-0.0,0,0,0TZUd,,null,,,null,,,,,,,,,,,,,,,,,,,,,,,,,,,,,,,,,,,,,,,,,,,,,
,deliberation,,html-keyboard-response,142,325444,0.0-87.0-1.0,0,0,0TZUd,,1000,,,68,,,,21,59,58,1,1,42,40,Macka1.jpg,Klinc1.jpg,2,1,59,58,,,,,,,,,,,,,,,,,,,,,,,,,,,,,
,choice_confirmation,,html-keyboard-response,143,325957,0.0-87.0-2.0-0.0,0,0,0TZUd,,null,,,null,,,,21,59,58,,,,,,,,,,,,,,,,,,,,,,,,,,,,,,,,,,,,,,,
,explain_trial,,survey-text,144,335167,0.0-87.0-5.0-0.0,0,0,0TZUd,,9206,"{""Q0"":""it looks more professional\n""}",,,,,,21,59,58,,,,,,,,,,,"{""Q0"":""it looks more professional\n""}",,,,,,,,,,,,,,,,,,,,,,,,,,,,
,fixation,,html-keyboard-response,145,336171,0.0-88.0-0.0,0,0,0TZUd,,null,,,null,,,,,,,,,,,,,,,,,,,,,,,,,,,,,,,,,,,,,,,,,,,,,
,deliberation,,html-keyboard-response,146,337114,0.0-88.0-1.0,0,0,0TZUd,,938,,,75,,,,22,67,3,1,1,37,56,Picab1.jpg,Klib1n.jpg,2,0,3,67,,,,,,,,,,,,,,,,,,,,,,,,,,,,,
,choice_confirmation,,html-keyboard-response,147,337622,0.0-88.0-2.0-0.0,0,0,0TZUd,,null,,,null,,,,22,67,3,,,,,,,,,,,,,,,,,,,,,,,,,,,,,,,,,,,,,,,
,explain_trial,,survey-text,148,345519,0.0-88.0-5.0-0.0,0,0,0TZUd,,7894,"{""Q0"":""I prefer still lifes""}",,,,,,22,67,3,,,,,,,,,,,"{""Q0"":""I prefer still lifes""}",,,,,,,,,,,,,,,,,,,,,,,,,,,,
,fixation,,html-keyboard-response,149,346536,0.0-89.0-0.0,0,0,0TZUd,,null,,,null,,,,,,,,,,,,,,,,,,,,,,,,,,,,,,,,,,,,,,,,,,,,,
,deliberation,,html-keyboard-response,150,348032,0.0-89.0-1.0,0,0,0TZUd,,1491,,,75,,,,23,44,56,1,1,35,54,Mackb1.jpg,Clib1n.jpg,2,0,56,44,,,,,,,,,,,,,,,,,,,,,,,,,,,,,
,choice_confirmation,,html-keyboard-response,151,348537,0.0-89.0-2.0-0.0,0,0,0TZUd,,null,,,null,,,,23,44,56,,,,,,,,,,,,,,,,,,,,,,,,,,,,,,,,,,,,,,,
,explain_trial,,survey-text,152,353237,0.0-89.0-5.0-0.0,0,0,0TZUd,,4697,"{""Q0"":""details""}",,,,,,23,44,56,,,,,,,,,,,"{""Q0"":""details""}",,,,,,,,,,,,,,,,,,,,,,,,,,,,
,start_critical_deliberation_block,,html-keyboard-response,153,355093,0.0-89.0-7.0-0.0,0,0,0TZUd,,1853,,,78,,,,,,,,,,,,,,,,,,,,,,,,,,,,,,,,,,,,,,,,,,,,,
,fixation,,html-keyboard-response,154,356100,0.0-90.0-0.0,0,0,0TZUd,,null,,,null,,,,,,,,,,,,,,,,,,,,,,,,,,,,,,,,,,,,,,,,,,,,,
,deliberation,,html-keyboard-response,155,359171,0.0-90.0-1.0,0,0,0TZUd,,3066,,,75,,,,24,67,3,0,1,37,56,Picab1.jpg,Klib1n.jpg,3,0,3,67,,,,,,,,,,,,,,,,,,,,,,,,,,,,,
,choice_confirmation,,html-keyboard-response,156,359687,0.0-90.0-2.0-0.0,0,0,0TZUd,,null,,,null,,,,24,67,3,,,,,,,,,,,,,,,,,,,,,,,,,,,,,,,,,,,,,,,
,fixation,,html-keyboard-response,157,360700,0.0-91.0-0.0,0,0,0TZUd,,null,,,null,,,,,,,,,,,,,,,,,,,,,,,,,,,,,,,,,,,,,,,,,,,,,
,deliberation,,html-keyboard-response,158,361831,0.0-91.0-1.0,0,0,0TZUd,,1127,,,75,,,,25,44,56,0,1,35,54,Mackb1.jpg,Clib1n.jpg,3,0,56,44,,,,,,,,,,,,,,,,,,,,,,,,,,,,,
,choice_confirmation,,html-keyboard-response,159,362347,0.0-91.0-2.0-0.0,0,0,0TZUd,,null,,,null,,,,25,44,56,,,,,,,,,,,,,,,,,,,,,,,,,,,,,,,,,,,,,,,
,fixation,,html-keyboard-response,160,363368,0.0-92.0-0.0,0,0,0TZUd,,null,,,null,,,,,,,,,,,,,,,,,,,,,,,,,,,,,,,,,,,,,,,,,,,,,
,deliberation,,html-keyboard-response,161,364398,0.0-92.0-1.0,0,0,0TZUd,,1027,,,68,,,,26,57,25,0,-1,36,40,Lassa1.jpg,Dekob1.jpg,3,1,57,25,,,,,,,,,,,,,,,,,,,,,,,,,,,,,
,choice_confirmation,,html-keyboard-response,162,364916,0.0-92.0-2.0-0.0,0,0,0TZUd,,null,,,null,,,,26,57,25,,,,,,,,,,,,,,,,,,,,,,,,,,,,,,,,,,,,,,,
,fixation,,html-keyboard-response,163,365934,0.0-93.0-0.0,0,0,0TZUd,,null,,,null,,,,,,,,,,,,,,,,,,,,,,,,,,,,,,,,,,,,,,,,,,,,,
,deliberation,,html-keyboard-response,164,366746,0.0-93.0-1.0,0,0,0TZUd,,808,,,68,,,,27,46,10,0,-1,54,39,Lewb1n.jpg,Vinb1n.jpg,3,1,46,10,,,,,,,,,,,,,,,,,,,,,,,,,,,,,
,choice_confirmation,,html-keyboard-response,165,367265,0.0-93.0-2.0-0.0,0,0,0TZUd,,null,,,null,,,,27,46,10,,,,,,,,,,,,,,,,,,,,,,,,,,,,,,,,,,,,,,,
,fixation,,html-keyboard-response,166,368282,0.0-94.0-0.0,0,0,0TZUd,,null,,,null,,,,,,,,,,,,,,,,,,,,,,,,,,,,,,,,,,,,,,,,,,,,,
,deliberation,,html-keyboard-response,167,369129,0.0-94.0-1.0,0,0,0TZUd,,842,,,68,,,,28,59,58,0,1,42,40,Macka1.jpg,Klinc1.jpg,3,1,59,58,,,,,,,,,,,,,,,,,,,,,,,,,,,,,
,choice_confirmation,,html-keyboard-response,168,369649,0.0-94.0-2.0-0.0,0,0,0TZUd,,null,,,null,,,,28,59,58,,,,,,,,,,,,,,,,,,,,,,,,,,,,,,,,,,,,,,,
,fixation,,html-keyboard-response,169,370666,0.0-95.0-0.0,0,0,0TZUd,,null,,,null,,,,,,,,,,,,,,,,,,,,,,,,,,,,,,,,,,,,,,,,,,,,,
,deliberation,,html-keyboard-response,170,372328,0.0-95.0-1.0,0,0,0TZUd,,1658,,,68,,,,29,21,22,0,-1,58,38,Kupkc1.jpg,Klina1.jpg,3,1,21,22,,,,,,,,,,,,,,,,,,,,,,,,,,,,,
,choice_confirmation,,html-keyboard-response,171,372837,0.0-95.0-2.0-0.0,0,0,0TZUd,,null,,,null,,,,29,21,22,,,,,,,,,,,,,,,,,,,,,,,,,,,,,,,,,,,,,,,
,fixation,,html-keyboard-response,172,373850,0.0-96.0-0.0,0,0,0TZUd,,null,,,null,,,,,,,,,,,,,,,,,,,,,,,,,,,,,,,,,,,,,,,,,,,,,
,deliberation,,html-keyboard-response,173,374901,0.0-96.0-1.0,0,0,0TZUd,,1047,,,75,,,,30,38,35,0,-1,34,35,Krasa1.jpg,Gusa1n.jpg,3,0,35,38,,,,,,,,,,,,,,,,,,,,,,,,,,,,,
,choice_confirmation,,html-keyboard-response,174,375414,0.0-96.0-2.0-0.0,0,0,0TZUd,,null,,,null,,,,30,38,35,,,,,,,,,,,,,,,,,,,,,,,,,,,,,,,,,,,,,,,
,fixation,,html-keyboard-response,175,376417,0.0-97.0-0.0,0,0,0TZUd,,null,,,null,,,,,,,,,,,,,,,,,,,,,,,,,,,,,,,,,,,,,,,,,,,,,
,deliberation,,html-keyboard-response,176,377122,0.0-97.0-1.0,0,0,0TZUd,,699,,,75,,,,31,40,61,0,1,36,56,Vinc1n.jpg,Grigb1.jpg,3,0,61,40,,,,,,,,,,,,,,,,,,,,,,,,,,,,,
,choice_confirmation,,html-keyboard-response,177,377632,0.0-97.0-2.0-0.0,0,0,0TZUd,,null,,,null,,,,31,40,61,,,,,,,,,,,,,,,,,,,,,,,,,,,,,,,,,,,,,,,
,fixation,,html-keyboard-response,178,378646,0.0-98.0-0.0,0,0,0TZUd,,null,,,null,,,,,,,,,,,,,,,,,,,,,,,,,,,,,,,,,,,,,,,,,,,,,
,deliberation,,html-keyboard-response,179,379525,0.0-98.0-1.0,0,0,0TZUd,,875,,,75,,,,32,51,53,0,1,38,37,Lewic1.jpg,Macc1n.jpg,3,0,53,51,,,,,,,,,,,,,,,,,,,,,,,,,,,,,
,choice_confirmation,,html-keyboard-response,180,380031,0.0-98.0-2.0-0.0,0,0,0TZUd,,null,,,null,,,,32,51,53,,,,,,,,,,,,,,,,,,,,,,,,,,,,,,,,,,,,,,,
,fixation,,html-keyboard-response,181,381047,0.0-99.0-0.0,0,0,0TZUd,,null,,,null,,,,,,,,,,,,,,,,,,,,,,,,,,,,,,,,,,,,,,,,,,,,,
,deliberation,,html-keyboard-response,182,382142,0.0-99.0-1.0,0,0,0TZUd,,1091,,,75,,,,33,60,31,0,1,43,39,Kupc1n.jpg,Picac1.jpg,3,0,31,60,,,,,,,,,,,,,,,,,,,,,,,,,,,,,
,choice_confirmation,,html-keyboard-response,183,382647,0.0-99.0-2.0-0.0,0,0,0TZUd,,null,,,null,,,,33,60,31,,,,,,,,,,,,,,,,,,,,,,,,,,,,,,,,,,,,,,,
,fixation,,html-keyboard-response,184,383663,0.0-100.0-0.0,0,0,0TZUd,,null,,,null,,,,,,,,,,,,,,,,,,,,,,,,,,,,,,,,,,,,,,,,,,,,,
,deliberation,,html-keyboard-response,185,384387,0.0-100.0-1.0,0,0,0TZUd,,720,,,68,,,,34,36,52,0,-1,34,38,Gustb1.jpg,Dekoa1.jpg,3,1,36,52,,,,,,,,,,,,,,,,,,,,,,,,,,,,,
,choice_confirmation,,html-keyboard-response,186,384896,0.0-100.0-2.0-0.0,0,0,0TZUd,,null,,,null,,,,34,36,52,,,,,,,,,,,,,,,,,,,,,,,,,,,,,,,,,,,,,,,
,fixation,,html-keyboard-response,187,385912,0.0-101.0-0.0,0,0,0TZUd,,null,,,null,,,,,,,,,,,,,,,,,,,,,,,,,,,,,,,,,,,,,,,,,,,,,
,deliberation,,html-keyboard-response,188,386669,0.0-101.0-1.0,0,0,0TZUd,,752,,,75,,,,35,30,39,0,-1,37,35,Kraa1n.jpg,Kupb1n.jpg,3,0,39,30,,,,,,,,,,,,,,,,,,,,,,,,,,,,,
,choice_confirmation,,html-keyboard-response,189,387213,0.0-101.0-2.0-0.0,0,0,0TZUd,,null,,,null,,,,35,30,39,,,,,,,,,,,,,,,,,,,,,,,,,,,,,,,,,,,,,,,
,reward_learning_instructions,,instructions,190,412275,0.0-102.0-0.0,0,0,0TZUd,"[{""page_index"":0,""viewing_time"":6154},{""page_index"":1,""viewing_time"":17944},{""page_index"":2,""viewing_time"":962}]",25060,,,,,,,,,,,,,,,,,,,,,,,,,,,,,,,,,,,,,,,,,,,,,,,,
,reward_comprehension_check,,survey-multi-choice,191,427369,0.0-102.0-1.0,0,0,0TZUd,,15090,"{""Q0"":""True"",""Q1"":""True"",""Q2"":""Press the space bar to see its outcome"",""Q3"":""Press the relevant key while the outcome is presented""}",0,,,,,,,,,,,,,,,,,,,,,,,,,,,,,,,,,,,,,,,,,,,,,,
,start_phase,,html-keyboard-response,192,429391,0.0-103.0,0,0,0TZUd,,2019,,,78,,,,,,,,,,,,,,,,,,,,,,,,,,,,,,,,,,,,,,,,,,,,,
,fixation,,html-keyboard-response,193,430401,0.0-104.0,0,0,0TZUd,,null,,,null,,,,,,,,,,,,,,,,,,,,,,,,,,,,,,,,,,,,,,,,,,,,,
,see_reward,,html-keyboard-response,194,431282,0.0-105.0,0,0,0TZUd,,876,,,32,,31,,0,,,,1,,,,,1,,,,,156,876,,,,,,,,,,,,,,,,,,,,,,,,,,
,reward_outcome,,html-keyboard-response,195,433287,0.0-106.0,0,0,0TZUd,,1704,,,40,,31,,0,,,,,,,,,,,,,,,,-1,1704,,,,,,,,,,,,,,,,,,,,,,,,
,fixation,,html-keyboard-response,196,434301,0.0-109.0,0,0,0TZUd,,null,,,null,,,,,,,,,,,,,,,,,,,,,,,,,,,,,,,,,,,,,,,,,,,,,
,see_reward,,html-keyboard-response,197,436568,0.0-110.0,0,0,0TZUd,,2264,,,32,,56,,1,,,,1,,,,,1,,,,,156,2264,,,,,,,,,,,,,,,,,,,,,,,,,,
,reward_outcome,,html-keyboard-response,198,438572,0.0-111.0,0,0,0TZUd,,939,,,38,,56,,1,,,,,,,,,,,,,,,,1,939,,,,,,,,,,,,,,,,,,,,,,,,
,fixation,,html-keyboard-response,199,439584,0.0-114.0,0,0,0TZUd,,null,,,null,,,,,,,,,,,,,,,,,,,,,,,,,,,,,,,,,,,,,,,,,,,,,
,see_reward,,html-keyboard-response,200,440910,0.0-115.0,0,0,0TZUd,,1322,,,32,,39,,2,,,,-1,,,,,1,,,,,0,1322,,,,,,,,,,,,,,,,,,,,,,,,,,
,reward_outcome,,html-keyboard-response,201,442916,0.0-116.0,0,0,0TZUd,,1073,,,40,,39,,2,,,,,,,,,,,,,,,,-1,1073,,,,,,,,,,,,,,,,,,,,,,,,
,fixation,,html-keyboard-response,202,443931,0.0-119.0,0,0,0TZUd,,null,,,null,,,,,,,,,,,,,,,,,,,,,,,,,,,,,,,,,,,,,,,,,,,,,
,see_reward,,html-keyboard-response,203,444759,0.0-120.0,0,0,0TZUd,,824,,,32,,57,,3,,,,-1,,,,,1,,,,,0,824,,,,,,,,,,,,,,,,,,,,,,,,,,
,reward_outcome,,html-keyboard-response,204,446765,0.0-121.0,0,0,0TZUd,,1128,,,40,,57,,3,,,,,,,,,,,,,,,,-1,1128,,,,,,,,,,,,,,,,,,,,,,,,
,fixation,,html-keyboard-response,205,447780,0.0-124.0,0,0,0TZUd,,null,,,null,,,,,,,,,,,,,,,,,,,,,,,,,,,,,,,,,,,,,,,,,,,,,
,see_reward,,html-keyboard-response,206,449117,0.0-125.0,0,0,0TZUd,,1334,,,32,,21,,4,,,,-1,,,,,1,,,,,0,1334,,,,,,,,,,,,,,,,,,,,,,,,,,
,reward_outcome,,html-keyboard-response,207,451131,0.0-126.0,0,0,0TZUd,,783,,,40,,21,,4,,,,,,,,,,,,,,,,-1,783,,,,,,,,,,,,,,,,,,,,,,,,
,fixation,,html-keyboard-response,208,452146,0.0-129.0,0,0,0TZUd,,null,,,null,,,,,,,,,,,,,,,,,,,,,,,,,,,,,,,,,,,,,,,,,,,,,
,see_reward,,html-keyboard-response,209,453067,0.0-130.0,0,0,0TZUd,,919,,,32,,61,,5,,,,1,,,,,1,,,,,149,919,,,,,,,,,,,,,,,,,,,,,,,,,,
,reward_outcome,,html-keyboard-response,210,455080,0.0-131.0,0,0,0TZUd,,1673,,,38,,61,,5,,,,,,,,,,,,,,,,1,1673,,,,,,,,,,,,,,,,,,,,,,,,
,fixation,,html-keyboard-response,211,456095,0.0-134.0,0,0,0TZUd,,null,,,null,,,,,,,,,,,,,,,,,,,,,,,,,,,,,,,,,,,,,,,,,,,,,
,see_reward,,html-keyboard-response,212,456963,0.0-135.0,0,0,0TZUd,,865,,,32,,57,,6,,,,-1,,,,,1,,,,,0,865,,,,,,,,,,,,,,,,,,,,,,,,,,
,reward_outcome,,html-keyboard-response,213,458979,0.0-136.0,0,0,0TZUd,,797,,,40,,57,,6,,,,,,,,,,,,,,,,-1,797,,,,,,,,,,,,,,,,,,,,,,,,
,fixation,,html-keyboard-response,214,459994,0.0-139.0,0,0,0TZUd,,null,,,null,,,,,,,,,,,,,,,,,,,,,,,,,,,,,,,,,,,,,,,,,,,,,
,see_reward,,html-keyboard-response,215,460703,0.0-140.0,0,0,0TZUd,,707,,,32,,46,,7,,,,-1,,,,,1,,,,,0,707,,,,,,,,,,,,,,,,,,,,,,,,,,
,reward_outcome,,html-keyboard-response,216,462713,0.0-141.0,0,0,0TZUd,,985,,,40,,46,,7,,,,,,,,,,,,,,,,-1,985,,,,,,,,,,,,,,,,,,,,,,,,
,fixation,,html-keyboard-response,217,463726,0.0-144.0,0,0,0TZUd,,null,,,null,,,,,,,,,,,,,,,,,,,,,,,,,,,,,,,,,,,,,,,,,,,,,
,see_reward,,html-keyboard-response,218,465086,0.0-145.0,0,0,0TZUd,,1357,,,32,,36,,8,,,,-1,,,,,1,,,,,0,1357,,,,,,,,,,,,,,,,,,,,,,,,,,
,reward_outcome,,html-keyboard-response,219,467097,0.0-146.0,0,0,0TZUd,,893,,,40,,36,,8,,,,,,,,,,,,,,,,-1,893,,,,,,,,,,,,,,,,,,,,,,,,
,fixation,,html-keyboard-response,220,468109,0.0-149.0,0,0,0TZUd,,null,,,null,,,,,,,,,,,,,,,,,,,,,,,,,,,,,,,,,,,,,,,,,,,,,
,see_reward,,html-keyboard-response,221,468889,0.0-150.0,0,0,0TZUd,,776,,,32,,35,,9,,,,-1,,,,,1,,,,,0,776,,,,,,,,,,,,,,,,,,,,,,,,,,
,reward_outcome,,html-keyboard-response,222,470893,0.0-151.0,0,0,0TZUd,,811,,,40,,35,,9,,,,,,,,,,,,,,,,-1,811,,,,,,,,,,,,,,,,,,,,,,,,
,fixation,,html-keyboard-response,223,471909,0.0-154.0,0,0,0TZUd,,null,,,null,,,,,,,,,,,,,,,,,,,,,,,,,,,,,,,,,,,,,,,,,,,,,
,see_reward,,html-keyboard-response,224,472570,0.0-155.0,0,0,0TZUd,,658,,,32,,53,,10,,,,1,,,,,1,,,,,142,658,,,,,,,,,,,,,,,,,,,,,,,,,,
,reward_outcome,,html-keyboard-response,225,474576,0.0-156.0,0,0,0TZUd,,884,,,38,,53,,10,,,,,,,,,,,,,,,,1,884,,,,,,,,,,,,,,,,,,,,,,,,
,fixation,,html-keyboard-response,226,475590,0.0-159.0,0,0,0TZUd,,null,,,null,,,,,,,,,,,,,,,,,,,,,,,,,,,,,,,,,,,,,,,,,,,,,
,see_reward,,html-keyboard-response,227,476286,0.0-160.0,0,0,0TZUd,,693,,,32,,39,,11,,,,-1,,,,,1,,,,,0,693,,,,,,,,,,,,,,,,,,,,,,,,,,
,reward_outcome,,html-keyboard-response,228,478292,0.0-161.0,0,0,0TZUd,,869,,,40,,39,,11,,,,,,,,,,,,,,,,-1,869,,,,,,,,,,,,,,,,,,,,,,,,
,fixation,,html-keyboard-response,229,479306,0.0-164.0,0,0,0TZUd,,null,,,null,,,,,,,,,,,,,,,,,,,,,,,,,,,,,,,,,,,,,,,,,,,,,
,see_reward,,html-keyboard-response,230,480139,0.0-165.0,0,0,0TZUd,,828,,,32,,53,,12,,,,1,,,,,1,,,,,142,828,,,,,,,,,,,,,,,,,,,,,,,,,,
,reward_outcome,,html-keyboard-response,231,482157,0.0-166.0,0,0,0TZUd,,697,,,38,,53,,12,,,,,,,,,,,,,,,,1,697,,,,,,,,,,,,,,,,,,,,,,,,
,fixation,,html-keyboard-response,232,483173,0.0-169.0,0,0,0TZUd,,null,,,null,,,,,,,,,,,,,,,,,,,,,,,,,,,,,,,,,,,,,,,,,,,,,
,see_reward,,html-keyboard-response,233,483952,0.0-170.0,0,0,0TZUd,,776,,,32,,59,,13,,,,1,,,,,1,,,,,155,776,,,,,,,,,,,,,,,,,,,,,,,,,,
,reward_outcome,,html-keyboard-response,234,485957,0.0-171.0,0,0,0TZUd,,768,,,38,,59,,13,,,,,,,,,,,,,,,,1,768,,,,,,,,,,,,,,,,,,,,,,,,
,fixation,,html-keyboard-response,235,486971,0.0-174.0,0,0,0TZUd,,null,,,null,,,,,,,,,,,,,,,,,,,,,,,,,,,,,,,,,,,,,,,,,,,,,
,see_reward,,html-keyboard-response,236,487787,0.0-175.0,0,0,0TZUd,,812,,,32,,35,,14,,,,-1,,,,,1,,,,,0,812,,,,,,,,,,,,,,,,,,,,,,,,,,
,reward_outcome,,html-keyboard-response,237,489795,0.0-176.0,0,0,0TZUd,,636,,,40,,35,,14,,,,,,,,,,,,,,,,-1,636,,,,,,,,,,,,,,,,,,,,,,,,
,fixation,,html-keyboard-response,238,490809,0.0-179.0,0,0,0TZUd,,null,,,null,,,,,,,,,,,,,,,,,,,,,,,,,,,,,,,,,,,,,,,,,,,,,
,see_reward,,html-keyboard-response,239,491535,0.0-180.0,0,0,0TZUd,,722,,,32,,56,,15,,,,1,,,,,1,,,,,156,722,,,,,,,,,,,,,,,,,,,,,,,,,,
,reward_outcome,,html-keyboard-response,240,493543,0.0-181.0,0,0,0TZUd,,762,,,38,,56,,15,,,,,,,,,,,,,,,,1,762,,,,,,,,,,,,,,,,,,,,,,,,
,fixation,,html-keyboard-response,241,494558,0.0-184.0,0,0,0TZUd,,null,,,null,,,,,,,,,,,,,,,,,,,,,,,,,,,,,,,,,,,,,,,,,,,,,
,see_reward,,html-keyboard-response,242,495174,0.0-185.0,0,0,0TZUd,,613,,,32,,36,,16,,,,-1,,,,,1,,,,,0,613,,,,,,,,,,,,,,,,,,,,,,,,,,
,reward_outcome,,html-keyboard-response,243,497192,0.0-186.0,0,0,0TZUd,,593,,,40,,36,,16,,,,,,,,,,,,,,,,-1,593,,,,,,,,,,,,,,,,,,,,,,,,
,fixation,,html-keyboard-response,244,498208,0.0-189.0,0,0,0TZUd,,null,,,null,,,,,,,,,,,,,,,,,,,,,,,,,,,,,,,,,,,,,,,,,,,,,
,see_reward,,html-keyboard-response,245,498854,0.0-190.0,0,0,0TZUd,,644,,,32,,59,,17,,,,1,,,,,1,,,,,155,644,,,,,,,,,,,,,,,,,,,,,,,,,,
,reward_outcome,,html-keyboard-response,246,500859,0.0-191.0,0,0,0TZUd,,621,,,38,,59,,17,,,,,,,,,,,,,,,,1,621,,,,,,,,,,,,,,,,,,,,,,,,
,fixation,,html-keyboard-response,247,501874,0.0-194.0,0,0,0TZUd,,null,,,null,,,,,,,,,,,,,,,,,,,,,,,,,,,,,,,,,,,,,,,,,,,,,
,see_reward,,html-keyboard-response,248,502766,0.0-195.0,0,0,0TZUd,,888,,,32,,31,,18,,,,1,,,,,1,,,,,156,888,,,,,,,,,,,,,,,,,,,,,,,,,,
,reward_outcome,,html-keyboard-response,249,504773,0.0-196.0,0,0,0TZUd,,708,,,38,,31,,18,,,,,,,,,,,,,,,,1,708,,,,,,,,,,,,,,,,,,,,,,,,
,fixation,,html-keyboard-response,250,505790,0.0-199.0,0,0,0TZUd,,null,,,null,,,,,,,,,,,,,,,,,,,,,,,,,,,,,,,,,,,,,,,,,,,,,
,see_reward,,html-keyboard-response,251,506455,0.0-200.0,0,0,0TZUd,,660,,,32,,61,,19,,,,1,,,,,1,,,,,149,660,,,,,,,,,,,,,,,,,,,,,,,,,,
,reward_outcome,,html-keyboard-response,252,508473,0.0-201.0,0,0,0TZUd,,756,,,38,,61,,19,,,,,,,,,,,,,,,,1,756,,,,,,,,,,,,,,,,,,,,,,,,
,fixation,,html-keyboard-response,253,509490,0.0-204.0,0,0,0TZUd,,null,,,null,,,,,,,,,,,,,,,,,,,,,,,,,,,,,,,,,,,,,,,,,,,,,
,see_reward,,html-keyboard-response,254,510167,0.0-205.0,0,0,0TZUd,,671,,,32,,3,,20,,,,1,,,,,1,,,,,150,671,,,,,,,,,,,,,,,,,,,,,,,,,,
,reward_outcome,,html-keyboard-response,255,512175,0.0-206.0,0,0,0TZUd,,862,,,38,,3,,20,,,,,,,,,,,,,,,,1,862,,,,,,,,,,,,,,,,,,,,,,,,
,fixation,,html-keyboard-response,256,513187,0.0-209.0,0,0,0TZUd,,null,,,null,,,,,,,,,,,,,,,,,,,,,,,,,,,,,,,,,,,,,,,,,,,,,
,see_reward,,html-keyboard-response,257,513757,0.0-210.0,0,0,0TZUd,,565,,,32,,3,,21,,,,1,,,,,1,,,,,150,565,,,,,,,,,,,,,,,,,,,,,,,,,,
,reward_outcome,,html-keyboard-response,258,515774,0.0-211.0,0,0,0TZUd,,640,,,38,,3,,21,,,,,,,,,,,,,,,,1,640,,,,,,,,,,,,,,,,,,,,,,,,
,fixation,,html-keyboard-response,259,516788,0.0-214.0,0,0,0TZUd,,null,,,null,,,,,,,,,,,,,,,,,,,,,,,,,,,,,,,,,,,,,,,,,,,,,
,see_reward,,html-keyboard-response,260,517576,0.0-215.0,0,0,0TZUd,,784,,,32,,21,,22,,,,-1,,,,,1,,,,,0,784,,,,,,,,,,,,,,,,,,,,,,,,,,
,reward_outcome,,html-keyboard-response,261,519588,0.0-216.0,0,0,0TZUd,,643,,,40,,21,,22,,,,,,,,,,,,,,,,-1,643,,,,,,,,,,,,,,,,,,,,,,,,
,fixation,,html-keyboard-response,262,520604,0.0-219.0,0,0,0TZUd,,null,,,null,,,,,,,,,,,,,,,,,,,,,,,,,,,,,,,,,,,,,,,,,,,,,
,see_reward,,html-keyboard-response,263,521314,0.0-220.0,0,0,0TZUd,,706,,,32,,46,,23,,,,-1,,,,,1,,,,,0,706,,,,,,,,,,,,,,,,,,,,,,,,,,
,reward_outcome,,html-keyboard-response,264,523319,0.0-221.0,0,0,0TZUd,,619,,,40,,46,,23,,,,,,,,,,,,,,,,-1,619,,,,,,,,,,,,,,,,,,,,,,,,
,block_over,,html-keyboard-response,265,526137,0.0-223.0-0.0,0,0,0TZUd,,2815,,,78,,,,,,,,,,,,,,,,,,,,,,,,,,,,,,,,,,,,,,,,,,,,,
,fixation,,html-keyboard-response,266,527155,0.0-224.0,0,0,0TZUd,,null,,,null,,,,,,,,,,,,,,,,,,,,,,,,,,,,,,,,,,,,,,,,,,,,,
,see_reward,,html-keyboard-response,267,528300,0.0-225.0,0,0,0TZUd,,1141,,,32,,61,,24,,,,1,,,,,2,,,,,149,1141,,,,,,,,,,,,,,,,,,,,,,,,,,
,reward_outcome,,html-keyboard-response,268,530319,0.0-226.0,0,0,0TZUd,,736,,,38,,61,,24,,,,,,,,,,,,,,,,1,736,,,,,,,,,,,,,,,,,,,,,,,,
,fixation,,html-keyboard-response,269,531335,0.0-229.0,0,0,0TZUd,,null,,,null,,,,,,,,,,,,,,,,,,,,,,,,,,,,,,,,,,,,,,,,,,,,,
,see_reward,,html-keyboard-response,270,532009,0.0-230.0,0,0,0TZUd,,670,,,32,,21,,25,,,,-1,,,,,2,,,,,0,670,,,,,,,,,,,,,,,,,,,,,,,,,,
,reward_outcome,,html-keyboard-response,271,534018,0.0-231.0,0,0,0TZUd,,510,,,40,,21,,25,,,,,,,,,,,,,,,,-1,510,,,,,,,,,,,,,,,,,,,,,,,,
,fixation,,html-keyboard-response,272,535034,0.0-234.0,0,0,0TZUd,,null,,,null,,,,,,,,,,,,,,,,,,,,,,,,,,,,,,,,,,,,,,,,,,,,,
,see_reward,,html-keyboard-response,273,535533,0.0-235.0,0,0,0TZUd,,495,,,32,,46,,26,,,,-1,,,,,2,,,,,0,495,,,,,,,,,,,,,,,,,,,,,,,,,,
,reward_outcome,,html-keyboard-response,274,537550,0.0-236.0,0,0,0TZUd,,491,,,40,,46,,26,,,,,,,,,,,,,,,,-1,491,,,,,,,,,,,,,,,,,,,,,,,,
,fixation,,html-keyboard-response,275,538566,0.0-239.0,0,0,0TZUd,,null,,,null,,,,,,,,,,,,,,,,,,,,,,,,,,,,,,,,,,,,,,,,,,,,,
,see_reward,,html-keyboard-response,276,539284,0.0-240.0,0,0,0TZUd,,715,,,32,,53,,27,,,,1,,,,,2,,,,,142,715,,,,,,,,,,,,,,,,,,,,,,,,,,
,reward_outcome,,html-keyboard-response,277,541290,0.0-241.0,0,0,0TZUd,,526,,,38,,53,,27,,,,,,,,,,,,,,,,1,526,,,,,,,,,,,,,,,,,,,,,,,,
,fixation,,html-keyboard-response,278,542300,0.0-244.0,0,0,0TZUd,,null,,,null,,,,,,,,,,,,,,,,,,,,,,,,,,,,,,,,,,,,,,,,,,,,,
,see_reward,,html-keyboard-response,279,543217,0.0-245.0,0,0,0TZUd,,913,,,32,,36,,28,,,,-1,,,,,2,,,,,0,913,,,,,,,,,,,,,,,,,,,,,,,,,,
,reward_outcome,,html-keyboard-response,280,545233,0.0-246.0,0,0,0TZUd,,524,,,40,,36,,28,,,,,,,,,,,,,,,,-1,524,,,,,,,,,,,,,,,,,,,,,,,,
,fixation,,html-keyboard-response,281,546248,0.0-249.0,0,0,0TZUd,,null,,,null,,,,,,,,,,,,,,,,,,,,,,,,,,,,,,,,,,,,,,,,,,,,,
,see_reward,,html-keyboard-response,282,547014,0.0-250.0,0,0,0TZUd,,760,,,32,,31,,29,,,,1,,,,,2,,,,,156,760,,,,,,,,,,,,,,,,,,,,,,,,,,
,reward_outcome,,html-keyboard-response,283,549042,0.0-251.0,0,0,0TZUd,,500,,,38,,31,,29,,,,,,,,,,,,,,,,1,500,,,,,,,,,,,,,,,,,,,,,,,,
,fixation,,html-keyboard-response,284,550060,0.0-254.0,0,0,0TZUd,,null,,,null,,,,,,,,,,,,,,,,,,,,,,,,,,,,,,,,,,,,,,,,,,,,,
,see_reward,,html-keyboard-response,285,550762,0.0-255.0,0,0,0TZUd,,698,,,32,,36,,30,,,,-1,,,,,2,,,,,0,698,,,,,,,,,,,,,,,,,,,,,,,,,,
,reward_outcome,,html-keyboard-response,286,552775,0.0-256.0,0,0,0TZUd,,567,,,40,,36,,30,,,,,,,,,,,,,,,,-1,567,,,,,,,,,,,,,,,,,,,,,,,,
,fixation,,html-keyboard-response,287,553793,0.0-259.0,0,0,0TZUd,,null,,,null,,,,,,,,,,,,,,,,,,,,,,,,,,,,,,,,,,,,,,,,,,,,,
,see_reward,,html-keyboard-response,288,554783,0.0-260.0,0,0,0TZUd,,986,,,32,,35,,31,,,,-1,,,,,2,,,,,0,986,,,,,,,,,,,,,,,,,,,,,,,,,,
,reward_outcome,,html-keyboard-response,289,556791,0.0-261.0,0,0,0TZUd,,612,,,40,,35,,31,,,,,,,,,,,,,,,,-1,612,,,,,,,,,,,,,,,,,,,,,,,,
,fixation,,html-keyboard-response,290,557794,0.0-264.0,0,0,0TZUd,,null,,,null,,,,,,,,,,,,,,,,,,,,,,,,,,,,,,,,,,,,,,,,,,,,,
,see_reward,,html-keyboard-response,291,558583,0.0-265.0,0,0,0TZUd,,785,,,32,,59,,32,,,,1,,,,,2,,,,,155,785,,,,,,,,,,,,,,,,,,,,,,,,,,
,reward_outcome,,html-keyboard-response,292,560590,0.0-266.0,0,0,0TZUd,,500,,,38,,59,,32,,,,,,,,,,,,,,,,1,500,,,,,,,,,,,,,,,,,,,,,,,,
,fixation,,html-keyboard-response,293,561606,0.0-269.0,0,0,0TZUd,,null,,,null,,,,,,,,,,,,,,,,,,,,,,,,,,,,,,,,,,,,,,,,,,,,,
,see_reward,,html-keyboard-response,294,562177,0.0-270.0,0,0,0TZUd,,568,,,32,,57,,33,,,,-1,,,,,2,,,,,0,568,,,,,,,,,,,,,,,,,,,,,,,,,,
,reward_outcome,,html-keyboard-response,295,564190,0.0-271.0,0,0,0TZUd,,576,,,40,,57,,33,,,,,,,,,,,,,,,,-1,576,,,,,,,,,,,,,,,,,,,,,,,,
,fixation,,html-keyboard-response,296,565207,0.0-274.0,0,0,0TZUd,,null,,,null,,,,,,,,,,,,,,,,,,,,,,,,,,,,,,,,,,,,,,,,,,,,,
,see_reward,,html-keyboard-response,297,565691,0.0-275.0,0,0,0TZUd,,481,,,32,,39,,34,,,,-1,,,,,2,,,,,0,481,,,,,,,,,,,,,,,,,,,,,,,,,,
,reward_outcome,,html-keyboard-response,298,567703,0.0-276.0,0,0,0TZUd,,665,,,40,,39,,34,,,,,,,,,,,,,,,,-1,665,,,,,,,,,,,,,,,,,,,,,,,,
,fixation,,html-keyboard-response,299,568707,0.0-279.0,0,0,0TZUd,,null,,,null,,,,,,,,,,,,,,,,,,,,,,,,,,,,,,,,,,,,,,,,,,,,,
,see_reward,,html-keyboard-response,300,569289,0.0-280.0,0,0,0TZUd,,578,,,32,,59,,35,,,,1,,,,,2,,,,,155,578,,,,,,,,,,,,,,,,,,,,,,,,,,
,reward_outcome,,html-keyboard-response,301,571304,0.0-281.0,0,0,0TZUd,,520,,,38,,59,,35,,,,,,,,,,,,,,,,1,520,,,,,,,,,,,,,,,,,,,,,,,,
,fixation,,html-keyboard-response,302,572320,0.0-284.0,0,0,0TZUd,,null,,,null,,,,,,,,,,,,,,,,,,,,,,,,,,,,,,,,,,,,,,,,,,,,,
,see_reward,,html-keyboard-response,303,573184,0.0-285.0,0,0,0TZUd,,861,,,32,,56,,36,,,,1,,,,,2,,,,,156,861,,,,,,,,,,,,,,,,,,,,,,,,,,
,reward_outcome,,html-keyboard-response,304,575203,0.0-286.0,0,0,0TZUd,,509,,,38,,56,,36,,,,,,,,,,,,,,,,1,509,,,,,,,,,,,,,,,,,,,,,,,,
,fixation,,html-keyboard-response,305,576219,0.0-289.0,0,0,0TZUd,,null,,,null,,,,,,,,,,,,,,,,,,,,,,,,,,,,,,,,,,,,,,,,,,,,,
,see_reward,,html-keyboard-response,306,577045,0.0-290.0,0,0,0TZUd,,822,,,32,,39,,37,,,,-1,,,,,2,,,,,0,822,,,,,,,,,,,,,,,,,,,,,,,,,,
,reward_outcome,,html-keyboard-response,307,579052,0.0-291.0,0,0,0TZUd,,526,,,40,,39,,37,,,,,,,,,,,,,,,,-1,526,,,,,,,,,,,,,,,,,,,,,,,,
,fixation,,html-keyboard-response,308,580069,0.0-294.0,0,0,0TZUd,,null,,,null,,,,,,,,,,,,,,,,,,,,,,,,,,,,,,,,,,,,,,,,,,,,,
,see_reward,,html-keyboard-response,309,580767,0.0-295.0,0,0,0TZUd,,694,,,32,,3,,38,,,,1,,,,,2,,,,,150,694,,,,,,,,,,,,,,,,,,,,,,,,,,
,reward_outcome,,html-keyboard-response,310,582784,0.0-296.0,0,0,0TZUd,,680,,,38,,3,,38,,,,,,,,,,,,,,,,1,680,,,,,,,,,,,,,,,,,,,,,,,,
,fixation,,html-keyboard-response,311,583795,0.0-299.0,0,0,0TZUd,,null,,,null,,,,,,,,,,,,,,,,,,,,,,,,,,,,,,,,,,,,,,,,,,,,,
,see_reward,,html-keyboard-response,312,584295,0.0-300.0,0,0,0TZUd,,495,,,32,,46,,39,,,,-1,,,,,2,,,,,0,495,,,,,,,,,,,,,,,,,,,,,,,,,,
,reward_outcome,,html-keyboard-response,313,586301,0.0-301.0,0,0,0TZUd,,479,,,40,,46,,39,,,,,,,,,,,,,,,,-1,479,,,,,,,,,,,,,,,,,,,,,,,,
,fixation,,html-keyboard-response,314,587317,0.0-304.0,0,0,0TZUd,,null,,,null,,,,,,,,,,,,,,,,,,,,,,,,,,,,,,,,,,,,,,,,,,,,,
,see_reward,,html-keyboard-response,315,588136,0.0-305.0,0,0,0TZUd,,815,,,32,,3,,40,,,,1,,,,,2,,,,,150,815,,,,,,,,,,,,,,,,,,,,,,,,,,
,reward_outcome,,html-keyboard-response,316,590150,0.0-306.0,0,0,0TZUd,,1315,,,38,,3,,40,,,,,,,,,,,,,,,,1,1315,,,,,,,,,,,,,,,,,,,,,,,,
,fixation,,html-keyboard-response,317,591167,0.0-309.0,0,0,0TZUd,,null,,,null,,,,,,,,,,,,,,,,,,,,,,,,,,,,,,,,,,,,,,,,,,,,,
,see_reward,,html-keyboard-response,318,591841,0.0-310.0,0,0,0TZUd,,669,,,32,,21,,41,,,,-1,,,,,2,,,,,0,669,,,,,,,,,,,,,,,,,,,,,,,,,,
,reward_outcome,,html-keyboard-response,319,593849,0.0-311.0,0,0,0TZUd,,532,,,40,,21,,41,,,,,,,,,,,,,,,,-1,532,,,,,,,,,,,,,,,,,,,,,,,,
,fixation,,html-keyboard-response,320,594865,0.0-314.0,0,0,0TZUd,,null,,,null,,,,,,,,,,,,,,,,,,,,,,,,,,,,,,,,,,,,,,,,,,,,,
,see_reward,,html-keyboard-response,321,595640,0.0-315.0,0,0,0TZUd,,772,,,32,,31,,42,,,,1,,,,,2,,,,,156,772,,,,,,,,,,,,,,,,,,,,,,,,,,
,reward_outcome,,html-keyboard-response,322,597648,0.0-316.0,0,0,0TZUd,,665,,,38,,31,,42,,,,,,,,,,,,,,,,1,665,,,,,,,,,,,,,,,,,,,,,,,,
,fixation,,html-keyboard-response,323,598665,0.0-319.0,0,0,0TZUd,,null,,,null,,,,,,,,,,,,,,,,,,,,,,,,,,,,,,,,,,,,,,,,,,,,,
,see_reward,,html-keyboard-response,324,599565,0.0-320.0,0,0,0TZUd,,897,,,32,,57,,43,,,,-1,,,,,2,,,,,0,897,,,,,,,,,,,,,,,,,,,,,,,,,,
,reward_outcome,,html-keyboard-response,325,601581,0.0-321.0,0,0,0TZUd,,513,,,40,,57,,43,,,,,,,,,,,,,,,,-1,513,,,,,,,,,,,,,,,,,,,,,,,,
,fixation,,html-keyboard-response,326,602596,0.0-324.0,0,0,0TZUd,,null,,,null,,,,,,,,,,,,,,,,,,,,,,,,,,,,,,,,,,,,,,,,,,,,,
,see_reward,,html-keyboard-response,327,603420,0.0-325.0,0,0,0TZUd,,820,,,32,,53,,44,,,,1,,,,,2,,,,,142,820,,,,,,,,,,,,,,,,,,,,,,,,,,
,reward_outcome,,html-keyboard-response,328,605430,0.0-326.0,0,0,0TZUd,,576,,,38,,53,,44,,,,,,,,,,,,,,,,1,576,,,,,,,,,,,,,,,,,,,,,,,,
,fixation,,html-keyboard-response,329,606445,0.0-329.0,0,0,0TZUd,,null,,,null,,,,,,,,,,,,,,,,,,,,,,,,,,,,,,,,,,,,,,,,,,,,,
,see_reward,,html-keyboard-response,330,607384,0.0-330.0,0,0,0TZUd,,936,,,32,,61,,45,,,,1,,,,,2,,,,,149,936,,,,,,,,,,,,,,,,,,,,,,,,,,
,reward_outcome,,html-keyboard-response,331,609396,0.0-331.0,0,0,0TZUd,,485,,,38,,61,,45,,,,,,,,,,,,,,,,1,485,,,,,,,,,,,,,,,,,,,,,,,,
,fixation,,html-keyboard-response,332,610412,0.0-334.0,0,0,0TZUd,,null,,,null,,,,,,,,,,,,,,,,,,,,,,,,,,,,,,,,,,,,,,,,,,,,,
,see_reward,,html-keyboard-response,333,610984,0.0-335.0,0,0,0TZUd,,568,,,32,,56,,46,,,,1,,,,,2,,,,,156,568,,,,,,,,,,,,,,,,,,,,,,,,,,
,reward_outcome,,html-keyboard-response,334,612994,0.0-336.0,0,0,0TZUd,,515,,,38,,56,,46,,,,,,,,,,,,,,,,1,515,,,,,,,,,,,,,,,,,,,,,,,,
,fixation,,html-keyboard-response,335,614011,0.0-339.0,0,0,0TZUd,,null,,,null,,,,,,,,,,,,,,,,,,,,,,,,,,,,,,,,,,,,,,,,,,,,,
,see_reward,,html-keyboard-response,336,614710,0.0-340.0,0,0,0TZUd,,695,,,32,,35,,47,,,,-1,,,,,2,,,,,0,695,,,,,,,,,,,,,,,,,,,,,,,,,,
,reward_outcome,,html-keyboard-response,337,616727,0.0-341.0,0,0,0TZUd,,448,,,40,,35,,47,,,,,,,,,,,,,,,,-1,448,,,,,,,,,,,,,,,,,,,,,,,,
,block_over,,html-keyboard-response,338,618711,0.0-343.0-0.0,0,0,0TZUd,,1981,,,78,,,,,,,,,,,,,,,,,,,,,,,,,,,,,,,,,,,,,,,,,,,,,
,fixation,,html-keyboard-response,339,619728,0.0-344.0,0,0,0TZUd,,null,,,null,,,,,,,,,,,,,,,,,,,,,,,,,,,,,,,,,,,,,,,,,,,,,
,see_reward,,html-keyboard-response,340,620440,0.0-345.0,0,0,0TZUd,,708,,,32,,61,,48,,,,1,,,,,3,,,,,149,708,,,,,,,,,,,,,,,,,,,,,,,,,,
,reward_outcome,,html-keyboard-response,341,622445,0.0-346.0,0,0,0TZUd,,519,,,38,,61,,48,,,,,,,,,,,,,,,,1,519,,,,,,,,,,,,,,,,,,,,,,,,
,fixation,,html-keyboard-response,342,623460,0.0-349.0,0,0,0TZUd,,null,,,null,,,,,,,,,,,,,,,,,,,,,,,,,,,,,,,,,,,,,,,,,,,,,
,see_reward,,html-keyboard-response,343,624050,0.0-350.0,0,0,0TZUd,,587,,,32,,53,,49,,,,1,,,,,3,,,,,142,587,,,,,,,,,,,,,,,,,,,,,,,,,,
,reward_outcome,,html-keyboard-response,344,626058,0.0-351.0,0,0,0TZUd,,451,,,38,,53,,49,,,,,,,,,,,,,,,,1,451,,,,,,,,,,,,,,,,,,,,,,,,
,fixation,,html-keyboard-response,345,627075,0.0-354.0,0,0,0TZUd,,null,,,null,,,,,,,,,,,,,,,,,,,,,,,,,,,,,,,,,,,,,,,,,,,,,
,see_reward,,html-keyboard-response,346,627820,0.0-355.0,0,0,0TZUd,,740,,,32,,36,,50,,,,-1,,,,,3,,,,,0,740,,,,,,,,,,,,,,,,,,,,,,,,,,
,reward_outcome,,html-keyboard-response,347,629832,0.0-356.0,0,0,0TZUd,,662,,,40,,36,,50,,,,,,,,,,,,,,,,-1,662,,,,,,,,,,,,,,,,,,,,,,,,
,fixation,,html-keyboard-response,348,630842,0.0-359.0,0,0,0TZUd,,null,,,null,,,,,,,,,,,,,,,,,,,,,,,,,,,,,,,,,,,,,,,,,,,,,
,see_reward,,html-keyboard-response,349,631432,0.0-360.0,0,0,0TZUd,,587,,,32,,61,,51,,,,1,,,,,3,,,,,149,587,,,,,,,,,,,,,,,,,,,,,,,,,,
,reward_outcome,,html-keyboard-response,350,633440,0.0-361.0,0,0,0TZUd,,472,,,38,,61,,51,,,,,,,,,,,,,,,,1,472,,,,,,,,,,,,,,,,,,,,,,,,
,fixation,,html-keyboard-response,351,634456,0.0-364.0,0,0,0TZUd,,null,,,null,,,,,,,,,,,,,,,,,,,,,,,,,,,,,,,,,,,,,,,,,,,,,
,see_reward,,html-keyboard-response,352,635102,0.0-365.0,0,0,0TZUd,,642,,,32,,31,,52,,,,1,,,,,3,,,,,156,642,,,,,,,,,,,,,,,,,,,,,,,,,,
,reward_outcome,,html-keyboard-response,353,637122,0.0-366.0,0,0,0TZUd,,465,,,38,,31,,52,,,,,,,,,,,,,,,,1,465,,,,,,,,,,,,,,,,,,,,,,,,
,fixation,,html-keyboard-response,354,638140,0.0-369.0,0,0,0TZUd,,null,,,null,,,,,,,,,,,,,,,,,,,,,,,,,,,,,,,,,,,,,,,,,,,,,
,see_reward,,html-keyboard-response,355,638802,0.0-370.0,0,0,0TZUd,,658,,,32,,35,,53,,,,-1,,,,,3,,,,,0,658,,,,,,,,,,,,,,,,,,,,,,,,,,
,reward_outcome,,html-keyboard-response,356,640821,0.0-371.0,0,0,0TZUd,,440,,,40,,35,,53,,,,,,,,,,,,,,,,-1,440,,,,,,,,,,,,,,,,,,,,,,,,
,fixation,,html-keyboard-response,357,641838,0.0-374.0,0,0,0TZUd,,null,,,null,,,,,,,,,,,,,,,,,,,,,,,,,,,,,,,,,,,,,,,,,,,,,
,see_reward,,html-keyboard-response,358,642292,0.0-375.0,0,0,0TZUd,,449,,,32,,3,,54,,,,1,,,,,3,,,,,150,449,,,,,,,,,,,,,,,,,,,,,,,,,,
,reward_outcome,,html-keyboard-response,359,644303,0.0-376.0,0,0,0TZUd,,640,,,38,,3,,54,,,,,,,,,,,,,,,,1,640,,,,,,,,,,,,,,,,,,,,,,,,
,fixation,,html-keyboard-response,360,645323,0.0-379.0,0,0,0TZUd,,null,,,null,,,,,,,,,,,,,,,,,,,,,,,,,,,,,,,,,,,,,,,,,,,,,
,see_reward,,html-keyboard-response,361,646334,0.0-380.0,0,0,0TZUd,,1008,,,32,,59,,55,,,,1,,,,,3,,,,,155,1008,,,,,,,,,,,,,,,,,,,,,,,,,,
,reward_outcome,,html-keyboard-response,362,648352,0.0-381.0,0,0,0TZUd,,674,,,38,,59,,55,,,,,,,,,,,,,,,,1,674,,,,,,,,,,,,,,,,,,,,,,,,
,fixation,,html-keyboard-response,363,649371,0.0-384.0,0,0,0TZUd,,null,,,null,,,,,,,,,,,,,,,,,,,,,,,,,,,,,,,,,,,,,,,,,,,,,
,see_reward,,html-keyboard-response,364,649772,0.0-385.0,0,0,0TZUd,,397,,,32,,39,,56,,,,-1,,,,,3,,,,,0,397,,,,,,,,,,,,,,,,,,,,,,,,,,
,reward_outcome,,html-keyboard-response,365,651786,0.0-386.0,0,0,0TZUd,,600,,,40,,39,,56,,,,,,,,,,,,,,,,-1,600,,,,,,,,,,,,,,,,,,,,,,,,
,fixation,,html-keyboard-response,366,652803,0.0-389.0,0,0,0TZUd,,null,,,null,,,,,,,,,,,,,,,,,,,,,,,,,,,,,,,,,,,,,,,,,,,,,
,see_reward,,html-keyboard-response,367,653679,0.0-390.0,0,0,0TZUd,,872,,,32,,46,,57,,,,-1,,,,,3,,,,,0,872,,,,,,,,,,,,,,,,,,,,,,,,,,
,reward_outcome,,html-keyboard-response,368,655684,0.0-391.0,0,0,0TZUd,,513,,,40,,46,,57,,,,,,,,,,,,,,,,-1,513,,,,,,,,,,,,,,,,,,,,,,,,
,fixation,,html-keyboard-response,369,656702,0.0-394.0,0,0,0TZUd,,null,,,null,,,,,,,,,,,,,,,,,,,,,,,,,,,,,,,,,,,,,,,,,,,,,
,see_reward,,html-keyboard-response,370,657230,0.0-395.0,0,0,0TZUd,,525,,,32,,36,,58,,,,-1,,,,,3,,,,,0,525,,,,,,,,,,,,,,,,,,,,,,,,,,
,reward_outcome,,html-keyboard-response,371,659234,0.0-396.0,0,0,0TZUd,,591,,,40,,36,,58,,,,,,,,,,,,,,,,-1,591,,,,,,,,,,,,,,,,,,,,,,,,
,fixation,,html-keyboard-response,372,660252,0.0-399.0,0,0,0TZUd,,null,,,null,,,,,,,,,,,,,,,,,,,,,,,,,,,,,,,,,,,,,,,,,,,,,
,see_reward,,html-keyboard-response,373,662647,0.0-400.0,0,0,0TZUd,,2390,,,32,,35,,59,,,,-1,,,,,3,,,,,0,2390,,,,,,,,,,,,,,,,,,,,,,,,,,
,reward_outcome,,html-keyboard-response,374,664656,0.0-401.0,0,0,0TZUd,,551,,,40,,35,,59,,,,,,,,,,,,,,,,-1,551,,,,,,,,,,,,,,,,,,,,,,,,
,fixation,,html-keyboard-response,375,665667,0.0-404.0,0,0,0TZUd,,null,,,null,,,,,,,,,,,,,,,,,,,,,,,,,,,,,,,,,,,,,,,,,,,,,
,see_reward,,html-keyboard-response,376,666435,0.0-405.0,0,0,0TZUd,,763,,,32,,53,,60,,,,1,,,,,3,,,,,142,763,,,,,,,,,,,,,,,,,,,,,,,,,,
,reward_outcome,,html-keyboard-response,377,668449,0.0-406.0,0,0,0TZUd,,533,,,38,,53,,60,,,,,,,,,,,,,,,,1,533,,,,,,,,,,,,,,,,,,,,,,,,
,fixation,,html-keyboard-response,378,669465,0.0-409.0,0,0,0TZUd,,null,,,null,,,,,,,,,,,,,,,,,,,,,,,,,,,,,,,,,,,,,,,,,,,,,
,see_reward,,html-keyboard-response,379,670726,0.0-410.0,0,0,0TZUd,,1256,,,32,,21,,61,,,,-1,,,,,3,,,,,0,1256,,,,,,,,,,,,,,,,,,,,,,,,,,
,reward_outcome,,html-keyboard-response,380,672731,0.0-411.0,0,0,0TZUd,,595,,,40,,21,,61,,,,,,,,,,,,,,,,-1,595,,,,,,,,,,,,,,,,,,,,,,,,
,fixation,,html-keyboard-response,381,673749,0.0-414.0,0,0,0TZUd,,null,,,null,,,,,,,,,,,,,,,,,,,,,,,,,,,,,,,,,,,,,,,,,,,,,
,see_reward,,html-keyboard-response,382,675290,0.0-415.0,0,0,0TZUd,,1537,,,32,,59,,62,,,,1,,,,,3,,,,,155,1537,,,,,,,,,,,,,,,,,,,,,,,,,,
,reward_outcome,,html-keyboard-response,383,677296,0.0-416.0,0,0,0TZUd,,474,,,38,,59,,62,,,,,,,,,,,,,,,,1,474,,,,,,,,,,,,,,,,,,,,,,,,
,fixation,,html-keyboard-response,384,678313,0.0-419.0,0,0,0TZUd,,null,,,null,,,,,,,,,,,,,,,,,,,,,,,,,,,,,,,,,,,,,,,,,,,,,
,see_reward,,html-keyboard-response,385,679621,0.0-420.0,0,0,0TZUd,,1304,,,32,,56,,63,,,,1,,,,,3,,,,,156,1304,,,,,,,,,,,,,,,,,,,,,,,,,,
,reward_outcome,,html-keyboard-response,386,681630,0.0-421.0,0,0,0TZUd,,641,,,38,,56,,63,,,,,,,,,,,,,,,,1,641,,,,,,,,,,,,,,,,,,,,,,,,
,fixation,,html-keyboard-response,387,682647,0.0-424.0,0,0,0TZUd,,null,,,null,,,,,,,,,,,,,,,,,,,,,,,,,,,,,,,,,,,,,,,,,,,,,
,see_reward,,html-keyboard-response,388,683768,0.0-425.0,0,0,0TZUd,,1117,,,32,,31,,64,,,,1,,,,,3,,,,,156,1117,,,,,,,,,,,,,,,,,,,,,,,,,,
,reward_outcome,,html-keyboard-response,389,685778,0.0-426.0,0,0,0TZUd,,638,,,38,,31,,64,,,,,,,,,,,,,,,,1,638,,,,,,,,,,,,,,,,,,,,,,,,
,fixation,,html-keyboard-response,390,686795,0.0-429.0,0,0,0TZUd,,null,,,null,,,,,,,,,,,,,,,,,,,,,,,,,,,,,,,,,,,,,,,,,,,,,
,see_reward,,html-keyboard-response,391,687689,0.0-430.0,0,0,0TZUd,,890,,,32,,57,,65,,,,-1,,,,,3,,,,,0,890,,,,,,,,,,,,,,,,,,,,,,,,,,
,reward_outcome,,html-keyboard-response,392,689704,0.0-431.0,0,0,0TZUd,,516,,,40,,57,,65,,,,,,,,,,,,,,,,-1,516,,,,,,,,,,,,,,,,,,,,,,,,
,fixation,,html-keyboard-response,393,690712,0.0-434.0,0,0,0TZUd,,null,,,null,,,,,,,,,,,,,,,,,,,,,,,,,,,,,,,,,,,,,,,,,,,,,
,see_reward,,html-keyboard-response,394,691741,0.0-435.0,0,0,0TZUd,,1025,,,32,,56,,66,,,,1,,,,,3,,,,,156,1025,,,,,,,,,,,,,,,,,,,,,,,,,,
,reward_outcome,,html-keyboard-response,395,693760,0.0-436.0,0,0,0TZUd,,536,,,38,,56,,66,,,,,,,,,,,,,,,,1,536,,,,,,,,,,,,,,,,,,,,,,,,
,fixation,,html-keyboard-response,396,694778,0.0-439.0,0,0,0TZUd,,null,,,null,,,,,,,,,,,,,,,,,,,,,,,,,,,,,,,,,,,,,,,,,,,,,
,see_reward,,html-keyboard-response,397,695821,0.0-440.0,0,0,0TZUd,,1038,,,32,,21,,67,,,,-1,,,,,3,,,,,0,1038,,,,,,,,,,,,,,,,,,,,,,,,,,
,reward_outcome,,html-keyboard-response,398,697826,0.0-441.0,0,0,0TZUd,,858,,,40,,21,,67,,,,,,,,,,,,,,,,-1,858,,,,,,,,,,,,,,,,,,,,,,,,
,fixation,,html-keyboard-response,399,698843,0.0-444.0,0,0,0TZUd,,null,,,null,,,,,,,,,,,,,,,,,,,,,,,,,,,,,,,,,,,,,,,,,,,,,
,see_reward,,html-keyboard-response,400,699588,0.0-445.0,0,0,0TZUd,,740,,,32,,57,,68,,,,-1,,,,,3,,,,,0,740,,,,,,,,,,,,,,,,,,,,,,,,,,
,reward_outcome,,html-keyboard-response,401,701608,0.0-446.0,0,0,0TZUd,,513,,,40,,57,,68,,,,,,,,,,,,,,,,-1,513,,,,,,,,,,,,,,,,,,,,,,,,
,fixation,,html-keyboard-response,402,702624,0.0-449.0,0,0,0TZUd,,null,,,null,,,,,,,,,,,,,,,,,,,,,,,,,,,,,,,,,,,,,,,,,,,,,
,see_reward,,html-keyboard-response,403,703582,0.0-450.0,0,0,0TZUd,,954,,,32,,3,,69,,,,1,,,,,3,,,,,150,954,,,,,,,,,,,,,,,,,,,,,,,,,,
,reward_outcome,,html-keyboard-response,404,705590,0.0-451.0,0,0,0TZUd,,485,,,38,,3,,69,,,,,,,,,,,,,,,,1,485,,,,,,,,,,,,,,,,,,,,,,,,
,fixation,,html-keyboard-response,405,706607,0.0-454.0,0,0,0TZUd,,null,,,null,,,,,,,,,,,,,,,,,,,,,,,,,,,,,,,,,,,,,,,,,,,,,
,see_reward,,html-keyboard-response,406,707824,0.0-455.0,0,0,0TZUd,,1214,,,32,,39,,70,,,,-1,,,,,3,,,,,0,1214,,,,,,,,,,,,,,,,,,,,,,,,,,
,reward_outcome,,html-keyboard-response,407,709839,0.0-456.0,0,0,0TZUd,,635,,,40,,39,,70,,,,,,,,,,,,,,,,-1,635,,,,,,,,,,,,,,,,,,,,,,,,
,fixation,,html-keyboard-response,408,710857,0.0-459.0,0,0,0TZUd,,null,,,null,,,,,,,,,,,,,,,,,,,,,,,,,,,,,,,,,,,,,,,,,,,,,
,see_reward,,html-keyboard-response,409,711563,0.0-460.0,0,0,0TZUd,,702,,,32,,46,,71,,,,-1,,,,,3,,,,,0,702,,,,,,,,,,,,,,,,,,,,,,,,,,
,reward_outcome,,html-keyboard-response,410,713572,0.0-461.0,0,0,0TZUd,,632,,,40,,46,,71,,,,,,,,,,,,,,,,-1,632,1.5,,,,,,,,,,,,,,,,,,,,,,,
,deliberation_reward_tally,,html-keyboard-response,411,719795,0.0-464.0,0,0,0TZUd,,6218,,,78,,,,,,,,,,,,,,,,,,,,,,,,,,,,,,,,,,,,,,,,,,,,,
,final_decisions_instructions,,instructions,412,735050,0.0-465.0-0.0,0,0,0TZUd,"[{""page_index"":0,""viewing_time"":12741},{""page_index"":1,""viewing_time"":2512}]",15253,,,,,,,,,,,,,,,,,,,,,,,,,,,,,,,,,,,,,,,,,,,,,,,,
,final_decisions_comprehension_check,,survey-multi-choice,413,743048,0.0-465.0-1.0,0,0,0TZUd,,7993,"{""Q0"":""True"",""Q1"":""K""}",0,,,,,,,,,,,,,,,,,,,,,,,,,,,,,,,,,,,,,,,,,,,,,,
,start_phase,,html-keyboard-response,414,744846,0.0-466.0,0,0,0TZUd,,1792,,,78,,,,,,,,,,,,,,,,,,,,,,,,,,,,,,,,,,,,,,,,,,,,,
,fixation,,html-keyboard-response,415,745850,0.0-467.0,0,0,0TZUd,,null,,,null,,,,,,,,,,,,,,,,,,,,,,,,,,,,,,,,,,,,,,,,,,,,,
,final_decisions,,html-keyboard-response,416,747569,0.0-468.0,0,0,0TZUd,,1714,,,75,,,,0,30,44,,,37,35,Kraa1n.jpg,Mackb1.jpg,1,0,44,30,,,,,,,35,25,0,0,1,,,,,,,,,,,,,,,,,,
,choice_confirmation,,html-keyboard-response,417,748088,0.0-469.0-0.0,0,0,0TZUd,,null,,,null,,,,0,30,44,,,,,,,,,,,,,,,,,,,,,,,,,,,,,,,,,,,,,,,
,fixation,,html-keyboard-response,418,749107,0.0-472.0,0,0,0TZUd,,null,,,null,,,,,,,,,,,,,,,,,,,,,,,,,,,,,,,,,,,,,,,,,,,,,
,final_decisions,,html-keyboard-response,419,751161,0.0-473.0,0,0,0TZUd,,2048,,,75,,,,1,40,25,,,36,40,Vinc1n.jpg,Dekob1.jpg,1,0,25,40,,,,,,,31,26,0,1,0,,,,,,,,,,,,,,,,,,
,choice_confirmation,,html-keyboard-response,420,751668,0.0-474.0-0.0,0,0,0TZUd,,null,,,null,,,,1,40,25,,,,,,,,,,,,,,,,,,,,,,,,,,,,,,,,,,,,,,,
,fixation,,html-keyboard-response,421,752673,0.0-477.0,0,0,0TZUd,,null,,,null,,,,,,,,,,,,,,,,,,,,,,,,,,,,,,,,,,,,,,,,,,,,,
,final_decisions,,html-keyboard-response,422,754436,0.0-478.0,0,0,0TZUd,,1757,,,75,,,,2,36,31,,,34,39,Gustb1.jpg,Picac1.jpg,1,0,31,36,,,,,,,34,33,1,0,1,,,,,,,,,,,,,,,,,,
,choice_confirmation,,html-keyboard-response,423,754946,0.0-479.0-0.0,0,0,0TZUd,,null,,,null,,,,2,36,31,,,,,,,,,,,,,,,,,,,,,,,,,,,,,,,,,,,,,,,
,fixation,,html-keyboard-response,424,755949,0.0-482.0,0,0,0TZUd,,null,,,null,,,,,,,,,,,,,,,,,,,,,,,,,,,,,,,,,,,,,,,,,,,,,
,final_decisions,,html-keyboard-response,425,757024,0.0-483.0,0,0,0TZUd,,1070,,,75,,,,3,46,31,,,54,39,Lewb1n.jpg,Picac1.jpg,1,0,31,46,,,,,,,27,33,1,0,1,,,,,,,,,,,,,,,,,,
,choice_confirmation,,html-keyboard-response,426,757536,0.0-484.0-0.0,0,0,0TZUd,,null,,,null,,,,3,46,31,,,,,,,,,,,,,,,,,,,,,,,,,,,,,,,,,,,,,,,
,fixation,,html-keyboard-response,427,758540,0.0-487.0,0,0,0TZUd,,null,,,null,,,,,,,,,,,,,,,,,,,,,,,,,,,,,,,,,,,,,,,,,,,,,
,final_decisions,,html-keyboard-response,428,759648,0.0-488.0,0,0,0TZUd,,1105,,,68,,,,4,3,21,,,56,58,Klib1n.jpg,Kupkc1.jpg,1,1,3,21,,,,,,,24,29,1,1,1,,,,,,,,,,,,,,,,,,
,choice_confirmation,,html-keyboard-response,429,760153,0.0-489.0-0.0,0,0,0TZUd,,null,,,null,,,,4,3,21,,,,,,,,,,,,,,,,,,,,,,,,,,,,,,,,,,,,,,,
,fixation,,html-keyboard-response,430,761157,0.0-492.0,0,0,0TZUd,,null,,,null,,,,,,,,,,,,,,,,,,,,,,,,,,,,,,,,,,,,,,,,,,,,,
,final_decisions,,html-keyboard-response,431,762396,0.0-493.0,0,0,0TZUd,,1236,,,68,,,,5,53,39,,,37,35,Macc1n.jpg,Kupb1n.jpg,1,1,53,39,,,,,,,32,35,1,1,1,,,,,,,,,,,,,,,,,,
,choice_confirmation,,html-keyboard-response,432,762901,0.0-494.0-0.0,0,0,0TZUd,,null,,,null,,,,5,53,39,,,,,,,,,,,,,,,,,,,,,,,,,,,,,,,,,,,,,,,
,fixation,,html-keyboard-response,433,763917,0.0-497.0,0,0,0TZUd,,null,,,null,,,,,,,,,,,,,,,,,,,,,,,,,,,,,,,,,,,,,,,,,,,,,
,final_decisions,,html-keyboard-response,434,765125,0.0-498.0,0,0,0TZUd,,1203,,,75,,,,6,39,61,,,35,56,Kupb1n.jpg,Grigb1.jpg,1,0,61,39,,,,,,,35,31,1,0,1,,,,,,,,,,,,,,,,,,
,choice_confirmation,,html-keyboard-response,435,765635,0.0-499.0-0.0,0,0,0TZUd,,null,,,null,,,,6,39,61,,,,,,,,,,,,,,,,,,,,,,,,,,,,,,,,,,,,,,,
,fixation,,html-keyboard-response,436,766650,0.0-502.0,0,0,0TZUd,,null,,,null,,,,,,,,,,,,,,,,,,,,,,,,,,,,,,,,,,,,,,,,,,,,,
,final_decisions,,html-keyboard-response,437,768529,0.0-503.0,0,0,0TZUd,,1873,,,75,,,,7,10,67,,,39,37,Vinb1n.jpg,Picab1.jpg,1,0,67,10,,,,,,,27,24,0,0,1,,,,,,,,,,,,,,,,,,
,choice_confirmation,,html-keyboard-response,438,769041,0.0-504.0-0.0,0,0,0TZUd,,null,,,null,,,,7,10,67,,,,,,,,,,,,,,,,,,,,,,,,,,,,,,,,,,,,,,,
,fixation,,html-keyboard-response,439,770044,0.0-507.0,0,0,0TZUd,,null,,,null,,,,,,,,,,,,,,,,,,,,,,,,,,,,,,,,,,,,,,,,,,,,,
,final_decisions,,html-keyboard-response,440,771170,0.0-508.0,0,0,0TZUd,,1121,,,75,,,,8,46,56,,,54,54,Lewb1n.jpg,Clib1n.jpg,1,0,56,46,,,,,,,27,25,1,0,1,,,,,,,,,,,,,,,,,,
,choice_confirmation,,html-keyboard-response,441,771677,0.0-509.0-0.0,0,0,0TZUd,,null,,,null,,,,8,46,56,,,,,,,,,,,,,,,,,,,,,,,,,,,,,,,,,,,,,,,
,fixation,,html-keyboard-response,442,772683,0.0-512.0,0,0,0TZUd,,null,,,null,,,,,,,,,,,,,,,,,,,,,,,,,,,,,,,,,,,,,,,,,,,,,
,final_decisions,,html-keyboard-response,443,773759,0.0-513.0,0,0,0TZUd,,1071,,,68,,,,9,61,46,,,56,54,Grigb1.jpg,Lewb1n.jpg,1,1,61,46,,,,,,,31,27,1,1,1,,,,,,,,,,,,,,,,,,
,choice_confirmation,,html-keyboard-response,444,774266,0.0-514.0-0.0,0,0,0TZUd,,null,,,null,,,,9,61,46,,,,,,,,,,,,,,,,,,,,,,,,,,,,,,,,,,,,,,,
,fixation,,html-keyboard-response,445,775282,0.0-517.0,0,0,0TZUd,,null,,,null,,,,,,,,,,,,,,,,,,,,,,,,,,,,,,,,,,,,,,,,,,,,,
,final_decisions,,html-keyboard-response,446,776538,0.0-518.0,0,0,0TZUd,,1252,,,75,,,,10,57,53,,,36,37,Lassa1.jpg,Macc1n.jpg,1,0,53,57,,,,,,,26,32,1,0,1,,,,,,,,,,,,,,,,,,
,choice_confirmation,,html-keyboard-response,447,777049,0.0-519.0-0.0,0,0,0TZUd,,null,,,null,,,,10,57,53,,,,,,,,,,,,,,,,,,,,,,,,,,,,,,,,,,,,,,,
,fixation,,html-keyboard-response,448,778064,0.0-522.0,0,0,0TZUd,,null,,,null,,,,,,,,,,,,,,,,,,,,,,,,,,,,,,,,,,,,,,,,,,,,,
,final_decisions,,html-keyboard-response,449,778905,0.0-523.0,0,0,0TZUd,,836,,,68,,,,11,53,21,,,37,58,Macc1n.jpg,Kupkc1.jpg,1,1,53,21,,,,,,,32,29,1,1,1,,,,,,,,,,,,,,,,,,
,choice_confirmation,,html-keyboard-response,450,779414,0.0-524.0-0.0,0,0,0TZUd,,null,,,null,,,,11,53,21,,,,,,,,,,,,,,,,,,,,,,,,,,,,,,,,,,,,,,,
,fixation,,html-keyboard-response,451,780430,0.0-527.0,0,0,0TZUd,,null,,,null,,,,,,,,,,,,,,,,,,,,,,,,,,,,,,,,,,,,,,,,,,,,,
,final_decisions,,html-keyboard-response,452,781976,0.0-528.0,0,0,0TZUd,,1541,,,75,,,,12,10,51,,,39,38,Vinb1n.jpg,Lewic1.jpg,1,0,51,10,,,,,,,27,32,0,0,1,,,,,,,,,,,,,,,,,,
,choice_confirmation,,html-keyboard-response,453,782485,0.0-529.0-0.0,0,0,0TZUd,,null,,,null,,,,12,10,51,,,,,,,,,,,,,,,,,,,,,,,,,,,,,,,,,,,,,,,
,fixation,,html-keyboard-response,454,783498,0.0-532.0,0,0,0TZUd,,null,,,null,,,,,,,,,,,,,,,,,,,,,,,,,,,,,,,,,,,,,,,,,,,,,
,final_decisions,,html-keyboard-response,455,785461,0.0-533.0,0,0,0TZUd,,1958,,,68,,,,13,10,44,,,39,35,Vinb1n.jpg,Mackb1.jpg,1,1,10,44,,,,,,,27,25,0,0,0,,,,,,,,,,,,,,,,,,
,choice_confirmation,,html-keyboard-response,456,785968,0.0-534.0-0.0,0,0,0TZUd,,null,,,null,,,,13,10,44,,,,,,,,,,,,,,,,,,,,,,,,,,,,,,,,,,,,,,,
,fixation,,html-keyboard-response,457,786980,0.0-537.0,0,0,0TZUd,,null,,,null,,,,,,,,,,,,,,,,,,,,,,,,,,,,,,,,,,,,,,,,,,,,,
,final_decisions,,html-keyboard-response,458,788668,0.0-538.0,0,0,0TZUd,,1682,,,68,,,,14,30,40,,,37,36,Kraa1n.jpg,Vinc1n.jpg,1,1,30,40,,,,,,,35,31,0,0,0,,,,,,,,,,,,,,,,,,
,choice_confirmation,,html-keyboard-response,459,789182,0.0-539.0-0.0,0,0,0TZUd,,null,,,null,,,,14,30,40,,,,,,,,,,,,,,,,,,,,,,,,,,,,,,,,,,,,,,,
,fixation,,html-keyboard-response,460,790194,0.0-542.0,0,0,0TZUd,,null,,,null,,,,,,,,,,,,,,,,,,,,,,,,,,,,,,,,,,,,,,,,,,,,,
,final_decisions,,html-keyboard-response,461,791912,0.0-543.0,0,0,0TZUd,,1713,,,75,,,,15,51,25,,,38,40,Lewic1.jpg,Dekob1.jpg,1,0,25,51,,,,,,,32,26,0,1,0,,,,,,,,,,,,,,,,,,
,choice_confirmation,,html-keyboard-response,462,792432,0.0-544.0-0.0,0,0,0TZUd,,null,,,null,,,,15,51,25,,,,,,,,,,,,,,,,,,,,,,,,,,,,,,,,,,,,,,,
,fixation,,html-keyboard-response,463,793453,0.0-547.0,0,0,0TZUd,,null,,,null,,,,,,,,,,,,,,,,,,,,,,,,,,,,,,,,,,,,,,,,,,,,,
,final_decisions,,html-keyboard-response,464,795287,0.0-548.0,0,0,0TZUd,,1830,,,68,,,,16,25,44,,,40,35,Dekob1.jpg,Mackb1.jpg,1,1,25,44,,,,,,,26,25,0,0,0,,,,,,,,,,,,,,,,,,
,choice_confirmation,,html-keyboard-response,465,795805,0.0-549.0-0.0,0,0,0TZUd,,null,,,null,,,,16,25,44,,,,,,,,,,,,,,,,,,,,,,,,,,,,,,,,,,,,,,,
,fixation,,html-keyboard-response,466,796820,0.0-552.0,0,0,0TZUd,,null,,,null,,,,,,,,,,,,,,,,,,,,,,,,,,,,,,,,,,,,,,,,,,,,,
,final_decisions,,html-keyboard-response,467,797698,0.0-553.0,0,0,0TZUd,,874,,,68,,,,17,53,46,,,37,54,Macc1n.jpg,Lewb1n.jpg,1,1,53,46,,,,,,,32,27,1,1,1,,,,,,,,,,,,,,,,,,
,choice_confirmation,,html-keyboard-response,468,798217,0.0-554.0-0.0,0,0,0TZUd,,null,,,null,,,,17,53,46,,,,,,,,,,,,,,,,,,,,,,,,,,,,,,,,,,,,,,,
,fixation,,html-keyboard-response,469,799234,0.0-557.0,0,0,0TZUd,,null,,,null,,,,,,,,,,,,,,,,,,,,,,,,,,,,,,,,,,,,,,,,,,,,,
,final_decisions,,html-keyboard-response,470,800238,0.0-558.0,0,0,0TZUd,,999,,,75,,,,18,35,53,,,35,37,Gusa1n.jpg,Macc1n.jpg,1,0,53,35,,,,,,,30,32,1,0,1,,,,,,,,,,,,,,,,,,
,choice_confirmation,,html-keyboard-response,471,800749,0.0-559.0-0.0,0,0,0TZUd,,null,,,null,,,,18,35,53,,,,,,,,,,,,,,,,,,,,,,,,,,,,,,,,,,,,,,,
,fixation,,html-keyboard-response,472,801753,0.0-562.0,0,0,0TZUd,,null,,,null,,,,,,,,,,,,,,,,,,,,,,,,,,,,,,,,,,,,,,,,,,,,,
,final_decisions,,html-keyboard-response,473,802617,0.0-563.0,0,0,0TZUd,,859,,,75,,,,19,21,56,,,58,54,Kupkc1.jpg,Clib1n.jpg,1,0,56,21,,,,,,,29,25,1,0,1,,,,,,,,,,,,,,,,,,
,choice_confirmation,,html-keyboard-response,474,803133,0.0-564.0-0.0,0,0,0TZUd,,null,,,null,,,,19,21,56,,,,,,,,,,,,,,,,,,,,,,,,,,,,,,,,,,,,,,,
,fixation,,html-keyboard-response,475,804150,0.0-567.0,0,0,0TZUd,,null,,,null,,,,,,,,,,,,,,,,,,,,,,,,,,,,,,,,,,,,,,,,,,,,,
,final_decisions,,html-keyboard-response,476,805396,0.0-568.0,0,0,0TZUd,,1241,,,68,,,,20,52,40,,,38,36,Dekoa1.jpg,Vinc1n.jpg,1,1,52,40,,,,,,,34,31,0,0,0,,,,,,,,,,,,,,,,,,
,choice_confirmation,,html-keyboard-response,477,805903,0.0-569.0-0.0,0,0,0TZUd,,null,,,null,,,,20,52,40,,,,,,,,,,,,,,,,,,,,,,,,,,,,,,,,,,,,,,,
,fixation,,html-keyboard-response,478,806917,0.0-572.0,0,0,0TZUd,,null,,,null,,,,,,,,,,,,,,,,,,,,,,,,,,,,,,,,,,,,,,,,,,,,,
,final_decisions,,html-keyboard-response,479,808284,0.0-573.0,0,0,0TZUd,,1361,,,75,,,,21,60,25,,,43,40,Kupc1n.jpg,Dekob1.jpg,1,0,25,60,,,,,,,33,26,0,1,0,,,,,,,,,,,,,,,,,,
,choice_confirmation,,html-keyboard-response,480,808799,0.0-574.0-0.0,0,0,0TZUd,,null,,,null,,,,21,60,25,,,,,,,,,,,,,,,,,,,,,,,,,,,,,,,,,,,,,,,
,fixation,,html-keyboard-response,481,809814,0.0-577.0,0,0,0TZUd,,null,,,null,,,,,,,,,,,,,,,,,,,,,,,,,,,,,,,,,,,,,,,,,,,,,
,final_decisions,,html-keyboard-response,482,810580,0.0-578.0,0,0,0TZUd,,762,,,75,,,,22,35,59,,,35,42,Gusa1n.jpg,Macka1.jpg,1,0,59,35,,,,,,,30,28,1,0,1,,,,,,,,,,,,,,,,,,
,choice_confirmation,,html-keyboard-response,483,811084,0.0-579.0-0.0,0,0,0TZUd,,null,,,null,,,,22,35,59,,,,,,,,,,,,,,,,,,,,,,,,,,,,,,,,,,,,,,,
,fixation,,html-keyboard-response,484,812092,0.0-582.0,0,0,0TZUd,,null,,,null,,,,,,,,,,,,,,,,,,,,,,,,,,,,,,,,,,,,,,,,,,,,,
,final_decisions,,html-keyboard-response,485,813845,0.0-583.0,0,0,0TZUd,,1747,,,75,,,,23,38,67,,,34,37,Krasa1.jpg,Picab1.jpg,1,0,67,38,,,,,,,30,24,0,0,1,,,,,,,,,,,,,,,,,,
,choice_confirmation,,html-keyboard-response,486,814353,0.0-584.0-0.0,0,0,0TZUd,,null,,,null,,,,23,38,67,,,,,,,,,,,,,,,,,,,,,,,,,,,,,,,,,,,,,,,
,fixation,,html-keyboard-response,487,815364,0.0-587.0,0,0,0TZUd,,null,,,null,,,,,,,,,,,,,,,,,,,,,,,,,,,,,,,,,,,,,,,,,,,,,
,final_decisions,,html-keyboard-response,488,816515,0.0-588.0,0,0,0TZUd,,1147,,,75,,,,24,36,59,,,34,42,Gustb1.jpg,Macka1.jpg,1,0,59,36,,,,,,,34,28,1,0,1,,,,,,,,,,,,,,,,,,
,choice_confirmation,,html-keyboard-response,489,817030,0.0-589.0-0.0,0,0,0TZUd,,null,,,null,,,,24,36,59,,,,,,,,,,,,,,,,,,,,,,,,,,,,,,,,,,,,,,,
,fixation,,html-keyboard-response,490,818034,0.0-592.0,0,0,0TZUd,,null,,,null,,,,,,,,,,,,,,,,,,,,,,,,,,,,,,,,,,,,,,,,,,,,,
,final_decisions,,html-keyboard-response,491,819007,0.0-593.0,0,0,0TZUd,,968,,,75,,,,25,21,31,,,58,39,Kupkc1.jpg,Picac1.jpg,1,0,31,21,,,,,,,29,33,1,0,1,,,,,,,,,,,,,,,,,,
,choice_confirmation,,html-keyboard-response,492,819514,0.0-594.0-0.0,0,0,0TZUd,,null,,,null,,,,25,21,31,,,,,,,,,,,,,,,,,,,,,,,,,,,,,,,,,,,,,,,
,fixation,,html-keyboard-response,493,820529,0.0-597.0,0,0,0TZUd,,null,,,null,,,,,,,,,,,,,,,,,,,,,,,,,,,,,,,,,,,,,,,,,,,,,
,final_decisions,,html-keyboard-response,494,821377,0.0-598.0,0,0,0TZUd,,844,,,68,,,,26,31,57,,,39,36,Picac1.jpg,Lassa1.jpg,1,1,31,57,,,,,,,33,26,1,1,1,,,,,,,,,,,,,,,,,,
,choice_confirmation,,html-keyboard-response,495,821896,0.0-599.0-0.0,0,0,0TZUd,,null,,,null,,,,26,31,57,,,,,,,,,,,,,,,,,,,,,,,,,,,,,,,,,,,,,,,
,fixation,,html-keyboard-response,496,822911,0.0-602.0,0,0,0TZUd,,null,,,null,,,,,,,,,,,,,,,,,,,,,,,,,,,,,,,,,,,,,,,,,,,,,
,final_decisions,,html-keyboard-response,497,824670,0.0-603.0,0,0,0TZUd,,1755,,,68,,,,27,25,67,,,40,37,Dekob1.jpg,Picab1.jpg,1,1,25,67,,,,,,,26,24,0,0,0,,,,,,,,,,,,,,,,,,
,choice_confirmation,,html-keyboard-response,498,825180,0.0-604.0-0.0,0,0,0TZUd,,null,,,null,,,,27,25,67,,,,,,,,,,,,,,,,,,,,,,,,,,,,,,,,,,,,,,,
,fixation,,html-keyboard-response,499,826198,0.0-607.0,0,0,0TZUd,,null,,,null,,,,,,,,,,,,,,,,,,,,,,,,,,,,,,,,,,,,,,,,,,,,,
,final_decisions,,html-keyboard-response,500,827075,0.0-608.0,0,0,0TZUd,,872,,,68,,,,28,56,36,,,54,34,Clib1n.jpg,Gustb1.jpg,1,1,56,36,,,,,,,25,34,1,1,1,,,,,,,,,,,,,,,,,,
,choice_confirmation,,html-keyboard-response,501,827595,0.0-609.0-0.0,0,0,0TZUd,,null,,,null,,,,28,56,36,,,,,,,,,,,,,,,,,,,,,,,,,,,,,,,,,,,,,,,
,fixation,,html-keyboard-response,502,828611,0.0-612.0,0,0,0TZUd,,null,,,null,,,,,,,,,,,,,,,,,,,,,,,,,,,,,,,,,,,,,,,,,,,,,
,final_decisions,,html-keyboard-response,503,829740,0.0-613.0,0,0,0TZUd,,1124,,,75,,,,29,51,38,,,38,34,Lewic1.jpg,Krasa1.jpg,1,0,38,51,,,,,,,32,30,0,1,0,,,,,,,,,,,,,,,,,,
,choice_confirmation,,html-keyboard-response,504,830260,0.0-614.0-0.0,0,0,0TZUd,,null,,,null,,,,29,51,38,,,,,,,,,,,,,,,,,,,,,,,,,,,,,,,,,,,,,,,
,fixation,,html-keyboard-response,505,831277,0.0-617.0,0,0,0TZUd,,null,,,null,,,,,,,,,,,,,,,,,,,,,,,,,,,,,,,,,,,,,,,,,,,,,
,final_decisions,,html-keyboard-response,506,832042,0.0-618.0,0,0,0TZUd,,760,,,68,,,,30,61,36,,,56,34,Grigb1.jpg,Gustb1.jpg,1,1,61,36,,,,,,,31,34,1,1,1,,,,,,,,,,,,,,,,,,
,choice_confirmation,,html-keyboard-response,507,832560,0.0-619.0-0.0,0,0,0TZUd,,null,,,null,,,,30,61,36,,,,,,,,,,,,,,,,,,,,,,,,,,,,,,,,,,,,,,,
,fixation,,html-keyboard-response,508,833577,0.0-622.0,0,0,0TZUd,,null,,,null,,,,,,,,,,,,,,,,,,,,,,,,,,,,,,,,,,,,,,,,,,,,,
,final_decisions,,html-keyboard-response,509,834203,0.0-623.0,0,0,0TZUd,,622,,,68,,,,31,31,35,,,39,35,Picac1.jpg,Gusa1n.jpg,1,1,31,35,,,,,,,33,30,1,1,1,,,,,,,,,,,,,,,,,,
,choice_confirmation,,html-keyboard-response,510,834717,0.0-624.0-0.0,0,0,0TZUd,,null,,,null,,,,31,31,35,,,,,,,,,,,,,,,,,,,,,,,,,,,,,,,,,,,,,,,
,fixation,,html-keyboard-response,511,835727,0.0-627.0,0,0,0TZUd,,null,,,null,,,,,,,,,,,,,,,,,,,,,,,,,,,,,,,,,,,,,,,,,,,,,
,final_decisions,,html-keyboard-response,512,836618,0.0-628.0,0,0,0TZUd,,886,,,75,,,,32,57,61,,,36,56,Lassa1.jpg,Grigb1.jpg,1,0,61,57,,,,,,,26,31,1,0,1,,,,,,,,,,,,,,,,,,
,choice_confirmation,,html-keyboard-response,513,837126,0.0-629.0-0.0,0,0,0TZUd,,null,,,null,,,,32,57,61,,,,,,,,,,,,,,,,,,,,,,,,,,,,,,,,,,,,,,,
,fixation,,html-keyboard-response,514,838142,0.0-632.0,0,0,0TZUd,,null,,,null,,,,,,,,,,,,,,,,,,,,,,,,,,,,,,,,,,,,,,,,,,,,,
,final_decisions,,html-keyboard-response,515,838881,0.0-633.0,0,0,0TZUd,,734,,,68,,,,33,3,35,,,56,35,Klib1n.jpg,Gusa1n.jpg,1,1,3,35,,,,,,,24,30,1,1,1,,,,,,,,,,,,,,,,,,
,choice_confirmation,,html-keyboard-response,516,839392,0.0-634.0-0.0,0,0,0TZUd,,null,,,null,,,,33,3,35,,,,,,,,,,,,,,,,,,,,,,,,,,,,,,,,,,,,,,,
,fixation,,html-keyboard-response,517,840408,0.0-637.0,0,0,0TZUd,,null,,,null,,,,,,,,,,,,,,,,,,,,,,,,,,,,,,,,,,,,,,,,,,,,,
,final_decisions,,html-keyboard-response,518,841977,0.0-638.0,0,0,0TZUd,,1563,,,75,,,,34,22,58,,,38,40,Klina1.jpg,Klinc1.jpg,1,0,58,22,,,,,,,29,28,0,0,1,,,,,,,,,,,,,,,,,,
,choice_confirmation,,html-keyboard-response,519,842491,0.0-639.0-0.0,0,0,0TZUd,,null,,,null,,,,34,22,58,,,,,,,,,,,,,,,,,,,,,,,,,,,,,,,,,,,,,,,
,fixation,,html-keyboard-response,520,843507,0.0-642.0,0,0,0TZUd,,null,,,null,,,,,,,,,,,,,,,,,,,,,,,,,,,,,,,,,,,,,,,,,,,,,
,final_decisions,,html-keyboard-response,521,844232,0.0-643.0,0,0,0TZUd,,720,,,68,,,,35,56,39,,,54,35,Clib1n.jpg,Kupb1n.jpg,1,1,56,39,,,,,,,25,35,1,1,1,,,,,,,,,,,,,,,,,,
,choice_confirmation,,html-keyboard-response,522,844742,0.0-644.0-0.0,0,0,0TZUd,,null,,,null,,,,35,56,39,,,,,,,,,,,,,,,,,,,,,,,,,,,,,,,,,,,,,,,
,fixation,,html-keyboard-response,523,845757,0.0-647.0,0,0,0TZUd,,null,,,null,,,,,,,,,,,,,,,,,,,,,,,,,,,,,,,,,,,,,,,,,,,,,
,final_decisions,,html-keyboard-response,524,846900,0.0-648.0,0,0,0TZUd,,1138,,,75,,,,36,60,38,,,43,34,Kupc1n.jpg,Krasa1.jpg,1,0,38,60,,,,,,,33,30,0,1,0,,,,,,,,,,,,,,,,,,
,choice_confirmation,,html-keyboard-response,525,847407,0.0-649.0-0.0,0,0,0TZUd,,null,,,null,,,,36,60,38,,,,,,,,,,,,,,,,,,,,,,,,,,,,,,,,,,,,,,,
,fixation,,html-keyboard-response,526,848422,0.0-652.0,0,0,0TZUd,,null,,,null,,,,,,,,,,,,,,,,,,,,,,,,,,,,,,,,,,,,,,,,,,,,,
,final_decisions,,html-keyboard-response,527,849899,0.0-653.0,0,0,0TZUd,,1472,,,68,,,,37,40,10,,,36,39,Vinc1n.jpg,Vinb1n.jpg,1,1,40,10,,,,,,,31,27,0,1,1,,,,,,,,,,,,,,,,,,
,choice_confirmation,,html-keyboard-response,528,850407,0.0-654.0-0.0,0,0,0TZUd,,null,,,null,,,,37,40,10,,,,,,,,,,,,,,,,,,,,,,,,,,,,,,,,,,,,,,,
,fixation,,html-keyboard-response,529,851422,0.0-657.0,0,0,0TZUd,,null,,,null,,,,,,,,,,,,,,,,,,,,,,,,,,,,,,,,,,,,,,,,,,,,,
,final_decisions,,html-keyboard-response,530,852564,0.0-658.0,0,0,0TZUd,,1137,,,68,,,,38,38,44,,,34,35,Krasa1.jpg,Mackb1.jpg,1,1,38,44,,,,,,,30,25,0,0,0,,,,,,,,,,,,,,,,,,
,choice_confirmation,,html-keyboard-response,531,853073,0.0-659.0-0.0,0,0,0TZUd,,null,,,null,,,,38,38,44,,,,,,,,,,,,,,,,,,,,,,,,,,,,,,,,,,,,,,,
,fixation,,html-keyboard-response,532,854087,0.0-662.0,0,0,0TZUd,,null,,,null,,,,,,,,,,,,,,,,,,,,,,,,,,,,,,,,,,,,,,,,,,,,,
,final_decisions,,html-keyboard-response,533,855592,0.0-663.0,0,0,0TZUd,,1500,,,75,,,,39,58,30,,,40,37,Klinc1.jpg,Kraa1n.jpg,1,0,30,58,,,,,,,28,35,0,1,0,,,,,,,,,,,,,,,,,,
,choice_confirmation,,html-keyboard-response,534,856108,0.0-664.0-0.0,0,0,0TZUd,,null,,,null,,,,39,58,30,,,,,,,,,,,,,,,,,,,,,,,,,,,,,,,,,,,,,,,
,fixation,,html-keyboard-response,535,857113,0.0-667.0,0,0,0TZUd,,null,,,null,,,,,,,,,,,,,,,,,,,,,,,,,,,,,,,,,,,,,,,,,,,,,
,final_decisions,,html-keyboard-response,536,857922,0.0-668.0,0,0,0TZUd,,805,,,75,,,,40,67,30,,,37,37,Picab1.jpg,Kraa1n.jpg,1,0,30,67,,,,,,,24,35,0,1,0,,,,,,,,,,,,,,,,,,
,choice_confirmation,,html-keyboard-response,537,858437,0.0-669.0-0.0,0,0,0TZUd,,null,,,null,,,,40,67,30,,,,,,,,,,,,,,,,,,,,,,,,,,,,,,,,,,,,,,,
,fixation,,html-keyboard-response,538,859453,0.0-672.0,0,0,0TZUd,,null,,,null,,,,,,,,,,,,,,,,,,,,,,,,,,,,,,,,,,,,,,,,,,,,,
,final_decisions,,html-keyboard-response,539,860126,0.0-673.0,0,0,0TZUd,,667,,,68,,,,41,56,35,,,54,35,Clib1n.jpg,Gusa1n.jpg,1,1,56,35,,,,,,,25,30,1,1,1,,,,,,,,,,,,,,,,,,
,choice_confirmation,,html-keyboard-response,540,860638,0.0-674.0-0.0,0,0,0TZUd,,null,,,null,,,,41,56,35,,,,,,,,,,,,,,,,,,,,,,,,,,,,,,,,,,,,,,,
,fixation,,html-keyboard-response,541,861654,0.0-677.0,0,0,0TZUd,,null,,,null,,,,,,,,,,,,,,,,,,,,,,,,,,,,,,,,,,,,,,,,,,,,,
,final_decisions,,html-keyboard-response,542,862414,0.0-678.0,0,0,0TZUd,,756,,,75,,,,42,39,3,,,35,56,Kupb1n.jpg,Klib1n.jpg,1,0,3,39,,,,,,,35,24,1,0,1,,,,,,,,,,,,,,,,,,
,choice_confirmation,,html-keyboard-response,543,862919,0.0-679.0-0.0,0,0,0TZUd,,null,,,null,,,,42,39,3,,,,,,,,,,,,,,,,,,,,,,,,,,,,,,,,,,,,,,,
,fixation,,html-keyboard-response,544,863937,0.0-682.0,0,0,0TZUd,,null,,,null,,,,,,,,,,,,,,,,,,,,,,,,,,,,,,,,,,,,,,,,,,,,,
,final_decisions,,html-keyboard-response,545,865403,0.0-683.0,0,0,0TZUd,,1462,,,75,,,,43,60,22,,,43,38,Kupc1n.jpg,Klina1.jpg,1,0,22,60,,,,,,,33,29,0,1,0,,,,,,,,,,,,,,,,,,
,choice_confirmation,,html-keyboard-response,546,865908,0.0-684.0-0.0,0,0,0TZUd,,null,,,null,,,,43,60,22,,,,,,,,,,,,,,,,,,,,,,,,,,,,,,,,,,,,,,,
,fixation,,html-keyboard-response,547,866913,0.0-687.0,0,0,0TZUd,,null,,,null,,,,,,,,,,,,,,,,,,,,,,,,,,,,,,,,,,,,,,,,,,,,,
,final_decisions,,html-keyboard-response,548,868623,0.0-688.0,0,0,0TZUd,,1706,,,75,,,,44,60,52,,,43,38,Kupc1n.jpg,Dekoa1.jpg,1,0,52,60,,,,,,,33,34,0,1,0,,,,,,,,,,,,,,,,,,
,choice_confirmation,,html-keyboard-response,549,869135,0.0-689.0-0.0,0,0,0TZUd,,null,,,null,,,,44,60,52,,,,,,,,,,,,,,,,,,,,,,,,,,,,,,,,,,,,,,,
,fixation,,html-keyboard-response,550,870146,0.0-692.0,0,0,0TZUd,,null,,,null,,,,,,,,,,,,,,,,,,,,,,,,,,,,,,,,,,,,,,,,,,,,,
,final_decisions,,html-keyboard-response,551,870989,0.0-693.0,0,0,0TZUd,,839,,,68,,,,45,59,21,,,42,58,Macka1.jpg,Kupkc1.jpg,1,1,59,21,,,,,,,28,29,1,1,1,,,,,,,,,,,,,,,,,,
,choice_confirmation,,html-keyboard-response,552,871502,0.0-694.0-0.0,0,0,0TZUd,,null,,,null,,,,45,59,21,,,,,,,,,,,,,,,,,,,,,,,,,,,,,,,,,,,,,,,
,fixation,,html-keyboard-response,553,872518,0.0-697.0,0,0,0TZUd,,null,,,null,,,,,,,,,,,,,,,,,,,,,,,,,,,,,,,,,,,,,,,,,,,,,
,final_decisions,,html-keyboard-response,554,873152,0.0-698.0,0,0,0TZUd,,630,,,75,,,,46,36,3,,,34,56,Gustb1.jpg,Klib1n.jpg,1,0,3,36,,,,,,,34,24,1,0,1,,,,,,,,,,,,,,,,,,
,choice_confirmation,,html-keyboard-response,555,873667,0.0-699.0-0.0,0,0,0TZUd,,null,,,null,,,,46,36,3,,,,,,,,,,,,,,,,,,,,,,,,,,,,,,,,,,,,,,,
,fixation,,html-keyboard-response,556,874683,0.0-702.0,0,0,0TZUd,,null,,,null,,,,,,,,,,,,,,,,,,,,,,,,,,,,,,,,,,,,,,,,,,,,,
,final_decisions,,html-keyboard-response,557,875696,0.0-703.0,0,0,0TZUd,,1007,,,68,,,,47,52,67,,,38,37,Dekoa1.jpg,Picab1.jpg,1,1,52,67,,,,,,,34,24,0,0,0,,,,,,,,,,,,,,,,,,
,choice_confirmation,,html-keyboard-response,558,876201,0.0-704.0-0.0,0,0,0TZUd,,null,,,null,,,,47,52,67,,,,,,,,,,,,,,,,,,,,,,,,,,,,,,,,,,,,,,,
,fixation,,html-keyboard-response,559,877205,0.0-707.0,0,0,0TZUd,,null,,,null,,,,,,,,,,,,,,,,,,,,,,,,,,,,,,,,,,,,,,,,,,,,,
,final_decisions,,html-keyboard-response,560,878098,0.0-708.0,0,0,0TZUd,,888,,,68,,,,48,31,39,,,39,35,Picac1.jpg,Kupb1n.jpg,1,1,31,39,,,,,,,33,35,1,1,1,,,,,,,,,,,,,,,,,,
,choice_confirmation,,html-keyboard-response,561,878603,0.0-709.0-0.0,0,0,0TZUd,,null,,,null,,,,48,31,39,,,,,,,,,,,,,,,,,,,,,,,,,,,,,,,,,,,,,,,
,fixation,,html-keyboard-response,562,879608,0.0-712.0,0,0,0TZUd,,null,,,null,,,,,,,,,,,,,,,,,,,,,,,,,,,,,,,,,,,,,,,,,,,,,
,final_decisions,,html-keyboard-response,563,880445,0.0-713.0,0,0,0TZUd,,833,,,68,,,,49,3,57,,,56,36,Klib1n.jpg,Lassa1.jpg,1,1,3,57,,,,,,,24,26,1,1,1,,,,,,,,,,,,,,,,,,
,choice_confirmation,,html-keyboard-response,564,880951,0.0-714.0-0.0,0,0,0TZUd,,null,,,null,,,,49,3,57,,,,,,,,,,,,,,,,,,,,,,,,,,,,,,,,,,,,,,,
,fixation,,html-keyboard-response,565,881954,0.0-717.0,0,0,0TZUd,,null,,,null,,,,,,,,,,,,,,,,,,,,,,,,,,,,,,,,,,,,,,,,,,,,,
,final_decisions,,html-keyboard-response,566,882911,0.0-718.0,0,0,0TZUd,,951,,,68,,,,50,53,36,,,37,34,Macc1n.jpg,Gustb1.jpg,1,1,53,36,,,,,,,32,34,1,1,1,,,,,,,,,,,,,,,,,,
,choice_confirmation,,html-keyboard-response,567,883416,0.0-719.0-0.0,0,0,0TZUd,,null,,,null,,,,50,53,36,,,,,,,,,,,,,,,,,,,,,,,,,,,,,,,,,,,,,,,
,fixation,,html-keyboard-response,568,884432,0.0-722.0,0,0,0TZUd,,null,,,null,,,,,,,,,,,,,,,,,,,,,,,,,,,,,,,,,,,,,,,,,,,,,
,final_decisions,,html-keyboard-response,569,886004,0.0-723.0,0,0,0TZUd,,1569,,,68,,,,51,30,60,,,37,43,Kraa1n.jpg,Kupc1n.jpg,1,1,30,60,,,,,,,35,33,0,0,0,,,,,,,,,,,,,,,,,,
,choice_confirmation,,html-keyboard-response,570,886519,0.0-724.0-0.0,0,0,0TZUd,,null,,,null,,,,51,30,60,,,,,,,,,,,,,,,,,,,,,,,,,,,,,,,,,,,,,,,
,fixation,,html-keyboard-response,571,887532,0.0-727.0,0,0,0TZUd,,null,,,null,,,,,,,,,,,,,,,,,,,,,,,,,,,,,,,,,,,,,,,,,,,,,
,final_decisions,,html-keyboard-response,572,888240,0.0-728.0,0,0,0TZUd,,703,,,68,,,,52,3,46,,,56,54,Klib1n.jpg,Lewb1n.jpg,1,1,3,46,,,,,,,24,27,1,1,1,,,,,,,,,,,,,,,,,,
,choice_confirmation,,html-keyboard-response,573,888748,0.0-729.0-0.0,0,0,0TZUd,,null,,,null,,,,52,3,46,,,,,,,,,,,,,,,,,,,,,,,,,,,,,,,,,,,,,,,
,fixation,,html-keyboard-response,574,889752,0.0-732.0,0,0,0TZUd,,null,,,null,,,,,,,,,,,,,,,,,,,,,,,,,,,,,,,,,,,,,,,,,,,,,
,final_decisions,,html-keyboard-response,575,890910,0.0-733.0,0,0,0TZUd,,1152,,,75,,,,53,58,52,,,40,38,Klinc1.jpg,Dekoa1.jpg,1,0,52,58,,,,,,,28,34,0,1,0,,,,,,,,,,,,,,,,,,
,choice_confirmation,,html-keyboard-response,576,891429,0.0-734.0-0.0,0,0,0TZUd,,null,,,null,,,,53,58,52,,,,,,,,,,,,,,,,,,,,,,,,,,,,,,,,,,,,,,,
,fixation,,html-keyboard-response,577,892446,0.0-737.0,0,0,0TZUd,,null,,,null,,,,,,,,,,,,,,,,,,,,,,,,,,,,,,,,,,,,,,,,,,,,,
,final_decisions,,html-keyboard-response,578,893530,0.0-738.0,0,0,0TZUd,,1080,,,68,,,,54,52,51,,,38,38,Dekoa1.jpg,Lewic1.jpg,1,1,52,51,,,,,,,34,32,0,0,0,,,,,,,,,,,,,,,,,,
,choice_confirmation,,html-keyboard-response,579,894046,0.0-739.0-0.0,0,0,0TZUd,,null,,,null,,,,54,52,51,,,,,,,,,,,,,,,,,,,,,,,,,,,,,,,,,,,,,,,
,fixation,,html-keyboard-response,580,895050,0.0-742.0,0,0,0TZUd,,null,,,null,,,,,,,,,,,,,,,,,,,,,,,,,,,,,,,,,,,,,,,,,,,,,
,final_decisions,,html-keyboard-response,581,896116,0.0-743.0,0,0,0TZUd,,1060,,,75,,,,55,51,30,,,38,37,Lewic1.jpg,Kraa1n.jpg,1,0,30,51,,,,,,,32,35,0,1,0,,,,,,,,,,,,,,,,,,
,choice_confirmation,,html-keyboard-response,582,896629,0.0-744.0-0.0,0,0,0TZUd,,null,,,null,,,,55,51,30,,,,,,,,,,,,,,,,,,,,,,,,,,,,,,,,,,,,,,,
,fixation,,html-keyboard-response,583,897646,0.0-747.0,0,0,0TZUd,,null,,,null,,,,,,,,,,,,,,,,,,,,,,,,,,,,,,,,,,,,,,,,,,,,,
,final_decisions,,html-keyboard-response,584,899010,0.0-748.0,0,0,0TZUd,,1360,,,75,,,,56,40,22,,,36,38,Vinc1n.jpg,Klina1.jpg,1,0,22,40,,,,,,,31,29,0,1,0,,,,,,,,,,,,,,,,,,
,choice_confirmation,,html-keyboard-response,585,899528,0.0-749.0-0.0,0,0,0TZUd,,null,,,null,,,,56,40,22,,,,,,,,,,,,,,,,,,,,,,,,,,,,,,,,,,,,,,,
,fixation,,html-keyboard-response,586,900545,0.0-752.0,0,0,0TZUd,,null,,,null,,,,,,,,,,,,,,,,,,,,,,,,,,,,,,,,,,,,,,,,,,,,,
,final_decisions,,html-keyboard-response,587,901456,0.0-753.0,0,0,0TZUd,,906,,,75,,,,57,44,22,,,35,38,Mackb1.jpg,Klina1.jpg,1,0,22,44,,,,,,,25,29,0,1,0,,,,,,,,,,,,,,,,,,
,choice_confirmation,,html-keyboard-response,588,901961,0.0-754.0-0.0,0,0,0TZUd,,null,,,null,,,,57,44,22,,,,,,,,,,,,,,,,,,,,,,,,,,,,,,,,,,,,,,,
,fixation,,html-keyboard-response,589,902967,0.0-757.0,0,0,0TZUd,,null,,,null,,,,,,,,,,,,,,,,,,,,,,,,,,,,,,,,,,,,,,,,,,,,,
,final_decisions,,html-keyboard-response,590,904288,0.0-758.0,0,0,0TZUd,,1317,,,75,,,,58,21,61,,,58,56,Kupkc1.jpg,Grigb1.jpg,1,0,61,21,,,,,,,29,31,1,0,1,,,,,,,,,,,,,,,,,,
,choice_confirmation,,html-keyboard-response,591,904795,0.0-759.0-0.0,0,0,0TZUd,,null,,,null,,,,58,21,61,,,,,,,,,,,,,,,,,,,,,,,,,,,,,,,,,,,,,,,
,fixation,,html-keyboard-response,592,905799,0.0-762.0,0,0,0TZUd,,null,,,null,,,,,,,,,,,,,,,,,,,,,,,,,,,,,,,,,,,,,,,,,,,,,
,final_decisions,,html-keyboard-response,593,906734,0.0-763.0,0,0,0TZUd,,931,,,68,,,,59,59,57,,,42,36,Macka1.jpg,Lassa1.jpg,1,1,59,57,,,,,,,28,26,1,1,1,,,,,,,,,,,,,,,,,,
,choice_confirmation,,html-keyboard-response,594,907244,0.0-764.0-0.0,0,0,0TZUd,,null,,,null,,,,59,59,57,,,,,,,,,,,,,,,,,,,,,,,,,,,,,,,,,,,,,,,
,fixation,,html-keyboard-response,595,908259,0.0-767.0,0,0,0TZUd,,null,,,null,,,,,,,,,,,,,,,,,,,,,,,,,,,,,,,,,,,,,,,,,,,,,
,final_decisions,,html-keyboard-response,596,910044,0.0-768.0,0,0,0TZUd,,1779,,,75,,,,60,60,10,,,43,39,Kupc1n.jpg,Vinb1n.jpg,1,0,10,60,,,,,,,33,27,0,1,0,,,,,,,,,,,,,,,,,,
,choice_confirmation,,html-keyboard-response,597,910548,0.0-769.0-0.0,0,0,0TZUd,,null,,,null,,,,60,60,10,,,,,,,,,,,,,,,,,,,,,,,,,,,,,,,,,,,,,,,
,fixation,,html-keyboard-response,598,911561,0.0-772.0,0,0,0TZUd,,null,,,null,,,,,,,,,,,,,,,,,,,,,,,,,,,,,,,,,,,,,,,,,,,,,
,final_decisions,,html-keyboard-response,599,913068,0.0-773.0,0,0,0TZUd,,1502,,,68,,,,61,22,67,,,38,37,Klina1.jpg,Picab1.jpg,1,1,22,67,,,,,,,29,24,0,0,0,,,,,,,,,,,,,,,,,,
,choice_confirmation,,html-keyboard-response,600,913580,0.0-774.0-0.0,0,0,0TZUd,,null,,,null,,,,61,22,67,,,,,,,,,,,,,,,,,,,,,,,,,,,,,,,,,,,,,,,
,fixation,,html-keyboard-response,601,914584,0.0-777.0,0,0,0TZUd,,null,,,null,,,,,,,,,,,,,,,,,,,,,,,,,,,,,,,,,,,,,,,,,,,,,
,final_decisions,,html-keyboard-response,602,915720,0.0-778.0,0,0,0TZUd,,1132,,,68,,,,62,38,40,,,34,36,Krasa1.jpg,Vinc1n.jpg,1,1,38,40,,,,,,,30,31,0,0,0,,,,,,,,,,,,,,,,,,
,choice_confirmation,,html-keyboard-response,603,916225,0.0-779.0-0.0,0,0,0TZUd,,null,,,null,,,,62,38,40,,,,,,,,,,,,,,,,,,,,,,,,,,,,,,,,,,,,,,,
,fixation,,html-keyboard-response,604,917241,0.0-782.0,0,0,0TZUd,,null,,,null,,,,,,,,,,,,,,,,,,,,,,,,,,,,,,,,,,,,,,,,,,,,,
,final_decisions,,html-keyboard-response,605,917912,0.0-783.0,0,0,0TZUd,,666,,,75,,,,63,39,59,,,35,42,Kupb1n.jpg,Macka1.jpg,1,0,59,39,,,,,,,35,28,1,0,1,,,,,,,,,,,,,,,,,,
,choice_confirmation,,html-keyboard-response,606,918425,0.0-784.0-0.0,0,0,0TZUd,,null,,,null,,,,63,39,59,,,,,,,,,,,,,,,,,,,,,,,,,,,,,,,,,,,,,,,
,fixation,,html-keyboard-response,607,919441,0.0-787.0,0,0,0TZUd,,null,,,null,,,,,,,,,,,,,,,,,,,,,,,,,,,,,,,,,,,,,,,,,,,,,
,final_decisions,,html-keyboard-response,608,920563,0.0-788.0,0,0,0TZUd,,1117,,,75,,,,64,58,38,,,40,34,Klinc1.jpg,Krasa1.jpg,1,0,38,58,,,,,,,28,30,0,1,0,,,,,,,,,,,,,,,,,,
,choice_confirmation,,html-keyboard-response,609,921074,0.0-789.0-0.0,0,0,0TZUd,,null,,,null,,,,64,58,38,,,,,,,,,,,,,,,,,,,,,,,,,,,,,,,,,,,,,,,
,fixation,,html-keyboard-response,610,922090,0.0-792.0,0,0,0TZUd,,null,,,null,,,,,,,,,,,,,,,,,,,,,,,,,,,,,,,,,,,,,,,,,,,,,
,final_decisions,,html-keyboard-response,611,922749,0.0-793.0,0,0,0TZUd,,656,,,75,,,,65,46,59,,,54,42,Lewb1n.jpg,Macka1.jpg,1,0,59,46,,,,,,,27,28,1,0,1,,,,,,,,,,,,,,,,,,
,choice_confirmation,,html-keyboard-response,612,923257,0.0-794.0-0.0,0,0,0TZUd,,null,,,null,,,,65,46,59,,,,,,,,,,,,,,,,,,,,,,,,,,,,,,,,,,,,,,,
,fixation,,html-keyboard-response,613,924273,0.0-797.0,0,0,0TZUd,,null,,,null,,,,,,,,,,,,,,,,,,,,,,,,,,,,,,,,,,,,,,,,,,,,,
,final_decisions,,html-keyboard-response,614,924883,0.0-798.0,0,0,0TZUd,,606,,,75,,,,66,35,61,,,35,56,Gusa1n.jpg,Grigb1.jpg,1,0,61,35,,,,,,,30,31,1,0,1,,,,,,,,,,,,,,,,,,
,choice_confirmation,,html-keyboard-response,615,925390,0.0-799.0-0.0,0,0,0TZUd,,null,,,null,,,,66,35,61,,,,,,,,,,,,,,,,,,,,,,,,,,,,,,,,,,,,,,,
,fixation,,html-keyboard-response,616,926406,0.0-802.0,0,0,0TZUd,,null,,,null,,,,,,,,,,,,,,,,,,,,,,,,,,,,,,,,,,,,,,,,,,,,,
,final_decisions,,html-keyboard-response,617,927280,0.0-803.0,0,0,0TZUd,,869,,,75,,,,67,57,56,,,36,54,Lassa1.jpg,Clib1n.jpg,1,0,56,57,,,,,,,26,25,1,0,1,,,,,,,,,,,,,,,,,,
,choice_confirmation,,html-keyboard-response,618,927795,0.0-804.0-0.0,0,0,0TZUd,,null,,,null,,,,67,57,56,,,,,,,,,,,,,,,,,,,,,,,,,,,,,,,,,,,,,,,
,fixation,,html-keyboard-response,619,928806,0.0-807.0,0,0,0TZUd,,null,,,null,,,,,,,,,,,,,,,,,,,,,,,,,,,,,,,,,,,,,,,,,,,,,
,final_decisions,,html-keyboard-response,620,930244,0.0-808.0,0,0,0TZUd,,1434,,,75,,,,68,58,25,,,40,40,Klinc1.jpg,Dekob1.jpg,1,0,25,58,,,,,,,28,26,0,1,0,,,,,,,,,,,,,,,,,,
,choice_confirmation,,html-keyboard-response,621,930757,0.0-809.0-0.0,0,0,0TZUd,,null,,,null,,,,68,58,25,,,,,,,,,,,,,,,,,,,,,,,,,,,,,,,,,,,,,,,
,fixation,,html-keyboard-response,622,931771,0.0-812.0,0,0,0TZUd,,null,,,null,,,,,,,,,,,,,,,,,,,,,,,,,,,,,,,,,,,,,,,,,,,,,
,final_decisions,,html-keyboard-response,623,932680,0.0-813.0,0,0,0TZUd,,905,,,68,,,,69,22,51,,,38,38,Klina1.jpg,Lewic1.jpg,1,1,22,51,,,,,,,29,32,0,0,0,,,,,,,,,,,,,,,,,,
,choice_confirmation,,html-keyboard-response,624,933188,0.0-814.0-0.0,0,0,0TZUd,,null,,,null,,,,69,22,51,,,,,,,,,,,,,,,,,,,,,,,,,,,,,,,,,,,,,,,
,fixation,,html-keyboard-response,625,934204,0.0-817.0,0,0,0TZUd,,null,,,null,,,,,,,,,,,,,,,,,,,,,,,,,,,,,,,,,,,,,,,,,,,,,
,final_decisions,,html-keyboard-response,626,935216,0.0-818.0,0,0,0TZUd,,1006,,,68,,,,70,58,10,,,40,39,Klinc1.jpg,Vinb1n.jpg,1,1,58,10,,,,,,,28,27,0,1,1,,,,,,,,,,,,,,,,,,
,choice_confirmation,,html-keyboard-response,627,935725,0.0-819.0-0.0,0,0,0TZUd,,null,,,null,,,,70,58,10,,,,,,,,,,,,,,,,,,,,,,,,,,,,,,,,,,,,,,,
,fixation,,html-keyboard-response,628,936736,0.0-822.0,0,0,0TZUd,,null,,,null,,,,,,,,,,,,,,,,,,,,,,,,,,,,,,,,,,,,,,,,,,,,,
,final_decisions,,html-keyboard-response,629,938007,0.0-823.0,0,0,0TZUd,,1265,,,68,,,,71,52,44,,,38,35,Dekoa1.jpg,Mackb1.jpg,1,1,52,44,,,,,,,34,25,0,0,0,,,,,,,,,,,,,,,,,,
,choice_confirmation,,html-keyboard-response,630,938520,0.0-824.0-0.0,0,0,0TZUd,,null,,,null,,,,71,52,44,,,,,,,,,,,,,,,,,,,,,,,,,,,,,,,,,,,,,,,
,block_over,,html-keyboard-response,631,940372,0.0-826.0-0.0,0,0,0TZUd,,1848,,,78,,,,,,,,,,,,,,,,,,,,,,,,,,,,,,,,,,,,,,,,,,,,,
,fixation,,html-keyboard-response,632,941385,0.0-827.0,0,0,0TZUd,,null,,,null,,,,,,,,,,,,,,,,,,,,,,,,,,,,,,,,,,,,,,,,,,,,,
,final_decisions,,html-keyboard-response,633,942242,0.0-828.0,0,0,0TZUd,,851,,,68,,,,72,59,57,,,42,36,Macka1.jpg,Lassa1.jpg,2,1,59,57,,,,,,,28,26,1,1,1,,,,,,,,,,,,,,,,,,
,choice_confirmation,,html-keyboard-response,634,942757,0.0-829.0-0.0,0,0,0TZUd,,null,,,null,,,,72,59,57,,,,,,,,,,,,,,,,,,,,,,,,,,,,,,,,,,,,,,,
,fixation,,html-keyboard-response,635,943770,0.0-832.0,0,0,0TZUd,,null,,,null,,,,,,,,,,,,,,,,,,,,,,,,,,,,,,,,,,,,,,,,,,,,,
,final_decisions,,html-keyboard-response,636,944492,0.0-833.0,0,0,0TZUd,,718,,,75,,,,73,46,59,,,54,42,Lewb1n.jpg,Macka1.jpg,2,0,59,46,,,,,,,27,28,1,0,1,,,,,,,,,,,,,,,,,,
,choice_confirmation,,html-keyboard-response,637,945003,0.0-834.0-0.0,0,0,0TZUd,,null,,,null,,,,73,46,59,,,,,,,,,,,,,,,,,,,,,,,,,,,,,,,,,,,,,,,
,fixation,,html-keyboard-response,638,946016,0.0-837.0,0,0,0TZUd,,null,,,null,,,,,,,,,,,,,,,,,,,,,,,,,,,,,,,,,,,,,,,,,,,,,
,final_decisions,,html-keyboard-response,639,946970,0.0-838.0,0,0,0TZUd,,950,,,75,,,,74,44,30,,,35,37,Mackb1.jpg,Kraa1n.jpg,2,0,30,44,,,,,,,25,35,0,1,0,,,,,,,,,,,,,,,,,,
,choice_confirmation,,html-keyboard-response,640,947483,0.0-839.0-0.0,0,0,0TZUd,,null,,,null,,,,74,44,30,,,,,,,,,,,,,,,,,,,,,,,,,,,,,,,,,,,,,,,
,fixation,,html-keyboard-response,641,948501,0.0-842.0,0,0,0TZUd,,null,,,null,,,,,,,,,,,,,,,,,,,,,,,,,,,,,,,,,,,,,,,,,,,,,
,final_decisions,,html-keyboard-response,642,949836,0.0-843.0,0,0,0TZUd,,1330,,,75,,,,75,40,10,,,36,39,Vinc1n.jpg,Vinb1n.jpg,2,0,10,40,,,,,,,31,27,0,1,0,,,,,,,,,,,,,,,,,,
,choice_confirmation,,html-keyboard-response,643,950351,0.0-844.0-0.0,0,0,0TZUd,,null,,,null,,,,75,40,10,,,,,,,,,,,,,,,,,,,,,,,,,,,,,,,,,,,,,,,
,fixation,,html-keyboard-response,644,951367,0.0-847.0,0,0,0TZUd,,null,,,null,,,,,,,,,,,,,,,,,,,,,,,,,,,,,,,,,,,,,,,,,,,,,
,final_decisions,,html-keyboard-response,645,952061,0.0-848.0,0,0,0TZUd,,690,,,75,,,,76,35,61,,,35,56,Gusa1n.jpg,Grigb1.jpg,2,0,61,35,,,,,,,30,31,1,0,1,,,,,,,,,,,,,,,,,,
,choice_confirmation,,html-keyboard-response,646,952567,0.0-849.0-0.0,0,0,0TZUd,,null,,,null,,,,76,35,61,,,,,,,,,,,,,,,,,,,,,,,,,,,,,,,,,,,,,,,
,fixation,,html-keyboard-response,647,953583,0.0-852.0,0,0,0TZUd,,null,,,null,,,,,,,,,,,,,,,,,,,,,,,,,,,,,,,,,,,,,,,,,,,,,
,final_decisions,,html-keyboard-response,648,954550,0.0-853.0,0,0,0TZUd,,963,,,75,,,,77,60,30,,,43,37,Kupc1n.jpg,Kraa1n.jpg,2,0,30,60,,,,,,,33,35,0,1,0,,,,,,,,,,,,,,,,,,
,choice_confirmation,,html-keyboard-response,649,955061,0.0-854.0-0.0,0,0,0TZUd,,null,,,null,,,,77,60,30,,,,,,,,,,,,,,,,,,,,,,,,,,,,,,,,,,,,,,,
,fixation,,html-keyboard-response,650,956066,0.0-857.0,0,0,0TZUd,,null,,,null,,,,,,,,,,,,,,,,,,,,,,,,,,,,,,,,,,,,,,,,,,,,,
,final_decisions,,html-keyboard-response,651,956856,0.0-858.0,0,0,0TZUd,,785,,,68,,,,78,31,57,,,39,36,Picac1.jpg,Lassa1.jpg,2,1,31,57,,,,,,,33,26,1,1,1,,,,,,,,,,,,,,,,,,
,choice_confirmation,,html-keyboard-response,652,957365,0.0-859.0-0.0,0,0,0TZUd,,null,,,null,,,,78,31,57,,,,,,,,,,,,,,,,,,,,,,,,,,,,,,,,,,,,,,,
,fixation,,html-keyboard-response,653,958381,0.0-862.0,0,0,0TZUd,,null,,,null,,,,,,,,,,,,,,,,,,,,,,,,,,,,,,,,,,,,,,,,,,,,,
,final_decisions,,html-keyboard-response,654,959192,0.0-863.0,0,0,0TZUd,,805,,,75,,,,79,57,61,,,36,56,Lassa1.jpg,Grigb1.jpg,2,0,61,57,,,,,,,26,31,1,0,1,,,,,,,,,,,,,,,,,,
,choice_confirmation,,html-keyboard-response,655,959699,0.0-864.0-0.0,0,0,0TZUd,,null,,,null,,,,79,57,61,,,,,,,,,,,,,,,,,,,,,,,,,,,,,,,,,,,,,,,
,fixation,,html-keyboard-response,656,960715,0.0-867.0,0,0,0TZUd,,null,,,null,,,,,,,,,,,,,,,,,,,,,,,,,,,,,,,,,,,,,,,,,,,,,
,final_decisions,,html-keyboard-response,657,961811,0.0-868.0,0,0,0TZUd,,1092,,,75,,,,80,40,22,,,36,38,Vinc1n.jpg,Klina1.jpg,2,0,22,40,,,,,,,31,29,0,1,0,,,,,,,,,,,,,,,,,,
,choice_confirmation,,html-keyboard-response,658,962331,0.0-869.0-0.0,0,0,0TZUd,,null,,,null,,,,80,40,22,,,,,,,,,,,,,,,,,,,,,,,,,,,,,,,,,,,,,,,
,fixation,,html-keyboard-response,659,963347,0.0-872.0,0,0,0TZUd,,null,,,null,,,,,,,,,,,,,,,,,,,,,,,,,,,,,,,,,,,,,,,,,,,,,
,final_decisions,,html-keyboard-response,660,964538,0.0-873.0,0,0,0TZUd,,1187,,,75,,,,81,39,56,,,35,54,Kupb1n.jpg,Clib1n.jpg,2,0,56,39,,,,,,,35,25,1,0,1,,,,,,,,,,,,,,,,,,
,choice_confirmation,,html-keyboard-response,661,965049,0.0-874.0-0.0,0,0,0TZUd,,null,,,null,,,,81,39,56,,,,,,,,,,,,,,,,,,,,,,,,,,,,,,,,,,,,,,,
,fixation,,html-keyboard-response,662,966054,0.0-877.0,0,0,0TZUd,,null,,,null,,,,,,,,,,,,,,,,,,,,,,,,,,,,,,,,,,,,,,,,,,,,,
,final_decisions,,html-keyboard-response,663,967016,0.0-878.0,0,0,0TZUd,,957,,,68,,,,82,38,40,,,34,36,Krasa1.jpg,Vinc1n.jpg,2,1,38,40,,,,,,,30,31,0,0,0,,,,,,,,,,,,,,,,,,
,choice_confirmation,,html-keyboard-response,664,967530,0.0-879.0-0.0,0,0,0TZUd,,null,,,null,,,,82,38,40,,,,,,,,,,,,,,,,,,,,,,,,,,,,,,,,,,,,,,,
,fixation,,html-keyboard-response,665,968547,0.0-882.0,0,0,0TZUd,,null,,,null,,,,,,,,,,,,,,,,,,,,,,,,,,,,,,,,,,,,,,,,,,,,,
,final_decisions,,html-keyboard-response,666,969246,0.0-883.0,0,0,0TZUd,,694,,,68,,,,83,61,46,,,56,54,Grigb1.jpg,Lewb1n.jpg,2,1,61,46,,,,,,,31,27,1,1,1,,,,,,,,,,,,,,,,,,
,choice_confirmation,,html-keyboard-response,667,969765,0.0-884.0-0.0,0,0,0TZUd,,null,,,null,,,,83,61,46,,,,,,,,,,,,,,,,,,,,,,,,,,,,,,,,,,,,,,,
,fixation,,html-keyboard-response,668,970769,0.0-887.0,0,0,0TZUd,,null,,,null,,,,,,,,,,,,,,,,,,,,,,,,,,,,,,,,,,,,,,,,,,,,,
,final_decisions,,html-keyboard-response,669,972095,0.0-888.0,0,0,0TZUd,,1321,,,68,,,,84,10,44,,,39,35,Vinb1n.jpg,Mackb1.jpg,2,1,10,44,,,,,,,27,25,0,0,0,,,,,,,,,,,,,,,,,,
,choice_confirmation,,html-keyboard-response,670,972611,0.0-889.0-0.0,0,0,0TZUd,,null,,,null,,,,84,10,44,,,,,,,,,,,,,,,,,,,,,,,,,,,,,,,,,,,,,,,
,fixation,,html-keyboard-response,671,973615,0.0-892.0,0,0,0TZUd,,null,,,null,,,,,,,,,,,,,,,,,,,,,,,,,,,,,,,,,,,,,,,,,,,,,
,final_decisions,,html-keyboard-response,672,974525,0.0-893.0,0,0,0TZUd,,905,,,75,,,,85,36,3,,,34,56,Gustb1.jpg,Klib1n.jpg,2,0,3,36,,,,,,,34,24,1,0,1,,,,,,,,,,,,,,,,,,
,choice_confirmation,,html-keyboard-response,673,975044,0.0-894.0-0.0,0,0,0TZUd,,null,,,null,,,,85,36,3,,,,,,,,,,,,,,,,,,,,,,,,,,,,,,,,,,,,,,,
,fixation,,html-keyboard-response,674,976049,0.0-897.0,0,0,0TZUd,,null,,,null,,,,,,,,,,,,,,,,,,,,,,,,,,,,,,,,,,,,,,,,,,,,,
,final_decisions,,html-keyboard-response,675,976839,0.0-898.0,0,0,0TZUd,,786,,,68,,,,86,38,58,,,34,40,Krasa1.jpg,Klinc1.jpg,2,1,38,58,,,,,,,30,28,0,0,0,,,,,,,,,,,,,,,,,,
,choice_confirmation,,html-keyboard-response,676,977356,0.0-899.0-0.0,0,0,0TZUd,,null,,,null,,,,86,38,58,,,,,,,,,,,,,,,,,,,,,,,,,,,,,,,,,,,,,,,
,fixation,,html-keyboard-response,677,978365,0.0-902.0,0,0,0TZUd,,null,,,null,,,,,,,,,,,,,,,,,,,,,,,,,,,,,,,,,,,,,,,,,,,,,
,final_decisions,,html-keyboard-response,678,979546,0.0-903.0,0,0,0TZUd,,1176,,,75,,,,87,36,59,,,34,42,Gustb1.jpg,Macka1.jpg,2,0,59,36,,,,,,,34,28,1,0,1,,,,,,,,,,,,,,,,,,
,choice_confirmation,,html-keyboard-response,679,980060,0.0-904.0-0.0,0,0,0TZUd,,null,,,null,,,,87,36,59,,,,,,,,,,,,,,,,,,,,,,,,,,,,,,,,,,,,,,,
,fixation,,html-keyboard-response,680,981065,0.0-907.0,0,0,0TZUd,,null,,,null,,,,,,,,,,,,,,,,,,,,,,,,,,,,,,,,,,,,,,,,,,,,,
,final_decisions,,html-keyboard-response,681,982243,0.0-908.0,0,0,0TZUd,,1174,,,68,,,,88,58,52,,,40,38,Klinc1.jpg,Dekoa1.jpg,2,1,58,52,,,,,,,28,34,0,1,1,,,,,,,,,,,,,,,,,,
,choice_confirmation,,html-keyboard-response,682,982748,0.0-909.0-0.0,0,0,0TZUd,,null,,,null,,,,88,58,52,,,,,,,,,,,,,,,,,,,,,,,,,,,,,,,,,,,,,,,
,fixation,,html-keyboard-response,683,983759,0.0-912.0,0,0,0TZUd,,null,,,null,,,,,,,,,,,,,,,,,,,,,,,,,,,,,,,,,,,,,,,,,,,,,
,final_decisions,,html-keyboard-response,684,984680,0.0-913.0,0,0,0TZUd,,916,,,68,,,,89,10,67,,,39,37,Vinb1n.jpg,Picab1.jpg,2,1,10,67,,,,,,,27,24,0,0,0,,,,,,,,,,,,,,,,,,
,choice_confirmation,,html-keyboard-response,685,985193,0.0-914.0-0.0,0,0,0TZUd,,null,,,null,,,,89,10,67,,,,,,,,,,,,,,,,,,,,,,,,,,,,,,,,,,,,,,,
,fixation,,html-keyboard-response,686,986208,0.0-917.0,0,0,0TZUd,,null,,,null,,,,,,,,,,,,,,,,,,,,,,,,,,,,,,,,,,,,,,,,,,,,,
,final_decisions,,html-keyboard-response,687,987357,0.0-918.0,0,0,0TZUd,,1145,,,75,,,,90,44,25,,,35,40,Mackb1.jpg,Dekob1.jpg,2,0,25,44,,,,,,,25,26,0,1,0,,,,,,,,,,,,,,,,,,
,choice_confirmation,,html-keyboard-response,688,987875,0.0-919.0-0.0,0,0,0TZUd,,null,,,null,,,,90,44,25,,,,,,,,,,,,,,,,,,,,,,,,,,,,,,,,,,,,,,,
,fixation,,html-keyboard-response,689,988878,0.0-922.0,0,0,0TZUd,,null,,,null,,,,,,,,,,,,,,,,,,,,,,,,,,,,,,,,,,,,,,,,,,,,,
,final_decisions,,html-keyboard-response,690,989913,0.0-923.0,0,0,0TZUd,,1031,,,75,,,,91,35,31,,,35,39,Gusa1n.jpg,Picac1.jpg,2,0,31,35,,,,,,,30,33,1,0,1,,,,,,,,,,,,,,,,,,
,choice_confirmation,,html-keyboard-response,691,990417,0.0-924.0-0.0,0,0,0TZUd,,null,,,null,,,,91,35,31,,,,,,,,,,,,,,,,,,,,,,,,,,,,,,,,,,,,,,,
,fixation,,html-keyboard-response,692,991435,0.0-927.0,0,0,0TZUd,,null,,,null,,,,,,,,,,,,,,,,,,,,,,,,,,,,,,,,,,,,,,,,,,,,,
,final_decisions,,html-keyboard-response,693,992541,0.0-928.0,0,0,0TZUd,,1102,,,75,,,,92,60,22,,,43,38,Kupc1n.jpg,Klina1.jpg,2,0,22,60,,,,,,,33,29,0,1,0,,,,,,,,,,,,,,,,,,
,choice_confirmation,,html-keyboard-response,694,993057,0.0-929.0-0.0,0,0,0TZUd,,null,,,null,,,,92,60,22,,,,,,,,,,,,,,,,,,,,,,,,,,,,,,,,,,,,,,,
,fixation,,html-keyboard-response,695,994074,0.0-932.0,0,0,0TZUd,,null,,,null,,,,,,,,,,,,,,,,,,,,,,,,,,,,,,,,,,,,,,,,,,,,,
,final_decisions,,html-keyboard-response,696,994887,0.0-933.0,0,0,0TZUd,,809,,,75,,,,93,39,3,,,35,56,Kupb1n.jpg,Klib1n.jpg,2,0,3,39,,,,,,,35,24,1,0,1,,,,,,,,,,,,,,,,,,
