success,ttype,start_time,trial_type,trial_index,time_elapsed,internal_node_id,warning,missed_checkup,PID,view_history,rt,responses,repeat_instructions,key_press,response,stimulus_id,painting,index,stimulus_left,stimulus_right,explain_trial,reward_type,rating_left,rating_right,painting_left,painting_right,block,left_chosen,chosen_obj,unchosen_obj,explain_response,reward_amount,see_reward_rt,register_reward_response,register_reward_rt,deliberation_reward_tally,stimulus_left_deliberation_ind,stimulus_right_deliberation_ind,chosen_trial,gain_left,higher_outcome_chosen,old_pair,chosen_object,rt_pairs,left_object_chosen,rt_object,old_response,new_rating,deliberated_stim,initial_rating,outcome_eval_rt,outcome_eval_response,outcome_eval_gain,outcome_eval_acc,preamble,outcome_eval_confidence,outcome_eval_confidence_rt,total_reward_tally,stim_type
TRUE,full_screen,d04132020hr1542,fullscreen,0,13467,0.0-0.0,0,0,1mICX,,,,,,,,,,,,,,,,,,,,,,,,,,,,,,,,,,,,,,,,,,,,,,,,,,
,rating_instructions,,instructions,1,25165,0.0-1.0-0.0,0,0,1mICX,"[{""page_index"":0,""viewing_time"":9802},{""page_index"":1,""viewing_time"":1891}]",11694,,,,,,,,,,,,,,,,,,,,,,,,,,,,,,,,,,,,,,,,,,,,,,,,
,rating_comprehension_check,,survey-multi-choice,2,30745,0.0-1.0-1.0,0,0,1mICX,,5573,"{""Q0"":""True"",""Q1"":""Mouse""}",0,,,,,,,,,,,,,,,,,,,,,,,,,,,,,,,,,,,,,,,,,,,,,,
,start_phase,,html-keyboard-response,3,34817,0.0-2.0,0,0,1mICX,,4062,,,78,,,,,,,,,,,,,,,,,,,,,,,,,,,,,,,,,,,,,,,,,,,,,
,rating,,html-slider-response,4,38743,0.0-3.0,0,0,1mICX,,3922,,,,23,15,Lassc1.jpg,0,,,,,,,,,,,,,,,,,,,,,,,,,,,,,,,,,,,,,,,,,
,rating,,html-slider-response,5,42782,0.0-4.0,0,0,1mICX,,4035,,,,66,63,Lewia1.jpg,1,,,,,,,,,,,,,,,,,,,,,,,,,,,,,,,,,,,,,,,,,
,rating,,html-slider-response,6,46437,0.0-5.0,0,0,1mICX,,3651,,,,7,47,Vina1n.jpg,2,,,,,,,,,,,,,,,,,,,,,,,,,,,,,,,,,,,,,,,,,
,rating,,html-slider-response,7,52717,0.0-6.0,0,0,1mICX,,6276,,,,64,55,Clia1n.jpg,3,,,,,,,,,,,,,,,,,,,,,,,,,,,,,,,,,,,,,,,,,
,rating,,html-slider-response,8,56259,0.0-7.0,0,0,1mICX,,3536,,,,63,38,Krasa1.jpg,4,,,,,,,,,,,,,,,,,,,,,,,,,,,,,,,,,,,,,,,,,
,rating,,html-slider-response,9,59994,0.0-8.0,0,0,1mICX,,3731,,,,82,32,Kupkb1.jpg,5,,,,,,,,,,,,,,,,,,,,,,,,,,,,,,,,,,,,,,,,,
,rating,,html-slider-response,10,63009,0.0-9.0,0,0,1mICX,,3011,,,,5,33,Kline1.jpg,6,,,,,,,,,,,,,,,,,,,,,,,,,,,,,,,,,,,,,,,,,
,rating,,html-slider-response,11,66126,0.0-10.0,0,0,1mICX,,3113,,,,18,3,Klib1n.jpg,7,,,,,,,,,,,,,,,,,,,,,,,,,,,,,,,,,,,,,,,,,
,rating,,html-slider-response,12,69005,0.0-11.0,0,0,1mICX,,2877,,,,28,37,Deka1n.jpg,8,,,,,,,,,,,,,,,,,,,,,,,,,,,,,,,,,,,,,,,,,
,rating,,html-slider-response,13,72840,0.0-12.0,0,0,1mICX,,3832,,,,54,65,Roha1n.jpg,9,,,,,,,,,,,,,,,,,,,,,,,,,,,,,,,,,,,,,,,,,
,rating,,html-slider-response,14,77340,0.0-13.0,0,0,1mICX,,4497,,,,64,40,Vinc1n.jpg,10,,,,,,,,,,,,,,,,,,,,,,,,,,,,,,,,,,,,,,,,,
,rating,,html-slider-response,15,81066,0.0-14.0,0,0,1mICX,,3722,,,,65,8,Picd1n.jpg,11,,,,,,,,,,,,,,,,,,,,,,,,,,,,,,,,,,,,,,,,,
,rating,,html-slider-response,16,85070,0.0-15.0,0,0,1mICX,,4001,,,,34,62,Mona1n.jpg,12,,,,,,,,,,,,,,,,,,,,,,,,,,,,,,,,,,,,,,,,,
,rating,,html-slider-response,17,87579,0.0-16.0,0,0,1mICX,,2504,,,,23,29,Klinb1.jpg,13,,,,,,,,,,,,,,,,,,,,,,,,,,,,,,,,,,,,,,,,,
,rating,,html-slider-response,18,91156,0.0-17.0,0,0,1mICX,,3575,,,,30,42,Mackc1.jpg,14,,,,,,,,,,,,,,,,,,,,,,,,,,,,,,,,,,,,,,,,,
,rating,,html-slider-response,19,94060,0.0-18.0,0,0,1mICX,,2900,,,,42,59,Macka1.jpg,15,,,,,,,,,,,,,,,,,,,,,,,,,,,,,,,,,,,,,,,,,
,rating,,html-slider-response,20,96670,0.0-19.0,0,0,1mICX,,2607,,,,22,18,Krab1n.jpg,16,,,,,,,,,,,,,,,,,,,,,,,,,,,,,,,,,,,,,,,,,
,rating,,html-slider-response,21,99256,0.0-20.0,0,0,1mICX,,2584,,,,56,22,Klina1.jpg,17,,,,,,,,,,,,,,,,,,,,,,,,,,,,,,,,,,,,,,,,,
,rating,,html-slider-response,22,101912,0.0-21.0,0,0,1mICX,,2652,,,,25,4,Krasb1.jpg,18,,,,,,,,,,,,,,,,,,,,,,,,,,,,,,,,,,,,,,,,,
,rating,,html-slider-response,23,104565,0.0-22.0,0,0,1mICX,,2650,,,,3,58,Klinc1.jpg,19,,,,,,,,,,,,,,,,,,,,,,,,,,,,,,,,,,,,,,,,,
,rating,,html-slider-response,24,107795,0.0-23.0,0,0,1mICX,,3227,,,,58,54,Rohla1.jpg,20,,,,,,,,,,,,,,,,,,,,,,,,,,,,,,,,,,,,,,,,,
,rating,,html-slider-response,25,111654,0.0-24.0,0,0,1mICX,,3856,,,,57,43,Clifb1.jpg,21,,,,,,,,,,,,,,,,,,,,,,,,,,,,,,,,,,,,,,,,,
,rating,,html-slider-response,26,116569,0.0-25.0,0,0,1mICX,,4912,,,,40,16,Vincc1.jpg,22,,,,,,,,,,,,,,,,,,,,,,,,,,,,,,,,,,,,,,,,,
,rating,,html-slider-response,27,124492,0.0-26.0,0,0,1mICX,,7919,,,,9,27,Gustc1.jpg,23,,,,,,,,,,,,,,,,,,,,,,,,,,,,,,,,,,,,,,,,,
,rating,,html-slider-response,28,127246,0.0-27.0,0,0,1mICX,,2751,,,,3,26,Klid1n.jpg,24,,,,,,,,,,,,,,,,,,,,,,,,,,,,,,,,,,,,,,,,,
,rating,,html-slider-response,29,130149,0.0-28.0,0,0,1mICX,,2900,,,,0,19,Picc1n.jpg,25,,,,,,,,,,,,,,,,,,,,,,,,,,,,,,,,,,,,,,,,,
,rating,,html-slider-response,30,132770,0.0-29.0,0,0,1mICX,,2617,,,,0,20,Picb1n.jpg,26,,,,,,,,,,,,,,,,,,,,,,,,,,,,,,,,,,,,,,,,,
,rating,,html-slider-response,31,135842,0.0-30.0,0,0,1mICX,,3069,,,,0,45,Lasc1n.jpg,27,,,,,,,,,,,,,,,,,,,,,,,,,,,,,,,,,,,,,,,,,
,rating,,html-slider-response,32,139182,0.0-31.0,0,0,1mICX,,3337,,,,63,39,Kupb1n.jpg,28,,,,,,,,,,,,,,,,,,,,,,,,,,,,,,,,,,,,,,,,,
,rating,,html-slider-response,33,143751,0.0-32.0,0,0,1mICX,,4566,,,,39,51,Lewic1.jpg,29,,,,,,,,,,,,,,,,,,,,,,,,,,,,,,,,,,,,,,,,,
,rating,,html-slider-response,34,147216,0.0-33.0,0,0,1mICX,,3461,,,,60,50,Klic1n.jpg,30,,,,,,,,,,,,,,,,,,,,,,,,,,,,,,,,,,,,,,,,,
,rating,,html-slider-response,35,160783,0.0-34.0,0,0,1mICX,,13564,,,,57,49,Lewc1n.jpg,31,,,,,,,,,,,,,,,,,,,,,,,,,,,,,,,,,,,,,,,,,
,rating,,html-slider-response,36,164148,0.0-35.0,0,0,1mICX,,3361,,,,33,13,Kupka1.jpg,32,,,,,,,,,,,,,,,,,,,,,,,,,,,,,,,,,,,,,,,,,
,rating,,html-slider-response,37,167049,0.0-36.0,0,0,1mICX,,2899,,,,9,7,Macb1n.jpg,33,,,,,,,,,,,,,,,,,,,,,,,,,,,,,,,,,,,,,,,,,
,rating,,html-slider-response,38,170233,0.0-37.0,0,0,1mICX,,3181,,,,64,68,Mondb1.jpg,34,,,,,,,,,,,,,,,,,,,,,,,,,,,,,,,,,,,,,,,,,
,rating,,html-slider-response,39,173080,0.0-38.0,0,0,1mICX,,2843,,,,39,34,Lasb1n.jpg,35,,,,,,,,,,,,,,,,,,,,,,,,,,,,,,,,,,,,,,,,,
,rating,,html-slider-response,40,176106,0.0-39.0,0,0,1mICX,,3022,,,,12,44,Mackb1.jpg,36,,,,,,,,,,,,,,,,,,,,,,,,,,,,,,,,,,,,,,,,,
,rating,,html-slider-response,41,179391,0.0-40.0,0,0,1mICX,,3283,,,,59,23,Rohlb1.jpg,37,,,,,,,,,,,,,,,,,,,,,,,,,,,,,,,,,,,,,,,,,
,rating,,html-slider-response,42,181247,0.0-41.0,0,0,1mICX,,1853,,,,5,67,Picab1.jpg,38,,,,,,,,,,,,,,,,,,,,,,,,,,,,,,,,,,,,,,,,,
,rating,,html-slider-response,43,184409,0.0-42.0,0,0,1mICX,,3158,,,,18,31,Picac1.jpg,39,,,,,,,,,,,,,,,,,,,,,,,,,,,,,,,,,,,,,,,,,
,rating,,html-slider-response,44,187795,0.0-43.0,0,0,1mICX,,3383,,,,0,21,Kupkc1.jpg,40,,,,,,,,,,,,,,,,,,,,,,,,,,,,,,,,,,,,,,,,,
,rating,,html-slider-response,45,190606,0.0-44.0,0,0,1mICX,,2808,,,,3,56,Clib1n.jpg,41,,,,,,,,,,,,,,,,,,,,,,,,,,,,,,,,,,,,,,,,,
,rating,,html-slider-response,46,193014,0.0-45.0,0,0,1mICX,,2405,,,,0,53,Macc1n.jpg,42,,,,,,,,,,,,,,,,,,,,,,,,,,,,,,,,,,,,,,,,,
,rating,,html-slider-response,47,197075,0.0-46.0,0,0,1mICX,,4058,,,,0,17,Picaa1.jpg,43,,,,,,,,,,,,,,,,,,,,,,,,,,,,,,,,,,,,,,,,,
,rating,,html-slider-response,48,200193,0.0-47.0,0,0,1mICX,,3115,,,,41,28,Pice1n.jpg,44,,,,,,,,,,,,,,,,,,,,,,,,,,,,,,,,,,,,,,,,,
,rating,,html-slider-response,49,204434,0.0-48.0,0,0,1mICX,,4238,,,,8,61,Grigb1.jpg,45,,,,,,,,,,,,,,,,,,,,,,,,,,,,,,,,,,,,,,,,,
,rating,,html-slider-response,50,207347,0.0-49.0,0,0,1mICX,,2910,,,,0,2,Dekb1n.jpg,46,,,,,,,,,,,,,,,,,,,,,,,,,,,,,,,,,,,,,,,,,
,rating,,html-slider-response,51,219464,0.0-50.0,0,0,1mICX,,12114,,,,14,64,Vincb1.jpg,47,,,,,,,,,,,,,,,,,,,,,,,,,,,,,,,,,,,,,,,,,
,rating,,html-slider-response,52,222332,0.0-51.0,0,0,1mICX,,2865,,,,59,69,Picad1.jpg,48,,,,,,,,,,,,,,,,,,,,,,,,,,,,,,,,,,,,,,,,,
,rating,,html-slider-response,53,225966,0.0-52.0,0,0,1mICX,,3631,,,,28,24,Lewa1n.jpg,49,,,,,,,,,,,,,,,,,,,,,,,,,,,,,,,,,,,,,,,,,
,rating,,html-slider-response,54,228149,0.0-53.0,0,0,1mICX,,2179,,,,0,10,Vinb1n.jpg,50,,,,,,,,,,,,,,,,,,,,,,,,,,,,,,,,,,,,,,,,,
,rating,,html-slider-response,55,232885,0.0-54.0,0,0,1mICX,,4734,,,,37,1,Monda1.jpg,51,,,,,,,,,,,,,,,,,,,,,,,,,,,,,,,,,,,,,,,,,
,rating,,html-slider-response,56,236621,0.0-55.0,0,0,1mICX,,3732,,,,29,41,Picae1.jpg,52,,,,,,,,,,,,,,,,,,,,,,,,,,,,,,,,,,,,,,,,,
,rating,,html-slider-response,57,242695,0.0-56.0,0,0,1mICX,,6071,,,,16,52,Dekoa1.jpg,53,,,,,,,,,,,,,,,,,,,,,,,,,,,,,,,,,,,,,,,,,
,rating,,html-slider-response,58,245484,0.0-57.0,0,0,1mICX,,2786,,,,6,60,Kupc1n.jpg,54,,,,,,,,,,,,,,,,,,,,,,,,,,,,,,,,,,,,,,,,,
,rating,,html-slider-response,59,248467,0.0-58.0,0,0,1mICX,,2979,,,,0,25,Dekob1.jpg,55,,,,,,,,,,,,,,,,,,,,,,,,,,,,,,,,,,,,,,,,,
,rating,,html-slider-response,60,251795,0.0-59.0,0,0,1mICX,,3326,,,,9,66,Vinca1.jpg,56,,,,,,,,,,,,,,,,,,,,,,,,,,,,,,,,,,,,,,,,,
,rating,,html-slider-response,61,254328,0.0-60.0,0,0,1mICX,,2529,,,,4,5,Pica1n.jpg,57,,,,,,,,,,,,,,,,,,,,,,,,,,,,,,,,,,,,,,,,,
,rating,,html-slider-response,62,257793,0.0-61.0,0,0,1mICX,,3461,,,,1,14,Grib1n.jpg,58,,,,,,,,,,,,,,,,,,,,,,,,,,,,,,,,,,,,,,,,,
,rating,,html-slider-response,63,262113,0.0-62.0,0,0,1mICX,,4316,,,,35,11,Clifa1.jpg,59,,,,,,,,,,,,,,,,,,,,,,,,,,,,,,,,,,,,,,,,,
,deliberation_instructions,,instructions,64,316452,0.0-63.0-0.0,0,0,1mICX,"[{""page_index"":0,""viewing_time"":39324},{""page_index"":1,""viewing_time"":4556},{""page_index"":2,""viewing_time"":8921},{""page_index"":3,""viewing_time"":1530}]",54333,,,,,,,,,,,,,,,,,,,,,,,,,,,,,,,,,,,,,,,,,,,,,,,,
,deliberation_comprehension_check,,survey-multi-choice,65,340403,0.0-63.0-1.0,0,0,1mICX,,23942,"{""Q0"":""True"",""Q1"":""False"",""Q2"":""Do it as quickly as possible"",""Q3"":""True"",""Q4"":""K""}",1,,,,,,,,,,,,,,,,,,,,,,,,,,,,,,,,,,,,,,,,,,,,,,
,missed_instruction_checkup,,html-keyboard-response,66,342945,0.0-63.0-2.0-0.0,0,1,1mICX,,2532,,,78,,,,,,,,,,,,,,,,,,,,,,,,,,,,,,,,,,,,,,,,,,,,,
,deliberation_instructions,,instructions,67,382724,0.0-63.1-0.1,0,0,1mICX,"[{""page_index"":0,""viewing_time"":19640},{""page_index"":1,""viewing_time"":17100},{""page_index"":2,""viewing_time"":1710},{""page_index"":3,""viewing_time"":1326}]",39777,,,,,,,,,,,,,,,,,,,,,,,,,,,,,,,,,,,,,,,,,,,,,,,,
,deliberation_comprehension_check,,survey-multi-choice,68,400736,0.0-63.1-1.1,0,0,1mICX,,18005,"{""Q0"":""True"",""Q1"":""True"",""Q2"":""Consider carefully and take your time (up to 10 seconds)"",""Q3"":""True"",""Q4"":""K""}",1,,,,,,,,,,,,,,,,,,,,,,,,,,,,,,,,,,,,,,,,,,,,,,
,missed_instruction_checkup,,html-keyboard-response,69,403576,0.0-63.1-2.1-0.1,0,1,1mICX,,2833,,,78,,,,,,,,,,,,,,,,,,,,,,,,,,,,,,,,,,,,,,,,,,,,,
,deliberation_instructions,,instructions,70,425282,0.0-63.2-0.2,0,0,1mICX,"[{""page_index"":0,""viewing_time"":1287},{""page_index"":1,""viewing_time"":18494},{""page_index"":2,""viewing_time"":787},{""page_index"":3,""viewing_time"":1136}]",21705,,,,,,,,,,,,,,,,,,,,,,,,,,,,,,,,,,,,,,,,,,,,,,,,
,deliberation_comprehension_check,,survey-multi-choice,71,452339,0.0-63.2-1.2,0,0,1mICX,,27052,"{""Q0"":""True"",""Q1"":""True"",""Q2"":""Consider carefully and take your time (up to 10 seconds)"",""Q3"":""True"",""Q4"":""K""}",1,,,,,,,,,,,,,,,,,,,,,,,,,,,,,,,,,,,,,,,,,,,,,,
,missed_instruction_checkup,,html-keyboard-response,72,454297,0.0-63.2-2.2-0.2,0,1,1mICX,,1951,,,78,,,,,,,,,,,,,,,,,,,,,,,,,,,,,,,,,,,,,,,,,,,,,
,deliberation_instructions,,instructions,73,482484,0.0-63.3-0.3,0,0,1mICX,"[{""page_index"":0,""viewing_time"":7905},{""page_index"":1,""viewing_time"":13172},{""page_index"":2,""viewing_time"":5882},{""page_index"":3,""viewing_time"":1227}]",28186,,,,,,,,,,,,,,,,,,,,,,,,,,,,,,,,,,,,,,,,,,,,,,,,
,deliberation_comprehension_check,,survey-multi-choice,74,490213,0.0-63.3-1.3,0,0,1mICX,,7721,"{""Q0"":""True"",""Q1"":""True"",""Q2"":""Consider carefully and take your time (up to 10 seconds)"",""Q3"":""True"",""Q4"":""D""}",0,,,,,,,,,,,,,,,,,,,,,,,,,,,,,,,,,,,,,,,,,,,,,,
,start_phase,,html-keyboard-response,75,492287,0.0-64.0,0,0,1mICX,,2067,,,78,,,,,,,,,,,,,,,,,,,,,,,,,,,,,,,,,,,,,,,,,,,,,
,first_deliberation_block,,html-keyboard-response,76,494711,0.0-65.0,0,0,1mICX,,2422,,,78,,,,,,,,,,,,,,,,,,,,,,,,,,,,,,,,,,,,,,,,,,,,,
,fixation,,html-keyboard-response,77,495717,0.0-66.0-0.0,0,0,1mICX,,null,,,null,,,,,,,,,,,,,,,,,,,,,,,,,,,,,,,,,,,,,,,,,,,,,
,deliberation,,html-keyboard-response,78,498127,0.0-66.0-1.0,0,0,1mICX,,2407,,,75,,,,0,29,13,0,-1,23,33,Klinb1.jpg,Kupka1.jpg,1,0,13,29,,,,,,,,,,,,,,,,,,,,,,,,,,,,,
,choice_confirmation,,html-keyboard-response,79,498631,0.0-66.0-2.0-0.0,0,0,1mICX,,null,,,null,,,,0,29,13,,,,,,,,,,,,,,,,,,,,,,,,,,,,,,,,,,,,,,,
,fixation,,html-keyboard-response,80,499640,0.0-67.0-0.0,0,0,1mICX,,null,,,null,,,,,,,,,,,,,,,,,,,,,,,,,,,,,,,,,,,,,,,,,,,,,
,deliberation,,html-keyboard-response,81,501319,0.0-67.0-1.0,0,0,1mICX,,1676,,,68,,,,1,34,3,1,1,39,18,Lasb1n.jpg,Klib1n.jpg,1,1,34,3,,,,,,,,,,,,,,,,,,,,,,,,,,,,,
,choice_confirmation,,html-keyboard-response,82,501824,0.0-67.0-2.0-0.0,0,0,1mICX,,null,,,null,,,,1,34,3,,,,,,,,,,,,,,,,,,,,,,,,,,,,,,,,,,,,,,,
,explain_trial,,survey-text,83,513938,0.0-67.0-5.0-0.0,0,0,1mICX,,12109,"{""Q0"":""I think it looks more realistic.""}",,,,,,1,34,3,,,,,,,,,,,"{""Q0"":""I think it looks more realistic.""}",,,,,,,,,,,,,,,,,,,,,,,,,,,,
,fixation,,html-keyboard-response,84,514946,0.0-68.0-0.0,0,0,1mICX,,null,,,null,,,,,,,,,,,,,,,,,,,,,,,,,,,,,,,,,,,,,,,,,,,,,
,deliberation,,html-keyboard-response,85,516782,0.0-68.0-1.0,0,0,1mICX,,1833,,,68,,,,2,37,64,1,-1,28,14,Deka1n.jpg,Vincb1.jpg,1,1,37,64,,,,,,,,,,,,,,,,,,,,,,,,,,,,,
,choice_confirmation,,html-keyboard-response,86,517287,0.0-68.0-2.0-0.0,0,0,1mICX,,null,,,null,,,,2,37,64,,,,,,,,,,,,,,,,,,,,,,,,,,,,,,,,,,,,,,,
,explain_trial,,survey-text,87,534818,0.0-68.0-5.0-0.0,0,0,1mICX,,17528,"{""Q0"":""I think it looks more realistic.""}",,,,,,2,37,64,,,,,,,,,,,"{""Q0"":""I think it looks more realistic.""}",,,,,,,,,,,,,,,,,,,,,,,,,,,,
,fixation,,html-keyboard-response,88,535822,0.0-69.0-0.0,0,0,1mICX,,null,,,null,,,,,,,,,,,,,,,,,,,,,,,,,,,,,,,,,,,,,,,,,,,,,
,deliberation,,html-keyboard-response,89,538558,0.0-69.0-1.0,0,0,1mICX,,2733,,,68,,,,3,18,44,1,1,22,12,Krab1n.jpg,Mackb1.jpg,1,1,18,44,,,,,,,,,,,,,,,,,,,,,,,,,,,,,
,choice_confirmation,,html-keyboard-response,90,539061,0.0-69.0-2.0-0.0,0,0,1mICX,,null,,,null,,,,3,18,44,,,,,,,,,,,,,,,,,,,,,,,,,,,,,,,,,,,,,,,
,explain_trial,,survey-text,91,552628,0.0-69.0-5.0-0.0,0,0,1mICX,,13562,"{""Q0"":""It is a young woman instead of an old one.""}",,,,,,3,18,44,,,,,,,,,,,"{""Q0"":""It is a young woman instead of an old one.""}",,,,,,,,,,,,,,,,,,,,,,,,,,,,
,fixation,,html-keyboard-response,92,553634,0.0-70.0-0.0,0,0,1mICX,,null,,,null,,,,,,,,,,,,,,,,,,,,,,,,,,,,,,,,,,,,,,,,,,,,,
,deliberation,,html-keyboard-response,93,558445,0.0-70.0-1.0,0,0,1mICX,,4808,,,68,,,,4,27,24,0,-1,9,28,Gustc1.jpg,Lewa1n.jpg,1,1,27,24,,,,,,,,,,,,,,,,,,,,,,,,,,,,,
,choice_confirmation,,html-keyboard-response,94,558949,0.0-70.0-2.0-0.0,0,0,1mICX,,null,,,null,,,,4,27,24,,,,,,,,,,,,,,,,,,,,,,,,,,,,,,,,,,,,,,,
,fixation,,html-keyboard-response,95,559957,0.0-71.0-0.0,0,0,1mICX,,null,,,null,,,,,,,,,,,,,,,,,,,,,,,,,,,,,,,,,,,,,,,,,,,,,
,deliberation,,html-keyboard-response,96,562054,0.0-71.0-1.0,0,0,1mICX,,2093,,,68,,,,5,52,16,0,-1,16,40,Dekoa1.jpg,Vincc1.jpg,1,1,52,16,,,,,,,,,,,,,,,,,,,,,,,,,,,,,
,choice_confirmation,,html-keyboard-response,97,562557,0.0-71.0-2.0-0.0,0,0,1mICX,,null,,,null,,,,5,52,16,,,,,,,,,,,,,,,,,,,,,,,,,,,,,,,,,,,,,,,
,fixation,,html-keyboard-response,98,563564,0.0-72.0-0.0,0,0,1mICX,,null,,,null,,,,,,,,,,,,,,,,,,,,,,,,,,,,,,,,,,,,,,,,,,,,,
,deliberation,,html-keyboard-response,99,565893,0.0-72.0-1.0,0,0,1mICX,,2325,,,68,,,,6,4,62,0,1,25,34,Krasb1.jpg,Mona1n.jpg,1,1,4,62,,,,,,,,,,,,,,,,,,,,,,,,,,,,,
,choice_confirmation,,html-keyboard-response,100,566397,0.0-72.0-2.0-0.0,0,0,1mICX,,null,,,null,,,,6,4,62,,,,,,,,,,,,,,,,,,,,,,,,,,,,,,,,,,,,,,,
,fixation,,html-keyboard-response,101,567400,0.0-73.0-0.0,0,0,1mICX,,null,,,null,,,,,,,,,,,,,,,,,,,,,,,,,,,,,,,,,,,,,,,,,,,,,
,deliberation,,html-keyboard-response,102,570141,0.0-73.0-1.0,0,0,1mICX,,2738,,,68,,,,7,11,61,0,1,35,8,Clifa1.jpg,Grigb1.jpg,1,1,11,61,,,,,,,,,,,,,,,,,,,,,,,,,,,,,
,choice_confirmation,,html-keyboard-response,103,570644,0.0-73.0-2.0-0.0,0,0,1mICX,,null,,,null,,,,7,11,61,,,,,,,,,,,,,,,,,,,,,,,,,,,,,,,,,,,,,,,
,fixation,,html-keyboard-response,104,571651,0.0-74.0-0.0,0,0,1mICX,,null,,,null,,,,,,,,,,,,,,,,,,,,,,,,,,,,,,,,,,,,,,,,,,,,,
,deliberation,,html-keyboard-response,105,573988,0.0-74.0-1.0,0,0,1mICX,,2334,,,68,,,,8,31,51,1,1,18,39,Picac1.jpg,Lewic1.jpg,1,1,31,51,,,,,,,,,,,,,,,,,,,,,,,,,,,,,
,choice_confirmation,,html-keyboard-response,106,574494,0.0-74.0-2.0-0.0,0,0,1mICX,,null,,,null,,,,8,31,51,,,,,,,,,,,,,,,,,,,,,,,,,,,,,,,,,,,,,,,
,explain_trial,,survey-text,107,589359,0.0-74.0-5.0-0.0,0,0,1mICX,,14862,"{""Q0"":""This painting looks more realistic than the other.""}",,,,,,8,31,51,,,,,,,,,,,"{""Q0"":""This painting looks more realistic than the other.""}",,,,,,,,,,,,,,,,,,,,,,,,,,,,
,fixation,,html-keyboard-response,108,590366,0.0-75.0-0.0,0,0,1mICX,,null,,,null,,,,,,,,,,,,,,,,,,,,,,,,,,,,,,,,,,,,,,,,,,,,,
,deliberation,,html-keyboard-response,109,592378,0.0-75.0-1.0,0,0,1mICX,,2009,,,68,,,,9,41,66,1,-1,29,9,Picae1.jpg,Vinca1.jpg,1,1,41,66,,,,,,,,,,,,,,,,,,,,,,,,,,,,,
,choice_confirmation,,html-keyboard-response,110,592880,0.0-75.0-2.0-0.0,0,0,1mICX,,null,,,null,,,,9,41,66,,,,,,,,,,,,,,,,,,,,,,,,,,,,,,,,,,,,,,,
,explain_trial,,survey-text,111,602735,0.0-75.0-5.0-0.0,0,0,1mICX,,9852,"{""Q0"":""This painting is more colorful. ""}",,,,,,9,41,66,,,,,,,,,,,"{""Q0"":""This painting is more colorful. ""}",,,,,,,,,,,,,,,,,,,,,,,,,,,,
,fixation,,html-keyboard-response,112,603740,0.0-76.0-0.0,0,0,1mICX,,null,,,null,,,,,,,,,,,,,,,,,,,,,,,,,,,,,,,,,,,,,,,,,,,,,
,deliberation,,html-keyboard-response,113,605605,0.0-76.0-1.0,0,0,1mICX,,1860,,,75,,,,10,15,42,1,1,23,30,Lassc1.jpg,Mackc1.jpg,1,0,42,15,,,,,,,,,,,,,,,,,,,,,,,,,,,,,
,choice_confirmation,,html-keyboard-response,114,606108,0.0-76.0-2.0-0.0,0,0,1mICX,,null,,,null,,,,10,15,42,,,,,,,,,,,,,,,,,,,,,,,,,,,,,,,,,,,,,,,
,explain_trial,,survey-text,115,618700,0.0-76.0-5.0-0.0,0,0,1mICX,,12588,"{""Q0"":""The one on the left is disturbing.""}",,,,,,10,15,42,,,,,,,,,,,"{""Q0"":""The one on the left is disturbing.""}",,,,,,,,,,,,,,,,,,,,,,,,,,,,
,fixation,,html-keyboard-response,116,619706,0.0-77.0-0.0,0,0,1mICX,,null,,,null,,,,,,,,,,,,,,,,,,,,,,,,,,,,,,,,,,,,,,,,,,,,,
,deliberation,,html-keyboard-response,117,621588,0.0-77.0-1.0,0,0,1mICX,,1879,,,68,,,,11,1,7,0,-1,37,9,Monda1.jpg,Macb1n.jpg,1,1,1,7,,,,,,,,,,,,,,,,,,,,,,,,,,,,,
,choice_confirmation,,html-keyboard-response,118,622092,0.0-77.0-2.0-0.0,0,0,1mICX,,null,,,null,,,,11,1,7,,,,,,,,,,,,,,,,,,,,,,,,,,,,,,,,,,,,,,,
,practice_deliberation_again,,html-keyboard-response,119,625267,0.0-77.0-6.0-0.0,0,0,1mICX,,3173,,,78,,,,,,,,,,,,,,,,,,,,,,,,,,,,,,,,,,,,,,,,,,,,,
,fixation,,html-keyboard-response,120,626273,0.0-78.0-0.0,0,0,1mICX,,null,,,null,,,,,,,,,,,,,,,,,,,,,,,,,,,,,,,,,,,,,,,,,,,,,
,deliberation,,html-keyboard-response,121,629060,0.0-78.0-1.0,0,0,1mICX,,2784,,,68,,,,12,11,61,1,1,35,8,Clifa1.jpg,Grigb1.jpg,2,1,11,61,,,,,,,,,,,,,,,,,,,,,,,,,,,,,
,choice_confirmation,,html-keyboard-response,122,629565,0.0-78.0-2.0-0.0,0,0,1mICX,,null,,,null,,,,12,11,61,,,,,,,,,,,,,,,,,,,,,,,,,,,,,,,,,,,,,,,
,explain_trial,,survey-text,123,641166,0.0-78.0-5.0-0.0,0,0,1mICX,,11597,"{""Q0"":""I think this painting looks more attractive.""}",,,,,,12,11,61,,,,,,,,,,,"{""Q0"":""I think this painting looks more attractive.""}",,,,,,,,,,,,,,,,,,,,,,,,,,,,
,fixation,,html-keyboard-response,124,642173,0.0-79.0-0.0,0,0,1mICX,,null,,,null,,,,,,,,,,,,,,,,,,,,,,,,,,,,,,,,,,,,,,,,,,,,,
,deliberation,,html-keyboard-response,125,644004,0.0-79.0-1.0,0,0,1mICX,,1827,,,68,,,,13,18,44,0,1,22,12,Krab1n.jpg,Mackb1.jpg,2,1,18,44,,,,,,,,,,,,,,,,,,,,,,,,,,,,,
,choice_confirmation,,html-keyboard-response,126,644507,0.0-79.0-2.0-0.0,0,0,1mICX,,null,,,null,,,,13,18,44,,,,,,,,,,,,,,,,,,,,,,,,,,,,,,,,,,,,,,,
,fixation,,html-keyboard-response,127,645513,0.0-80.0-0.0,0,0,1mICX,,null,,,null,,,,,,,,,,,,,,,,,,,,,,,,,,,,,,,,,,,,,,,,,,,,,
,deliberation,,html-keyboard-response,128,646812,0.0-80.0-1.0,0,0,1mICX,,1295,,,75,,,,14,15,42,0,1,23,30,Lassc1.jpg,Mackc1.jpg,2,0,42,15,,,,,,,,,,,,,,,,,,,,,,,,,,,,,
,choice_confirmation,,html-keyboard-response,129,647316,0.0-80.0-2.0-0.0,0,0,1mICX,,null,,,null,,,,14,15,42,,,,,,,,,,,,,,,,,,,,,,,,,,,,,,,,,,,,,,,
,fixation,,html-keyboard-response,130,648321,0.0-81.0-0.0,0,0,1mICX,,null,,,null,,,,,,,,,,,,,,,,,,,,,,,,,,,,,,,,,,,,,,,,,,,,,
,deliberation,,html-keyboard-response,131,649300,0.0-81.0-1.0,0,0,1mICX,,975,,,68,,,,15,31,51,0,1,18,39,Picac1.jpg,Lewic1.jpg,2,1,31,51,,,,,,,,,,,,,,,,,,,,,,,,,,,,,
,choice_confirmation,,html-keyboard-response,132,649805,0.0-81.0-2.0-0.0,0,0,1mICX,,null,,,null,,,,15,31,51,,,,,,,,,,,,,,,,,,,,,,,,,,,,,,,,,,,,,,,
,fixation,,html-keyboard-response,133,650811,0.0-82.0-0.0,0,0,1mICX,,null,,,null,,,,,,,,,,,,,,,,,,,,,,,,,,,,,,,,,,,,,,,,,,,,,
,deliberation,,html-keyboard-response,134,652124,0.0-82.0-1.0,0,0,1mICX,,1309,,,75,,,,16,29,13,1,-1,23,33,Klinb1.jpg,Kupka1.jpg,2,0,13,29,,,,,,,,,,,,,,,,,,,,,,,,,,,,,
,choice_confirmation,,html-keyboard-response,135,652627,0.0-82.0-2.0-0.0,0,0,1mICX,,null,,,null,,,,16,29,13,,,,,,,,,,,,,,,,,,,,,,,,,,,,,,,,,,,,,,,
,explain_trial,,survey-text,136,665520,0.0-82.0-5.0-0.0,0,0,1mICX,,12890,"{""Q0"":""I think the subject of the painting is more interesting.""}",,,,,,16,29,13,,,,,,,,,,,"{""Q0"":""I think the subject of the painting is more interesting.""}",,,,,,,,,,,,,,,,,,,,,,,,,,,,
,fixation,,html-keyboard-response,137,666528,0.0-83.0-0.0,0,0,1mICX,,null,,,null,,,,,,,,,,,,,,,,,,,,,,,,,,,,,,,,,,,,,,,,,,,,,
,deliberation,,html-keyboard-response,138,668099,0.0-83.0-1.0,0,0,1mICX,,1568,,,68,,,,17,1,7,1,-1,37,9,Monda1.jpg,Macb1n.jpg,2,1,1,7,,,,,,,,,,,,,,,,,,,,,,,,,,,,,
,choice_confirmation,,html-keyboard-response,139,668603,0.0-83.0-2.0-0.0,0,0,1mICX,,null,,,null,,,,17,1,7,,,,,,,,,,,,,,,,,,,,,,,,,,,,,,,,,,,,,,,
,explain_trial,,survey-text,140,701488,0.0-83.0-5.0-0.0,0,0,1mICX,,32881,"{""Q0"":""I think the subject of the painting is more interesting.""}",,,,,,17,1,7,,,,,,,,,,,"{""Q0"":""I think the subject of the painting is more interesting.""}",,,,,,,,,,,,,,,,,,,,,,,,,,,,
,fixation,,html-keyboard-response,141,702492,0.0-84.0-0.0,0,0,1mICX,,null,,,null,,,,,,,,,,,,,,,,,,,,,,,,,,,,,,,,,,,,,,,,,,,,,
,deliberation,,html-keyboard-response,142,704171,0.0-84.0-1.0,0,0,1mICX,,1675,,,68,,,,18,41,66,0,-1,29,9,Picae1.jpg,Vinca1.jpg,2,1,41,66,,,,,,,,,,,,,,,,,,,,,,,,,,,,,
,choice_confirmation,,html-keyboard-response,143,704675,0.0-84.0-2.0-0.0,0,0,1mICX,,null,,,null,,,,18,41,66,,,,,,,,,,,,,,,,,,,,,,,,,,,,,,,,,,,,,,,
,fixation,,html-keyboard-response,144,705681,0.0-85.0-0.0,0,0,1mICX,,null,,,null,,,,,,,,,,,,,,,,,,,,,,,,,,,,,,,,,,,,,,,,,,,,,
,deliberation,,html-keyboard-response,145,707083,0.0-85.0-1.0,0,0,1mICX,,1398,,,68,,,,19,37,64,0,-1,28,14,Deka1n.jpg,Vincb1.jpg,2,1,37,64,,,,,,,,,,,,,,,,,,,,,,,,,,,,,
,choice_confirmation,,html-keyboard-response,146,707586,0.0-85.0-2.0-0.0,0,0,1mICX,,null,,,null,,,,19,37,64,,,,,,,,,,,,,,,,,,,,,,,,,,,,,,,,,,,,,,,
,fixation,,html-keyboard-response,147,708592,0.0-86.0-0.0,0,0,1mICX,,null,,,null,,,,,,,,,,,,,,,,,,,,,,,,,,,,,,,,,,,,,,,,,,,,,
,deliberation,,html-keyboard-response,148,711186,0.0-86.0-1.0,0,0,1mICX,,2589,,,68,,,,20,27,24,1,-1,9,28,Gustc1.jpg,Lewa1n.jpg,2,1,27,24,,,,,,,,,,,,,,,,,,,,,,,,,,,,,
,choice_confirmation,,html-keyboard-response,149,711692,0.0-86.0-2.0-0.0,0,0,1mICX,,null,,,null,,,,20,27,24,,,,,,,,,,,,,,,,,,,,,,,,,,,,,,,,,,,,,,,
,explain_trial,,survey-text,150,736679,0.0-86.0-5.0-0.0,0,0,1mICX,,24983,"{""Q0"":""I think this painting is more interesting and has action instead of a still moment.""}",,,,,,20,27,24,,,,,,,,,,,"{""Q0"":""I think this painting is more interesting and has action instead of a still moment.""}",,,,,,,,,,,,,,,,,,,,,,,,,,,,
,fixation,,html-keyboard-response,151,737686,0.0-87.0-0.0,0,0,1mICX,,null,,,null,,,,,,,,,,,,,,,,,,,,,,,,,,,,,,,,,,,,,,,,,,,,,
,deliberation,,html-keyboard-response,152,739618,0.0-87.0-1.0,0,0,1mICX,,1927,,,68,,,,21,52,16,1,-1,16,40,Dekoa1.jpg,Vincc1.jpg,2,1,52,16,,,,,,,,,,,,,,,,,,,,,,,,,,,,,
,choice_confirmation,,html-keyboard-response,153,740122,0.0-87.0-2.0-0.0,0,0,1mICX,,null,,,null,,,,21,52,16,,,,,,,,,,,,,,,,,,,,,,,,,,,,,,,,,,,,,,,
,explain_trial,,survey-text,154,763746,0.0-87.0-5.0-0.0,0,0,1mICX,,23620,"{""Q0"":""This painting leaves a bigger impression on me than the boring trees.""}",,,,,,21,52,16,,,,,,,,,,,"{""Q0"":""This painting leaves a bigger impression on me than the boring trees.""}",,,,,,,,,,,,,,,,,,,,,,,,,,,,
,fixation,,html-keyboard-response,155,764752,0.0-88.0-0.0,0,0,1mICX,,null,,,null,,,,,,,,,,,,,,,,,,,,,,,,,,,,,,,,,,,,,,,,,,,,,
,deliberation,,html-keyboard-response,156,766257,0.0-88.0-1.0,0,0,1mICX,,1502,,,68,,,,22,4,62,1,1,25,34,Krasb1.jpg,Mona1n.jpg,2,1,4,62,,,,,,,,,,,,,,,,,,,,,,,,,,,,,
,choice_confirmation,,html-keyboard-response,157,766761,0.0-88.0-2.0-0.0,0,0,1mICX,,null,,,null,,,,22,4,62,,,,,,,,,,,,,,,,,,,,,,,,,,,,,,,,,,,,,,,
,explain_trial,,survey-text,158,779608,0.0-88.0-5.0-0.0,0,0,1mICX,,12844,"{""Q0"":""The subject of this painting is more interesting.""}",,,,,,22,4,62,,,,,,,,,,,"{""Q0"":""The subject of this painting is more interesting.""}",,,,,,,,,,,,,,,,,,,,,,,,,,,,
,fixation,,html-keyboard-response,159,780614,0.0-89.0-0.0,0,0,1mICX,,null,,,null,,,,,,,,,,,,,,,,,,,,,,,,,,,,,,,,,,,,,,,,,,,,,
,deliberation,,html-keyboard-response,160,782697,0.0-89.0-1.0,0,0,1mICX,,2080,,,68,,,,23,34,3,0,1,39,18,Lasb1n.jpg,Klib1n.jpg,2,1,34,3,,,,,,,,,,,,,,,,,,,,,,,,,,,,,
,choice_confirmation,,html-keyboard-response,161,783201,0.0-89.0-2.0-0.0,0,0,1mICX,,null,,,null,,,,23,34,3,,,,,,,,,,,,,,,,,,,,,,,,,,,,,,,,,,,,,,,
,start_critical_deliberation_block,,html-keyboard-response,162,784761,0.0-89.0-7.0-0.0,0,0,1mICX,,1558,,,78,,,,,,,,,,,,,,,,,,,,,,,,,,,,,,,,,,,,,,,,,,,,,
,fixation,,html-keyboard-response,163,785768,0.0-90.0-0.0,0,0,1mICX,,null,,,null,,,,,,,,,,,,,,,,,,,,,,,,,,,,,,,,,,,,,,,,,,,,,
,deliberation,,html-keyboard-response,164,787001,0.0-90.0-1.0,0,0,1mICX,,1230,,,68,,,,24,31,51,0,1,18,39,Picac1.jpg,Lewic1.jpg,3,1,31,51,,,,,,,,,,,,,,,,,,,,,,,,,,,,,
,choice_confirmation,,html-keyboard-response,165,787505,0.0-90.0-2.0-0.0,0,0,1mICX,,null,,,null,,,,24,31,51,,,,,,,,,,,,,,,,,,,,,,,,,,,,,,,,,,,,,,,
,fixation,,html-keyboard-response,166,788509,0.0-91.0-0.0,0,0,1mICX,,null,,,null,,,,,,,,,,,,,,,,,,,,,,,,,,,,,,,,,,,,,,,,,,,,,
,deliberation,,html-keyboard-response,167,789713,0.0-91.0-1.0,0,0,1mICX,,1202,,,68,,,,25,41,66,0,-1,29,9,Picae1.jpg,Vinca1.jpg,3,1,41,66,,,,,,,,,,,,,,,,,,,,,,,,,,,,,
,choice_confirmation,,html-keyboard-response,168,790216,0.0-91.0-2.0-0.0,0,0,1mICX,,null,,,null,,,,25,41,66,,,,,,,,,,,,,,,,,,,,,,,,,,,,,,,,,,,,,,,
,fixation,,html-keyboard-response,169,791224,0.0-92.0-0.0,0,0,1mICX,,null,,,null,,,,,,,,,,,,,,,,,,,,,,,,,,,,,,,,,,,,,,,,,,,,,
,deliberation,,html-keyboard-response,170,792057,0.0-92.0-1.0,0,0,1mICX,,830,,,75,,,,26,29,13,0,-1,23,33,Klinb1.jpg,Kupka1.jpg,3,0,13,29,,,,,,,,,,,,,,,,,,,,,,,,,,,,,
,choice_confirmation,,html-keyboard-response,171,792560,0.0-92.0-2.0-0.0,0,0,1mICX,,null,,,null,,,,26,29,13,,,,,,,,,,,,,,,,,,,,,,,,,,,,,,,,,,,,,,,
,fixation,,html-keyboard-response,172,793564,0.0-93.0-0.0,0,0,1mICX,,null,,,null,,,,,,,,,,,,,,,,,,,,,,,,,,,,,,,,,,,,,,,,,,,,,
,deliberation,,html-keyboard-response,173,795273,0.0-93.0-1.0,0,0,1mICX,,1706,,,68,,,,27,37,64,0,-1,28,14,Deka1n.jpg,Vincb1.jpg,3,1,37,64,,,,,,,,,,,,,,,,,,,,,,,,,,,,,
,choice_confirmation,,html-keyboard-response,174,795777,0.0-93.0-2.0-0.0,0,0,1mICX,,null,,,null,,,,27,37,64,,,,,,,,,,,,,,,,,,,,,,,,,,,,,,,,,,,,,,,
,fixation,,html-keyboard-response,175,796784,0.0-94.0-0.0,0,0,1mICX,,null,,,null,,,,,,,,,,,,,,,,,,,,,,,,,,,,,,,,,,,,,,,,,,,,,
,deliberation,,html-keyboard-response,176,797689,0.0-94.0-1.0,0,0,1mICX,,902,,,68,,,,28,1,7,0,-1,37,9,Monda1.jpg,Macb1n.jpg,3,1,1,7,,,,,,,,,,,,,,,,,,,,,,,,,,,,,
,choice_confirmation,,html-keyboard-response,177,798194,0.0-94.0-2.0-0.0,0,0,1mICX,,null,,,null,,,,28,1,7,,,,,,,,,,,,,,,,,,,,,,,,,,,,,,,,,,,,,,,
,fixation,,html-keyboard-response,178,799201,0.0-95.0-0.0,0,0,1mICX,,null,,,null,,,,,,,,,,,,,,,,,,,,,,,,,,,,,,,,,,,,,,,,,,,,,
,deliberation,,html-keyboard-response,179,800281,0.0-95.0-1.0,0,0,1mICX,,1077,,,68,,,,29,18,44,0,1,22,12,Krab1n.jpg,Mackb1.jpg,3,1,18,44,,,,,,,,,,,,,,,,,,,,,,,,,,,,,
,choice_confirmation,,html-keyboard-response,180,800785,0.0-95.0-2.0-0.0,0,0,1mICX,,null,,,null,,,,29,18,44,,,,,,,,,,,,,,,,,,,,,,,,,,,,,,,,,,,,,,,
,fixation,,html-keyboard-response,181,801793,0.0-96.0-0.0,0,0,1mICX,,null,,,null,,,,,,,,,,,,,,,,,,,,,,,,,,,,,,,,,,,,,,,,,,,,,
,deliberation,,html-keyboard-response,182,802817,0.0-96.0-1.0,0,0,1mICX,,1021,,,75,,,,30,15,42,0,1,23,30,Lassc1.jpg,Mackc1.jpg,3,0,42,15,,,,,,,,,,,,,,,,,,,,,,,,,,,,,
,choice_confirmation,,html-keyboard-response,183,803322,0.0-96.0-2.0-0.0,0,0,1mICX,,null,,,null,,,,30,15,42,,,,,,,,,,,,,,,,,,,,,,,,,,,,,,,,,,,,,,,
,fixation,,html-keyboard-response,184,804327,0.0-97.0-0.0,0,0,1mICX,,null,,,null,,,,,,,,,,,,,,,,,,,,,,,,,,,,,,,,,,,,,,,,,,,,,
,deliberation,,html-keyboard-response,185,805265,0.0-97.0-1.0,0,0,1mICX,,936,,,68,,,,31,52,16,0,-1,16,40,Dekoa1.jpg,Vincc1.jpg,3,1,52,16,,,,,,,,,,,,,,,,,,,,,,,,,,,,,
,choice_confirmation,,html-keyboard-response,186,805769,0.0-97.0-2.0-0.0,0,0,1mICX,,null,,,null,,,,31,52,16,,,,,,,,,,,,,,,,,,,,,,,,,,,,,,,,,,,,,,,
,fixation,,html-keyboard-response,187,806776,0.0-98.0-0.0,0,0,1mICX,,null,,,null,,,,,,,,,,,,,,,,,,,,,,,,,,,,,,,,,,,,,,,,,,,,,
,deliberation,,html-keyboard-response,188,807713,0.0-98.0-1.0,0,0,1mICX,,934,,,68,,,,32,11,61,0,1,35,8,Clifa1.jpg,Grigb1.jpg,3,1,11,61,,,,,,,,,,,,,,,,,,,,,,,,,,,,,
,choice_confirmation,,html-keyboard-response,189,808216,0.0-98.0-2.0-0.0,0,0,1mICX,,null,,,null,,,,32,11,61,,,,,,,,,,,,,,,,,,,,,,,,,,,,,,,,,,,,,,,
,fixation,,html-keyboard-response,190,809223,0.0-99.0-0.0,0,0,1mICX,,null,,,null,,,,,,,,,,,,,,,,,,,,,,,,,,,,,,,,,,,,,,,,,,,,,
,deliberation,,html-keyboard-response,191,809833,0.0-99.0-1.0,0,0,1mICX,,607,,,68,,,,33,34,3,0,1,39,18,Lasb1n.jpg,Klib1n.jpg,3,1,34,3,,,,,,,,,,,,,,,,,,,,,,,,,,,,,
,choice_confirmation,,html-keyboard-response,192,810336,0.0-99.0-2.0-0.0,0,0,1mICX,,null,,,null,,,,33,34,3,,,,,,,,,,,,,,,,,,,,,,,,,,,,,,,,,,,,,,,
,fixation,,html-keyboard-response,193,811343,0.0-100.0-0.0,0,0,1mICX,,null,,,null,,,,,,,,,,,,,,,,,,,,,,,,,,,,,,,,,,,,,,,,,,,,,
,deliberation,,html-keyboard-response,194,812625,0.0-100.0-1.0,0,0,1mICX,,1280,,,68,,,,34,27,24,0,-1,9,28,Gustc1.jpg,Lewa1n.jpg,3,1,27,24,,,,,,,,,,,,,,,,,,,,,,,,,,,,,
,choice_confirmation,,html-keyboard-response,195,813128,0.0-100.0-2.0-0.0,0,0,1mICX,,null,,,null,,,,34,27,24,,,,,,,,,,,,,,,,,,,,,,,,,,,,,,,,,,,,,,,
,fixation,,html-keyboard-response,196,814133,0.0-101.0-0.0,0,0,1mICX,,null,,,null,,,,,,,,,,,,,,,,,,,,,,,,,,,,,,,,,,,,,,,,,,,,,
,deliberation,,html-keyboard-response,197,815160,0.0-101.0-1.0,0,0,1mICX,,1024,,,68,,,,35,4,62,0,1,25,34,Krasb1.jpg,Mona1n.jpg,3,1,4,62,,,,,,,,,,,,,,,,,,,,,,,,,,,,,
,choice_confirmation,,html-keyboard-response,198,815679,0.0-101.0-2.0-0.0,0,0,1mICX,,null,,,null,,,,35,4,62,,,,,,,,,,,,,,,,,,,,,,,,,,,,,,,,,,,,,,,
,reward_learning_instructions,,instructions,199,879397,0.0-102.0-0.0,0,0,1mICX,"[{""page_index"":0,""viewing_time"":47133},{""page_index"":1,""viewing_time"":15143},{""page_index"":2,""viewing_time"":1439}]",63716,,,,,,,,,,,,,,,,,,,,,,,,,,,,,,,,,,,,,,,,,,,,,,,,
,reward_comprehension_check,,survey-multi-choice,200,895012,0.0-102.0-1.0,0,0,1mICX,,15609,"{""Q0"":""True"",""Q1"":""True"",""Q2"":""Press the space bar to see its outcome"",""Q3"":""Press the relevant key while the outcome is presented""}",0,,,,,,,,,,,,,,,,,,,,,,,,,,,,,,,,,,,,,,,,,,,,,,
,start_phase,,html-keyboard-response,201,897349,0.0-103.0,0,0,1mICX,,2330,,,78,,,,,,,,,,,,,,,,,,,,,,,,,,,,,,,,,,,,,,,,,,,,,
,fixation,,html-keyboard-response,202,898352,0.0-104.0,0,0,1mICX,,null,,,null,,,,,,,,,,,,,,,,,,,,,,,,,,,,,,,,,,,,,,,,,,,,,
,see_reward,,html-keyboard-response,203,899687,0.0-105.0,0,0,1mICX,,1332,,,32,,41,,0,,,,-1,,,,,1,,,,,0,1332,,,,,,,,,,,,,,,,,,,,,,,,,,
,reward_outcome,,html-keyboard-response,204,901691,0.0-106.0,0,0,1mICX,,1969,,,40,,41,,0,,,,,,,,,,,,,,,,-1,1969,,,,,,,,,,,,,,,,,,,,,,,,
,fixation,,html-keyboard-response,205,902696,0.0-109.0,0,0,1mICX,,null,,,null,,,,,,,,,,,,,,,,,,,,,,,,,,,,,,,,,,,,,,,,,,,,,
,see_reward,,html-keyboard-response,206,903879,0.0-110.0,0,0,1mICX,,1181,,,32,,13,,1,,,,-1,,,,,1,,,,,0,1181,,,,,,,,,,,,,,,,,,,,,,,,,,
,reward_outcome,,html-keyboard-response,207,905883,0.0-111.0,0,0,1mICX,,875,,,40,,13,,1,,,,,,,,,,,,,,,,-1,875,,,,,,,,,,,,,,,,,,,,,,,,
,fixation,,html-keyboard-response,208,906887,0.0-114.0,0,0,1mICX,,null,,,null,,,,,,,,,,,,,,,,,,,,,,,,,,,,,,,,,,,,,,,,,,,,,
,see_reward,,html-keyboard-response,209,907814,0.0-115.0,0,0,1mICX,,924,,,32,,37,,2,,,,-1,,,,,1,,,,,0,924,,,,,,,,,,,,,,,,,,,,,,,,,,
,reward_outcome,,html-keyboard-response,210,909821,0.0-116.0,0,0,1mICX,,566,,,40,,37,,2,,,,,,,,,,,,,,,,-1,566,,,,,,,,,,,,,,,,,,,,,,,,
,fixation,,html-keyboard-response,211,910829,0.0-119.0,0,0,1mICX,,null,,,null,,,,,,,,,,,,,,,,,,,,,,,,,,,,,,,,,,,,,,,,,,,,,
,see_reward,,html-keyboard-response,212,911687,0.0-120.0,0,0,1mICX,,856,,,32,,27,,3,,,,-1,,,,,1,,,,,0,856,,,,,,,,,,,,,,,,,,,,,,,,,,
,reward_outcome,,html-keyboard-response,213,913691,0.0-121.0,0,0,1mICX,,599,,,40,,27,,3,,,,,,,,,,,,,,,,-1,599,,,,,,,,,,,,,,,,,,,,,,,,
,fixation,,html-keyboard-response,214,914699,0.0-124.0,0,0,1mICX,,null,,,null,,,,,,,,,,,,,,,,,,,,,,,,,,,,,,,,,,,,,,,,,,,,,
,see_reward,,html-keyboard-response,215,915223,0.0-125.0,0,0,1mICX,,521,,,32,,11,,4,,,,1,,,,,1,,,,,158,521,,,,,,,,,,,,,,,,,,,,,,,,,,
,reward_outcome,,html-keyboard-response,216,917231,0.0-126.0,0,0,1mICX,,1269,,,38,,11,,4,,,,,,,,,,,,,,,,1,1269,,,,,,,,,,,,,,,,,,,,,,,,
,fixation,,html-keyboard-response,217,918236,0.0-129.0,0,0,1mICX,,null,,,null,,,,,,,,,,,,,,,,,,,,,,,,,,,,,,,,,,,,,,,,,,,,,
,see_reward,,html-keyboard-response,218,918735,0.0-130.0,0,0,1mICX,,496,,,32,,13,,5,,,,-1,,,,,1,,,,,0,496,,,,,,,,,,,,,,,,,,,,,,,,,,
,reward_outcome,,html-keyboard-response,219,920741,0.0-131.0,0,0,1mICX,,718,,,40,,13,,5,,,,,,,,,,,,,,,,-1,718,,,,,,,,,,,,,,,,,,,,,,,,
,fixation,,html-keyboard-response,220,921748,0.0-134.0,0,0,1mICX,,null,,,null,,,,,,,,,,,,,,,,,,,,,,,,,,,,,,,,,,,,,,,,,,,,,
,see_reward,,html-keyboard-response,221,922287,0.0-135.0,0,0,1mICX,,537,,,32,,37,,6,,,,-1,,,,,1,,,,,0,537,,,,,,,,,,,,,,,,,,,,,,,,,,
,reward_outcome,,html-keyboard-response,222,924290,0.0-136.0,0,0,1mICX,,644,,,40,,37,,6,,,,,,,,,,,,,,,,-1,644,,,,,,,,,,,,,,,,,,,,,,,,
,fixation,,html-keyboard-response,223,925297,0.0-139.0,0,0,1mICX,,null,,,null,,,,,,,,,,,,,,,,,,,,,,,,,,,,,,,,,,,,,,,,,,,,,
,see_reward,,html-keyboard-response,224,926063,0.0-140.0,0,0,1mICX,,762,,,32,,34,,7,,,,1,,,,,1,,,,,157,762,,,,,,,,,,,,,,,,,,,,,,,,,,
,reward_outcome,,html-keyboard-response,225,928069,0.0-141.0,0,0,1mICX,,693,,,38,,34,,7,,,,,,,,,,,,,,,,1,693,,,,,,,,,,,,,,,,,,,,,,,,
,fixation,,html-keyboard-response,226,929073,0.0-144.0,0,0,1mICX,,null,,,null,,,,,,,,,,,,,,,,,,,,,,,,,,,,,,,,,,,,,,,,,,,,,
,see_reward,,html-keyboard-response,227,929551,0.0-145.0,0,0,1mICX,,474,,,32,,4,,8,,,,1,,,,,1,,,,,144,474,,,,,,,,,,,,,,,,,,,,,,,,,,
,reward_outcome,,html-keyboard-response,228,931558,0.0-146.0,0,0,1mICX,,453,,,38,,4,,8,,,,,,,,,,,,,,,,1,453,,,,,,,,,,,,,,,,,,,,,,,,
,fixation,,html-keyboard-response,229,932564,0.0-149.0,0,0,1mICX,,null,,,null,,,,,,,,,,,,,,,,,,,,,,,,,,,,,,,,,,,,,,,,,,,,,
,see_reward,,html-keyboard-response,230,933287,0.0-150.0,0,0,1mICX,,719,,,32,,4,,9,,,,1,,,,,1,,,,,144,719,,,,,,,,,,,,,,,,,,,,,,,,,,
,reward_outcome,,html-keyboard-response,231,935291,0.0-151.0,0,0,1mICX,,613,,,38,,4,,9,,,,,,,,,,,,,,,,1,613,,,,,,,,,,,,,,,,,,,,,,,,
,fixation,,html-keyboard-response,232,936294,0.0-154.0,0,0,1mICX,,null,,,null,,,,,,,,,,,,,,,,,,,,,,,,,,,,,,,,,,,,,,,,,,,,,
,see_reward,,html-keyboard-response,233,936862,0.0-155.0,0,0,1mICX,,565,,,32,,31,,10,,,,1,,,,,1,,,,,150,565,,,,,,,,,,,,,,,,,,,,,,,,,,
,reward_outcome,,html-keyboard-response,234,938870,0.0-156.0,0,0,1mICX,,589,,,38,,31,,10,,,,,,,,,,,,,,,,1,589,,,,,,,,,,,,,,,,,,,,,,,,
,fixation,,html-keyboard-response,235,939875,0.0-159.0,0,0,1mICX,,null,,,null,,,,,,,,,,,,,,,,,,,,,,,,,,,,,,,,,,,,,,,,,,,,,
,see_reward,,html-keyboard-response,236,940303,0.0-160.0,0,0,1mICX,,425,,,32,,1,,11,,,,-1,,,,,1,,,,,0,425,,,,,,,,,,,,,,,,,,,,,,,,,,
,reward_outcome,,html-keyboard-response,237,942309,0.0-161.0,0,0,1mICX,,677,,,40,,1,,11,,,,,,,,,,,,,,,,-1,677,,,,,,,,,,,,,,,,,,,,,,,,
,fixation,,html-keyboard-response,238,943313,0.0-164.0,0,0,1mICX,,null,,,null,,,,,,,,,,,,,,,,,,,,,,,,,,,,,,,,,,,,,,,,,,,,,
,see_reward,,html-keyboard-response,239,943662,0.0-165.0,0,0,1mICX,,347,,,32,,27,,12,,,,-1,,,,,1,,,,,0,347,,,,,,,,,,,,,,,,,,,,,,,,,,
,reward_outcome,,html-keyboard-response,240,945665,0.0-166.0,0,0,1mICX,,647,,,40,,27,,12,,,,,,,,,,,,,,,,-1,647,,,,,,,,,,,,,,,,,,,,,,,,
,fixation,,html-keyboard-response,241,946671,0.0-169.0,0,0,1mICX,,null,,,null,,,,,,,,,,,,,,,,,,,,,,,,,,,,,,,,,,,,,,,,,,,,,
,see_reward,,html-keyboard-response,242,947174,0.0-170.0,0,0,1mICX,,501,,,32,,18,,13,,,,1,,,,,1,,,,,142,501,,,,,,,,,,,,,,,,,,,,,,,,,,
,reward_outcome,,html-keyboard-response,243,949178,0.0-171.0,0,0,1mICX,,661,,,38,,18,,13,,,,,,,,,,,,,,,,1,661,,,,,,,,,,,,,,,,,,,,,,,,
,fixation,,html-keyboard-response,244,950182,0.0-174.0,0,0,1mICX,,null,,,null,,,,,,,,,,,,,,,,,,,,,,,,,,,,,,,,,,,,,,,,,,,,,
,see_reward,,html-keyboard-response,245,950718,0.0-175.0,0,0,1mICX,,533,,,32,,34,,14,,,,1,,,,,1,,,,,157,533,,,,,,,,,,,,,,,,,,,,,,,,,,
,reward_outcome,,html-keyboard-response,246,952723,0.0-176.0,0,0,1mICX,,567,,,38,,34,,14,,,,,,,,,,,,,,,,1,567,,,,,,,,,,,,,,,,,,,,,,,,
,fixation,,html-keyboard-response,247,953726,0.0-179.0,0,0,1mICX,,null,,,null,,,,,,,,,,,,,,,,,,,,,,,,,,,,,,,,,,,,,,,,,,,,,
,see_reward,,html-keyboard-response,248,954206,0.0-180.0,0,0,1mICX,,477,,,32,,52,,15,,,,-1,,,,,1,,,,,0,477,,,,,,,,,,,,,,,,,,,,,,,,,,
,reward_outcome,,html-keyboard-response,249,956212,0.0-181.0,0,0,1mICX,,549,,,40,,52,,15,,,,,,,,,,,,,,,,-1,549,,,,,,,,,,,,,,,,,,,,,,,,
,fixation,,html-keyboard-response,250,957216,0.0-184.0,0,0,1mICX,,null,,,null,,,,,,,,,,,,,,,,,,,,,,,,,,,,,,,,,,,,,,,,,,,,,
,see_reward,,html-keyboard-response,251,957598,0.0-185.0,0,0,1mICX,,379,,,32,,41,,16,,,,-1,,,,,1,,,,,0,379,,,,,,,,,,,,,,,,,,,,,,,,,,
,reward_outcome,,html-keyboard-response,252,959604,0.0-186.0,0,0,1mICX,,661,,,40,,41,,16,,,,,,,,,,,,,,,,-1,661,,,,,,,,,,,,,,,,,,,,,,,,
,fixation,,html-keyboard-response,253,960610,0.0-189.0,0,0,1mICX,,null,,,null,,,,,,,,,,,,,,,,,,,,,,,,,,,,,,,,,,,,,,,,,,,,,
,see_reward,,html-keyboard-response,254,961030,0.0-190.0,0,0,1mICX,,417,,,32,,31,,17,,,,1,,,,,1,,,,,150,417,,,,,,,,,,,,,,,,,,,,,,,,,,
,reward_outcome,,html-keyboard-response,255,963036,0.0-191.0,0,0,1mICX,,486,,,38,,31,,17,,,,,,,,,,,,,,,,1,486,,,,,,,,,,,,,,,,,,,,,,,,
,fixation,,html-keyboard-response,256,964044,0.0-194.0,0,0,1mICX,,null,,,null,,,,,,,,,,,,,,,,,,,,,,,,,,,,,,,,,,,,,,,,,,,,,
,see_reward,,html-keyboard-response,257,964534,0.0-195.0,0,0,1mICX,,487,,,32,,1,,18,,,,-1,,,,,1,,,,,0,487,,,,,,,,,,,,,,,,,,,,,,,,,,
,reward_outcome,,html-keyboard-response,258,966538,0.0-196.0,0,0,1mICX,,518,,,40,,1,,18,,,,,,,,,,,,,,,,-1,518,,,,,,,,,,,,,,,,,,,,,,,,
,fixation,,html-keyboard-response,259,967545,0.0-199.0,0,0,1mICX,,null,,,null,,,,,,,,,,,,,,,,,,,,,,,,,,,,,,,,,,,,,,,,,,,,,
,see_reward,,html-keyboard-response,260,967989,0.0-200.0,0,0,1mICX,,442,,,32,,11,,19,,,,1,,,,,1,,,,,158,442,,,,,,,,,,,,,,,,,,,,,,,,,,
,reward_outcome,,html-keyboard-response,261,969996,0.0-201.0,0,0,1mICX,,509,,,38,,11,,19,,,,,,,,,,,,,,,,1,509,,,,,,,,,,,,,,,,,,,,,,,,
,fixation,,html-keyboard-response,262,971003,0.0-204.0,0,0,1mICX,,null,,,null,,,,,,,,,,,,,,,,,,,,,,,,,,,,,,,,,,,,,,,,,,,,,
,see_reward,,html-keyboard-response,263,971405,0.0-205.0,0,0,1mICX,,399,,,32,,18,,20,,,,1,,,,,1,,,,,142,399,,,,,,,,,,,,,,,,,,,,,,,,,,
,reward_outcome,,html-keyboard-response,264,973411,0.0-206.0,0,0,1mICX,,509,,,38,,18,,20,,,,,,,,,,,,,,,,1,509,,,,,,,,,,,,,,,,,,,,,,,,
,fixation,,html-keyboard-response,265,974416,0.0-209.0,0,0,1mICX,,null,,,null,,,,,,,,,,,,,,,,,,,,,,,,,,,,,,,,,,,,,,,,,,,,,
,see_reward,,html-keyboard-response,266,974766,0.0-210.0,0,0,1mICX,,346,,,32,,52,,21,,,,-1,,,,,1,,,,,0,346,,,,,,,,,,,,,,,,,,,,,,,,,,
,reward_outcome,,html-keyboard-response,267,976771,0.0-211.0,0,0,1mICX,,661,,,40,,52,,21,,,,,,,,,,,,,,,,-1,661,,,,,,,,,,,,,,,,,,,,,,,,
,fixation,,html-keyboard-response,268,977778,0.0-214.0,0,0,1mICX,,null,,,null,,,,,,,,,,,,,,,,,,,,,,,,,,,,,,,,,,,,,,,,,,,,,
,see_reward,,html-keyboard-response,269,978270,0.0-215.0,0,0,1mICX,,489,,,32,,42,,22,,,,1,,,,,1,,,,,144,489,,,,,,,,,,,,,,,,,,,,,,,,,,
,reward_outcome,,html-keyboard-response,270,980276,0.0-216.0,0,0,1mICX,,478,,,38,,42,,22,,,,,,,,,,,,,,,,1,478,,,,,,,,,,,,,,,,,,,,,,,,
,fixation,,html-keyboard-response,271,981282,0.0-219.0,0,0,1mICX,,null,,,null,,,,,,,,,,,,,,,,,,,,,,,,,,,,,,,,,,,,,,,,,,,,,
,see_reward,,html-keyboard-response,272,981741,0.0-220.0,0,0,1mICX,,456,,,32,,42,,23,,,,1,,,,,1,,,,,144,456,,,,,,,,,,,,,,,,,,,,,,,,,,
,reward_outcome,,html-keyboard-response,273,983745,0.0-221.0,0,0,1mICX,,389,,,38,,42,,23,,,,,,,,,,,,,,,,1,389,,,,,,,,,,,,,,,,,,,,,,,,
,block_over,,html-keyboard-response,274,999126,0.0-223.0-0.0,0,0,1mICX,,15377,,,78,,,,,,,,,,,,,,,,,,,,,,,,,,,,,,,,,,,,,,,,,,,,,
,fixation,,html-keyboard-response,275,1000131,0.0-224.0,0,0,1mICX,,null,,,null,,,,,,,,,,,,,,,,,,,,,,,,,,,,,,,,,,,,,,,,,,,,,
,see_reward,,html-keyboard-response,276,1001022,0.0-225.0,0,0,1mICX,,887,,,32,,34,,24,,,,1,,,,,2,,,,,157,887,,,,,,,,,,,,,,,,,,,,,,,,,,
,reward_outcome,,html-keyboard-response,277,1003028,0.0-226.0,0,0,1mICX,,820,,,38,,34,,24,,,,,,,,,,,,,,,,1,820,,,,,,,,,,,,,,,,,,,,,,,,
,fixation,,html-keyboard-response,278,1004032,0.0-229.0,0,0,1mICX,,null,,,null,,,,,,,,,,,,,,,,,,,,,,,,,,,,,,,,,,,,,,,,,,,,,
,see_reward,,html-keyboard-response,279,1004421,0.0-230.0,0,0,1mICX,,387,,,32,,42,,25,,,,1,,,,,2,,,,,144,387,,,,,,,,,,,,,,,,,,,,,,,,,,
,reward_outcome,,html-keyboard-response,280,1006429,0.0-231.0,0,0,1mICX,,435,,,38,,42,,25,,,,,,,,,,,,,,,,1,435,,,,,,,,,,,,,,,,,,,,,,,,
,fixation,,html-keyboard-response,281,1007434,0.0-234.0,0,0,1mICX,,null,,,null,,,,,,,,,,,,,,,,,,,,,,,,,,,,,,,,,,,,,,,,,,,,,
,see_reward,,html-keyboard-response,282,1008101,0.0-235.0,0,0,1mICX,,665,,,32,,13,,26,,,,-1,,,,,2,,,,,0,665,,,,,,,,,,,,,,,,,,,,,,,,,,
,reward_outcome,,html-keyboard-response,283,1010107,0.0-236.0,0,0,1mICX,,1069,,,40,,13,,26,,,,,,,,,,,,,,,,-1,1069,,,,,,,,,,,,,,,,,,,,,,,,
,fixation,,html-keyboard-response,284,1011114,0.0-239.0,0,0,1mICX,,null,,,null,,,,,,,,,,,,,,,,,,,,,,,,,,,,,,,,,,,,,,,,,,,,,
,see_reward,,html-keyboard-response,285,1011941,0.0-240.0,0,0,1mICX,,824,,,32,,41,,27,,,,-1,,,,,2,,,,,0,824,,,,,,,,,,,,,,,,,,,,,,,,,,
,reward_outcome,,html-keyboard-response,286,1013948,0.0-241.0,0,0,1mICX,,774,,,40,,41,,27,,,,,,,,,,,,,,,,-1,774,,,,,,,,,,,,,,,,,,,,,,,,
,fixation,,html-keyboard-response,287,1014951,0.0-244.0,0,0,1mICX,,null,,,null,,,,,,,,,,,,,,,,,,,,,,,,,,,,,,,,,,,,,,,,,,,,,
,see_reward,,html-keyboard-response,288,1015461,0.0-245.0,0,0,1mICX,,507,,,32,,52,,28,,,,-1,,,,,2,,,,,0,507,,,,,,,,,,,,,,,,,,,,,,,,,,
,reward_outcome,,html-keyboard-response,289,1017468,0.0-246.0,0,0,1mICX,,477,,,40,,52,,28,,,,,,,,,,,,,,,,-1,477,,,,,,,,,,,,,,,,,,,,,,,,
,fixation,,html-keyboard-response,290,1018475,0.0-249.0,0,0,1mICX,,null,,,null,,,,,,,,,,,,,,,,,,,,,,,,,,,,,,,,,,,,,,,,,,,,,
,see_reward,,html-keyboard-response,291,1019075,0.0-250.0,0,0,1mICX,,596,,,32,,18,,29,,,,1,,,,,2,,,,,142,596,,,,,,,,,,,,,,,,,,,,,,,,,,
,reward_outcome,,html-keyboard-response,292,1021080,0.0-251.0,0,0,1mICX,,544,,,38,,18,,29,,,,,,,,,,,,,,,,1,544,,,,,,,,,,,,,,,,,,,,,,,,
,fixation,,html-keyboard-response,293,1022087,0.0-254.0,0,0,1mICX,,null,,,null,,,,,,,,,,,,,,,,,,,,,,,,,,,,,,,,,,,,,,,,,,,,,
,see_reward,,html-keyboard-response,294,1023779,0.0-255.0,0,0,1mICX,,1690,,,32,,34,,30,,,,1,,,,,2,,,,,157,1690,,,,,,,,,,,,,,,,,,,,,,,,,,
,reward_outcome,,html-keyboard-response,295,1025783,0.0-256.0,0,0,1mICX,,624,,,38,,34,,30,,,,,,,,,,,,,,,,1,624,,,,,,,,,,,,,,,,,,,,,,,,
,fixation,,html-keyboard-response,296,1026787,0.0-259.0,0,0,1mICX,,null,,,null,,,,,,,,,,,,,,,,,,,,,,,,,,,,,,,,,,,,,,,,,,,,,
,see_reward,,html-keyboard-response,297,1027229,0.0-260.0,0,0,1mICX,,439,,,32,,27,,31,,,,-1,,,,,2,,,,,0,439,,,,,,,,,,,,,,,,,,,,,,,,,,
,reward_outcome,,html-keyboard-response,298,1029237,0.0-261.0,0,0,1mICX,,540,,,40,,27,,31,,,,,,,,,,,,,,,,-1,540,,,,,,,,,,,,,,,,,,,,,,,,
,fixation,,html-keyboard-response,299,1030241,0.0-264.0,0,0,1mICX,,null,,,null,,,,,,,,,,,,,,,,,,,,,,,,,,,,,,,,,,,,,,,,,,,,,
,see_reward,,html-keyboard-response,300,1030789,0.0-265.0,0,0,1mICX,,546,,,32,,27,,32,,,,-1,,,,,2,,,,,0,546,,,,,,,,,,,,,,,,,,,,,,,,,,
,reward_outcome,,html-keyboard-response,301,1032797,0.0-266.0,0,0,1mICX,,548,,,40,,27,,32,,,,,,,,,,,,,,,,-1,548,,,,,,,,,,,,,,,,,,,,,,,,
,fixation,,html-keyboard-response,302,1033803,0.0-269.0,0,0,1mICX,,null,,,null,,,,,,,,,,,,,,,,,,,,,,,,,,,,,,,,,,,,,,,,,,,,,
,see_reward,,html-keyboard-response,303,1034413,0.0-270.0,0,0,1mICX,,607,,,32,,42,,33,,,,1,,,,,2,,,,,144,607,,,,,,,,,,,,,,,,,,,,,,,,,,
,reward_outcome,,html-keyboard-response,304,1036417,0.0-271.0,0,0,1mICX,,965,,,38,,42,,33,,,,,,,,,,,,,,,,1,965,,,,,,,,,,,,,,,,,,,,,,,,
,fixation,,html-keyboard-response,305,1037421,0.0-274.0,0,0,1mICX,,null,,,null,,,,,,,,,,,,,,,,,,,,,,,,,,,,,,,,,,,,,,,,,,,,,
,see_reward,,html-keyboard-response,306,1038029,0.0-275.0,0,0,1mICX,,606,,,32,,1,,34,,,,-1,,,,,2,,,,,0,606,,,,,,,,,,,,,,,,,,,,,,,,,,
,reward_outcome,,html-keyboard-response,307,1040034,0.0-276.0,0,0,1mICX,,725,,,40,,1,,34,,,,,,,,,,,,,,,,-1,725,,,,,,,,,,,,,,,,,,,,,,,,
,fixation,,html-keyboard-response,308,1041041,0.0-279.0,0,0,1mICX,,null,,,null,,,,,,,,,,,,,,,,,,,,,,,,,,,,,,,,,,,,,,,,,,,,,
,see_reward,,html-keyboard-response,309,1041444,0.0-280.0,0,0,1mICX,,400,,,32,,11,,35,,,,1,,,,,2,,,,,158,400,,,,,,,,,,,,,,,,,,,,,,,,,,
,reward_outcome,,html-keyboard-response,310,1043448,0.0-281.0,0,0,1mICX,,557,,,38,,11,,35,,,,,,,,,,,,,,,,1,557,,,,,,,,,,,,,,,,,,,,,,,,
,fixation,,html-keyboard-response,311,1044455,0.0-284.0,0,0,1mICX,,null,,,null,,,,,,,,,,,,,,,,,,,,,,,,,,,,,,,,,,,,,,,,,,,,,
,see_reward,,html-keyboard-response,312,1045139,0.0-285.0,0,0,1mICX,,681,,,32,,41,,36,,,,-1,,,,,2,,,,,0,681,,,,,,,,,,,,,,,,,,,,,,,,,,
,reward_outcome,,html-keyboard-response,313,1047144,0.0-286.0,0,0,1mICX,,453,,,40,,41,,36,,,,,,,,,,,,,,,,-1,453,,,,,,,,,,,,,,,,,,,,,,,,
,fixation,,html-keyboard-response,314,1048149,0.0-289.0,0,0,1mICX,,null,,,null,,,,,,,,,,,,,,,,,,,,,,,,,,,,,,,,,,,,,,,,,,,,,
,see_reward,,html-keyboard-response,315,1048909,0.0-290.0,0,0,1mICX,,756,,,32,,31,,37,,,,1,,,,,2,,,,,150,756,,,,,,,,,,,,,,,,,,,,,,,,,,
,reward_outcome,,html-keyboard-response,316,1050912,0.0-291.0,0,0,1mICX,,669,,,38,,31,,37,,,,,,,,,,,,,,,,1,669,,,,,,,,,,,,,,,,,,,,,,,,
,fixation,,html-keyboard-response,317,1051920,0.0-294.0,0,0,1mICX,,null,,,null,,,,,,,,,,,,,,,,,,,,,,,,,,,,,,,,,,,,,,,,,,,,,
,see_reward,,html-keyboard-response,318,1052620,0.0-295.0,0,0,1mICX,,698,,,32,,31,,38,,,,1,,,,,2,,,,,150,698,,,,,,,,,,,,,,,,,,,,,,,,,,
,reward_outcome,,html-keyboard-response,319,1054628,0.0-296.0,0,0,1mICX,,485,,,38,,31,,38,,,,,,,,,,,,,,,,1,485,,,,,,,,,,,,,,,,,,,,,,,,
,fixation,,html-keyboard-response,320,1055632,0.0-299.0,0,0,1mICX,,null,,,null,,,,,,,,,,,,,,,,,,,,,,,,,,,,,,,,,,,,,,,,,,,,,
,see_reward,,html-keyboard-response,321,1056189,0.0-300.0,0,0,1mICX,,554,,,32,,13,,39,,,,-1,,,,,2,,,,,0,554,,,,,,,,,,,,,,,,,,,,,,,,,,
,reward_outcome,,html-keyboard-response,322,1058197,0.0-301.0,0,0,1mICX,,445,,,40,,13,,39,,,,,,,,,,,,,,,,-1,445,,,,,,,,,,,,,,,,,,,,,,,,
,fixation,,html-keyboard-response,323,1059202,0.0-304.0,0,0,1mICX,,null,,,null,,,,,,,,,,,,,,,,,,,,,,,,,,,,,,,,,,,,,,,,,,,,,
,see_reward,,html-keyboard-response,324,1059908,0.0-305.0,0,0,1mICX,,704,,,32,,4,,40,,,,1,,,,,2,,,,,144,704,,,,,,,,,,,,,,,,,,,,,,,,,,
,reward_outcome,,html-keyboard-response,325,1061913,0.0-306.0,0,0,1mICX,,509,,,38,,4,,40,,,,,,,,,,,,,,,,1,509,,,,,,,,,,,,,,,,,,,,,,,,
,fixation,,html-keyboard-response,326,1062917,0.0-309.0,0,0,1mICX,,null,,,null,,,,,,,,,,,,,,,,,,,,,,,,,,,,,,,,,,,,,,,,,,,,,
,see_reward,,html-keyboard-response,327,1063860,0.0-310.0,0,0,1mICX,,940,,,32,,1,,41,,,,-1,,,,,2,,,,,0,940,,,,,,,,,,,,,,,,,,,,,,,,,,
,reward_outcome,,html-keyboard-response,328,1065866,0.0-311.0,0,0,1mICX,,773,,,40,,1,,41,,,,,,,,,,,,,,,,-1,773,,,,,,,,,,,,,,,,,,,,,,,,
,fixation,,html-keyboard-response,329,1066871,0.0-314.0,0,0,1mICX,,null,,,null,,,,,,,,,,,,,,,,,,,,,,,,,,,,,,,,,,,,,,,,,,,,,
,see_reward,,html-keyboard-response,330,1067908,0.0-315.0,0,0,1mICX,,1034,,,32,,52,,42,,,,-1,,,,,2,,,,,0,1034,,,,,,,,,,,,,,,,,,,,,,,,,,
,reward_outcome,,html-keyboard-response,331,1069915,0.0-316.0,0,0,1mICX,,null,,,null,,52,,42,,,,,,,,,,,,,,,,NaN,null,,,,,,,,,,,,,,,,,,,,,,,,
,respond_faster,,html-keyboard-response,332,1071421,0.0-317.0-0.0,1,0,1mICX,,null,,,null,,,,,,,,,,,,,,,,,,,,,,,,,,,,,,,,,,,,,,,,,,,,,
,fixation,,html-keyboard-response,333,1072425,0.0-319.0,0,0,1mICX,,null,,,null,,,,,,,,,,,,,,,,,,,,,,,,,,,,,,,,,,,,,,,,,,,,,
,see_reward,,html-keyboard-response,334,1074172,0.0-320.0,0,0,1mICX,,1744,,,32,,37,,43,,,,-1,,,,,2,,,,,0,1744,,,,,,,,,,,,,,,,,,,,,,,,,,
,reward_outcome,,html-keyboard-response,335,1076175,0.0-321.0,0,0,1mICX,,486,,,40,,37,,43,,,,,,,,,,,,,,,,-1,486,,,,,,,,,,,,,,,,,,,,,,,,
,fixation,,html-keyboard-response,336,1077182,0.0-324.0,0,0,1mICX,,null,,,null,,,,,,,,,,,,,,,,,,,,,,,,,,,,,,,,,,,,,,,,,,,,,
,see_reward,,html-keyboard-response,337,1077604,0.0-325.0,0,0,1mICX,,419,,,32,,18,,44,,,,1,,,,,2,,,,,142,419,,,,,,,,,,,,,,,,,,,,,,,,,,
,reward_outcome,,html-keyboard-response,338,1079609,0.0-326.0,0,0,1mICX,,671,,,38,,18,,44,,,,,,,,,,,,,,,,1,671,,,,,,,,,,,,,,,,,,,,,,,,
,fixation,,html-keyboard-response,339,1080615,0.0-329.0,0,0,1mICX,,null,,,null,,,,,,,,,,,,,,,,,,,,,,,,,,,,,,,,,,,,,,,,,,,,,
,see_reward,,html-keyboard-response,340,1081108,0.0-330.0,0,0,1mICX,,490,,,32,,4,,45,,,,1,,,,,2,,,,,144,490,,,,,,,,,,,,,,,,,,,,,,,,,,
,reward_outcome,,html-keyboard-response,341,1083112,0.0-331.0,0,0,1mICX,,502,,,38,,4,,45,,,,,,,,,,,,,,,,1,502,,,,,,,,,,,,,,,,,,,,,,,,
,fixation,,html-keyboard-response,342,1084119,0.0-334.0,0,0,1mICX,,null,,,null,,,,,,,,,,,,,,,,,,,,,,,,,,,,,,,,,,,,,,,,,,,,,
,see_reward,,html-keyboard-response,343,1084676,0.0-335.0,0,0,1mICX,,555,,,32,,37,,46,,,,-1,,,,,2,,,,,0,555,,,,,,,,,,,,,,,,,,,,,,,,,,
,reward_outcome,,html-keyboard-response,344,1086682,0.0-336.0,0,0,1mICX,,613,,,40,,37,,46,,,,,,,,,,,,,,,,-1,613,,,,,,,,,,,,,,,,,,,,,,,,
,fixation,,html-keyboard-response,345,1087686,0.0-339.0,0,0,1mICX,,null,,,null,,,,,,,,,,,,,,,,,,,,,,,,,,,,,,,,,,,,,,,,,,,,,
,see_reward,,html-keyboard-response,346,1088148,0.0-340.0,0,0,1mICX,,458,,,32,,11,,47,,,,1,,,,,2,,,,,158,458,,,,,,,,,,,,,,,,,,,,,,,,,,
,reward_outcome,,html-keyboard-response,347,1090154,0.0-341.0,0,0,1mICX,,485,,,38,,11,,47,,,,,,,,,,,,,,,,1,485,,,,,,,,,,,,,,,,,,,,,,,,
,block_over,,html-keyboard-response,348,1134298,0.0-343.0-0.0,0,0,1mICX,,44142,,,78,,,,,,,,,,,,,,,,,,,,,,,,,,,,,,,,,,,,,,,,,,,,,
,fixation,,html-keyboard-response,349,1135303,0.0-344.0,0,0,1mICX,,null,,,null,,,,,,,,,,,,,,,,,,,,,,,,,,,,,,,,,,,,,,,,,,,,,
,see_reward,,html-keyboard-response,350,1136307,0.0-345.0,0,0,1mICX,,1000,,,32,,11,,48,,,,1,,,,,3,,,,,158,1000,,,,,,,,,,,,,,,,,,,,,,,,,,
,reward_outcome,,html-keyboard-response,351,1138311,0.0-346.0,0,0,1mICX,,1133,,,38,,11,,48,,,,,,,,,,,,,,,,1,1133,,,,,,,,,,,,,,,,,,,,,,,,
,fixation,,html-keyboard-response,352,1139314,0.0-349.0,0,0,1mICX,,null,,,null,,,,,,,,,,,,,,,,,,,,,,,,,,,,,,,,,,,,,,,,,,,,,
,see_reward,,html-keyboard-response,353,1139675,0.0-350.0,0,0,1mICX,,358,,,32,,11,,49,,,,1,,,,,3,,,,,158,358,,,,,,,,,,,,,,,,,,,,,,,,,,
,reward_outcome,,html-keyboard-response,354,1141683,0.0-351.0,0,0,1mICX,,389,,,38,,11,,49,,,,,,,,,,,,,,,,1,389,,,,,,,,,,,,,,,,,,,,,,,,
,fixation,,html-keyboard-response,355,1142688,0.0-354.0,0,0,1mICX,,null,,,null,,,,,,,,,,,,,,,,,,,,,,,,,,,,,,,,,,,,,,,,,,,,,
,see_reward,,html-keyboard-response,356,1143139,0.0-355.0,0,0,1mICX,,448,,,32,,1,,50,,,,-1,,,,,3,,,,,0,448,,,,,,,,,,,,,,,,,,,,,,,,,,
,reward_outcome,,html-keyboard-response,357,1145143,0.0-356.0,0,0,1mICX,,389,,,40,,1,,50,,,,,,,,,,,,,,,,-1,389,,,,,,,,,,,,,,,,,,,,,,,,
,fixation,,html-keyboard-response,358,1146147,0.0-359.0,0,0,1mICX,,null,,,null,,,,,,,,,,,,,,,,,,,,,,,,,,,,,,,,,,,,,,,,,,,,,
,see_reward,,html-keyboard-response,359,1146659,0.0-360.0,0,0,1mICX,,508,,,32,,27,,51,,,,-1,,,,,3,,,,,0,508,,,,,,,,,,,,,,,,,,,,,,,,,,
,reward_outcome,,html-keyboard-response,360,1148666,0.0-361.0,0,0,1mICX,,461,,,40,,27,,51,,,,,,,,,,,,,,,,-1,461,,,,,,,,,,,,,,,,,,,,,,,,
,fixation,,html-keyboard-response,361,1149674,0.0-364.0,0,0,1mICX,,null,,,null,,,,,,,,,,,,,,,,,,,,,,,,,,,,,,,,,,,,,,,,,,,,,
,see_reward,,html-keyboard-response,362,1150147,0.0-365.0,0,0,1mICX,,470,,,32,,42,,52,,,,1,,,,,3,,,,,144,470,,,,,,,,,,,,,,,,,,,,,,,,,,
,reward_outcome,,html-keyboard-response,363,1152152,0.0-366.0,0,0,1mICX,,397,,,38,,42,,52,,,,,,,,,,,,,,,,1,397,,,,,,,,,,,,,,,,,,,,,,,,
,fixation,,html-keyboard-response,364,1153158,0.0-369.0,0,0,1mICX,,null,,,null,,,,,,,,,,,,,,,,,,,,,,,,,,,,,,,,,,,,,,,,,,,,,
,see_reward,,html-keyboard-response,365,1153546,0.0-370.0,0,0,1mICX,,386,,,32,,27,,53,,,,-1,,,,,3,,,,,0,386,,,,,,,,,,,,,,,,,,,,,,,,,,
,reward_outcome,,html-keyboard-response,366,1155553,0.0-371.0,0,0,1mICX,,373,,,40,,27,,53,,,,,,,,,,,,,,,,-1,373,,,,,,,,,,,,,,,,,,,,,,,,
,fixation,,html-keyboard-response,367,1156556,0.0-374.0,0,0,1mICX,,null,,,null,,,,,,,,,,,,,,,,,,,,,,,,,,,,,,,,,,,,,,,,,,,,,
,see_reward,,html-keyboard-response,368,1157170,0.0-375.0,0,0,1mICX,,612,,,32,,52,,54,,,,-1,,,,,3,,,,,0,612,,,,,,,,,,,,,,,,,,,,,,,,,,
,reward_outcome,,html-keyboard-response,369,1159175,0.0-376.0,0,0,1mICX,,413,,,40,,52,,54,,,,,,,,,,,,,,,,-1,413,,,,,,,,,,,,,,,,,,,,,,,,
,fixation,,html-keyboard-response,370,1160183,0.0-379.0,0,0,1mICX,,null,,,null,,,,,,,,,,,,,,,,,,,,,,,,,,,,,,,,,,,,,,,,,,,,,
,see_reward,,html-keyboard-response,371,1160723,0.0-380.0,0,0,1mICX,,537,,,32,,42,,55,,,,1,,,,,3,,,,,144,537,,,,,,,,,,,,,,,,,,,,,,,,,,
,reward_outcome,,html-keyboard-response,372,1162726,0.0-381.0,0,0,1mICX,,357,,,38,,42,,55,,,,,,,,,,,,,,,,1,357,,,,,,,,,,,,,,,,,,,,,,,,
,fixation,,html-keyboard-response,373,1163730,0.0-384.0,0,0,1mICX,,null,,,null,,,,,,,,,,,,,,,,,,,,,,,,,,,,,,,,,,,,,,,,,,,,,
,see_reward,,html-keyboard-response,374,1164186,0.0-385.0,0,0,1mICX,,453,,,32,,37,,56,,,,-1,,,,,3,,,,,0,453,,,,,,,,,,,,,,,,,,,,,,,,,,
,reward_outcome,,html-keyboard-response,375,1166194,0.0-386.0,0,0,1mICX,,351,,,40,,37,,56,,,,,,,,,,,,,,,,-1,351,,,,,,,,,,,,,,,,,,,,,,,,
,fixation,,html-keyboard-response,376,1167200,0.0-389.0,0,0,1mICX,,null,,,null,,,,,,,,,,,,,,,,,,,,,,,,,,,,,,,,,,,,,,,,,,,,,
,see_reward,,html-keyboard-response,377,1167634,0.0-390.0,0,0,1mICX,,432,,,32,,4,,57,,,,1,,,,,3,,,,,144,432,,,,,,,,,,,,,,,,,,,,,,,,,,
,reward_outcome,,html-keyboard-response,378,1169640,0.0-391.0,0,0,1mICX,,405,,,38,,4,,57,,,,,,,,,,,,,,,,1,405,,,,,,,,,,,,,,,,,,,,,,,,
,fixation,,html-keyboard-response,379,1170644,0.0-394.0,0,0,1mICX,,null,,,null,,,,,,,,,,,,,,,,,,,,,,,,,,,,,,,,,,,,,,,,,,,,,
,see_reward,,html-keyboard-response,380,1171427,0.0-395.0,0,0,1mICX,,779,,,32,,18,,58,,,,1,,,,,3,,,,,142,779,,,,,,,,,,,,,,,,,,,,,,,,,,
,reward_outcome,,html-keyboard-response,381,1173433,0.0-396.0,0,0,1mICX,,645,,,38,,18,,58,,,,,,,,,,,,,,,,1,645,,,,,,,,,,,,,,,,,,,,,,,,
,fixation,,html-keyboard-response,382,1174441,0.0-399.0,0,0,1mICX,,null,,,null,,,,,,,,,,,,,,,,,,,,,,,,,,,,,,,,,,,,,,,,,,,,,
,see_reward,,html-keyboard-response,383,1174930,0.0-400.0,0,0,1mICX,,486,,,32,,41,,59,,,,-1,,,,,3,,,,,0,486,,,,,,,,,,,,,,,,,,,,,,,,,,
,reward_outcome,,html-keyboard-response,384,1176937,0.0-401.0,0,0,1mICX,,358,,,40,,41,,59,,,,,,,,,,,,,,,,-1,358,,,,,,,,,,,,,,,,,,,,,,,,
,fixation,,html-keyboard-response,385,1177944,0.0-404.0,0,0,1mICX,,null,,,null,,,,,,,,,,,,,,,,,,,,,,,,,,,,,,,,,,,,,,,,,,,,,
,see_reward,,html-keyboard-response,386,1178498,0.0-405.0,0,0,1mICX,,551,,,32,,34,,60,,,,1,,,,,3,,,,,157,551,,,,,,,,,,,,,,,,,,,,,,,,,,
,reward_outcome,,html-keyboard-response,387,1180505,0.0-406.0,0,0,1mICX,,350,,,38,,34,,60,,,,,,,,,,,,,,,,1,350,,,,,,,,,,,,,,,,,,,,,,,,
,fixation,,html-keyboard-response,388,1181511,0.0-409.0,0,0,1mICX,,null,,,null,,,,,,,,,,,,,,,,,,,,,,,,,,,,,,,,,,,,,,,,,,,,,
,see_reward,,html-keyboard-response,389,1182130,0.0-410.0,0,0,1mICX,,616,,,32,,34,,61,,,,1,,,,,3,,,,,157,616,,,,,,,,,,,,,,,,,,,,,,,,,,
,reward_outcome,,html-keyboard-response,390,1184135,0.0-411.0,0,0,1mICX,,326,,,38,,34,,61,,,,,,,,,,,,,,,,1,326,,,,,,,,,,,,,,,,,,,,,,,,
,fixation,,html-keyboard-response,391,1185138,0.0-414.0,0,0,1mICX,,null,,,null,,,,,,,,,,,,,,,,,,,,,,,,,,,,,,,,,,,,,,,,,,,,,
,see_reward,,html-keyboard-response,392,1187390,0.0-415.0,0,0,1mICX,,2249,,,32,,41,,62,,,,-1,,,,,3,,,,,0,2249,,,,,,,,,,,,,,,,,,,,,,,,,,
,reward_outcome,,html-keyboard-response,393,1189394,0.0-416.0,0,0,1mICX,,602,,,40,,41,,62,,,,,,,,,,,,,,,,-1,602,,,,,,,,,,,,,,,,,,,,,,,,
,fixation,,html-keyboard-response,394,1190400,0.0-419.0,0,0,1mICX,,null,,,null,,,,,,,,,,,,,,,,,,,,,,,,,,,,,,,,,,,,,,,,,,,,,
,see_reward,,html-keyboard-response,395,1191058,0.0-420.0,0,0,1mICX,,655,,,32,,18,,63,,,,1,,,,,3,,,,,142,655,,,,,,,,,,,,,,,,,,,,,,,,,,
,reward_outcome,,html-keyboard-response,396,1193063,0.0-421.0,0,0,1mICX,,341,,,38,,18,,63,,,,,,,,,,,,,,,,1,341,,,,,,,,,,,,,,,,,,,,,,,,
,fixation,,html-keyboard-response,397,1194067,0.0-424.0,0,0,1mICX,,null,,,null,,,,,,,,,,,,,,,,,,,,,,,,,,,,,,,,,,,,,,,,,,,,,
,see_reward,,html-keyboard-response,398,1195658,0.0-425.0,0,0,1mICX,,1587,,,32,,31,,64,,,,1,,,,,3,,,,,150,1587,,,,,,,,,,,,,,,,,,,,,,,,,,
,reward_outcome,,html-keyboard-response,399,1197664,0.0-426.0,0,0,1mICX,,421,,,38,,31,,64,,,,,,,,,,,,,,,,1,421,,,,,,,,,,,,,,,,,,,,,,,,
,fixation,,html-keyboard-response,400,1198672,0.0-429.0,0,0,1mICX,,null,,,null,,,,,,,,,,,,,,,,,,,,,,,,,,,,,,,,,,,,,,,,,,,,,
,see_reward,,html-keyboard-response,401,1199297,0.0-430.0,0,0,1mICX,,622,,,32,,1,,65,,,,-1,,,,,3,,,,,0,622,,,,,,,,,,,,,,,,,,,,,,,,,,
,reward_outcome,,html-keyboard-response,402,1201305,0.0-431.0,0,0,1mICX,,382,,,40,,1,,65,,,,,,,,,,,,,,,,-1,382,,,,,,,,,,,,,,,,,,,,,,,,
,fixation,,html-keyboard-response,403,1202313,0.0-434.0,0,0,1mICX,,null,,,null,,,,,,,,,,,,,,,,,,,,,,,,,,,,,,,,,,,,,,,,,,,,,
,see_reward,,html-keyboard-response,404,1202969,0.0-435.0,0,0,1mICX,,653,,,32,,52,,66,,,,-1,,,,,3,,,,,0,653,,,,,,,,,,,,,,,,,,,,,,,,,,
,reward_outcome,,html-keyboard-response,405,1204979,0.0-436.0,0,0,1mICX,,356,,,40,,52,,66,,,,,,,,,,,,,,,,-1,356,,,,,,,,,,,,,,,,,,,,,,,,
,fixation,,html-keyboard-response,406,1205985,0.0-439.0,0,0,1mICX,,null,,,null,,,,,,,,,,,,,,,,,,,,,,,,,,,,,,,,,,,,,,,,,,,,,
,see_reward,,html-keyboard-response,407,1206609,0.0-440.0,0,0,1mICX,,622,,,32,,37,,67,,,,-1,,,,,3,,,,,0,622,,,,,,,,,,,,,,,,,,,,,,,,,,
,reward_outcome,,html-keyboard-response,408,1208614,0.0-441.0,0,0,1mICX,,229,,,40,,37,,67,,,,,,,,,,,,,,,,-1,229,,,,,,,,,,,,,,,,,,,,,,,,
,fixation,,html-keyboard-response,409,1209617,0.0-444.0,0,0,1mICX,,null,,,null,,,,,,,,,,,,,,,,,,,,,,,,,,,,,,,,,,,,,,,,,,,,,
,see_reward,,html-keyboard-response,410,1210402,0.0-445.0,0,0,1mICX,,781,,,32,,13,,68,,,,-1,,,,,3,,,,,0,781,,,,,,,,,,,,,,,,,,,,,,,,,,
,reward_outcome,,html-keyboard-response,411,1212405,0.0-446.0,0,0,1mICX,,341,,,40,,13,,68,,,,,,,,,,,,,,,,-1,341,,,,,,,,,,,,,,,,,,,,,,,,
,fixation,,html-keyboard-response,412,1213408,0.0-449.0,0,0,1mICX,,null,,,null,,,,,,,,,,,,,,,,,,,,,,,,,,,,,,,,,,,,,,,,,,,,,
,see_reward,,html-keyboard-response,413,1213865,0.0-450.0,0,0,1mICX,,454,,,32,,4,,69,,,,1,,,,,3,,,,,144,454,,,,,,,,,,,,,,,,,,,,,,,,,,
,reward_outcome,,html-keyboard-response,414,1215870,0.0-451.0,0,0,1mICX,,389,,,38,,4,,69,,,,,,,,,,,,,,,,1,389,,,,,,,,,,,,,,,,,,,,,,,,
,fixation,,html-keyboard-response,415,1216874,0.0-454.0,0,0,1mICX,,null,,,null,,,,,,,,,,,,,,,,,,,,,,,,,,,,,,,,,,,,,,,,,,,,,
,see_reward,,html-keyboard-response,416,1217530,0.0-455.0,0,0,1mICX,,652,,,32,,13,,70,,,,-1,,,,,3,,,,,0,652,,,,,,,,,,,,,,,,,,,,,,,,,,
,reward_outcome,,html-keyboard-response,417,1219535,0.0-456.0,0,0,1mICX,,213,,,40,,13,,70,,,,,,,,,,,,,,,,-1,213,,,,,,,,,,,,,,,,,,,,,,,,
,fixation,,html-keyboard-response,418,1220543,0.0-459.0,0,0,1mICX,,null,,,null,,,,,,,,,,,,,,,,,,,,,,,,,,,,,,,,,,,,,,,,,,,,,
,see_reward,,html-keyboard-response,419,1221057,0.0-460.0,0,0,1mICX,,511,,,32,,31,,71,,,,1,,,,,3,,,,,150,511,,,,,,,,,,,,,,,,,,,,,,,,,,
,reward_outcome,,html-keyboard-response,420,1223065,0.0-461.0,0,0,1mICX,,221,,,38,,31,,71,,,,,,,,,,,,,,,,1,221,1.5,,,,,,,,,,,,,,,,,,,,,,,
,deliberation_reward_tally,,html-keyboard-response,421,1227865,0.0-464.0,0,0,1mICX,,4797,,,78,,,,,,,,,,,,,,,,,,,,,,,,,,,,,,,,,,,,,,,,,,,,,
,final_decisions_instructions,,instructions,422,1236137,0.0-465.0-0.0,0,0,1mICX,"[{""page_index"":0,""viewing_time"":6706},{""page_index"":1,""viewing_time"":1564}]",8270,,,,,,,,,,,,,,,,,,,,,,,,,,,,,,,,,,,,,,,,,,,,,,,,
,final_decisions_comprehension_check,,survey-multi-choice,423,1245522,0.0-465.0-1.0,0,0,1mICX,,9379,"{""Q0"":""True"",""Q1"":""K""}",0,,,,,,,,,,,,,,,,,,,,,,,,,,,,,,,,,,,,,,,,,,,,,,
,start_phase,,html-keyboard-response,424,1247199,0.0-466.0,0,0,1mICX,,1669,,,78,,,,,,,,,,,,,,,,,,,,,,,,,,,,,,,,,,,,,,,,,,,,,
,fixation,,html-keyboard-response,425,1248203,0.0-467.0,0,0,1mICX,,null,,,null,,,,,,,,,,,,,,,,,,,,,,,,,,,,,,,,,,,,,,,,,,,,,
,final_decisions,,html-keyboard-response,426,1250025,0.0-468.0,0,0,1mICX,,1818,,,68,,,,0,24,61,,,28,8,Lewa1n.jpg,Grigb1.jpg,1,1,24,61,,,,,,,34,32,0,0,0,,,,,,,,,,,,,,,,,,
,choice_confirmation,,html-keyboard-response,427,1250530,0.0-469.0-0.0,0,0,1mICX,,null,,,null,,,,0,24,61,,,,,,,,,,,,,,,,,,,,,,,,,,,,,,,,,,,,,,,
,fixation,,html-keyboard-response,428,1251536,0.0-472.0,0,0,1mICX,,null,,,null,,,,,,,,,,,,,,,,,,,,,,,,,,,,,,,,,,,,,,,,,,,,,
,final_decisions,,html-keyboard-response,429,1252529,0.0-473.0,0,0,1mICX,,989,,,68,,,,1,42,27,,,30,9,Mackc1.jpg,Gustc1.jpg,1,1,42,27,,,,,,,30,34,1,1,1,,,,,,,,,,,,,,,,,,
,choice_confirmation,,html-keyboard-response,430,1253034,0.0-474.0-0.0,0,0,1mICX,,null,,,null,,,,1,42,27,,,,,,,,,,,,,,,,,,,,,,,,,,,,,,,,,,,,,,,
,fixation,,html-keyboard-response,431,1254040,0.0-477.0,0,0,1mICX,,null,,,null,,,,,,,,,,,,,,,,,,,,,,,,,,,,,,,,,,,,,,,,,,,,,
,final_decisions,,html-keyboard-response,432,1254785,0.0-478.0,0,0,1mICX,,741,,,68,,,,2,4,41,,,25,29,Krasb1.jpg,Picae1.jpg,1,1,4,41,,,,,,,35,25,1,1,1,,,,,,,,,,,,,,,,,,
,choice_confirmation,,html-keyboard-response,433,1255288,0.0-479.0-0.0,0,0,1mICX,,null,,,null,,,,2,4,41,,,,,,,,,,,,,,,,,,,,,,,,,,,,,,,,,,,,,,,
,fixation,,html-keyboard-response,434,1256295,0.0-482.0,0,0,1mICX,,null,,,null,,,,,,,,,,,,,,,,,,,,,,,,,,,,,,,,,,,,,,,,,,,,,
,final_decisions,,html-keyboard-response,435,1257232,0.0-483.0,0,0,1mICX,,934,,,75,,,,3,41,31,,,29,18,Picae1.jpg,Picac1.jpg,1,0,31,41,,,,,,,25,24,1,0,1,,,,,,,,,,,,,,,,,,
,choice_confirmation,,html-keyboard-response,436,1257736,0.0-484.0-0.0,0,0,1mICX,,null,,,null,,,,3,41,31,,,,,,,,,,,,,,,,,,,,,,,,,,,,,,,,,,,,,,,
,fixation,,html-keyboard-response,437,1258741,0.0-487.0,0,0,1mICX,,null,,,null,,,,,,,,,,,,,,,,,,,,,,,,,,,,,,,,,,,,,,,,,,,,,
,final_decisions,,html-keyboard-response,438,1259648,0.0-488.0,0,0,1mICX,,904,,,75,,,,4,37,11,,,28,35,Deka1n.jpg,Clifa1.jpg,1,0,11,37,,,,,,,27,32,1,0,1,,,,,,,,,,,,,,,,,,
,choice_confirmation,,html-keyboard-response,439,1260152,0.0-489.0-0.0,0,0,1mICX,,null,,,null,,,,4,37,11,,,,,,,,,,,,,,,,,,,,,,,,,,,,,,,,,,,,,,,
,fixation,,html-keyboard-response,440,1261160,0.0-492.0,0,0,1mICX,,null,,,null,,,,,,,,,,,,,,,,,,,,,,,,,,,,,,,,,,,,,,,,,,,,,
,final_decisions,,html-keyboard-response,441,1262433,0.0-493.0,0,0,1mICX,,1269,,,68,,,,5,51,16,,,39,40,Lewic1.jpg,Vincc1.jpg,1,1,51,16,,,,,,,24,31,0,1,1,,,,,,,,,,,,,,,,,,
,choice_confirmation,,html-keyboard-response,442,1262937,0.0-494.0-0.0,0,0,1mICX,,null,,,null,,,,5,51,16,,,,,,,,,,,,,,,,,,,,,,,,,,,,,,,,,,,,,,,
,fixation,,html-keyboard-response,443,1263944,0.0-497.0,0,0,1mICX,,null,,,null,,,,,,,,,,,,,,,,,,,,,,,,,,,,,,,,,,,,,,,,,,,,,
,final_decisions,,html-keyboard-response,444,1264944,0.0-498.0,0,0,1mICX,,997,,,68,,,,6,34,37,,,39,28,Lasb1n.jpg,Deka1n.jpg,1,1,34,37,,,,,,,33,27,1,1,1,,,,,,,,,,,,,,,,,,
,choice_confirmation,,html-keyboard-response,445,1265450,0.0-499.0-0.0,0,0,1mICX,,null,,,null,,,,6,34,37,,,,,,,,,,,,,,,,,,,,,,,,,,,,,,,,,,,,,,,
,fixation,,html-keyboard-response,446,1266455,0.0-502.0,0,0,1mICX,,null,,,null,,,,,,,,,,,,,,,,,,,,,,,,,,,,,,,,,,,,,,,,,,,,,
,final_decisions,,html-keyboard-response,447,1268456,0.0-503.0,0,0,1mICX,,1998,,,68,,,,7,16,3,,,40,18,Vincc1.jpg,Klib1n.jpg,1,1,16,3,,,,,,,31,33,0,0,0,,,,,,,,,,,,,,,,,,
,choice_confirmation,,html-keyboard-response,448,1268962,0.0-504.0-0.0,0,0,1mICX,,null,,,null,,,,7,16,3,,,,,,,,,,,,,,,,,,,,,,,,,,,,,,,,,,,,,,,
,fixation,,html-keyboard-response,449,1269967,0.0-507.0,0,0,1mICX,,null,,,null,,,,,,,,,,,,,,,,,,,,,,,,,,,,,,,,,,,,,,,,,,,,,
,final_decisions,,html-keyboard-response,450,1270872,0.0-508.0,0,0,1mICX,,902,,,68,,,,8,31,37,,,18,28,Picac1.jpg,Deka1n.jpg,1,1,31,37,,,,,,,24,27,1,1,1,,,,,,,,,,,,,,,,,,
,choice_confirmation,,html-keyboard-response,451,1271376,0.0-509.0-0.0,0,0,1mICX,,null,,,null,,,,8,31,37,,,,,,,,,,,,,,,,,,,,,,,,,,,,,,,,,,,,,,,
,fixation,,html-keyboard-response,452,1272380,0.0-512.0,0,0,1mICX,,null,,,null,,,,,,,,,,,,,,,,,,,,,,,,,,,,,,,,,,,,,,,,,,,,,
,final_decisions,,html-keyboard-response,453,1274320,0.0-513.0,0,0,1mICX,,1937,,,68,,,,9,44,7,,,12,9,Mackb1.jpg,Macb1n.jpg,1,1,44,7,,,,,,,29,28,0,1,1,,,,,,,,,,,,,,,,,,
,choice_confirmation,,html-keyboard-response,454,1274824,0.0-514.0-0.0,0,0,1mICX,,null,,,null,,,,9,44,7,,,,,,,,,,,,,,,,,,,,,,,,,,,,,,,,,,,,,,,
,fixation,,html-keyboard-response,455,1275828,0.0-517.0,0,0,1mICX,,null,,,null,,,,,,,,,,,,,,,,,,,,,,,,,,,,,,,,,,,,,,,,,,,,,
,final_decisions,,html-keyboard-response,456,1276640,0.0-518.0,0,0,1mICX,,809,,,75,,,,10,1,34,,,37,39,Monda1.jpg,Lasb1n.jpg,1,0,34,1,,,,,,,28,33,1,0,1,,,,,,,,,,,,,,,,,,
,choice_confirmation,,html-keyboard-response,457,1277145,0.0-519.0-0.0,0,0,1mICX,,null,,,null,,,,10,1,34,,,,,,,,,,,,,,,,,,,,,,,,,,,,,,,,,,,,,,,
,fixation,,html-keyboard-response,458,1278150,0.0-522.0,0,0,1mICX,,null,,,null,,,,,,,,,,,,,,,,,,,,,,,,,,,,,,,,,,,,,,,,,,,,,
,final_decisions,,html-keyboard-response,459,1279296,0.0-523.0,0,0,1mICX,,1143,,,75,,,,11,64,51,,,14,39,Vincb1.jpg,Lewic1.jpg,1,0,51,64,,,,,,,27,24,0,0,1,,,,,,,,,,,,,,,,,,
,choice_confirmation,,html-keyboard-response,460,1279799,0.0-524.0-0.0,0,0,1mICX,,null,,,null,,,,11,64,51,,,,,,,,,,,,,,,,,,,,,,,,,,,,,,,,,,,,,,,
,fixation,,html-keyboard-response,461,1280803,0.0-527.0,0,0,1mICX,,null,,,null,,,,,,,,,,,,,,,,,,,,,,,,,,,,,,,,,,,,,,,,,,,,,
,final_decisions,,html-keyboard-response,462,1281912,0.0-528.0,0,0,1mICX,,1106,,,68,,,,12,61,29,,,8,23,Grigb1.jpg,Klinb1.jpg,1,1,61,29,,,,,,,32,26,0,1,1,,,,,,,,,,,,,,,,,,
,choice_confirmation,,html-keyboard-response,463,1282417,0.0-529.0-0.0,0,0,1mICX,,null,,,null,,,,12,61,29,,,,,,,,,,,,,,,,,,,,,,,,,,,,,,,,,,,,,,,
,fixation,,html-keyboard-response,464,1283421,0.0-532.0,0,0,1mICX,,null,,,null,,,,,,,,,,,,,,,,,,,,,,,,,,,,,,,,,,,,,,,,,,,,,
,final_decisions,,html-keyboard-response,465,1284296,0.0-533.0,0,0,1mICX,,871,,,68,,,,13,34,41,,,39,29,Lasb1n.jpg,Picae1.jpg,1,1,34,41,,,,,,,33,25,1,1,1,,,,,,,,,,,,,,,,,,
,choice_confirmation,,html-keyboard-response,466,1284799,0.0-534.0-0.0,0,0,1mICX,,null,,,null,,,,13,34,41,,,,,,,,,,,,,,,,,,,,,,,,,,,,,,,,,,,,,,,
,fixation,,html-keyboard-response,467,1285806,0.0-537.0,0,0,1mICX,,null,,,null,,,,,,,,,,,,,,,,,,,,,,,,,,,,,,,,,,,,,,,,,,,,,
,final_decisions,,html-keyboard-response,468,1286921,0.0-538.0,0,0,1mICX,,1111,,,68,,,,14,18,41,,,22,29,Krab1n.jpg,Picae1.jpg,1,1,18,41,,,,,,,29,25,1,1,1,,,,,,,,,,,,,,,,,,
,choice_confirmation,,html-keyboard-response,469,1287426,0.0-539.0-0.0,0,0,1mICX,,null,,,null,,,,14,18,41,,,,,,,,,,,,,,,,,,,,,,,,,,,,,,,,,,,,,,,
,fixation,,html-keyboard-response,470,1288430,0.0-542.0,0,0,1mICX,,null,,,null,,,,,,,,,,,,,,,,,,,,,,,,,,,,,,,,,,,,,,,,,,,,,
,final_decisions,,html-keyboard-response,471,1289280,0.0-543.0,0,0,1mICX,,848,,,68,,,,15,11,13,,,35,33,Clifa1.jpg,Kupka1.jpg,1,1,11,13,,,,,,,32,26,1,1,1,,,,,,,,,,,,,,,,,,
,choice_confirmation,,html-keyboard-response,472,1289783,0.0-544.0-0.0,0,0,1mICX,,null,,,null,,,,15,11,13,,,,,,,,,,,,,,,,,,,,,,,,,,,,,,,,,,,,,,,
,fixation,,html-keyboard-response,473,1290788,0.0-547.0,0,0,1mICX,,null,,,null,,,,,,,,,,,,,,,,,,,,,,,,,,,,,,,,,,,,,,,,,,,,,
,final_decisions,,html-keyboard-response,474,1292624,0.0-548.0,0,0,1mICX,,1833,,,75,,,,16,37,42,,,28,30,Deka1n.jpg,Mackc1.jpg,1,0,42,37,,,,,,,27,30,1,0,1,,,,,,,,,,,,,,,,,,
,choice_confirmation,,html-keyboard-response,475,1293128,0.0-549.0-0.0,0,0,1mICX,,null,,,null,,,,16,37,42,,,,,,,,,,,,,,,,,,,,,,,,,,,,,,,,,,,,,,,
,fixation,,html-keyboard-response,476,1294133,0.0-552.0,0,0,1mICX,,null,,,null,,,,,,,,,,,,,,,,,,,,,,,,,,,,,,,,,,,,,,,,,,,,,
,final_decisions,,html-keyboard-response,477,1295008,0.0-553.0,0,0,1mICX,,872,,,75,,,,17,13,34,,,33,39,Kupka1.jpg,Lasb1n.jpg,1,0,34,13,,,,,,,26,33,1,0,1,,,,,,,,,,,,,,,,,,
,choice_confirmation,,html-keyboard-response,478,1295513,0.0-554.0-0.0,0,0,1mICX,,null,,,null,,,,17,13,34,,,,,,,,,,,,,,,,,,,,,,,,,,,,,,,,,,,,,,,
,fixation,,html-keyboard-response,479,1296516,0.0-557.0,0,0,1mICX,,null,,,null,,,,,,,,,,,,,,,,,,,,,,,,,,,,,,,,,,,,,,,,,,,,,
,final_decisions,,html-keyboard-response,480,1297199,0.0-558.0,0,0,1mICX,,680,,,75,,,,18,27,11,,,9,35,Gustc1.jpg,Clifa1.jpg,1,0,11,27,,,,,,,34,32,1,0,1,,,,,,,,,,,,,,,,,,
,choice_confirmation,,html-keyboard-response,481,1297702,0.0-559.0-0.0,0,0,1mICX,,null,,,null,,,,18,27,11,,,,,,,,,,,,,,,,,,,,,,,,,,,,,,,,,,,,,,,
,fixation,,html-keyboard-response,482,1298711,0.0-562.0,0,0,1mICX,,null,,,null,,,,,,,,,,,,,,,,,,,,,,,,,,,,,,,,,,,,,,,,,,,,,
,final_decisions,,html-keyboard-response,483,1299816,0.0-563.0,0,0,1mICX,,1101,,,75,,,,19,16,15,,,40,23,Vincc1.jpg,Lassc1.jpg,1,0,15,16,,,,,,,31,30,0,0,1,,,,,,,,,,,,,,,,,,
,choice_confirmation,,html-keyboard-response,484,1300320,0.0-564.0-0.0,0,0,1mICX,,null,,,null,,,,19,16,15,,,,,,,,,,,,,,,,,,,,,,,,,,,,,,,,,,,,,,,
,fixation,,html-keyboard-response,485,1301323,0.0-567.0,0,0,1mICX,,null,,,null,,,,,,,,,,,,,,,,,,,,,,,,,,,,,,,,,,,,,,,,,,,,,
,final_decisions,,html-keyboard-response,486,1303176,0.0-568.0,0,0,1mICX,,1849,,,75,,,,20,62,24,,,34,28,Mona1n.jpg,Lewa1n.jpg,1,0,24,62,,,,,,,35,34,0,1,0,,,,,,,,,,,,,,,,,,
,choice_confirmation,,html-keyboard-response,487,1303680,0.0-569.0-0.0,0,0,1mICX,,null,,,null,,,,20,62,24,,,,,,,,,,,,,,,,,,,,,,,,,,,,,,,,,,,,,,,
,fixation,,html-keyboard-response,488,1304684,0.0-572.0,0,0,1mICX,,null,,,null,,,,,,,,,,,,,,,,,,,,,,,,,,,,,,,,,,,,,,,,,,,,,
,final_decisions,,html-keyboard-response,489,1305784,0.0-573.0,0,0,1mICX,,1096,,,75,,,,21,27,18,,,9,22,Gustc1.jpg,Krab1n.jpg,1,0,18,27,,,,,,,34,29,1,0,1,,,,,,,,,,,,,,,,,,
,choice_confirmation,,html-keyboard-response,490,1306287,0.0-574.0-0.0,0,0,1mICX,,null,,,null,,,,21,27,18,,,,,,,,,,,,,,,,,,,,,,,,,,,,,,,,,,,,,,,
,fixation,,html-keyboard-response,491,1307291,0.0-577.0,0,0,1mICX,,null,,,null,,,,,,,,,,,,,,,,,,,,,,,,,,,,,,,,,,,,,,,,,,,,,
,final_decisions,,html-keyboard-response,492,1307984,0.0-578.0,0,0,1mICX,,689,,,68,,,,22,34,27,,,39,9,Lasb1n.jpg,Gustc1.jpg,1,1,34,27,,,,,,,33,34,1,1,1,,,,,,,,,,,,,,,,,,
,choice_confirmation,,html-keyboard-response,493,1308489,0.0-579.0-0.0,0,0,1mICX,,null,,,null,,,,22,34,27,,,,,,,,,,,,,,,,,,,,,,,,,,,,,,,,,,,,,,,
,fixation,,html-keyboard-response,494,1309496,0.0-582.0,0,0,1mICX,,null,,,null,,,,,,,,,,,,,,,,,,,,,,,,,,,,,,,,,,,,,,,,,,,,,
,final_decisions,,html-keyboard-response,495,1310752,0.0-583.0,0,0,1mICX,,1252,,,75,,,,23,66,15,,,9,23,Vinca1.jpg,Lassc1.jpg,1,0,15,66,,,,,,,25,30,0,0,1,,,,,,,,,,,,,,,,,,
,choice_confirmation,,html-keyboard-response,496,1311255,0.0-584.0-0.0,0,0,1mICX,,null,,,null,,,,23,66,15,,,,,,,,,,,,,,,,,,,,,,,,,,,,,,,,,,,,,,,
,fixation,,html-keyboard-response,497,1312261,0.0-587.0,0,0,1mICX,,null,,,null,,,,,,,,,,,,,,,,,,,,,,,,,,,,,,,,,,,,,,,,,,,,,
,final_decisions,,html-keyboard-response,498,1313512,0.0-588.0,0,0,1mICX,,1247,,,68,,,,24,62,64,,,34,14,Mona1n.jpg,Vincb1.jpg,1,1,62,64,,,,,,,35,27,0,1,1,,,,,,,,,,,,,,,,,,
,choice_confirmation,,html-keyboard-response,499,1314015,0.0-589.0-0.0,0,0,1mICX,,null,,,null,,,,24,62,64,,,,,,,,,,,,,,,,,,,,,,,,,,,,,,,,,,,,,,,
,fixation,,html-keyboard-response,500,1315021,0.0-592.0,0,0,1mICX,,null,,,null,,,,,,,,,,,,,,,,,,,,,,,,,,,,,,,,,,,,,,,,,,,,,
,final_decisions,,html-keyboard-response,501,1315767,0.0-593.0,0,0,1mICX,,743,,,68,,,,25,15,64,,,23,14,Lassc1.jpg,Vincb1.jpg,1,1,15,64,,,,,,,30,27,0,1,1,,,,,,,,,,,,,,,,,,
,choice_confirmation,,html-keyboard-response,502,1316271,0.0-594.0-0.0,0,0,1mICX,,null,,,null,,,,25,15,64,,,,,,,,,,,,,,,,,,,,,,,,,,,,,,,,,,,,,,,
,fixation,,html-keyboard-response,503,1317276,0.0-597.0,0,0,1mICX,,null,,,null,,,,,,,,,,,,,,,,,,,,,,,,,,,,,,,,,,,,,,,,,,,,,
,final_decisions,,html-keyboard-response,504,1318200,0.0-598.0,0,0,1mICX,,921,,,68,,,,26,18,52,,,22,16,Krab1n.jpg,Dekoa1.jpg,1,1,18,52,,,,,,,29,31,1,1,1,,,,,,,,,,,,,,,,,,
,choice_confirmation,,html-keyboard-response,505,1318704,0.0-599.0-0.0,0,0,1mICX,,null,,,null,,,,26,18,52,,,,,,,,,,,,,,,,,,,,,,,,,,,,,,,,,,,,,,,
,fixation,,html-keyboard-response,506,1319707,0.0-602.0,0,0,1mICX,,null,,,null,,,,,,,,,,,,,,,,,,,,,,,,,,,,,,,,,,,,,,,,,,,,,
,final_decisions,,html-keyboard-response,507,1321384,0.0-603.0,0,0,1mICX,,1673,,,68,,,,27,61,66,,,8,9,Grigb1.jpg,Vinca1.jpg,1,1,61,66,,,,,,,32,25,0,1,1,,,,,,,,,,,,,,,,,,
,choice_confirmation,,html-keyboard-response,508,1321887,0.0-604.0-0.0,0,0,1mICX,,null,,,null,,,,27,61,66,,,,,,,,,,,,,,,,,,,,,,,,,,,,,,,,,,,,,,,
,fixation,,html-keyboard-response,509,1322895,0.0-607.0,0,0,1mICX,,null,,,null,,,,,,,,,,,,,,,,,,,,,,,,,,,,,,,,,,,,,,,,,,,,,
,final_decisions,,html-keyboard-response,510,1323687,0.0-608.0,0,0,1mICX,,789,,,68,,,,28,61,7,,,8,9,Grigb1.jpg,Macb1n.jpg,1,1,61,7,,,,,,,32,28,0,1,1,,,,,,,,,,,,,,,,,,
,choice_confirmation,,html-keyboard-response,511,1324191,0.0-609.0-0.0,0,0,1mICX,,null,,,null,,,,28,61,7,,,,,,,,,,,,,,,,,,,,,,,,,,,,,,,,,,,,,,,
,fixation,,html-keyboard-response,512,1325198,0.0-612.0,0,0,1mICX,,null,,,null,,,,,,,,,,,,,,,,,,,,,,,,,,,,,,,,,,,,,,,,,,,,,
,final_decisions,,html-keyboard-response,513,1326023,0.0-613.0,0,0,1mICX,,822,,,75,,,,29,13,4,,,33,25,Kupka1.jpg,Krasb1.jpg,1,0,4,13,,,,,,,26,35,1,0,1,,,,,,,,,,,,,,,,,,
,choice_confirmation,,html-keyboard-response,514,1326527,0.0-614.0-0.0,0,0,1mICX,,null,,,null,,,,29,13,4,,,,,,,,,,,,,,,,,,,,,,,,,,,,,,,,,,,,,,,
,fixation,,html-keyboard-response,515,1327532,0.0-617.0,0,0,1mICX,,null,,,null,,,,,,,,,,,,,,,,,,,,,,,,,,,,,,,,,,,,,,,,,,,,,
,final_decisions,,html-keyboard-response,516,1328575,0.0-618.0,0,0,1mICX,,1040,,,75,,,,30,7,15,,,9,23,Macb1n.jpg,Lassc1.jpg,1,0,15,7,,,,,,,28,30,0,0,1,,,,,,,,,,,,,,,,,,
,choice_confirmation,,html-keyboard-response,517,1329079,0.0-619.0-0.0,0,0,1mICX,,null,,,null,,,,30,7,15,,,,,,,,,,,,,,,,,,,,,,,,,,,,,,,,,,,,,,,
,fixation,,html-keyboard-response,518,1330086,0.0-622.0,0,0,1mICX,,null,,,null,,,,,,,,,,,,,,,,,,,,,,,,,,,,,,,,,,,,,,,,,,,,,
,final_decisions,,html-keyboard-response,519,1330990,0.0-623.0,0,0,1mICX,,901,,,68,,,,31,4,52,,,25,16,Krasb1.jpg,Dekoa1.jpg,1,1,4,52,,,,,,,35,31,1,1,1,,,,,,,,,,,,,,,,,,
,choice_confirmation,,html-keyboard-response,520,1331495,0.0-624.0-0.0,0,0,1mICX,,null,,,null,,,,31,4,52,,,,,,,,,,,,,,,,,,,,,,,,,,,,,,,,,,,,,,,
,fixation,,html-keyboard-response,521,1332500,0.0-627.0,0,0,1mICX,,null,,,null,,,,,,,,,,,,,,,,,,,,,,,,,,,,,,,,,,,,,,,,,,,,,
,final_decisions,,html-keyboard-response,522,1333839,0.0-628.0,0,0,1mICX,,1336,,,68,,,,32,62,66,,,34,9,Mona1n.jpg,Vinca1.jpg,1,1,62,66,,,,,,,35,25,0,1,1,,,,,,,,,,,,,,,,,,
,choice_confirmation,,html-keyboard-response,523,1334342,0.0-629.0-0.0,0,0,1mICX,,null,,,null,,,,32,62,66,,,,,,,,,,,,,,,,,,,,,,,,,,,,,,,,,,,,,,,
,fixation,,html-keyboard-response,524,1335345,0.0-632.0,0,0,1mICX,,null,,,null,,,,,,,,,,,,,,,,,,,,,,,,,,,,,,,,,,,,,,,,,,,,,
,final_decisions,,html-keyboard-response,525,1336807,0.0-633.0,0,0,1mICX,,1459,,,75,,,,33,3,64,,,18,14,Klib1n.jpg,Vincb1.jpg,1,0,64,3,,,,,,,33,27,0,1,0,,,,,,,,,,,,,,,,,,
,choice_confirmation,,html-keyboard-response,526,1337311,0.0-634.0-0.0,0,0,1mICX,,null,,,null,,,,33,3,64,,,,,,,,,,,,,,,,,,,,,,,,,,,,,,,,,,,,,,,
,fixation,,html-keyboard-response,527,1338318,0.0-637.0,0,0,1mICX,,null,,,null,,,,,,,,,,,,,,,,,,,,,,,,,,,,,,,,,,,,,,,,,,,,,
,final_decisions,,html-keyboard-response,528,1339087,0.0-638.0,0,0,1mICX,,766,,,75,,,,34,29,15,,,23,23,Klinb1.jpg,Lassc1.jpg,1,0,15,29,,,,,,,26,30,0,0,1,,,,,,,,,,,,,,,,,,
,choice_confirmation,,html-keyboard-response,529,1339591,0.0-639.0-0.0,0,0,1mICX,,null,,,null,,,,34,29,15,,,,,,,,,,,,,,,,,,,,,,,,,,,,,,,,,,,,,,,
,fixation,,html-keyboard-response,530,1340595,0.0-642.0,0,0,1mICX,,null,,,null,,,,,,,,,,,,,,,,,,,,,,,,,,,,,,,,,,,,,,,,,,,,,
,final_decisions,,html-keyboard-response,531,1341519,0.0-643.0,0,0,1mICX,,921,,,68,,,,35,42,41,,,30,29,Mackc1.jpg,Picae1.jpg,1,1,42,41,,,,,,,30,25,1,1,1,,,,,,,,,,,,,,,,,,
,choice_confirmation,,html-keyboard-response,532,1342023,0.0-644.0-0.0,0,0,1mICX,,null,,,null,,,,35,42,41,,,,,,,,,,,,,,,,,,,,,,,,,,,,,,,,,,,,,,,
,fixation,,html-keyboard-response,533,1343026,0.0-647.0,0,0,1mICX,,null,,,null,,,,,,,,,,,,,,,,,,,,,,,,,,,,,,,,,,,,,,,,,,,,,
,final_decisions,,html-keyboard-response,534,1343863,0.0-648.0,0,0,1mICX,,834,,,68,,,,36,24,3,,,28,18,Lewa1n.jpg,Klib1n.jpg,1,1,24,3,,,,,,,34,33,0,0,0,,,,,,,,,,,,,,,,,,
,choice_confirmation,,html-keyboard-response,535,1344366,0.0-649.0-0.0,0,0,1mICX,,null,,,null,,,,36,24,3,,,,,,,,,,,,,,,,,,,,,,,,,,,,,,,,,,,,,,,
,fixation,,html-keyboard-response,536,1345370,0.0-652.0,0,0,1mICX,,null,,,null,,,,,,,,,,,,,,,,,,,,,,,,,,,,,,,,,,,,,,,,,,,,,
,final_decisions,,html-keyboard-response,537,1346439,0.0-653.0,0,0,1mICX,,1066,,,68,,,,37,3,29,,,18,23,Klib1n.jpg,Klinb1.jpg,1,1,3,29,,,,,,,33,26,0,1,1,,,,,,,,,,,,,,,,,,
,choice_confirmation,,html-keyboard-response,538,1346945,0.0-654.0-0.0,0,0,1mICX,,null,,,null,,,,37,3,29,,,,,,,,,,,,,,,,,,,,,,,,,,,,,,,,,,,,,,,
,fixation,,html-keyboard-response,539,1347953,0.0-657.0,0,0,1mICX,,null,,,null,,,,,,,,,,,,,,,,,,,,,,,,,,,,,,,,,,,,,,,,,,,,,
,final_decisions,,html-keyboard-response,540,1348871,0.0-658.0,0,0,1mICX,,915,,,68,,,,38,51,29,,,39,23,Lewic1.jpg,Klinb1.jpg,1,1,51,29,,,,,,,24,26,0,1,1,,,,,,,,,,,,,,,,,,
,choice_confirmation,,html-keyboard-response,541,1349374,0.0-659.0-0.0,0,0,1mICX,,null,,,null,,,,38,51,29,,,,,,,,,,,,,,,,,,,,,,,,,,,,,,,,,,,,,,,
,fixation,,html-keyboard-response,542,1350380,0.0-662.0,0,0,1mICX,,null,,,null,,,,,,,,,,,,,,,,,,,,,,,,,,,,,,,,,,,,,,,,,,,,,
,final_decisions,,html-keyboard-response,543,1351591,0.0-663.0,0,0,1mICX,,1208,,,75,,,,39,16,44,,,40,12,Vincc1.jpg,Mackb1.jpg,1,0,44,16,,,,,,,31,29,0,0,1,,,,,,,,,,,,,,,,,,
,choice_confirmation,,html-keyboard-response,544,1352094,0.0-664.0-0.0,0,0,1mICX,,null,,,null,,,,39,16,44,,,,,,,,,,,,,,,,,,,,,,,,,,,,,,,,,,,,,,,
,fixation,,html-keyboard-response,545,1353102,0.0-667.0,0,0,1mICX,,null,,,null,,,,,,,,,,,,,,,,,,,,,,,,,,,,,,,,,,,,,,,,,,,,,
,final_decisions,,html-keyboard-response,546,1353791,0.0-668.0,0,0,1mICX,,684,,,75,,,,40,66,44,,,9,12,Vinca1.jpg,Mackb1.jpg,1,0,44,66,,,,,,,25,29,0,0,1,,,,,,,,,,,,,,,,,,
,choice_confirmation,,html-keyboard-response,547,1354294,0.0-669.0-0.0,0,0,1mICX,,null,,,null,,,,40,66,44,,,,,,,,,,,,,,,,,,,,,,,,,,,,,,,,,,,,,,,
,fixation,,html-keyboard-response,548,1355302,0.0-672.0,0,0,1mICX,,null,,,null,,,,,,,,,,,,,,,,,,,,,,,,,,,,,,,,,,,,,,,,,,,,,
,final_decisions,,html-keyboard-response,549,1356351,0.0-673.0,0,0,1mICX,,1046,,,75,,,,41,1,31,,,37,18,Monda1.jpg,Picac1.jpg,1,0,31,1,,,,,,,28,24,1,0,1,,,,,,,,,,,,,,,,,,
,choice_confirmation,,html-keyboard-response,550,1356855,0.0-674.0-0.0,0,0,1mICX,,null,,,null,,,,41,1,31,,,,,,,,,,,,,,,,,,,,,,,,,,,,,,,,,,,,,,,
,fixation,,html-keyboard-response,551,1357858,0.0-677.0,0,0,1mICX,,null,,,null,,,,,,,,,,,,,,,,,,,,,,,,,,,,,,,,,,,,,,,,,,,,,
,final_decisions,,html-keyboard-response,552,1358903,0.0-678.0,0,0,1mICX,,1041,,,68,,,,42,4,1,,,25,37,Krasb1.jpg,Monda1.jpg,1,1,4,1,,,,,,,35,28,1,1,1,,,,,,,,,,,,,,,,,,
,choice_confirmation,,html-keyboard-response,553,1359407,0.0-679.0-0.0,0,0,1mICX,,null,,,null,,,,42,4,1,,,,,,,,,,,,,,,,,,,,,,,,,,,,,,,,,,,,,,,
,fixation,,html-keyboard-response,554,1360414,0.0-682.0,0,0,1mICX,,null,,,null,,,,,,,,,,,,,,,,,,,,,,,,,,,,,,,,,,,,,,,,,,,,,
,final_decisions,,html-keyboard-response,555,1361254,0.0-683.0,0,0,1mICX,,837,,,75,,,,43,1,11,,,37,35,Monda1.jpg,Clifa1.jpg,1,0,11,1,,,,,,,28,32,1,0,1,,,,,,,,,,,,,,,,,,
,choice_confirmation,,html-keyboard-response,556,1361758,0.0-684.0-0.0,0,0,1mICX,,null,,,null,,,,43,1,11,,,,,,,,,,,,,,,,,,,,,,,,,,,,,,,,,,,,,,,
,fixation,,html-keyboard-response,557,1362762,0.0-687.0,0,0,1mICX,,null,,,null,,,,,,,,,,,,,,,,,,,,,,,,,,,,,,,,,,,,,,,,,,,,,
,final_decisions,,html-keyboard-response,558,1363647,0.0-688.0,0,0,1mICX,,882,,,75,,,,44,29,44,,,23,12,Klinb1.jpg,Mackb1.jpg,1,0,44,29,,,,,,,26,29,0,0,1,,,,,,,,,,,,,,,,,,
,choice_confirmation,,html-keyboard-response,559,1364150,0.0-689.0-0.0,0,0,1mICX,,null,,,null,,,,44,29,44,,,,,,,,,,,,,,,,,,,,,,,,,,,,,,,,,,,,,,,
,fixation,,html-keyboard-response,560,1365157,0.0-692.0,0,0,1mICX,,null,,,null,,,,,,,,,,,,,,,,,,,,,,,,,,,,,,,,,,,,,,,,,,,,,
,final_decisions,,html-keyboard-response,561,1365871,0.0-693.0,0,0,1mICX,,710,,,75,,,,45,13,42,,,33,30,Kupka1.jpg,Mackc1.jpg,1,0,42,13,,,,,,,26,30,1,0,1,,,,,,,,,,,,,,,,,,
,choice_confirmation,,html-keyboard-response,562,1366374,0.0-694.0-0.0,0,0,1mICX,,null,,,null,,,,45,13,42,,,,,,,,,,,,,,,,,,,,,,,,,,,,,,,,,,,,,,,
,fixation,,html-keyboard-response,563,1367378,0.0-697.0,0,0,1mICX,,null,,,null,,,,,,,,,,,,,,,,,,,,,,,,,,,,,,,,,,,,,,,,,,,,,
,final_decisions,,html-keyboard-response,564,1368055,0.0-698.0,0,0,1mICX,,674,,,68,,,,46,42,1,,,30,37,Mackc1.jpg,Monda1.jpg,1,1,42,1,,,,,,,30,28,1,1,1,,,,,,,,,,,,,,,,,,
,choice_confirmation,,html-keyboard-response,565,1368558,0.0-699.0-0.0,0,0,1mICX,,null,,,null,,,,46,42,1,,,,,,,,,,,,,,,,,,,,,,,,,,,,,,,,,,,,,,,
,fixation,,html-keyboard-response,566,1369564,0.0-702.0,0,0,1mICX,,null,,,null,,,,,,,,,,,,,,,,,,,,,,,,,,,,,,,,,,,,,,,,,,,,,
,final_decisions,,html-keyboard-response,567,1370406,0.0-703.0,0,0,1mICX,,838,,,75,,,,47,52,42,,,16,30,Dekoa1.jpg,Mackc1.jpg,1,0,42,52,,,,,,,31,30,1,0,1,,,,,,,,,,,,,,,,,,
,choice_confirmation,,html-keyboard-response,568,1370911,0.0-704.0-0.0,0,0,1mICX,,null,,,null,,,,47,52,42,,,,,,,,,,,,,,,,,,,,,,,,,,,,,,,,,,,,,,,
,fixation,,html-keyboard-response,569,1371916,0.0-707.0,0,0,1mICX,,null,,,null,,,,,,,,,,,,,,,,,,,,,,,,,,,,,,,,,,,,,,,,,,,,,
,final_decisions,,html-keyboard-response,570,1372823,0.0-708.0,0,0,1mICX,,902,,,68,,,,48,11,41,,,35,29,Clifa1.jpg,Picae1.jpg,1,1,11,41,,,,,,,32,25,1,1,1,,,,,,,,,,,,,,,,,,
,choice_confirmation,,html-keyboard-response,571,1373326,0.0-709.0-0.0,0,0,1mICX,,null,,,null,,,,48,11,41,,,,,,,,,,,,,,,,,,,,,,,,,,,,,,,,,,,,,,,
,fixation,,html-keyboard-response,572,1374334,0.0-712.0,0,0,1mICX,,null,,,null,,,,,,,,,,,,,,,,,,,,,,,,,,,,,,,,,,,,,,,,,,,,,
,final_decisions,,html-keyboard-response,573,1375199,0.0-713.0,0,0,1mICX,,861,,,75,,,,49,3,66,,,18,9,Klib1n.jpg,Vinca1.jpg,1,0,66,3,,,,,,,33,25,0,1,0,,,,,,,,,,,,,,,,,,
,choice_confirmation,,html-keyboard-response,574,1375702,0.0-714.0-0.0,0,0,1mICX,,null,,,null,,,,49,3,66,,,,,,,,,,,,,,,,,,,,,,,,,,,,,,,,,,,,,,,
,fixation,,html-keyboard-response,575,1376707,0.0-717.0,0,0,1mICX,,null,,,null,,,,,,,,,,,,,,,,,,,,,,,,,,,,,,,,,,,,,,,,,,,,,
,final_decisions,,html-keyboard-response,576,1377382,0.0-718.0,0,0,1mICX,,672,,,75,,,,50,52,31,,,16,18,Dekoa1.jpg,Picac1.jpg,1,0,31,52,,,,,,,31,24,1,0,1,,,,,,,,,,,,,,,,,,
,choice_confirmation,,html-keyboard-response,577,1377886,0.0-719.0-0.0,0,0,1mICX,,null,,,null,,,,50,52,31,,,,,,,,,,,,,,,,,,,,,,,,,,,,,,,,,,,,,,,
,fixation,,html-keyboard-response,578,1378892,0.0-722.0,0,0,1mICX,,null,,,null,,,,,,,,,,,,,,,,,,,,,,,,,,,,,,,,,,,,,,,,,,,,,
,final_decisions,,html-keyboard-response,579,1379750,0.0-723.0,0,0,1mICX,,854,,,75,,,,51,64,61,,,14,8,Vincb1.jpg,Grigb1.jpg,1,0,61,64,,,,,,,27,32,0,0,1,,,,,,,,,,,,,,,,,,
,choice_confirmation,,html-keyboard-response,580,1380254,0.0-724.0-0.0,0,0,1mICX,,null,,,null,,,,51,64,61,,,,,,,,,,,,,,,,,,,,,,,,,,,,,,,,,,,,,,,
,fixation,,html-keyboard-response,581,1381259,0.0-727.0,0,0,1mICX,,null,,,null,,,,,,,,,,,,,,,,,,,,,,,,,,,,,,,,,,,,,,,,,,,,,
,final_decisions,,html-keyboard-response,582,1382023,0.0-728.0,0,0,1mICX,,760,,,68,,,,52,31,27,,,18,9,Picac1.jpg,Gustc1.jpg,1,1,31,27,,,,,,,24,34,1,1,1,,,,,,,,,,,,,,,,,,
,choice_confirmation,,html-keyboard-response,583,1382528,0.0-729.0-0.0,0,0,1mICX,,null,,,null,,,,52,31,27,,,,,,,,,,,,,,,,,,,,,,,,,,,,,,,,,,,,,,,
,fixation,,html-keyboard-response,584,1383532,0.0-732.0,0,0,1mICX,,null,,,null,,,,,,,,,,,,,,,,,,,,,,,,,,,,,,,,,,,,,,,,,,,,,
,final_decisions,,html-keyboard-response,585,1384470,0.0-733.0,0,0,1mICX,,935,,,75,,,,53,27,4,,,9,25,Gustc1.jpg,Krasb1.jpg,1,0,4,27,,,,,,,34,35,1,0,1,,,,,,,,,,,,,,,,,,
,choice_confirmation,,html-keyboard-response,586,1384974,0.0-734.0-0.0,0,0,1mICX,,null,,,null,,,,53,27,4,,,,,,,,,,,,,,,,,,,,,,,,,,,,,,,,,,,,,,,
,fixation,,html-keyboard-response,587,1385982,0.0-737.0,0,0,1mICX,,null,,,null,,,,,,,,,,,,,,,,,,,,,,,,,,,,,,,,,,,,,,,,,,,,,
,final_decisions,,html-keyboard-response,588,1387142,0.0-738.0,0,0,1mICX,,1157,,,75,,,,54,13,18,,,33,22,Kupka1.jpg,Krab1n.jpg,1,0,18,13,,,,,,,26,29,1,0,1,,,,,,,,,,,,,,,,,,
,choice_confirmation,,html-keyboard-response,589,1387648,0.0-739.0-0.0,0,0,1mICX,,null,,,null,,,,54,13,18,,,,,,,,,,,,,,,,,,,,,,,,,,,,,,,,,,,,,,,
,fixation,,html-keyboard-response,590,1388652,0.0-742.0,0,0,1mICX,,null,,,null,,,,,,,,,,,,,,,,,,,,,,,,,,,,,,,,,,,,,,,,,,,,,
,final_decisions,,html-keyboard-response,591,1389622,0.0-743.0,0,0,1mICX,,967,,,75,,,,55,37,4,,,28,25,Deka1n.jpg,Krasb1.jpg,1,0,4,37,,,,,,,27,35,1,0,1,,,,,,,,,,,,,,,,,,
,choice_confirmation,,html-keyboard-response,592,1390126,0.0-744.0-0.0,0,0,1mICX,,null,,,null,,,,55,37,4,,,,,,,,,,,,,,,,,,,,,,,,,,,,,,,,,,,,,,,
,fixation,,html-keyboard-response,593,1391131,0.0-747.0,0,0,1mICX,,null,,,null,,,,,,,,,,,,,,,,,,,,,,,,,,,,,,,,,,,,,,,,,,,,,
,final_decisions,,html-keyboard-response,594,1391846,0.0-748.0,0,0,1mICX,,712,,,68,,,,56,34,52,,,39,16,Lasb1n.jpg,Dekoa1.jpg,1,1,34,52,,,,,,,33,31,1,1,1,,,,,,,,,,,,,,,,,,
,choice_confirmation,,html-keyboard-response,595,1392350,0.0-749.0-0.0,0,0,1mICX,,null,,,null,,,,56,34,52,,,,,,,,,,,,,,,,,,,,,,,,,,,,,,,,,,,,,,,
,fixation,,html-keyboard-response,596,1393354,0.0-752.0,0,0,1mICX,,null,,,null,,,,,,,,,,,,,,,,,,,,,,,,,,,,,,,,,,,,,,,,,,,,,
,final_decisions,,html-keyboard-response,597,1394406,0.0-753.0,0,0,1mICX,,1049,,,68,,,,57,18,1,,,22,37,Krab1n.jpg,Monda1.jpg,1,1,18,1,,,,,,,29,28,1,1,1,,,,,,,,,,,,,,,,,,
,choice_confirmation,,html-keyboard-response,598,1394910,0.0-754.0-0.0,0,0,1mICX,,null,,,null,,,,57,18,1,,,,,,,,,,,,,,,,,,,,,,,,,,,,,,,,,,,,,,,
,fixation,,html-keyboard-response,599,1395917,0.0-757.0,0,0,1mICX,,null,,,null,,,,,,,,,,,,,,,,,,,,,,,,,,,,,,,,,,,,,,,,,,,,,
,final_decisions,,html-keyboard-response,600,1396630,0.0-758.0,0,0,1mICX,,710,,,75,,,,58,13,31,,,33,18,Kupka1.jpg,Picac1.jpg,1,0,31,13,,,,,,,26,24,1,0,1,,,,,,,,,,,,,,,,,,
,choice_confirmation,,html-keyboard-response,601,1397134,0.0-759.0-0.0,0,0,1mICX,,null,,,null,,,,58,13,31,,,,,,,,,,,,,,,,,,,,,,,,,,,,,,,,,,,,,,,
,fixation,,html-keyboard-response,602,1398138,0.0-762.0,0,0,1mICX,,null,,,null,,,,,,,,,,,,,,,,,,,,,,,,,,,,,,,,,,,,,,,,,,,,,
,final_decisions,,html-keyboard-response,603,1399046,0.0-763.0,0,0,1mICX,,904,,,75,,,,59,24,15,,,28,23,Lewa1n.jpg,Lassc1.jpg,1,0,15,24,,,,,,,34,30,0,0,1,,,,,,,,,,,,,,,,,,
,choice_confirmation,,html-keyboard-response,604,1399550,0.0-764.0-0.0,0,0,1mICX,,null,,,null,,,,59,24,15,,,,,,,,,,,,,,,,,,,,,,,,,,,,,,,,,,,,,,,
,fixation,,html-keyboard-response,605,1400554,0.0-767.0,0,0,1mICX,,null,,,null,,,,,,,,,,,,,,,,,,,,,,,,,,,,,,,,,,,,,,,,,,,,,
,final_decisions,,html-keyboard-response,606,1401598,0.0-768.0,0,0,1mICX,,1041,,,75,,,,60,52,11,,,16,35,Dekoa1.jpg,Clifa1.jpg,1,0,11,52,,,,,,,31,32,1,0,1,,,,,,,,,,,,,,,,,,
,choice_confirmation,,html-keyboard-response,607,1402102,0.0-769.0-0.0,0,0,1mICX,,null,,,null,,,,60,52,11,,,,,,,,,,,,,,,,,,,,,,,,,,,,,,,,,,,,,,,
,fixation,,html-keyboard-response,608,1403108,0.0-772.0,0,0,1mICX,,null,,,null,,,,,,,,,,,,,,,,,,,,,,,,,,,,,,,,,,,,,,,,,,,,,
,final_decisions,,html-keyboard-response,609,1403910,0.0-773.0,0,0,1mICX,,798,,,75,,,,61,7,51,,,9,39,Macb1n.jpg,Lewic1.jpg,1,0,51,7,,,,,,,28,24,0,0,1,,,,,,,,,,,,,,,,,,
,choice_confirmation,,html-keyboard-response,610,1404413,0.0-774.0-0.0,0,0,1mICX,,null,,,null,,,,61,7,51,,,,,,,,,,,,,,,,,,,,,,,,,,,,,,,,,,,,,,,
,fixation,,html-keyboard-response,611,1405416,0.0-777.0,0,0,1mICX,,null,,,null,,,,,,,,,,,,,,,,,,,,,,,,,,,,,,,,,,,,,,,,,,,,,
,final_decisions,,html-keyboard-response,612,1407502,0.0-778.0,0,0,1mICX,,2083,,,68,,,,62,29,62,,,23,34,Klinb1.jpg,Mona1n.jpg,1,1,29,62,,,,,,,26,35,0,0,0,,,,,,,,,,,,,,,,,,
,choice_confirmation,,html-keyboard-response,613,1408005,0.0-779.0-0.0,0,0,1mICX,,null,,,null,,,,62,29,62,,,,,,,,,,,,,,,,,,,,,,,,,,,,,,,,,,,,,,,
,fixation,,html-keyboard-response,614,1409009,0.0-782.0,0,0,1mICX,,null,,,null,,,,,,,,,,,,,,,,,,,,,,,,,,,,,,,,,,,,,,,,,,,,,
,final_decisions,,html-keyboard-response,615,1409798,0.0-783.0,0,0,1mICX,,786,,,75,,,,63,3,7,,,18,9,Klib1n.jpg,Macb1n.jpg,1,0,7,3,,,,,,,33,28,0,1,0,,,,,,,,,,,,,,,,,,
,choice_confirmation,,html-keyboard-response,616,1410301,0.0-784.0-0.0,0,0,1mICX,,null,,,null,,,,63,3,7,,,,,,,,,,,,,,,,,,,,,,,,,,,,,,,,,,,,,,,
,fixation,,html-keyboard-response,617,1411309,0.0-787.0,0,0,1mICX,,null,,,null,,,,,,,,,,,,,,,,,,,,,,,,,,,,,,,,,,,,,,,,,,,,,
,final_decisions,,html-keyboard-response,618,1411966,0.0-788.0,0,0,1mICX,,653,,,68,,,,64,18,37,,,22,28,Krab1n.jpg,Deka1n.jpg,1,1,18,37,,,,,,,29,27,1,1,1,,,,,,,,,,,,,,,,,,
,choice_confirmation,,html-keyboard-response,619,1412469,0.0-789.0-0.0,0,0,1mICX,,null,,,null,,,,64,18,37,,,,,,,,,,,,,,,,,,,,,,,,,,,,,,,,,,,,,,,
,fixation,,html-keyboard-response,620,1413473,0.0-792.0,0,0,1mICX,,null,,,null,,,,,,,,,,,,,,,,,,,,,,,,,,,,,,,,,,,,,,,,,,,,,
,final_decisions,,html-keyboard-response,621,1414614,0.0-793.0,0,0,1mICX,,1137,,,75,,,,65,16,62,,,40,34,Vincc1.jpg,Mona1n.jpg,1,0,62,16,,,,,,,31,35,0,0,1,,,,,,,,,,,,,,,,,,
,choice_confirmation,,html-keyboard-response,622,1415117,0.0-794.0-0.0,0,0,1mICX,,null,,,null,,,,65,16,62,,,,,,,,,,,,,,,,,,,,,,,,,,,,,,,,,,,,,,,
,fixation,,html-keyboard-response,623,1416122,0.0-797.0,0,0,1mICX,,null,,,null,,,,,,,,,,,,,,,,,,,,,,,,,,,,,,,,,,,,,,,,,,,,,
,final_decisions,,html-keyboard-response,624,1416862,0.0-798.0,0,0,1mICX,,736,,,75,,,,66,24,44,,,28,12,Lewa1n.jpg,Mackb1.jpg,1,0,44,24,,,,,,,34,29,0,0,1,,,,,,,,,,,,,,,,,,
,choice_confirmation,,html-keyboard-response,625,1417365,0.0-799.0-0.0,0,0,1mICX,,null,,,null,,,,66,24,44,,,,,,,,,,,,,,,,,,,,,,,,,,,,,,,,,,,,,,,
,fixation,,html-keyboard-response,626,1418373,0.0-802.0,0,0,1mICX,,null,,,null,,,,,,,,,,,,,,,,,,,,,,,,,,,,,,,,,,,,,,,,,,,,,
,final_decisions,,html-keyboard-response,627,1419806,0.0-803.0,0,0,1mICX,,1428,,,68,,,,67,62,7,,,34,9,Mona1n.jpg,Macb1n.jpg,1,1,62,7,,,,,,,35,28,0,1,1,,,,,,,,,,,,,,,,,,
,choice_confirmation,,html-keyboard-response,628,1420310,0.0-804.0-0.0,0,0,1mICX,,null,,,null,,,,67,62,7,,,,,,,,,,,,,,,,,,,,,,,,,,,,,,,,,,,,,,,
,fixation,,html-keyboard-response,629,1421316,0.0-807.0,0,0,1mICX,,null,,,null,,,,,,,,,,,,,,,,,,,,,,,,,,,,,,,,,,,,,,,,,,,,,
,final_decisions,,html-keyboard-response,630,1422109,0.0-808.0,0,0,1mICX,,790,,,68,,,,68,61,16,,,8,40,Grigb1.jpg,Vincc1.jpg,1,1,61,16,,,,,,,32,31,0,1,1,,,,,,,,,,,,,,,,,,
,choice_confirmation,,html-keyboard-response,631,1422613,0.0-809.0-0.0,0,0,1mICX,,null,,,null,,,,68,61,16,,,,,,,,,,,,,,,,,,,,,,,,,,,,,,,,,,,,,,,
,fixation,,html-keyboard-response,632,1423620,0.0-812.0,0,0,1mICX,,null,,,null,,,,,,,,,,,,,,,,,,,,,,,,,,,,,,,,,,,,,,,,,,,,,
,final_decisions,,html-keyboard-response,633,1424630,0.0-813.0,0,0,1mICX,,1006,,,75,,,,69,24,51,,,28,39,Lewa1n.jpg,Lewic1.jpg,1,0,51,24,,,,,,,34,24,0,0,1,,,,,,,,,,,,,,,,,,
,choice_confirmation,,html-keyboard-response,634,1425135,0.0-814.0-0.0,0,0,1mICX,,null,,,null,,,,69,24,51,,,,,,,,,,,,,,,,,,,,,,,,,,,,,,,,,,,,,,,
,fixation,,html-keyboard-response,635,1426140,0.0-817.0,0,0,1mICX,,null,,,null,,,,,,,,,,,,,,,,,,,,,,,,,,,,,,,,,,,,,,,,,,,,,
,final_decisions,,html-keyboard-response,636,1426827,0.0-818.0,0,0,1mICX,,684,,,68,,,,70,51,66,,,39,9,Lewic1.jpg,Vinca1.jpg,1,1,51,66,,,,,,,24,25,0,1,1,,,,,,,,,,,,,,,,,,
,choice_confirmation,,html-keyboard-response,637,1427330,0.0-819.0-0.0,0,0,1mICX,,null,,,null,,,,70,51,66,,,,,,,,,,,,,,,,,,,,,,,,,,,,,,,,,,,,,,,
,fixation,,html-keyboard-response,638,1428334,0.0-822.0,0,0,1mICX,,null,,,null,,,,,,,,,,,,,,,,,,,,,,,,,,,,,,,,,,,,,,,,,,,,,
,final_decisions,,html-keyboard-response,639,1429589,0.0-823.0,0,0,1mICX,,1252,,,68,,,,71,44,64,,,12,14,Mackb1.jpg,Vincb1.jpg,1,1,44,64,,,,,,,29,27,0,1,1,,,,,,,,,,,,,,,,,,
,choice_confirmation,,html-keyboard-response,640,1430094,0.0-824.0-0.0,0,0,1mICX,,null,,,null,,,,71,44,64,,,,,,,,,,,,,,,,,,,,,,,,,,,,,,,,,,,,,,,
,block_over,,html-keyboard-response,641,1456333,0.0-826.0-0.0,0,0,1mICX,,26237,,,78,,,,,,,,,,,,,,,,,,,,,,,,,,,,,,,,,,,,,,,,,,,,,
,fixation,,html-keyboard-response,642,1457339,0.0-827.0,0,0,1mICX,,null,,,null,,,,,,,,,,,,,,,,,,,,,,,,,,,,,,,,,,,,,,,,,,,,,
,final_decisions,,html-keyboard-response,643,1459843,0.0-828.0,0,0,1mICX,,null,,,null,,,,72,62,64,,,34,14,Mona1n.jpg,Vincb1.jpg,2,,,,,,,,,,35,27,0,1,,,,,,,,,,,,,,,,,,,
,respond_faster,,html-keyboard-response,644,1461347,0.0-830.0-0.0,1,0,1mICX,,null,,,null,,,,,,,,,,,,,,,,,,,,,,,,,,,,,,,,,,,,,,,,,,,,,
,fixation,,html-keyboard-response,645,1462351,0.0-832.0,0,0,1mICX,,null,,,null,,,,,,,,,,,,,,,,,,,,,,,,,,,,,,,,,,,,,,,,,,,,,
,final_decisions,,html-keyboard-response,646,1464085,0.0-833.0,0,0,1mICX,,1730,,,68,,,,73,24,44,,,28,12,Lewa1n.jpg,Mackb1.jpg,2,1,24,44,,,,,,,34,29,0,0,0,,,,,,,,,,,,,,,,,,
,choice_confirmation,,html-keyboard-response,647,1464589,0.0-834.0-0.0,0,0,1mICX,,null,,,null,,,,73,24,44,,,,,,,,,,,,,,,,,,,,,,,,,,,,,,,,,,,,,,,
,fixation,,html-keyboard-response,648,1465592,0.0-837.0,0,0,1mICX,,null,,,null,,,,,,,,,,,,,,,,,,,,,,,,,,,,,,,,,,,,,,,,,,,,,
,final_decisions,,html-keyboard-response,649,1466605,0.0-838.0,0,0,1mICX,,1010,,,68,,,,74,61,24,,,8,28,Grigb1.jpg,Lewa1n.jpg,2,1,61,24,,,,,,,32,34,0,1,1,,,,,,,,,,,,,,,,,,
,choice_confirmation,,html-keyboard-response,650,1467109,0.0-839.0-0.0,0,0,1mICX,,null,,,null,,,,74,61,24,,,,,,,,,,,,,,,,,,,,,,,,,,,,,,,,,,,,,,,
,fixation,,html-keyboard-response,651,1468115,0.0-842.0,0,0,1mICX,,null,,,null,,,,,,,,,,,,,,,,,,,,,,,,,,,,,,,,,,,,,,,,,,,,,
,final_decisions,,html-keyboard-response,652,1469221,0.0-843.0,0,0,1mICX,,1102,,,75,,,,75,16,62,,,40,34,Vincc1.jpg,Mona1n.jpg,2,0,62,16,,,,,,,31,35,0,0,1,,,,,,,,,,,,,,,,,,
,choice_confirmation,,html-keyboard-response,653,1469724,0.0-844.0-0.0,0,0,1mICX,,null,,,null,,,,75,16,62,,,,,,,,,,,,,,,,,,,,,,,,,,,,,,,,,,,,,,,
,fixation,,html-keyboard-response,654,1470731,0.0-847.0,0,0,1mICX,,null,,,null,,,,,,,,,,,,,,,,,,,,,,,,,,,,,,,,,,,,,,,,,,,,,
,final_decisions,,html-keyboard-response,655,1471357,0.0-848.0,0,0,1mICX,,623,,,75,,,,76,29,51,,,23,39,Klinb1.jpg,Lewic1.jpg,2,0,51,29,,,,,,,26,24,0,0,1,,,,,,,,,,,,,,,,,,
,choice_confirmation,,html-keyboard-response,656,1471861,0.0-849.0-0.0,0,0,1mICX,,null,,,null,,,,76,29,51,,,,,,,,,,,,,,,,,,,,,,,,,,,,,,,,,,,,,,,
,fixation,,html-keyboard-response,657,1472864,0.0-852.0,0,0,1mICX,,null,,,null,,,,,,,,,,,,,,,,,,,,,,,,,,,,,,,,,,,,,,,,,,,,,
,final_decisions,,html-keyboard-response,658,1473637,0.0-853.0,0,0,1mICX,,769,,,68,,,,77,4,52,,,25,16,Krasb1.jpg,Dekoa1.jpg,2,1,4,52,,,,,,,35,31,1,1,1,,,,,,,,,,,,,,,,,,
,choice_confirmation,,html-keyboard-response,659,1474141,0.0-854.0-0.0,0,0,1mICX,,null,,,null,,,,77,4,52,,,,,,,,,,,,,,,,,,,,,,,,,,,,,,,,,,,,,,,
,fixation,,html-keyboard-response,660,1475149,0.0-857.0,0,0,1mICX,,null,,,null,,,,,,,,,,,,,,,,,,,,,,,,,,,,,,,,,,,,,,,,,,,,,
,final_decisions,,html-keyboard-response,661,1476037,0.0-858.0,0,0,1mICX,,884,,,68,,,,78,18,27,,,22,9,Krab1n.jpg,Gustc1.jpg,2,1,18,27,,,,,,,29,34,1,1,1,,,,,,,,,,,,,,,,,,
,choice_confirmation,,html-keyboard-response,662,1476541,0.0-859.0-0.0,0,0,1mICX,,null,,,null,,,,78,18,27,,,,,,,,,,,,,,,,,,,,,,,,,,,,,,,,,,,,,,,
,fixation,,html-keyboard-response,663,1477548,0.0-862.0,0,0,1mICX,,null,,,null,,,,,,,,,,,,,,,,,,,,,,,,,,,,,,,,,,,,,,,,,,,,,
,final_decisions,,html-keyboard-response,664,1478444,0.0-863.0,0,0,1mICX,,893,,,68,,,,79,11,27,,,35,9,Clifa1.jpg,Gustc1.jpg,2,1,11,27,,,,,,,32,34,1,1,1,,,,,,,,,,,,,,,,,,
,choice_confirmation,,html-keyboard-response,665,1478948,0.0-864.0-0.0,0,0,1mICX,,null,,,null,,,,79,11,27,,,,,,,,,,,,,,,,,,,,,,,,,,,,,,,,,,,,,,,
,fixation,,html-keyboard-response,666,1479952,0.0-867.0,0,0,1mICX,,null,,,null,,,,,,,,,,,,,,,,,,,,,,,,,,,,,,,,,,,,,,,,,,,,,
,final_decisions,,html-keyboard-response,667,1480821,0.0-868.0,0,0,1mICX,,865,,,75,,,,80,16,61,,,40,8,Vincc1.jpg,Grigb1.jpg,2,0,61,16,,,,,,,31,32,0,0,1,,,,,,,,,,,,,,,,,,
,choice_confirmation,,html-keyboard-response,668,1481325,0.0-869.0-0.0,0,0,1mICX,,null,,,null,,,,80,16,61,,,,,,,,,,,,,,,,,,,,,,,,,,,,,,,,,,,,,,,
,fixation,,html-keyboard-response,669,1482331,0.0-872.0,0,0,1mICX,,null,,,null,,,,,,,,,,,,,,,,,,,,,,,,,,,,,,,,,,,,,,,,,,,,,
,final_decisions,,html-keyboard-response,670,1483005,0.0-873.0,0,0,1mICX,,670,,,68,,,,81,62,66,,,34,9,Mona1n.jpg,Vinca1.jpg,2,1,62,66,,,,,,,35,25,0,1,1,,,,,,,,,,,,,,,,,,
,choice_confirmation,,html-keyboard-response,671,1483508,0.0-874.0-0.0,0,0,1mICX,,null,,,null,,,,81,62,66,,,,,,,,,,,,,,,,,,,,,,,,,,,,,,,,,,,,,,,
,fixation,,html-keyboard-response,672,1484513,0.0-877.0,0,0,1mICX,,null,,,null,,,,,,,,,,,,,,,,,,,,,,,,,,,,,,,,,,,,,,,,,,,,,
,final_decisions,,html-keyboard-response,673,1485172,0.0-878.0,0,0,1mICX,,656,,,75,,,,82,16,44,,,40,12,Vincc1.jpg,Mackb1.jpg,2,0,44,16,,,,,,,31,29,0,0,1,,,,,,,,,,,,,,,,,,
,choice_confirmation,,html-keyboard-response,674,1485676,0.0-879.0-0.0,0,0,1mICX,,null,,,null,,,,82,16,44,,,,,,,,,,,,,,,,,,,,,,,,,,,,,,,,,,,,,,,
,fixation,,html-keyboard-response,675,1486685,0.0-882.0,0,0,1mICX,,null,,,null,,,,,,,,,,,,,,,,,,,,,,,,,,,,,,,,,,,,,,,,,,,,,
,final_decisions,,html-keyboard-response,676,1487452,0.0-883.0,0,0,1mICX,,764,,,75,,,,83,61,66,,,8,9,Grigb1.jpg,Vinca1.jpg,2,0,66,61,,,,,,,32,25,0,1,0,,,,,,,,,,,,,,,,,,
,choice_confirmation,,html-keyboard-response,677,1487958,0.0-884.0-0.0,0,0,1mICX,,null,,,null,,,,83,61,66,,,,,,,,,,,,,,,,,,,,,,,,,,,,,,,,,,,,,,,
,fixation,,html-keyboard-response,678,1488964,0.0-887.0,0,0,1mICX,,null,,,null,,,,,,,,,,,,,,,,,,,,,,,,,,,,,,,,,,,,,,,,,,,,,
,final_decisions,,html-keyboard-response,679,1489515,0.0-888.0,0,0,1mICX,,548,,,75,,,,84,1,31,,,37,18,Monda1.jpg,Picac1.jpg,2,0,31,1,,,,,,,28,24,1,0,1,,,,,,,,,,,,,,,,,,
,choice_confirmation,,html-keyboard-response,680,1490018,0.0-889.0-0.0,0,0,1mICX,,null,,,null,,,,84,1,31,,,,,,,,,,,,,,,,,,,,,,,,,,,,,,,,,,,,,,,
,fixation,,html-keyboard-response,681,1491027,0.0-892.0,0,0,1mICX,,null,,,null,,,,,,,,,,,,,,,,,,,,,,,,,,,,,,,,,,,,,,,,,,,,,
,final_decisions,,html-keyboard-response,682,1491628,0.0-893.0,0,0,1mICX,,598,,,75,,,,85,37,18,,,28,22,Deka1n.jpg,Krab1n.jpg,2,0,18,37,,,,,,,27,29,1,0,1,,,,,,,,,,,,,,,,,,
,choice_confirmation,,html-keyboard-response,683,1492132,0.0-894.0-0.0,0,0,1mICX,,null,,,null,,,,85,37,18,,,,,,,,,,,,,,,,,,,,,,,,,,,,,,,,,,,,,,,
,fixation,,html-keyboard-response,684,1493139,0.0-897.0,0,0,1mICX,,null,,,null,,,,,,,,,,,,,,,,,,,,,,,,,,,,,,,,,,,,,,,,,,,,,
