PID,trial,rt,old_rating,new_rating,stimulus_index,type,category,stimulus,path,iti,stim_type,deliberated_stim,choice,outcome
21859,2,7034,87,65,4,original,outdoor_scenes,jarrett-kow-1ZOyYPOBn7I-unsplash.jpg,Stimuli/Experimental_stims/outdoor_scenes/jarrett-kow-1ZOyYPOBn7I-unsplash.jpg,,original,deliberated,chosen,no_gain
21859,3,1862,73,70,45,original,objects,leohoho-rngTKHXumy0-unsplash.jpg,Stimuli/Experimental_stims/objects/leohoho-rngTKHXumy0-unsplash.jpg,,original,not_deliberated,NaN,NaN
21859,4,2512,80,34,12,original,faces,aiony-haust-jmATI5Q_YgY-unsplash.jpg,Stimuli/Experimental_stims/faces/aiony-haust-jmATI5Q_YgY-unsplash.jpg,,original,not_deliberated,NaN,NaN
21859,5,1668,NA,72,61,scramble,faces,scrambled_daniel-rigdon-dXmXKPP2L4E-unsplash.jpg,Stimuli/Experimental_stims/scramble/faces/scrambled_daniel-rigdon-dXmXKPP2L4E-unsplash.jpg,,scramble,deliberated,chosen,no_gain
21859,6,2317,54,71,28,original,body_parts,ira-vishnevskaya-8DQAvdCby1I-unsplash.jpg,Stimuli/Experimental_stims/body_parts/ira-vishnevskaya-8DQAvdCby1I-unsplash.jpg,,original,not_deliberated,NaN,NaN
21859,7,2748,76,53,16,original,faces,freddy-kearney-o-ioeoATbIM-unsplash.jpg,Stimuli/Experimental_stims/faces/freddy-kearney-o-ioeoATbIM-unsplash.jpg,,original,not_deliberated,NaN,NaN
21859,8,1531,NA,55,84,scramble,objects,scrambled_alexander-andrews-JYGnB9gTCls-unsplash.jpg,Stimuli/Experimental_stims/scramble/objects/scrambled_alexander-andrews-JYGnB9gTCls-unsplash.jpg,,scramble,deliberated,chosen,no_gain
21859,9,3443,47,55,32,original,body_parts,towfiqu-barbhuiya-3AsiVDsZnHg-unsplash.jpg,Stimuli/Experimental_stims/body_parts/towfiqu-barbhuiya-3AsiVDsZnHg-unsplash.jpg,,original,deliberated,chosen,no_gain
21859,10,1847,41,55,42,original,objects,jess-bailey-nOeVi8DsN8U-unsplash.jpg,Stimuli/Experimental_stims/objects/jess-bailey-nOeVi8DsN8U-unsplash.jpg,,original,not_deliberated,NaN,NaN
21859,11,1795,81,54,35,original,body_parts,wc-so-KH4AAPjb-tI-unsplash.jpg,Stimuli/Experimental_stims/body_parts/wc-so-KH4AAPjb-tI-unsplash.jpg,,original,not_deliberated,NaN,NaN
21859,12,1854,NA,54,86,scramble,objects,scrambled_art-lasovsky-8XddFc6NkBY-unsplash.jpg,Stimuli/Experimental_stims/scramble/objects/scrambled_art-lasovsky-8XddFc6NkBY-unsplash.jpg,,scramble,deliberated,chosen,no_gain
21859,13,1615,31,53,40,original,objects,fabian-blank-pElSkGRA2NU-unsplash.jpg,Stimuli/Experimental_stims/objects/fabian-blank-pElSkGRA2NU-unsplash.jpg,,original,deliberated,chosen,no_gain
21859,15,1746,46,54,5,original,outdoor_scenes,jeff-king-bJHWJeiHfHc-unsplash.jpg,Stimuli/Experimental_stims/outdoor_scenes/jeff-king-bJHWJeiHfHc-unsplash.jpg,,original,not_deliberated,NaN,NaN
21859,16,1875,91,54,11,original,outdoor_scenes,stephen-leonardi-gyIRjKPXupE-unsplash.jpg,Stimuli/Experimental_stims/outdoor_scenes/stephen-leonardi-gyIRjKPXupE-unsplash.jpg,,original,deliberated,chosen,no_gain
21859,19,1861,47,54,21,original,faces,leilani-angel-K84vnnzxmTQ-unsplash.jpg,Stimuli/Experimental_stims/faces/leilani-angel-K84vnnzxmTQ-unsplash.jpg,,original,not_deliberated,NaN,NaN
21859,20,2186,75,55,24,original,body_parts,clay-banks-LjqARJaJotc-unsplash.jpg,Stimuli/Experimental_stims/body_parts/clay-banks-LjqARJaJotc-unsplash.jpg,,original,deliberated,chosen,gain
21859,21,1895,NA,55,59,scramble,outdoor_scenes,scrambled_stephen-leonardi-gyIRjKPXupE-unsplash.jpg,Stimuli/Experimental_stims/scramble/outdoor_scenes/scrambled_stephen-leonardi-gyIRjKPXupE-unsplash.jpg,,scramble,deliberated,chosen,no_gain
21859,22,6199,NA,54,54,scramble,outdoor_scenes,scrambled_meng-ji-8BH_M-53CyA-unsplash.jpg,Stimuli/Experimental_stims/scramble/outdoor_scenes/scrambled_meng-ji-8BH_M-53CyA-unsplash.jpg,,scramble,deliberated,chosen,no_gain
21859,23,2388,70,56,47,original,objects,ronaldo-arthur-vidal-Cdz_lvnl37k-unsplash.jpg,Stimuli/Experimental_stims/objects/ronaldo-arthur-vidal-Cdz_lvnl37k-unsplash.jpg,,original,deliberated,chosen,gain
21859,24,2504,NA,55,81,scramble,body_parts,scrambled_tucker-good-36skLT5jZcc-unsplash.jpg,Stimuli/Experimental_stims/scramble/body_parts/scrambled_tucker-good-36skLT5jZcc-unsplash.jpg,,scramble,deliberated,chosen,no_gain
21859,25,1974,78,55,19,original,faces,joel-mott-LaK153ghdig-unsplash.jpg,Stimuli/Experimental_stims/faces/joel-mott-LaK153ghdig-unsplash.jpg,,original,not_deliberated,NaN,NaN
21859,26,2008,54,55,7,original,outdoor_scenes,petr-vysohlid-9fqwGqGLUxc-unsplash.jpg,Stimuli/Experimental_stims/outdoor_scenes/petr-vysohlid-9fqwGqGLUxc-unsplash.jpg,,original,not_deliberated,NaN,NaN
21859,28,2072,69,55,10,original,outdoor_scenes,shannon-kunkle-dM8INmkyDas-unsplash.jpg,Stimuli/Experimental_stims/outdoor_scenes/shannon-kunkle-dM8INmkyDas-unsplash.jpg,,original,not_deliberated,NaN,NaN
21859,29,3272,NA,54,78,scramble,body_parts,scrambled_mika-korhonen-Xodzxosar18-unsplash.jpg,Stimuli/Experimental_stims/scramble/body_parts/scrambled_mika-korhonen-Xodzxosar18-unsplash.jpg,,scramble,deliberated,chosen,no_gain
21859,30,2165,20,54,18,original,faces,jessica-radanavong-mrYkTuAesKE-unsplash.jpg,Stimuli/Experimental_stims/faces/jessica-radanavong-mrYkTuAesKE-unsplash.jpg,,original,deliberated,chosen,no_gain
21859,33,1806,75,45,23,original,faces,rikonavt-HQjfrvdTfak-unsplash.jpg,Stimuli/Experimental_stims/faces/rikonavt-HQjfrvdTfak-unsplash.jpg,,original,not_deliberated,NaN,NaN
21859,34,1596,68,46,46,original,objects,mockup-graphics-PNsj6RiHAF4-unsplash.jpg,Stimuli/Experimental_stims/objects/mockup-graphics-PNsj6RiHAF4-unsplash.jpg,,original,deliberated,unchosen,no_gain
21859,37,1576,82,46,27,original,body_parts,heike-mintel-i_Gns0ELnLw-unsplash.jpg,Stimuli/Experimental_stims/body_parts/heike-mintel-i_Gns0ELnLw-unsplash.jpg,,original,deliberated,chosen,no_gain
21859,38,1941,NA,45,75,scramble,body_parts,scrambled_heike-mintel-i_Gns0ELnLw-unsplash.jpg,Stimuli/Experimental_stims/scramble/body_parts/scrambled_heike-mintel-i_Gns0ELnLw-unsplash.jpg,,scramble,deliberated,chosen,no_gain
21859,42,1377,52,54,41,original,objects,insung-yoon-w2JtIQQXoRU-unsplash.jpg,Stimuli/Experimental_stims/objects/insung-yoon-w2JtIQQXoRU-unsplash.jpg,,original,not_deliberated,NaN,NaN
21859,43,1694,NA,54,48,scramble,outdoor_scenes,scrambled_aleksandra-boguslawska-MS7KD9Ti7FQ-unsplash.jpg,Stimuli/Experimental_stims/scramble/outdoor_scenes/scrambled_aleksandra-boguslawska-MS7KD9Ti7FQ-unsplash.jpg,,scramble,deliberated,chosen,no_gain
21859,44,1660,79,54,31,original,body_parts,sincerely-media-VN6DbKajo5s-unsplash.jpg,Stimuli/Experimental_stims/body_parts/sincerely-media-VN6DbKajo5s-unsplash.jpg,,original,not_deliberated,NaN,NaN
21859,48,1517,77,53,9,original,outdoor_scenes,sergey-pesterev-y-b_FOmJXdg-unsplash.jpg,Stimuli/Experimental_stims/outdoor_scenes/sergey-pesterev-y-b_FOmJXdg-unsplash.jpg,,original,not_deliberated,NaN,NaN
21859,49,1465,NA,53,70,scramble,faces,scrambled_ravi-patel-VMGAbeeJTKo-unsplash.jpg,Stimuli/Experimental_stims/scramble/faces/scrambled_ravi-patel-VMGAbeeJTKo-unsplash.jpg,,scramble,deliberated,chosen,no_gain
21859,50,2765,NA,48,62,scramble,faces,scrambled_david-siglin-UuW4psOb388-unsplash.jpg,Stimuli/Experimental_stims/scramble/faces/scrambled_david-siglin-UuW4psOb388-unsplash.jpg,,scramble,deliberated,chosen,no_gain
21859,51,1639,NA,47,51,scramble,outdoor_scenes,scrambled_henry-be-NLF6hTe4PAg-unsplash.jpg,Stimuli/Experimental_stims/scramble/outdoor_scenes/scrambled_henry-be-NLF6hTe4PAg-unsplash.jpg,,scramble,deliberated,chosen,no_gain
21859,52,1776,67,47,43,original,objects,jonathan-greenaway-Y4hGgeiFn3s-unsplash.jpg,Stimuli/Experimental_stims/objects/jonathan-greenaway-Y4hGgeiFn3s-unsplash.jpg,,original,deliberated,chosen,no_gain
21859,54,1589,72,46,25,original,body_parts,engin-akyurt-Q2rfH3GW39c-unsplash.jpg,Stimuli/Experimental_stims/body_parts/engin-akyurt-Q2rfH3GW39c-unsplash.jpg,,original,deliberated,chosen,no_gain
21859,55,1540,70,46,37,original,objects,alexander-andrews-VLGWE_SumrA-unsplash.jpg,Stimuli/Experimental_stims/objects/alexander-andrews-VLGWE_SumrA-unsplash.jpg,,original,not_deliberated,NaN,NaN
21859,56,1436,53,46,20,original,faces,justin-chen-J7Cf1Gch49E-unsplash.jpg,Stimuli/Experimental_stims/faces/justin-chen-J7Cf1Gch49E-unsplash.jpg,,original,deliberated,chosen,gain
21859,57,2033,NA,53,68,scramble,faces,scrambled_justin-chen-J7Cf1Gch49E-unsplash.jpg,Stimuli/Experimental_stims/scramble/faces/scrambled_justin-chen-J7Cf1Gch49E-unsplash.jpg,,scramble,deliberated,chosen,no_gain
21859,58,2133,69,54,39,original,objects,charlesdeluvio-1-nx1QR5dTE-unsplash.jpg,Stimuli/Experimental_stims/objects/charlesdeluvio-1-nx1QR5dTE-unsplash.jpg,,original,not_deliberated,NaN,NaN
21859,59,1512,75,53,13,original,faces,daniel-rigdon-dXmXKPP2L4E-unsplash.jpg,Stimuli/Experimental_stims/faces/daniel-rigdon-dXmXKPP2L4E-unsplash.jpg,,original,deliberated,unchosen,no_gain
21859,60,1777,39,54,38,original,objects,art-lasovsky-8XddFc6NkBY-unsplash.jpg,Stimuli/Experimental_stims/objects/art-lasovsky-8XddFc6NkBY-unsplash.jpg,,original,deliberated,chosen,no_gain
21859,61,1535,28,54,14,original,faces,david-siglin-UuW4psOb388-unsplash.jpg,Stimuli/Experimental_stims/faces/david-siglin-UuW4psOb388-unsplash.jpg,,original,deliberated,chosen,no_gain
21859,63,1580,NA,54,72,scramble,body_parts,scrambled_clay-banks-LjqARJaJotc-unsplash.jpg,Stimuli/Experimental_stims/scramble/body_parts/scrambled_clay-banks-LjqARJaJotc-unsplash.jpg,,scramble,deliberated,chosen,no_gain
21859,65,2103,80,54,3,original,outdoor_scenes,henry-be-NLF6hTe4PAg-unsplash.jpg,Stimuli/Experimental_stims/outdoor_scenes/henry-be-NLF6hTe4PAg-unsplash.jpg,,original,deliberated,chosen,no_gain
21859,66,1925,30,54,1,original,outdoor_scenes,ashim-d-silva-S2Q5mdOrrVc-unsplash.jpg,Stimuli/Experimental_stims/outdoor_scenes/ashim-d-silva-S2Q5mdOrrVc-unsplash.jpg,,original,deliberated,chosen,gain
21859,67,1692,45,54,30,original,body_parts,mika-korhonen-Xodzxosar18-unsplash.jpg,Stimuli/Experimental_stims/body_parts/mika-korhonen-Xodzxosar18-unsplash.jpg,,original,deliberated,chosen,gain
21859,69,1881,80,55,36,original,objects,alexander-andrews-JYGnB9gTCls-unsplash.jpg,Stimuli/Experimental_stims/objects/alexander-andrews-JYGnB9gTCls-unsplash.jpg,,original,deliberated,chosen,gain
21859,70,1999,NA,55,95,scramble,objects,scrambled_ronaldo-arthur-vidal-Cdz_lvnl37k-unsplash.jpg,Stimuli/Experimental_stims/scramble/objects/scrambled_ronaldo-arthur-vidal-Cdz_lvnl37k-unsplash.jpg,,scramble,deliberated,chosen,no_gain
21859,71,1801,NA,54,94,scramble,objects,scrambled_mockup-graphics-PNsj6RiHAF4-unsplash.jpg,Stimuli/Experimental_stims/scramble/objects/scrambled_mockup-graphics-PNsj6RiHAF4-unsplash.jpg,,scramble,deliberated,chosen,no_gain
21859,72,1939,NA,54,52,scramble,outdoor_scenes,scrambled_jarrett-kow-1ZOyYPOBn7I-unsplash.jpg,Stimuli/Experimental_stims/scramble/outdoor_scenes/scrambled_jarrett-kow-1ZOyYPOBn7I-unsplash.jpg,,scramble,deliberated,chosen,no_gain
21859,74,2096,NA,54,49,scramble,outdoor_scenes,scrambled_ashim-d-silva-S2Q5mdOrrVc-unsplash.jpg,Stimuli/Experimental_stims/scramble/outdoor_scenes/scrambled_ashim-d-silva-S2Q5mdOrrVc-unsplash.jpg,,scramble,deliberated,chosen,no_gain
21859,76,2636,NA,54,80,scramble,body_parts,scrambled_towfiqu-barbhuiya-3AsiVDsZnHg-unsplash.jpg,Stimuli/Experimental_stims/scramble/body_parts/scrambled_towfiqu-barbhuiya-3AsiVDsZnHg-unsplash.jpg,,scramble,deliberated,chosen,no_gain
21859,77,1999,NA,54,88,scramble,objects,scrambled_fabian-blank-pElSkGRA2NU-unsplash.jpg,Stimuli/Experimental_stims/scramble/objects/scrambled_fabian-blank-pElSkGRA2NU-unsplash.jpg,,scramble,deliberated,chosen,no_gain
21859,78,1971,77,54,0,original,outdoor_scenes,aleksandra-boguslawska-MS7KD9Ti7FQ-unsplash.jpg,Stimuli/Experimental_stims/outdoor_scenes/aleksandra-boguslawska-MS7KD9Ti7FQ-unsplash.jpg,,original,deliberated,chosen,no_gain
21859,79,2117,35,55,6,original,outdoor_scenes,meng-ji-8BH_M-53CyA-unsplash.jpg,Stimuli/Experimental_stims/outdoor_scenes/meng-ji-8BH_M-53CyA-unsplash.jpg,,original,deliberated,chosen,no_gain
21859,80,2005,66,54,2,original,outdoor_scenes,bruno-van-der-kraan-qez8mNJ3ilU-unsplash.jpg,Stimuli/Experimental_stims/outdoor_scenes/bruno-van-der-kraan-qez8mNJ3ilU-unsplash.jpg,,original,not_deliberated,NaN,NaN
21859,82,1966,74,46,44,original,objects,kuiye-chen-NuOGFo4PudE-unsplash.jpg,Stimuli/Experimental_stims/objects/kuiye-chen-NuOGFo4PudE-unsplash.jpg,,original,not_deliberated,NaN,NaN
21859,84,1876,75,46,15,original,faces,erik-lucatero-d2MSDujJl2g-unsplash.jpg,Stimuli/Experimental_stims/faces/erik-lucatero-d2MSDujJl2g-unsplash.jpg,,original,deliberated,chosen,no_gain
21859,85,1924,NA,46,91,scramble,objects,scrambled_jonathan-greenaway-Y4hGgeiFn3s-unsplash.jpg,Stimuli/Experimental_stims/scramble/objects/scrambled_jonathan-greenaway-Y4hGgeiFn3s-unsplash.jpg,,scramble,deliberated,chosen,no_gain
21859,86,2000,NA,46,73,scramble,body_parts,scrambled_engin-akyurt-Q2rfH3GW39c-unsplash.jpg,Stimuli/Experimental_stims/scramble/body_parts/scrambled_engin-akyurt-Q2rfH3GW39c-unsplash.jpg,,scramble,deliberated,unchosen,no_gain
21859,87,1939,66,45,29,original,body_parts,manuel-schinner-ZwjFuJ7ebpk-unsplash.jpg,Stimuli/Experimental_stims/body_parts/manuel-schinner-ZwjFuJ7ebpk-unsplash.jpg,,original,not_deliberated,NaN,NaN
21859,88,1992,87,54,8,original,outdoor_scenes,samsommer-vddccTqwal8-unsplash.jpg,Stimuli/Experimental_stims/outdoor_scenes/samsommer-vddccTqwal8-unsplash.jpg,,original,not_deliberated,NaN,NaN
21859,89,2003,38,54,17,original,faces,good-faces-xmSWVeGEnJw-unsplash.jpg,Stimuli/Experimental_stims/faces/good-faces-xmSWVeGEnJw-unsplash.jpg,,original,not_deliberated,NaN,NaN
21859,90,1833,76,46,34,original,body_parts,wagner-santos-mBWMvIuVnso-unsplash.jpg,Stimuli/Experimental_stims/body_parts/wagner-santos-mBWMvIuVnso-unsplash.jpg,,original,not_deliberated,NaN,NaN
21859,91,1834,73,46,26,original,body_parts,engin-akyurt-x_3gyC42btc-unsplash.jpg,Stimuli/Experimental_stims/body_parts/engin-akyurt-x_3gyC42btc-unsplash.jpg,,original,not_deliberated,NaN,NaN
21859,92,3355,NA,53,66,scramble,faces,scrambled_jessica-radanavong-mrYkTuAesKE-unsplash.jpg,Stimuli/Experimental_stims/scramble/faces/scrambled_jessica-radanavong-mrYkTuAesKE-unsplash.jpg,,scramble,deliberated,chosen,no_gain
21859,93,2457,NA,55,63,scramble,faces,scrambled_erik-lucatero-d2MSDujJl2g-unsplash.jpg,Stimuli/Experimental_stims/scramble/faces/scrambled_erik-lucatero-d2MSDujJl2g-unsplash.jpg,,scramble,deliberated,chosen,no_gain
21859,95,4207,24,54,33,original,body_parts,tucker-good-36skLT5jZcc-unsplash.jpg,Stimuli/Experimental_stims/body_parts/tucker-good-36skLT5jZcc-unsplash.jpg,,original,deliberated,chosen,no_gain
21859,96,1909,64,54,22,original,faces,ravi-patel-VMGAbeeJTKo-unsplash.jpg,Stimuli/Experimental_stims/faces/ravi-patel-VMGAbeeJTKo-unsplash.jpg,,original,deliberated,chosen,no_gain