PID,trial,rt,old_rating,new_rating,stimulus_index,type,category,stimulus,path,iti,stim_type,deliberated_stim,choice,outcome
50734,2,3973,NA,75,91,scramble,objects,scrambled_jonathan-greenaway-Y4hGgeiFn3s-unsplash.jpg,Stimuli/Experimental_stims/scramble/objects/scrambled_jonathan-greenaway-Y4hGgeiFn3s-unsplash.jpg,,scramble,deliberated,chosen,no_gain
50734,4,2613,NA,35,73,scramble,body_parts,scrambled_engin-akyurt-Q2rfH3GW39c-unsplash.jpg,Stimuli/Experimental_stims/scramble/body_parts/scrambled_engin-akyurt-Q2rfH3GW39c-unsplash.jpg,,scramble,deliberated,chosen,no_gain
50734,7,2843,96,87,10,original,outdoor_scenes,shannon-kunkle-dM8INmkyDas-unsplash.jpg,Stimuli/Experimental_stims/outdoor_scenes/shannon-kunkle-dM8INmkyDas-unsplash.jpg,,original,not_deliberated,NaN,NaN
50734,8,2836,40,88,18,original,faces,jessica-radanavong-mrYkTuAesKE-unsplash.jpg,Stimuli/Experimental_stims/faces/jessica-radanavong-mrYkTuAesKE-unsplash.jpg,,original,deliberated,chosen,gain
50734,9,3254,74,90,26,original,body_parts,engin-akyurt-x_3gyC42btc-unsplash.jpg,Stimuli/Experimental_stims/body_parts/engin-akyurt-x_3gyC42btc-unsplash.jpg,,original,not_deliberated,NaN,NaN
50734,10,2909,NA,28,62,scramble,faces,scrambled_david-siglin-UuW4psOb388-unsplash.jpg,Stimuli/Experimental_stims/scramble/faces/scrambled_david-siglin-UuW4psOb388-unsplash.jpg,,scramble,deliberated,chosen,no_gain
50734,11,2667,80,71,42,original,objects,jess-bailey-nOeVi8DsN8U-unsplash.jpg,Stimuli/Experimental_stims/objects/jess-bailey-nOeVi8DsN8U-unsplash.jpg,,original,not_deliberated,NaN,NaN
50734,12,3106,76,90,24,original,body_parts,clay-banks-LjqARJaJotc-unsplash.jpg,Stimuli/Experimental_stims/body_parts/clay-banks-LjqARJaJotc-unsplash.jpg,,original,not_deliberated,NaN,NaN
50734,14,2979,NA,11,55,scramble,outdoor_scenes,scrambled_petr-vysohlid-9fqwGqGLUxc-unsplash.jpg,Stimuli/Experimental_stims/scramble/outdoor_scenes/scrambled_petr-vysohlid-9fqwGqGLUxc-unsplash.jpg,,scramble,deliberated,chosen,no_gain
50734,15,2698,NA,19,68,scramble,faces,scrambled_justin-chen-J7Cf1Gch49E-unsplash.jpg,Stimuli/Experimental_stims/scramble/faces/scrambled_justin-chen-J7Cf1Gch49E-unsplash.jpg,,scramble,deliberated,chosen,no_gain
50734,16,3519,99,95,6,original,outdoor_scenes,meng-ji-8BH_M-53CyA-unsplash.jpg,Stimuli/Experimental_stims/outdoor_scenes/meng-ji-8BH_M-53CyA-unsplash.jpg,,original,not_deliberated,NaN,NaN
50734,17,3913,NA,24,48,scramble,outdoor_scenes,scrambled_aleksandra-boguslawska-MS7KD9Ti7FQ-unsplash.jpg,Stimuli/Experimental_stims/scramble/outdoor_scenes/scrambled_aleksandra-boguslawska-MS7KD9Ti7FQ-unsplash.jpg,,scramble,deliberated,unchosen,no_gain
50734,18,3082,NA,13,79,scramble,body_parts,scrambled_sincerely-media-VN6DbKajo5s-unsplash.jpg,Stimuli/Experimental_stims/scramble/body_parts/scrambled_sincerely-media-VN6DbKajo5s-unsplash.jpg,,scramble,deliberated,chosen,no_gain
50734,19,2900,98,95,29,original,body_parts,manuel-schinner-ZwjFuJ7ebpk-unsplash.jpg,Stimuli/Experimental_stims/body_parts/manuel-schinner-ZwjFuJ7ebpk-unsplash.jpg,,original,deliberated,unchosen,no_gain
50734,20,3223,73,96,9,original,outdoor_scenes,sergey-pesterev-y-b_FOmJXdg-unsplash.jpg,Stimuli/Experimental_stims/outdoor_scenes/sergey-pesterev-y-b_FOmJXdg-unsplash.jpg,,original,not_deliberated,NaN,NaN
50734,21,2723,96,86,4,original,outdoor_scenes,jarrett-kow-1ZOyYPOBn7I-unsplash.jpg,Stimuli/Experimental_stims/outdoor_scenes/jarrett-kow-1ZOyYPOBn7I-unsplash.jpg,,original,deliberated,chosen,no_gain
50734,23,2937,92,96,38,original,objects,art-lasovsky-8XddFc6NkBY-unsplash.jpg,Stimuli/Experimental_stims/objects/art-lasovsky-8XddFc6NkBY-unsplash.jpg,,original,deliberated,chosen,no_gain
50734,27,3463,NA,11,85,scramble,objects,scrambled_alexander-andrews-VLGWE_SumrA-unsplash.jpg,Stimuli/Experimental_stims/scramble/objects/scrambled_alexander-andrews-VLGWE_SumrA-unsplash.jpg,,scramble,deliberated,unchosen,no_gain
50734,28,3058,67,58,19,original,faces,joel-mott-LaK153ghdig-unsplash.jpg,Stimuli/Experimental_stims/faces/joel-mott-LaK153ghdig-unsplash.jpg,,original,deliberated,chosen,no_gain
50734,29,3740,NA,22,78,scramble,body_parts,scrambled_mika-korhonen-Xodzxosar18-unsplash.jpg,Stimuli/Experimental_stims/scramble/body_parts/scrambled_mika-korhonen-Xodzxosar18-unsplash.jpg,,scramble,deliberated,chosen,no_gain
50734,30,2502,95,82,39,original,objects,charlesdeluvio-1-nx1QR5dTE-unsplash.jpg,Stimuli/Experimental_stims/objects/charlesdeluvio-1-nx1QR5dTE-unsplash.jpg,,original,deliberated,chosen,no_gain
50734,31,4261,NA,36,87,scramble,objects,scrambled_charlesdeluvio-1-nx1QR5dTE-unsplash.jpg,Stimuli/Experimental_stims/scramble/objects/scrambled_charlesdeluvio-1-nx1QR5dTE-unsplash.jpg,,scramble,deliberated,chosen,no_gain
50734,33,3256,76,59,37,original,objects,alexander-andrews-VLGWE_SumrA-unsplash.jpg,Stimuli/Experimental_stims/objects/alexander-andrews-VLGWE_SumrA-unsplash.jpg,,original,deliberated,unchosen,no_gain
50734,34,3242,NA,39,66,scramble,faces,scrambled_jessica-radanavong-mrYkTuAesKE-unsplash.jpg,Stimuli/Experimental_stims/scramble/faces/scrambled_jessica-radanavong-mrYkTuAesKE-unsplash.jpg,,scramble,deliberated,chosen,no_gain
50734,35,2994,77,90,46,original,objects,mockup-graphics-PNsj6RiHAF4-unsplash.jpg,Stimuli/Experimental_stims/objects/mockup-graphics-PNsj6RiHAF4-unsplash.jpg,,original,not_deliberated,NaN,NaN
50734,37,2857,84,77,1,original,outdoor_scenes,ashim-d-silva-S2Q5mdOrrVc-unsplash.jpg,Stimuli/Experimental_stims/outdoor_scenes/ashim-d-silva-S2Q5mdOrrVc-unsplash.jpg,,original,not_deliberated,NaN,NaN
50734,38,2087,53,30,22,original,faces,ravi-patel-VMGAbeeJTKo-unsplash.jpg,Stimuli/Experimental_stims/faces/ravi-patel-VMGAbeeJTKo-unsplash.jpg,,original,deliberated,chosen,no_gain
50734,39,2922,NA,35,51,scramble,outdoor_scenes,scrambled_henry-be-NLF6hTe4PAg-unsplash.jpg,Stimuli/Experimental_stims/scramble/outdoor_scenes/scrambled_henry-be-NLF6hTe4PAg-unsplash.jpg,,scramble,deliberated,chosen,no_gain
50734,40,2500,76,72,40,original,objects,fabian-blank-pElSkGRA2NU-unsplash.jpg,Stimuli/Experimental_stims/objects/fabian-blank-pElSkGRA2NU-unsplash.jpg,,original,not_deliberated,NaN,NaN
50734,41,2930,NA,11,52,scramble,outdoor_scenes,scrambled_jarrett-kow-1ZOyYPOBn7I-unsplash.jpg,Stimuli/Experimental_stims/scramble/outdoor_scenes/scrambled_jarrett-kow-1ZOyYPOBn7I-unsplash.jpg,,scramble,deliberated,chosen,no_gain
50734,42,2053,96,67,27,original,body_parts,heike-mintel-i_Gns0ELnLw-unsplash.jpg,Stimuli/Experimental_stims/body_parts/heike-mintel-i_Gns0ELnLw-unsplash.jpg,,original,deliberated,chosen,no_gain
50734,43,2979,38,59,43,original,objects,jonathan-greenaway-Y4hGgeiFn3s-unsplash.jpg,Stimuli/Experimental_stims/objects/jonathan-greenaway-Y4hGgeiFn3s-unsplash.jpg,,original,deliberated,unchosen,no_gain
50734,44,2603,54,40,21,original,faces,leilani-angel-K84vnnzxmTQ-unsplash.jpg,Stimuli/Experimental_stims/faces/leilani-angel-K84vnnzxmTQ-unsplash.jpg,,original,not_deliberated,NaN,NaN
50734,45,2620,NA,24,67,scramble,faces,scrambled_joel-mott-LaK153ghdig-unsplash.jpg,Stimuli/Experimental_stims/scramble/faces/scrambled_joel-mott-LaK153ghdig-unsplash.jpg,,scramble,deliberated,unchosen,no_gain
50734,46,2489,32,62,14,original,faces,david-siglin-UuW4psOb388-unsplash.jpg,Stimuli/Experimental_stims/faces/david-siglin-UuW4psOb388-unsplash.jpg,,original,deliberated,unchosen,no_gain
50734,47,3185,93,75,5,original,outdoor_scenes,jeff-king-bJHWJeiHfHc-unsplash.jpg,Stimuli/Experimental_stims/outdoor_scenes/jeff-king-bJHWJeiHfHc-unsplash.jpg,,original,deliberated,chosen,gain
50734,50,4694,39,70,25,original,body_parts,engin-akyurt-Q2rfH3GW39c-unsplash.jpg,Stimuli/Experimental_stims/body_parts/engin-akyurt-Q2rfH3GW39c-unsplash.jpg,,original,deliberated,chosen,no_gain
50734,51,3983,81,75,7,original,outdoor_scenes,petr-vysohlid-9fqwGqGLUxc-unsplash.jpg,Stimuli/Experimental_stims/outdoor_scenes/petr-vysohlid-9fqwGqGLUxc-unsplash.jpg,,original,deliberated,chosen,no_gain
50734,52,4425,38,57,17,original,faces,good-faces-xmSWVeGEnJw-unsplash.jpg,Stimuli/Experimental_stims/faces/good-faces-xmSWVeGEnJw-unsplash.jpg,,original,not_deliberated,NaN,NaN
50734,53,2787,60,84,28,original,body_parts,ira-vishnevskaya-8DQAvdCby1I-unsplash.jpg,Stimuli/Experimental_stims/body_parts/ira-vishnevskaya-8DQAvdCby1I-unsplash.jpg,,original,not_deliberated,NaN,NaN
50734,54,2838,NA,15,70,scramble,faces,scrambled_ravi-patel-VMGAbeeJTKo-unsplash.jpg,Stimuli/Experimental_stims/scramble/faces/scrambled_ravi-patel-VMGAbeeJTKo-unsplash.jpg,,scramble,deliberated,chosen,no_gain
50734,56,3166,63,96,44,original,objects,kuiye-chen-NuOGFo4PudE-unsplash.jpg,Stimuli/Experimental_stims/objects/kuiye-chen-NuOGFo4PudE-unsplash.jpg,,original,not_deliberated,NaN,NaN
50734,57,2656,58,93,20,original,faces,justin-chen-J7Cf1Gch49E-unsplash.jpg,Stimuli/Experimental_stims/faces/justin-chen-J7Cf1Gch49E-unsplash.jpg,,original,deliberated,chosen,no_gain
50734,58,2695,99,70,3,original,outdoor_scenes,henry-be-NLF6hTe4PAg-unsplash.jpg,Stimuli/Experimental_stims/outdoor_scenes/henry-be-NLF6hTe4PAg-unsplash.jpg,,original,deliberated,chosen,gain
50734,59,2539,NA,26,53,scramble,outdoor_scenes,scrambled_jeff-king-bJHWJeiHfHc-unsplash.jpg,Stimuli/Experimental_stims/scramble/outdoor_scenes/scrambled_jeff-king-bJHWJeiHfHc-unsplash.jpg,,scramble,deliberated,chosen,no_gain
50734,60,2630,99,58,0,original,outdoor_scenes,aleksandra-boguslawska-MS7KD9Ti7FQ-unsplash.jpg,Stimuli/Experimental_stims/outdoor_scenes/aleksandra-boguslawska-MS7KD9Ti7FQ-unsplash.jpg,,original,deliberated,chosen,gain
50734,61,3229,68,75,35,original,body_parts,wc-so-KH4AAPjb-tI-unsplash.jpg,Stimuli/Experimental_stims/body_parts/wc-so-KH4AAPjb-tI-unsplash.jpg,,original,not_deliberated,NaN,NaN
50734,62,2718,94,93,45,original,objects,leohoho-rngTKHXumy0-unsplash.jpg,Stimuli/Experimental_stims/objects/leohoho-rngTKHXumy0-unsplash.jpg,,original,not_deliberated,NaN,NaN
50734,63,2738,95,78,41,original,objects,insung-yoon-w2JtIQQXoRU-unsplash.jpg,Stimuli/Experimental_stims/objects/insung-yoon-w2JtIQQXoRU-unsplash.jpg,,original,not_deliberated,NaN,NaN
50734,67,2975,63,90,32,original,body_parts,towfiqu-barbhuiya-3AsiVDsZnHg-unsplash.jpg,Stimuli/Experimental_stims/body_parts/towfiqu-barbhuiya-3AsiVDsZnHg-unsplash.jpg,,original,not_deliberated,NaN,NaN
50734,68,3170,NA,29,84,scramble,objects,scrambled_alexander-andrews-JYGnB9gTCls-unsplash.jpg,Stimuli/Experimental_stims/scramble/objects/scrambled_alexander-andrews-JYGnB9gTCls-unsplash.jpg,,scramble,deliberated,chosen,no_gain
50734,69,2581,55,61,16,original,faces,freddy-kearney-o-ioeoATbIM-unsplash.jpg,Stimuli/Experimental_stims/faces/freddy-kearney-o-ioeoATbIM-unsplash.jpg,,original,not_deliberated,NaN,NaN
50734,70,2390,NA,25,56,scramble,outdoor_scenes,scrambled_samsommer-vddccTqwal8-unsplash.jpg,Stimuli/Experimental_stims/scramble/outdoor_scenes/scrambled_samsommer-vddccTqwal8-unsplash.jpg,,scramble,deliberated,chosen,no_gain
50734,71,2241,NA,11,95,scramble,objects,scrambled_ronaldo-arthur-vidal-Cdz_lvnl37k-unsplash.jpg,Stimuli/Experimental_stims/scramble/objects/scrambled_ronaldo-arthur-vidal-Cdz_lvnl37k-unsplash.jpg,,scramble,deliberated,chosen,no_gain
50734,73,2419,38,58,15,original,faces,erik-lucatero-d2MSDujJl2g-unsplash.jpg,Stimuli/Experimental_stims/faces/erik-lucatero-d2MSDujJl2g-unsplash.jpg,,original,not_deliberated,NaN,NaN
50734,74,2606,NA,23,81,scramble,body_parts,scrambled_tucker-good-36skLT5jZcc-unsplash.jpg,Stimuli/Experimental_stims/scramble/body_parts/scrambled_tucker-good-36skLT5jZcc-unsplash.jpg,,scramble,deliberated,chosen,no_gain
50734,75,2705,NA,31,77,scramble,body_parts,scrambled_manuel-schinner-ZwjFuJ7ebpk-unsplash.jpg,Stimuli/Experimental_stims/scramble/body_parts/scrambled_manuel-schinner-ZwjFuJ7ebpk-unsplash.jpg,,scramble,deliberated,chosen,no_gain
50734,76,2895,85,95,2,original,outdoor_scenes,bruno-van-der-kraan-qez8mNJ3ilU-unsplash.jpg,Stimuli/Experimental_stims/outdoor_scenes/bruno-van-der-kraan-qez8mNJ3ilU-unsplash.jpg,,original,not_deliberated,NaN,NaN
50734,78,3136,81,60,36,original,objects,alexander-andrews-JYGnB9gTCls-unsplash.jpg,Stimuli/Experimental_stims/objects/alexander-andrews-JYGnB9gTCls-unsplash.jpg,,original,deliberated,unchosen,no_gain
50734,79,2495,76,67,31,original,body_parts,sincerely-media-VN6DbKajo5s-unsplash.jpg,Stimuli/Experimental_stims/body_parts/sincerely-media-VN6DbKajo5s-unsplash.jpg,,original,deliberated,chosen,gain
50734,80,4038,53,82,34,original,body_parts,wagner-santos-mBWMvIuVnso-unsplash.jpg,Stimuli/Experimental_stims/body_parts/wagner-santos-mBWMvIuVnso-unsplash.jpg,,original,not_deliberated,NaN,NaN
50734,82,2588,40,65,13,original,faces,daniel-rigdon-dXmXKPP2L4E-unsplash.jpg,Stimuli/Experimental_stims/faces/daniel-rigdon-dXmXKPP2L4E-unsplash.jpg,,original,not_deliberated,NaN,NaN
50734,83,3022,92,90,33,original,body_parts,tucker-good-36skLT5jZcc-unsplash.jpg,Stimuli/Experimental_stims/body_parts/tucker-good-36skLT5jZcc-unsplash.jpg,,original,deliberated,chosen,gain
50734,84,2504,63,86,12,original,faces,aiony-haust-jmATI5Q_YgY-unsplash.jpg,Stimuli/Experimental_stims/faces/aiony-haust-jmATI5Q_YgY-unsplash.jpg,,original,not_deliberated,NaN,NaN
50734,86,2647,NA,40,71,scramble,faces,scrambled_rikonavt-HQjfrvdTfak-unsplash.jpg,Stimuli/Experimental_stims/scramble/faces/scrambled_rikonavt-HQjfrvdTfak-unsplash.jpg,,scramble,deliberated,chosen,no_gain
50734,88,2882,54,59,23,original,faces,rikonavt-HQjfrvdTfak-unsplash.jpg,Stimuli/Experimental_stims/faces/rikonavt-HQjfrvdTfak-unsplash.jpg,,original,deliberated,unchosen,no_gain
50734,90,4168,NA,30,75,scramble,body_parts,scrambled_heike-mintel-i_Gns0ELnLw-unsplash.jpg,Stimuli/Experimental_stims/scramble/body_parts/scrambled_heike-mintel-i_Gns0ELnLw-unsplash.jpg,,scramble,deliberated,chosen,no_gain
50734,91,3016,94,85,8,original,outdoor_scenes,samsommer-vddccTqwal8-unsplash.jpg,Stimuli/Experimental_stims/outdoor_scenes/samsommer-vddccTqwal8-unsplash.jpg,,original,deliberated,chosen,no_gain
50734,92,2605,82,70,47,original,objects,ronaldo-arthur-vidal-Cdz_lvnl37k-unsplash.jpg,Stimuli/Experimental_stims/objects/ronaldo-arthur-vidal-Cdz_lvnl37k-unsplash.jpg,,original,deliberated,chosen,no_gain
50734,94,2211,61,78,30,original,body_parts,mika-korhonen-Xodzxosar18-unsplash.jpg,Stimuli/Experimental_stims/body_parts/mika-korhonen-Xodzxosar18-unsplash.jpg,,original,deliberated,chosen,no_gain
50734,95,2729,89,94,11,original,outdoor_scenes,stephen-leonardi-gyIRjKPXupE-unsplash.jpg,Stimuli/Experimental_stims/outdoor_scenes/stephen-leonardi-gyIRjKPXupE-unsplash.jpg,,original,not_deliberated,NaN,NaN
50734,96,2855,NA,32,86,scramble,objects,scrambled_art-lasovsky-8XddFc6NkBY-unsplash.jpg,Stimuli/Experimental_stims/scramble/objects/scrambled_art-lasovsky-8XddFc6NkBY-unsplash.jpg,,scramble,deliberated,chosen,no_gain