PID,trial,rt,old_rating,new_rating,stimulus_index,type,category,stimulus,path,iti,stim_type,deliberated_stim,choice,outcome
70197,1,6051,NA,28,63,scramble,faces,scrambled_erik-lucatero-d2MSDujJl2g-unsplash.jpg,Stimuli/Experimental_stims/scramble/faces/scrambled_erik-lucatero-d2MSDujJl2g-unsplash.jpg,,scramble,deliberated,chosen,no_gain
70197,2,10201,40,73,1,original,outdoor_scenes,ashim-d-silva-S2Q5mdOrrVc-unsplash.jpg,Stimuli/Experimental_stims/outdoor_scenes/ashim-d-silva-S2Q5mdOrrVc-unsplash.jpg,,original,not_deliberated,NaN,NaN
70197,3,8084,78,64,27,original,body_parts,heike-mintel-i_Gns0ELnLw-unsplash.jpg,Stimuli/Experimental_stims/body_parts/heike-mintel-i_Gns0ELnLw-unsplash.jpg,,original,not_deliberated,NaN,NaN
70197,4,10758,40,50,15,original,faces,erik-lucatero-d2MSDujJl2g-unsplash.jpg,Stimuli/Experimental_stims/faces/erik-lucatero-d2MSDujJl2g-unsplash.jpg,,original,deliberated,unchosen,no_gain
70197,6,5296,78,50,17,original,faces,good-faces-xmSWVeGEnJw-unsplash.jpg,Stimuli/Experimental_stims/faces/good-faces-xmSWVeGEnJw-unsplash.jpg,,original,deliberated,chosen,no_gain
70197,9,5496,NA,22,76,scramble,body_parts,scrambled_ira-vishnevskaya-8DQAvdCby1I-unsplash.jpg,Stimuli/Experimental_stims/scramble/body_parts/scrambled_ira-vishnevskaya-8DQAvdCby1I-unsplash.jpg,,scramble,deliberated,chosen,no_gain
70197,10,6917,8,7,34,original,body_parts,wagner-santos-mBWMvIuVnso-unsplash.jpg,Stimuli/Experimental_stims/body_parts/wagner-santos-mBWMvIuVnso-unsplash.jpg,,original,not_deliberated,NaN,NaN
70197,11,5537,83,93,0,original,outdoor_scenes,aleksandra-boguslawska-MS7KD9Ti7FQ-unsplash.jpg,Stimuli/Experimental_stims/outdoor_scenes/aleksandra-boguslawska-MS7KD9Ti7FQ-unsplash.jpg,,original,not_deliberated,NaN,NaN
70197,13,10842,34,54,38,original,objects,art-lasovsky-8XddFc6NkBY-unsplash.jpg,Stimuli/Experimental_stims/objects/art-lasovsky-8XddFc6NkBY-unsplash.jpg,,original,deliberated,chosen,no_gain
70197,14,8012,56,63,9,original,outdoor_scenes,sergey-pesterev-y-b_FOmJXdg-unsplash.jpg,Stimuli/Experimental_stims/outdoor_scenes/sergey-pesterev-y-b_FOmJXdg-unsplash.jpg,,original,not_deliberated,NaN,NaN
70197,15,5841,45,95,40,original,objects,fabian-blank-pElSkGRA2NU-unsplash.jpg,Stimuli/Experimental_stims/objects/fabian-blank-pElSkGRA2NU-unsplash.jpg,,original,deliberated,chosen,gain
70197,17,4880,NA,34,78,scramble,body_parts,scrambled_mika-korhonen-Xodzxosar18-unsplash.jpg,Stimuli/Experimental_stims/scramble/body_parts/scrambled_mika-korhonen-Xodzxosar18-unsplash.jpg,,scramble,deliberated,chosen,no_gain
70197,18,5597,55,25,21,original,faces,leilani-angel-K84vnnzxmTQ-unsplash.jpg,Stimuli/Experimental_stims/faces/leilani-angel-K84vnnzxmTQ-unsplash.jpg,,original,deliberated,chosen,no_gain
70197,19,7706,54,25,26,original,body_parts,engin-akyurt-x_3gyC42btc-unsplash.jpg,Stimuli/Experimental_stims/body_parts/engin-akyurt-x_3gyC42btc-unsplash.jpg,,original,deliberated,chosen,no_gain
70197,20,5840,44,38,43,original,objects,jonathan-greenaway-Y4hGgeiFn3s-unsplash.jpg,Stimuli/Experimental_stims/objects/jonathan-greenaway-Y4hGgeiFn3s-unsplash.jpg,,original,not_deliberated,NaN,NaN
70197,21,5385,NA,24,58,scramble,outdoor_scenes,scrambled_shannon-kunkle-dM8INmkyDas-unsplash.jpg,Stimuli/Experimental_stims/scramble/outdoor_scenes/scrambled_shannon-kunkle-dM8INmkyDas-unsplash.jpg,,scramble,deliberated,chosen,no_gain
70197,22,5020,NA,31,86,scramble,objects,scrambled_art-lasovsky-8XddFc6NkBY-unsplash.jpg,Stimuli/Experimental_stims/scramble/objects/scrambled_art-lasovsky-8XddFc6NkBY-unsplash.jpg,,scramble,deliberated,unchosen,no_gain
70197,23,5522,63,74,6,original,outdoor_scenes,meng-ji-8BH_M-53CyA-unsplash.jpg,Stimuli/Experimental_stims/outdoor_scenes/meng-ji-8BH_M-53CyA-unsplash.jpg,,original,deliberated,chosen,no_gain
70197,24,4749,69,64,7,original,outdoor_scenes,petr-vysohlid-9fqwGqGLUxc-unsplash.jpg,Stimuli/Experimental_stims/outdoor_scenes/petr-vysohlid-9fqwGqGLUxc-unsplash.jpg,,original,not_deliberated,NaN,NaN
70197,25,8805,NA,23,94,scramble,objects,scrambled_mockup-graphics-PNsj6RiHAF4-unsplash.jpg,Stimuli/Experimental_stims/scramble/objects/scrambled_mockup-graphics-PNsj6RiHAF4-unsplash.jpg,,scramble,deliberated,chosen,no_gain
70197,26,9030,NA,30,71,scramble,faces,scrambled_rikonavt-HQjfrvdTfak-unsplash.jpg,Stimuli/Experimental_stims/scramble/faces/scrambled_rikonavt-HQjfrvdTfak-unsplash.jpg,,scramble,deliberated,chosen,no_gain
70197,27,14631,NA,21,61,scramble,faces,scrambled_daniel-rigdon-dXmXKPP2L4E-unsplash.jpg,Stimuli/Experimental_stims/scramble/faces/scrambled_daniel-rigdon-dXmXKPP2L4E-unsplash.jpg,,scramble,deliberated,chosen,no_gain
70197,28,6603,74,94,4,original,outdoor_scenes,jarrett-kow-1ZOyYPOBn7I-unsplash.jpg,Stimuli/Experimental_stims/outdoor_scenes/jarrett-kow-1ZOyYPOBn7I-unsplash.jpg,,original,deliberated,chosen,gain
70197,29,5203,NA,28,53,scramble,outdoor_scenes,scrambled_jeff-king-bJHWJeiHfHc-unsplash.jpg,Stimuli/Experimental_stims/scramble/outdoor_scenes/scrambled_jeff-king-bJHWJeiHfHc-unsplash.jpg,,scramble,deliberated,unchosen,no_gain
70197,31,5431,53,63,29,original,body_parts,manuel-schinner-ZwjFuJ7ebpk-unsplash.jpg,Stimuli/Experimental_stims/body_parts/manuel-schinner-ZwjFuJ7ebpk-unsplash.jpg,,original,not_deliberated,NaN,NaN
70197,32,4028,NA,40,95,scramble,objects,scrambled_ronaldo-arthur-vidal-Cdz_lvnl37k-unsplash.jpg,Stimuli/Experimental_stims/scramble/objects/scrambled_ronaldo-arthur-vidal-Cdz_lvnl37k-unsplash.jpg,,scramble,deliberated,chosen,no_gain
70197,33,6165,65,37,20,original,faces,justin-chen-J7Cf1Gch49E-unsplash.jpg,Stimuli/Experimental_stims/faces/justin-chen-J7Cf1Gch49E-unsplash.jpg,,original,not_deliberated,NaN,NaN
70197,34,5646,NA,34,87,scramble,objects,scrambled_charlesdeluvio-1-nx1QR5dTE-unsplash.jpg,Stimuli/Experimental_stims/scramble/objects/scrambled_charlesdeluvio-1-nx1QR5dTE-unsplash.jpg,,scramble,deliberated,chosen,no_gain
70197,35,10152,16,33,35,original,body_parts,wc-so-KH4AAPjb-tI-unsplash.jpg,Stimuli/Experimental_stims/body_parts/wc-so-KH4AAPjb-tI-unsplash.jpg,,original,deliberated,unchosen,no_gain
70197,37,6665,NA,31,65,scramble,faces,scrambled_good-faces-xmSWVeGEnJw-unsplash.jpg,Stimuli/Experimental_stims/scramble/faces/scrambled_good-faces-xmSWVeGEnJw-unsplash.jpg,,scramble,deliberated,chosen,no_gain
70197,40,17148,67,58,11,original,outdoor_scenes,stephen-leonardi-gyIRjKPXupE-unsplash.jpg,Stimuli/Experimental_stims/outdoor_scenes/stephen-leonardi-gyIRjKPXupE-unsplash.jpg,,original,deliberated,chosen,no_gain
70197,41,5726,83,25,12,original,faces,aiony-haust-jmATI5Q_YgY-unsplash.jpg,Stimuli/Experimental_stims/faces/aiony-haust-jmATI5Q_YgY-unsplash.jpg,,original,not_deliberated,NaN,NaN
70197,43,5015,NA,30,59,scramble,outdoor_scenes,scrambled_stephen-leonardi-gyIRjKPXupE-unsplash.jpg,Stimuli/Experimental_stims/scramble/outdoor_scenes/scrambled_stephen-leonardi-gyIRjKPXupE-unsplash.jpg,,scramble,deliberated,chosen,no_gain
70197,45,4547,38,34,32,original,body_parts,towfiqu-barbhuiya-3AsiVDsZnHg-unsplash.jpg,Stimuli/Experimental_stims/body_parts/towfiqu-barbhuiya-3AsiVDsZnHg-unsplash.jpg,,original,not_deliberated,NaN,NaN
70197,46,5635,NA,34,73,scramble,body_parts,scrambled_engin-akyurt-Q2rfH3GW39c-unsplash.jpg,Stimuli/Experimental_stims/scramble/body_parts/scrambled_engin-akyurt-Q2rfH3GW39c-unsplash.jpg,,scramble,deliberated,chosen,no_gain
70197,52,5306,60,25,18,original,faces,jessica-radanavong-mrYkTuAesKE-unsplash.jpg,Stimuli/Experimental_stims/faces/jessica-radanavong-mrYkTuAesKE-unsplash.jpg,,original,not_deliberated,NaN,NaN
70197,53,5731,NA,36,52,scramble,outdoor_scenes,scrambled_jarrett-kow-1ZOyYPOBn7I-unsplash.jpg,Stimuli/Experimental_stims/scramble/outdoor_scenes/scrambled_jarrett-kow-1ZOyYPOBn7I-unsplash.jpg,,scramble,deliberated,chosen,no_gain
70197,54,4927,NA,36,62,scramble,faces,scrambled_david-siglin-UuW4psOb388-unsplash.jpg,Stimuli/Experimental_stims/scramble/faces/scrambled_david-siglin-UuW4psOb388-unsplash.jpg,,scramble,deliberated,chosen,no_gain
70197,55,6236,86,38,3,original,outdoor_scenes,henry-be-NLF6hTe4PAg-unsplash.jpg,Stimuli/Experimental_stims/outdoor_scenes/henry-be-NLF6hTe4PAg-unsplash.jpg,,original,deliberated,chosen,no_gain
70197,57,5687,9,30,25,original,body_parts,engin-akyurt-Q2rfH3GW39c-unsplash.jpg,Stimuli/Experimental_stims/body_parts/engin-akyurt-Q2rfH3GW39c-unsplash.jpg,,original,deliberated,unchosen,no_gain
70197,58,7150,87,88,5,original,outdoor_scenes,jeff-king-bJHWJeiHfHc-unsplash.jpg,Stimuli/Experimental_stims/outdoor_scenes/jeff-king-bJHWJeiHfHc-unsplash.jpg,,original,deliberated,chosen,gain
70197,59,7121,53,30,36,original,objects,alexander-andrews-JYGnB9gTCls-unsplash.jpg,Stimuli/Experimental_stims/objects/alexander-andrews-JYGnB9gTCls-unsplash.jpg,,original,not_deliberated,NaN,NaN
70197,60,5136,68,90,10,original,outdoor_scenes,shannon-kunkle-dM8INmkyDas-unsplash.jpg,Stimuli/Experimental_stims/outdoor_scenes/shannon-kunkle-dM8INmkyDas-unsplash.jpg,,original,deliberated,chosen,no_gain
70197,61,5403,50,14,16,original,faces,freddy-kearney-o-ioeoATbIM-unsplash.jpg,Stimuli/Experimental_stims/faces/freddy-kearney-o-ioeoATbIM-unsplash.jpg,,original,not_deliberated,NaN,NaN
70197,64,5107,73,86,23,original,faces,rikonavt-HQjfrvdTfak-unsplash.jpg,Stimuli/Experimental_stims/faces/rikonavt-HQjfrvdTfak-unsplash.jpg,,original,deliberated,chosen,gain
70197,65,4627,57,59,45,original,objects,leohoho-rngTKHXumy0-unsplash.jpg,Stimuli/Experimental_stims/objects/leohoho-rngTKHXumy0-unsplash.jpg,,original,not_deliberated,NaN,NaN
70197,66,4800,73,63,22,original,faces,ravi-patel-VMGAbeeJTKo-unsplash.jpg,Stimuli/Experimental_stims/faces/ravi-patel-VMGAbeeJTKo-unsplash.jpg,,original,not_deliberated,NaN,NaN
70197,67,5666,28,37,31,original,body_parts,sincerely-media-VN6DbKajo5s-unsplash.jpg,Stimuli/Experimental_stims/body_parts/sincerely-media-VN6DbKajo5s-unsplash.jpg,,original,not_deliberated,NaN,NaN
70197,68,5367,NA,27,74,scramble,body_parts,scrambled_engin-akyurt-x_3gyC42btc-unsplash.jpg,Stimuli/Experimental_stims/scramble/body_parts/scrambled_engin-akyurt-x_3gyC42btc-unsplash.jpg,,scramble,deliberated,chosen,no_gain
70197,69,4939,NA,36,69,scramble,faces,scrambled_leilani-angel-K84vnnzxmTQ-unsplash.jpg,Stimuli/Experimental_stims/scramble/faces/scrambled_leilani-angel-K84vnnzxmTQ-unsplash.jpg,,scramble,deliberated,chosen,no_gain
70197,71,4558,25,30,30,original,body_parts,mika-korhonen-Xodzxosar18-unsplash.jpg,Stimuli/Experimental_stims/body_parts/mika-korhonen-Xodzxosar18-unsplash.jpg,,original,deliberated,chosen,no_gain
70197,72,4490,63,32,46,original,objects,mockup-graphics-PNsj6RiHAF4-unsplash.jpg,Stimuli/Experimental_stims/objects/mockup-graphics-PNsj6RiHAF4-unsplash.jpg,,original,deliberated,unchosen,no_gain
70197,73,7268,70,53,19,original,faces,joel-mott-LaK153ghdig-unsplash.jpg,Stimuli/Experimental_stims/faces/joel-mott-LaK153ghdig-unsplash.jpg,,original,not_deliberated,NaN,NaN
70197,74,4599,61,59,28,original,body_parts,ira-vishnevskaya-8DQAvdCby1I-unsplash.jpg,Stimuli/Experimental_stims/body_parts/ira-vishnevskaya-8DQAvdCby1I-unsplash.jpg,,original,deliberated,unchosen,no_gain
70197,75,5329,56,44,24,original,body_parts,clay-banks-LjqARJaJotc-unsplash.jpg,Stimuli/Experimental_stims/body_parts/clay-banks-LjqARJaJotc-unsplash.jpg,,original,not_deliberated,NaN,NaN
70197,76,4722,66,37,39,original,objects,charlesdeluvio-1-nx1QR5dTE-unsplash.jpg,Stimuli/Experimental_stims/objects/charlesdeluvio-1-nx1QR5dTE-unsplash.jpg,,original,deliberated,chosen,no_gain
70197,78,5176,NA,36,81,scramble,body_parts,scrambled_tucker-good-36skLT5jZcc-unsplash.jpg,Stimuli/Experimental_stims/scramble/body_parts/scrambled_tucker-good-36skLT5jZcc-unsplash.jpg,,scramble,deliberated,chosen,no_gain
70197,79,4956,84,80,14,original,faces,david-siglin-UuW4psOb388-unsplash.jpg,Stimuli/Experimental_stims/faces/david-siglin-UuW4psOb388-unsplash.jpg,,original,deliberated,chosen,gain
70197,80,4956,70,63,41,original,objects,insung-yoon-w2JtIQQXoRU-unsplash.jpg,Stimuli/Experimental_stims/objects/insung-yoon-w2JtIQQXoRU-unsplash.jpg,,original,not_deliberated,NaN,NaN
70197,81,6109,NA,35,88,scramble,objects,scrambled_fabian-blank-pElSkGRA2NU-unsplash.jpg,Stimuli/Experimental_stims/scramble/objects/scrambled_fabian-blank-pElSkGRA2NU-unsplash.jpg,,scramble,deliberated,chosen,no_gain
70197,82,4525,62,42,33,original,body_parts,tucker-good-36skLT5jZcc-unsplash.jpg,Stimuli/Experimental_stims/body_parts/tucker-good-36skLT5jZcc-unsplash.jpg,,original,deliberated,unchosen,no_gain
70197,83,4283,NA,60,85,scramble,objects,scrambled_alexander-andrews-VLGWE_SumrA-unsplash.jpg,Stimuli/Experimental_stims/scramble/objects/scrambled_alexander-andrews-VLGWE_SumrA-unsplash.jpg,,scramble,deliberated,chosen,no_gain
70197,84,4149,NA,57,51,scramble,outdoor_scenes,scrambled_henry-be-NLF6hTe4PAg-unsplash.jpg,Stimuli/Experimental_stims/scramble/outdoor_scenes/scrambled_henry-be-NLF6hTe4PAg-unsplash.jpg,,scramble,deliberated,chosen,no_gain
70197,86,9582,62,50,13,original,faces,daniel-rigdon-dXmXKPP2L4E-unsplash.jpg,Stimuli/Experimental_stims/faces/daniel-rigdon-dXmXKPP2L4E-unsplash.jpg,,original,deliberated,chosen,no_gain
70197,87,5568,70,44,42,original,objects,jess-bailey-nOeVi8DsN8U-unsplash.jpg,Stimuli/Experimental_stims/objects/jess-bailey-nOeVi8DsN8U-unsplash.jpg,,original,not_deliberated,NaN,NaN
70197,89,5533,NA,38,83,scramble,body_parts,scrambled_wc-so-KH4AAPjb-tI-unsplash.jpg,Stimuli/Experimental_stims/scramble/body_parts/scrambled_wc-so-KH4AAPjb-tI-unsplash.jpg,,scramble,deliberated,chosen,no_gain
70197,90,4831,60,67,8,original,outdoor_scenes,samsommer-vddccTqwal8-unsplash.jpg,Stimuli/Experimental_stims/outdoor_scenes/samsommer-vddccTqwal8-unsplash.jpg,,original,not_deliberated,NaN,NaN
70197,92,4303,78,75,2,original,outdoor_scenes,bruno-van-der-kraan-qez8mNJ3ilU-unsplash.jpg,Stimuli/Experimental_stims/outdoor_scenes/bruno-van-der-kraan-qez8mNJ3ilU-unsplash.jpg,,original,not_deliberated,NaN,NaN
70197,93,6398,24,74,47,original,objects,ronaldo-arthur-vidal-Cdz_lvnl37k-unsplash.jpg,Stimuli/Experimental_stims/objects/ronaldo-arthur-vidal-Cdz_lvnl37k-unsplash.jpg,,original,deliberated,chosen,gain
70197,94,9672,67,71,44,original,objects,kuiye-chen-NuOGFo4PudE-unsplash.jpg,Stimuli/Experimental_stims/objects/kuiye-chen-NuOGFo4PudE-unsplash.jpg,,original,not_deliberated,NaN,NaN
70197,95,8269,58,50,37,original,objects,alexander-andrews-VLGWE_SumrA-unsplash.jpg,Stimuli/Experimental_stims/objects/alexander-andrews-VLGWE_SumrA-unsplash.jpg,,original,deliberated,unchosen,no_gain
70197,96,4094,NA,50,54,scramble,outdoor_scenes,scrambled_meng-ji-8BH_M-53CyA-unsplash.jpg,Stimuli/Experimental_stims/scramble/outdoor_scenes/scrambled_meng-ji-8BH_M-53CyA-unsplash.jpg,,scramble,deliberated,chosen,no_gain