PID,trial,rt,old_rating,new_rating,stimulus_index,type,category,stimulus,path,iti,stim_type,deliberated_stim,choice,outcome
15966,2,2874,NA,34,91,scramble,objects,scrambled_jonathan-greenaway-Y4hGgeiFn3s-unsplash.jpg,Stimuli/Experimental_stims/scramble/objects/scrambled_jonathan-greenaway-Y4hGgeiFn3s-unsplash.jpg,,scramble,deliberated,unchosen,no_gain
15966,7,2320,86,75,10,original,outdoor_scenes,shannon-kunkle-dM8INmkyDas-unsplash.jpg,Stimuli/Experimental_stims/outdoor_scenes/shannon-kunkle-dM8INmkyDas-unsplash.jpg,,original,not_deliberated,NaN,NaN
15966,8,2481,45,48,18,original,faces,jessica-radanavong-mrYkTuAesKE-unsplash.jpg,Stimuli/Experimental_stims/faces/jessica-radanavong-mrYkTuAesKE-unsplash.jpg,,original,not_deliberated,NaN,NaN
15966,9,3020,57,58,26,original,body_parts,engin-akyurt-x_3gyC42btc-unsplash.jpg,Stimuli/Experimental_stims/body_parts/engin-akyurt-x_3gyC42btc-unsplash.jpg,,original,not_deliberated,NaN,NaN
15966,11,3092,45,44,42,original,objects,jess-bailey-nOeVi8DsN8U-unsplash.jpg,Stimuli/Experimental_stims/objects/jess-bailey-nOeVi8DsN8U-unsplash.jpg,,original,not_deliberated,NaN,NaN
15966,12,2423,55,57,24,original,body_parts,clay-banks-LjqARJaJotc-unsplash.jpg,Stimuli/Experimental_stims/body_parts/clay-banks-LjqARJaJotc-unsplash.jpg,,original,not_deliberated,NaN,NaN
15966,15,1951,NA,47,68,scramble,faces,scrambled_justin-chen-J7Cf1Gch49E-unsplash.jpg,Stimuli/Experimental_stims/scramble/faces/scrambled_justin-chen-J7Cf1Gch49E-unsplash.jpg,,scramble,deliberated,chosen,no_gain
15966,16,2139,73,70,6,original,outdoor_scenes,meng-ji-8BH_M-53CyA-unsplash.jpg,Stimuli/Experimental_stims/outdoor_scenes/meng-ji-8BH_M-53CyA-unsplash.jpg,,original,not_deliberated,NaN,NaN
15966,17,2998,NA,43,48,scramble,outdoor_scenes,scrambled_aleksandra-boguslawska-MS7KD9Ti7FQ-unsplash.jpg,Stimuli/Experimental_stims/scramble/outdoor_scenes/scrambled_aleksandra-boguslawska-MS7KD9Ti7FQ-unsplash.jpg,,scramble,deliberated,chosen,no_gain
15966,19,2278,58,57,29,original,body_parts,manuel-schinner-ZwjFuJ7ebpk-unsplash.jpg,Stimuli/Experimental_stims/body_parts/manuel-schinner-ZwjFuJ7ebpk-unsplash.jpg,,original,deliberated,chosen,no_gain
15966,20,2549,82,76,9,original,outdoor_scenes,sergey-pesterev-y-b_FOmJXdg-unsplash.jpg,Stimuli/Experimental_stims/outdoor_scenes/sergey-pesterev-y-b_FOmJXdg-unsplash.jpg,,original,deliberated,chosen,no_gain
15966,21,2564,76,87,4,original,outdoor_scenes,jarrett-kow-1ZOyYPOBn7I-unsplash.jpg,Stimuli/Experimental_stims/outdoor_scenes/jarrett-kow-1ZOyYPOBn7I-unsplash.jpg,,original,deliberated,chosen,gain
15966,22,2176,NA,41,57,scramble,outdoor_scenes,scrambled_sergey-pesterev-y-b_FOmJXdg-unsplash.jpg,Stimuli/Experimental_stims/scramble/outdoor_scenes/scrambled_sergey-pesterev-y-b_FOmJXdg-unsplash.jpg,,scramble,deliberated,chosen,no_gain
15966,23,2545,67,46,38,original,objects,art-lasovsky-8XddFc6NkBY-unsplash.jpg,Stimuli/Experimental_stims/objects/art-lasovsky-8XddFc6NkBY-unsplash.jpg,,original,deliberated,unchosen,no_gain
15966,24,2012,NA,42,59,scramble,outdoor_scenes,scrambled_stephen-leonardi-gyIRjKPXupE-unsplash.jpg,Stimuli/Experimental_stims/scramble/outdoor_scenes/scrambled_stephen-leonardi-gyIRjKPXupE-unsplash.jpg,,scramble,deliberated,chosen,no_gain
15966,26,2650,NA,63,92,scramble,objects,scrambled_kuiye-chen-NuOGFo4PudE-unsplash.jpg,Stimuli/Experimental_stims/scramble/objects/scrambled_kuiye-chen-NuOGFo4PudE-unsplash.jpg,,scramble,deliberated,chosen,no_gain
15966,28,2273,61,69,19,original,faces,joel-mott-LaK153ghdig-unsplash.jpg,Stimuli/Experimental_stims/faces/joel-mott-LaK153ghdig-unsplash.jpg,,original,deliberated,unchosen,no_gain
15966,29,2602,NA,53,78,scramble,body_parts,scrambled_mika-korhonen-Xodzxosar18-unsplash.jpg,Stimuli/Experimental_stims/scramble/body_parts/scrambled_mika-korhonen-Xodzxosar18-unsplash.jpg,,scramble,deliberated,chosen,no_gain
15966,30,2204,59,68,39,original,objects,charlesdeluvio-1-nx1QR5dTE-unsplash.jpg,Stimuli/Experimental_stims/objects/charlesdeluvio-1-nx1QR5dTE-unsplash.jpg,,original,deliberated,unchosen,no_gain
15966,31,2491,NA,58,87,scramble,objects,scrambled_charlesdeluvio-1-nx1QR5dTE-unsplash.jpg,Stimuli/Experimental_stims/scramble/objects/scrambled_charlesdeluvio-1-nx1QR5dTE-unsplash.jpg,,scramble,deliberated,chosen,no_gain
15966,32,2063,NA,46,60,scramble,faces,scrambled_aiony-haust-jmATI5Q_YgY-unsplash.jpg,Stimuli/Experimental_stims/scramble/faces/scrambled_aiony-haust-jmATI5Q_YgY-unsplash.jpg,,scramble,deliberated,chosen,no_gain
15966,33,2283,47,50,37,original,objects,alexander-andrews-VLGWE_SumrA-unsplash.jpg,Stimuli/Experimental_stims/objects/alexander-andrews-VLGWE_SumrA-unsplash.jpg,,original,not_deliberated,NaN,NaN
15966,35,2164,62,57,46,original,objects,mockup-graphics-PNsj6RiHAF4-unsplash.jpg,Stimuli/Experimental_stims/objects/mockup-graphics-PNsj6RiHAF4-unsplash.jpg,,original,not_deliberated,NaN,NaN
15966,36,2316,NA,48,82,scramble,body_parts,scrambled_wagner-santos-mBWMvIuVnso-unsplash.jpg,Stimuli/Experimental_stims/scramble/body_parts/scrambled_wagner-santos-mBWMvIuVnso-unsplash.jpg,,scramble,deliberated,unchosen,no_gain
15966,37,2429,69,62,1,original,outdoor_scenes,ashim-d-silva-S2Q5mdOrrVc-unsplash.jpg,Stimuli/Experimental_stims/outdoor_scenes/ashim-d-silva-S2Q5mdOrrVc-unsplash.jpg,,original,not_deliberated,NaN,NaN
15966,38,2032,50,68,22,original,faces,ravi-patel-VMGAbeeJTKo-unsplash.jpg,Stimuli/Experimental_stims/faces/ravi-patel-VMGAbeeJTKo-unsplash.jpg,,original,deliberated,chosen,gain
15966,39,2330,NA,53,51,scramble,outdoor_scenes,scrambled_henry-be-NLF6hTe4PAg-unsplash.jpg,Stimuli/Experimental_stims/scramble/outdoor_scenes/scrambled_henry-be-NLF6hTe4PAg-unsplash.jpg,,scramble,deliberated,chosen,no_gain
15966,40,2503,42,46,40,original,objects,fabian-blank-pElSkGRA2NU-unsplash.jpg,Stimuli/Experimental_stims/objects/fabian-blank-pElSkGRA2NU-unsplash.jpg,,original,not_deliberated,NaN,NaN
15966,41,2169,NA,46,52,scramble,outdoor_scenes,scrambled_jarrett-kow-1ZOyYPOBn7I-unsplash.jpg,Stimuli/Experimental_stims/scramble/outdoor_scenes/scrambled_jarrett-kow-1ZOyYPOBn7I-unsplash.jpg,,scramble,deliberated,chosen,no_gain
15966,42,2127,56,60,27,original,body_parts,heike-mintel-i_Gns0ELnLw-unsplash.jpg,Stimuli/Experimental_stims/body_parts/heike-mintel-i_Gns0ELnLw-unsplash.jpg,,original,not_deliberated,NaN,NaN
15966,43,3860,36,48,43,original,objects,jonathan-greenaway-Y4hGgeiFn3s-unsplash.jpg,Stimuli/Experimental_stims/objects/jonathan-greenaway-Y4hGgeiFn3s-unsplash.jpg,,original,deliberated,unchosen,no_gain
15966,44,4731,54,58,21,original,faces,leilani-angel-K84vnnzxmTQ-unsplash.jpg,Stimuli/Experimental_stims/faces/leilani-angel-K84vnnzxmTQ-unsplash.jpg,,original,not_deliberated,NaN,NaN
15966,45,2838,NA,48,67,scramble,faces,scrambled_joel-mott-LaK153ghdig-unsplash.jpg,Stimuli/Experimental_stims/scramble/faces/scrambled_joel-mott-LaK153ghdig-unsplash.jpg,,scramble,deliberated,chosen,no_gain
15966,46,2699,80,56,14,original,faces,david-siglin-UuW4psOb388-unsplash.jpg,Stimuli/Experimental_stims/faces/david-siglin-UuW4psOb388-unsplash.jpg,,original,not_deliberated,NaN,NaN
15966,47,2401,64,68,5,original,outdoor_scenes,jeff-king-bJHWJeiHfHc-unsplash.jpg,Stimuli/Experimental_stims/outdoor_scenes/jeff-king-bJHWJeiHfHc-unsplash.jpg,,original,not_deliberated,NaN,NaN
15966,48,2597,NA,64,80,scramble,body_parts,scrambled_towfiqu-barbhuiya-3AsiVDsZnHg-unsplash.jpg,Stimuli/Experimental_stims/scramble/body_parts/scrambled_towfiqu-barbhuiya-3AsiVDsZnHg-unsplash.jpg,,scramble,deliberated,chosen,no_gain
15966,50,3558,50,44,25,original,body_parts,engin-akyurt-Q2rfH3GW39c-unsplash.jpg,Stimuli/Experimental_stims/body_parts/engin-akyurt-Q2rfH3GW39c-unsplash.jpg,,original,not_deliberated,NaN,NaN
15966,51,3109,78,75,7,original,outdoor_scenes,petr-vysohlid-9fqwGqGLUxc-unsplash.jpg,Stimuli/Experimental_stims/outdoor_scenes/petr-vysohlid-9fqwGqGLUxc-unsplash.jpg,,original,not_deliberated,NaN,NaN
15966,52,2941,87,83,17,original,faces,good-faces-xmSWVeGEnJw-unsplash.jpg,Stimuli/Experimental_stims/faces/good-faces-xmSWVeGEnJw-unsplash.jpg,,original,not_deliberated,NaN,NaN
15966,53,2474,73,83,28,original,body_parts,ira-vishnevskaya-8DQAvdCby1I-unsplash.jpg,Stimuli/Experimental_stims/body_parts/ira-vishnevskaya-8DQAvdCby1I-unsplash.jpg,,original,deliberated,chosen,gain
15966,54,2420,NA,62,70,scramble,faces,scrambled_ravi-patel-VMGAbeeJTKo-unsplash.jpg,Stimuli/Experimental_stims/scramble/faces/scrambled_ravi-patel-VMGAbeeJTKo-unsplash.jpg,,scramble,deliberated,chosen,no_gain
15966,56,2352,46,38,44,original,objects,kuiye-chen-NuOGFo4PudE-unsplash.jpg,Stimuli/Experimental_stims/objects/kuiye-chen-NuOGFo4PudE-unsplash.jpg,,original,deliberated,chosen,no_gain
15966,57,2535,50,69,20,original,faces,justin-chen-J7Cf1Gch49E-unsplash.jpg,Stimuli/Experimental_stims/faces/justin-chen-J7Cf1Gch49E-unsplash.jpg,,original,deliberated,chosen,no_gain
15966,58,2443,45,54,3,original,outdoor_scenes,henry-be-NLF6hTe4PAg-unsplash.jpg,Stimuli/Experimental_stims/outdoor_scenes/henry-be-NLF6hTe4PAg-unsplash.jpg,,original,deliberated,chosen,gain
15966,60,2637,57,57,0,original,outdoor_scenes,aleksandra-boguslawska-MS7KD9Ti7FQ-unsplash.jpg,Stimuli/Experimental_stims/outdoor_scenes/aleksandra-boguslawska-MS7KD9Ti7FQ-unsplash.jpg,,original,deliberated,chosen,no_gain
15966,61,3425,50,58,35,original,body_parts,wc-so-KH4AAPjb-tI-unsplash.jpg,Stimuli/Experimental_stims/body_parts/wc-so-KH4AAPjb-tI-unsplash.jpg,,original,not_deliberated,NaN,NaN
15966,62,2669,32,71,45,original,objects,leohoho-rngTKHXumy0-unsplash.jpg,Stimuli/Experimental_stims/objects/leohoho-rngTKHXumy0-unsplash.jpg,,original,deliberated,chosen,gain
15966,63,2396,50,64,41,original,objects,insung-yoon-w2JtIQQXoRU-unsplash.jpg,Stimuli/Experimental_stims/objects/insung-yoon-w2JtIQQXoRU-unsplash.jpg,,original,not_deliberated,NaN,NaN
15966,65,2386,NA,55,76,scramble,body_parts,scrambled_ira-vishnevskaya-8DQAvdCby1I-unsplash.jpg,Stimuli/Experimental_stims/scramble/body_parts/scrambled_ira-vishnevskaya-8DQAvdCby1I-unsplash.jpg,,scramble,deliberated,chosen,no_gain
15966,66,2357,NA,61,93,scramble,objects,scrambled_leohoho-rngTKHXumy0-unsplash.jpg,Stimuli/Experimental_stims/scramble/objects/scrambled_leohoho-rngTKHXumy0-unsplash.jpg,,scramble,deliberated,chosen,no_gain
15966,67,2581,46,46,32,original,body_parts,towfiqu-barbhuiya-3AsiVDsZnHg-unsplash.jpg,Stimuli/Experimental_stims/body_parts/towfiqu-barbhuiya-3AsiVDsZnHg-unsplash.jpg,,original,deliberated,unchosen,no_gain
15966,69,2396,59,59,16,original,faces,freddy-kearney-o-ioeoATbIM-unsplash.jpg,Stimuli/Experimental_stims/faces/freddy-kearney-o-ioeoATbIM-unsplash.jpg,,original,deliberated,chosen,no_gain
15966,70,3209,NA,67,56,scramble,outdoor_scenes,scrambled_samsommer-vddccTqwal8-unsplash.jpg,Stimuli/Experimental_stims/scramble/outdoor_scenes/scrambled_samsommer-vddccTqwal8-unsplash.jpg,,scramble,deliberated,chosen,no_gain
15966,71,2773,NA,67,95,scramble,objects,scrambled_ronaldo-arthur-vidal-Cdz_lvnl37k-unsplash.jpg,Stimuli/Experimental_stims/scramble/objects/scrambled_ronaldo-arthur-vidal-Cdz_lvnl37k-unsplash.jpg,,scramble,deliberated,chosen,no_gain
15966,73,2463,59,61,15,original,faces,erik-lucatero-d2MSDujJl2g-unsplash.jpg,Stimuli/Experimental_stims/faces/erik-lucatero-d2MSDujJl2g-unsplash.jpg,,original,not_deliberated,NaN,NaN
15966,74,2402,NA,64,81,scramble,body_parts,scrambled_tucker-good-36skLT5jZcc-unsplash.jpg,Stimuli/Experimental_stims/scramble/body_parts/scrambled_tucker-good-36skLT5jZcc-unsplash.jpg,,scramble,deliberated,chosen,no_gain
15966,75,2310,NA,70,77,scramble,body_parts,scrambled_manuel-schinner-ZwjFuJ7ebpk-unsplash.jpg,Stimuli/Experimental_stims/scramble/body_parts/scrambled_manuel-schinner-ZwjFuJ7ebpk-unsplash.jpg,,scramble,deliberated,chosen,no_gain
15966,76,2917,92,86,2,original,outdoor_scenes,bruno-van-der-kraan-qez8mNJ3ilU-unsplash.jpg,Stimuli/Experimental_stims/outdoor_scenes/bruno-van-der-kraan-qez8mNJ3ilU-unsplash.jpg,,original,not_deliberated,NaN,NaN
15966,78,2591,47,60,36,original,objects,alexander-andrews-JYGnB9gTCls-unsplash.jpg,Stimuli/Experimental_stims/objects/alexander-andrews-JYGnB9gTCls-unsplash.jpg,,original,not_deliberated,NaN,NaN
15966,79,2319,54,69,31,original,body_parts,sincerely-media-VN6DbKajo5s-unsplash.jpg,Stimuli/Experimental_stims/body_parts/sincerely-media-VN6DbKajo5s-unsplash.jpg,,original,not_deliberated,NaN,NaN
15966,80,4085,48,50,34,original,body_parts,wagner-santos-mBWMvIuVnso-unsplash.jpg,Stimuli/Experimental_stims/body_parts/wagner-santos-mBWMvIuVnso-unsplash.jpg,,original,deliberated,chosen,no_gain
15966,82,2454,61,58,13,original,faces,daniel-rigdon-dXmXKPP2L4E-unsplash.jpg,Stimuli/Experimental_stims/faces/daniel-rigdon-dXmXKPP2L4E-unsplash.jpg,,original,not_deliberated,NaN,NaN
15966,83,2737,61,50,33,original,body_parts,tucker-good-36skLT5jZcc-unsplash.jpg,Stimuli/Experimental_stims/body_parts/tucker-good-36skLT5jZcc-unsplash.jpg,,original,deliberated,chosen,no_gain
15966,84,2723,46,57,12,original,faces,aiony-haust-jmATI5Q_YgY-unsplash.jpg,Stimuli/Experimental_stims/faces/aiony-haust-jmATI5Q_YgY-unsplash.jpg,,original,deliberated,unchosen,no_gain
15966,86,2239,NA,59,71,scramble,faces,scrambled_rikonavt-HQjfrvdTfak-unsplash.jpg,Stimuli/Experimental_stims/scramble/faces/scrambled_rikonavt-HQjfrvdTfak-unsplash.jpg,,scramble,deliberated,chosen,no_gain
15966,88,2160,81,72,23,original,faces,rikonavt-HQjfrvdTfak-unsplash.jpg,Stimuli/Experimental_stims/faces/rikonavt-HQjfrvdTfak-unsplash.jpg,,original,deliberated,chosen,no_gain
15966,91,2564,72,72,8,original,outdoor_scenes,samsommer-vddccTqwal8-unsplash.jpg,Stimuli/Experimental_stims/outdoor_scenes/samsommer-vddccTqwal8-unsplash.jpg,,original,deliberated,chosen,no_gain
15966,92,3911,60,59,47,original,objects,ronaldo-arthur-vidal-Cdz_lvnl37k-unsplash.jpg,Stimuli/Experimental_stims/objects/ronaldo-arthur-vidal-Cdz_lvnl37k-unsplash.jpg,,original,deliberated,unchosen,no_gain
15966,93,5997,NA,64,64,scramble,faces,scrambled_freddy-kearney-o-ioeoATbIM-unsplash.jpg,Stimuli/Experimental_stims/scramble/faces/scrambled_freddy-kearney-o-ioeoATbIM-unsplash.jpg,,scramble,deliberated,chosen,no_gain
15966,94,2969,62,79,30,original,body_parts,mika-korhonen-Xodzxosar18-unsplash.jpg,Stimuli/Experimental_stims/body_parts/mika-korhonen-Xodzxosar18-unsplash.jpg,,original,deliberated,chosen,gain
15966,95,3084,79,53,11,original,outdoor_scenes,stephen-leonardi-gyIRjKPXupE-unsplash.jpg,Stimuli/Experimental_stims/outdoor_scenes/stephen-leonardi-gyIRjKPXupE-unsplash.jpg,,original,deliberated,chosen,no_gain
15966,96,2935,NA,62,86,scramble,objects,scrambled_art-lasovsky-8XddFc6NkBY-unsplash.jpg,Stimuli/Experimental_stims/scramble/objects/scrambled_art-lasovsky-8XddFc6NkBY-unsplash.jpg,,scramble,deliberated,chosen,no_gain