"","PID","trial","pair_id","stim_type","practice","run","block","left_category","right_category","left_stimulus","right_stimulus","left_path","right_path","left_rating","right_rating","iti","scramble_screen_time","scramble_instructed_side","scramble_acc","no_response","rt","left_chosen","chosen_stimulus","unchosen_stimulus","chosen_category","unchosen_category","chosen_path","unchosen_path","version"
"1",NA,1,"prac1","original",1,0,0,"NaN","NaN",NA,NA,"Stimuli/Practice_stims/Deliberation/anthony-delanoix-Q0-fOL2nqZc-unsplash.jpg","Stimuli/Practice_stims/Deliberation/becca-tapert-sY5RjMB1KkE-unsplash.jpg",NA,NA,1500,NA,"NaN",NA,0,NA,NA,NA,NA,NA,NA,NA,NA,"NaN"
"2",NA,2,"prac2","scramble",1,0,0,"NaN","NaN",NA,NA,"Stimuli/Practice_stims/Deliberation/scramble/scrambled_clay-banks-1KPfcPdbWFM-unsplash.jpg","Stimuli/Practice_stims/Deliberation/scramble/scrambled_melissa-keizer-sV4Pd8wq5_o-unsplash.jpg",NA,NA,2500,2500,"left",NA,0,NA,NA,NA,NA,NA,NA,NA,NA,"NaN"
"3",NA,3,"prac3","scramble",1,0,0,"NaN","NaN",NA,NA,"Stimuli/Practice_stims/Deliberation/scramble/scrambled_anthony-delanoix-Q0-fOL2nqZc-unsplash.jpg","Stimuli/Practice_stims/Deliberation/scramble/scrambled_becca-tapert-sY5RjMB1KkE-unsplash.jpg",NA,NA,3000,1500,"right",NA,0,NA,NA,NA,NA,NA,NA,NA,NA,"NaN"
"4",NA,4,"prac4","original",1,0,0,"NaN","NaN",NA,NA,"Stimuli/Practice_stims/Deliberation/clay-banks-1KPfcPdbWFM-unsplash.jpg","Stimuli/Practice_stims/Deliberation/melissa-keizer-sV4Pd8wq5_o-unsplash.jpg",NA,NA,2000,NA,"NaN",NA,0,NA,NA,NA,NA,NA,NA,NA,NA,"NaN"
"5",NA,5,"E","scramble",0,1,1,"objects","body_parts",NA,NA,"NaN","NaN",NA,NA,1500,1300,"right",NA,0,NA,NA,NA,NA,NA,NA,NA,NA,"a"
"6",NA,6,"K","original",0,1,1,"body_parts","objects",NA,NA,"NaN","NaN",NA,NA,5500,NA,"NaN",NA,0,NA,NA,NA,NA,NA,NA,NA,NA,"a"
"7",NA,7,"H","scramble",0,1,1,"faces","outdoor_scenes",NA,NA,"NaN","NaN",NA,NA,1500,2000,"right",NA,0,NA,NA,NA,NA,NA,NA,NA,NA,"a"
"8",NA,8,"J","original",0,1,1,"faces","objects",NA,NA,"NaN","NaN",NA,NA,3500,NA,"NaN",NA,0,NA,NA,NA,NA,NA,NA,NA,NA,"a"
"9",NA,9,"B","scramble",0,1,1,"outdoor_scenes","faces",NA,NA,"NaN","NaN",NA,NA,2000,1500,"right",NA,0,NA,NA,NA,NA,NA,NA,NA,NA,"a"
"10",NA,10,"I","original",0,1,1,"body_parts","outdoor_scenes",NA,NA,"NaN","NaN",NA,NA,4500,NA,"NaN",NA,0,NA,NA,NA,NA,NA,NA,NA,NA,"a"
"11",NA,11,"I","scramble",0,1,1,"body_parts","outdoor_scenes",NA,NA,"NaN","NaN",NA,NA,1500,1600,"left",NA,0,NA,NA,NA,NA,NA,NA,NA,NA,"a"
"12",NA,12,"G","scramble",0,1,1,"objects","outdoor_scenes",NA,NA,"NaN","NaN",NA,NA,2000,1000,"left",NA,0,NA,NA,NA,NA,NA,NA,NA,NA,"a"
"13",NA,13,"B","original",0,1,1,"outdoor_scenes","faces",NA,NA,"NaN","NaN",NA,NA,1000,NA,"NaN",NA,0,NA,NA,NA,NA,NA,NA,NA,NA,"a"
"14",NA,14,"A","scramble",0,1,1,"outdoor_scenes","objects",NA,NA,"NaN","NaN",NA,NA,1000,1900,"left",NA,0,NA,NA,NA,NA,NA,NA,NA,NA,"a"
"15",NA,15,"E","original",0,1,1,"objects","body_parts",NA,NA,"NaN","NaN",NA,NA,2000,NA,"NaN",NA,0,NA,NA,NA,NA,NA,NA,NA,NA,"a"
"16",NA,16,"D","scramble",0,1,1,"objects","faces",NA,NA,"NaN","NaN",NA,NA,2000,1300,"right",NA,0,NA,NA,NA,NA,NA,NA,NA,NA,"a"
"17",NA,17,"C","scramble",0,1,1,"outdoor_scenes","body_parts",NA,NA,"NaN","NaN",NA,NA,3000,1500,"right",NA,0,NA,NA,NA,NA,NA,NA,NA,NA,"a"
"18",NA,18,"L","original",0,1,1,"body_parts","faces",NA,NA,"NaN","NaN",NA,NA,3500,NA,"NaN",NA,0,NA,NA,NA,NA,NA,NA,NA,NA,"a"
"19",NA,19,"G","original",0,1,1,"objects","outdoor_scenes",NA,NA,"NaN","NaN",NA,NA,1500,NA,"NaN",NA,0,NA,NA,NA,NA,NA,NA,NA,NA,"a"
"20",NA,20,"K","scramble",0,1,1,"body_parts","objects",NA,NA,"NaN","NaN",NA,NA,4500,1800,"left",NA,0,NA,NA,NA,NA,NA,NA,NA,NA,"a"
"21",NA,21,"D","original",0,1,1,"objects","faces",NA,NA,"NaN","NaN",NA,NA,2000,NA,"NaN",NA,0,NA,NA,NA,NA,NA,NA,NA,NA,"a"
"22",NA,22,"F","scramble",0,1,1,"faces","body_parts",NA,NA,"NaN","NaN",NA,NA,2000,1100,"left",NA,0,NA,NA,NA,NA,NA,NA,NA,NA,"a"
"23",NA,23,"C","original",0,1,1,"outdoor_scenes","body_parts",NA,NA,"NaN","NaN",NA,NA,2500,NA,"NaN",NA,0,NA,NA,NA,NA,NA,NA,NA,NA,"a"
"24",NA,24,"L","scramble",0,1,1,"body_parts","faces",NA,NA,"NaN","NaN",NA,NA,3000,700,"left",NA,0,NA,NA,NA,NA,NA,NA,NA,NA,"a"
"25",NA,25,"H","original",0,1,1,"faces","outdoor_scenes",NA,NA,"NaN","NaN",NA,NA,1000,NA,"NaN",NA,0,NA,NA,NA,NA,NA,NA,NA,NA,"a"
"26",NA,26,"A","original",0,1,1,"outdoor_scenes","objects",NA,NA,"NaN","NaN",NA,NA,2000,NA,"NaN",NA,0,NA,NA,NA,NA,NA,NA,NA,NA,"a"
"27",NA,27,"J","scramble",0,1,1,"faces","objects",NA,NA,"NaN","NaN",NA,NA,2500,1300,"right",NA,0,NA,NA,NA,NA,NA,NA,NA,NA,"a"
"28",NA,28,"F","original",0,1,1,"faces","body_parts",NA,NA,"NaN","NaN",NA,NA,1500,NA,"NaN",NA,0,NA,NA,NA,NA,NA,NA,NA,NA,"a"
"29",NA,29,"G","scramble",0,1,2,"objects","outdoor_scenes",NA,NA,"NaN","NaN",NA,NA,3500,1800,"right",NA,0,NA,NA,NA,NA,NA,NA,NA,NA,"a"
"30",NA,30,"K","original",0,1,2,"body_parts","objects",NA,NA,"NaN","NaN",NA,NA,4500,NA,"NaN",NA,0,NA,NA,NA,NA,NA,NA,NA,NA,"a"
"31",NA,31,"K","scramble",0,1,2,"body_parts","objects",NA,NA,"NaN","NaN",NA,NA,2500,1400,"right",NA,0,NA,NA,NA,NA,NA,NA,NA,NA,"a"
"32",NA,32,"B","original",0,1,2,"outdoor_scenes","faces",NA,NA,"NaN","NaN",NA,NA,1000,NA,"NaN",NA,0,NA,NA,NA,NA,NA,NA,NA,NA,"a"
"33",NA,33,"L","scramble",0,1,2,"body_parts","faces",NA,NA,"NaN","NaN",NA,NA,2500,1300,"left",NA,0,NA,NA,NA,NA,NA,NA,NA,NA,"a"
"34",NA,34,"B","scramble",0,1,2,"outdoor_scenes","faces",NA,NA,"NaN","NaN",NA,NA,2500,1700,"right",NA,0,NA,NA,NA,NA,NA,NA,NA,NA,"a"
"35",NA,35,"L","original",0,1,2,"body_parts","faces",NA,NA,"NaN","NaN",NA,NA,2500,NA,"NaN",NA,0,NA,NA,NA,NA,NA,NA,NA,NA,"a"
"36",NA,36,"E","original",0,1,2,"objects","body_parts",NA,NA,"NaN","NaN",NA,NA,2000,NA,"NaN",NA,0,NA,NA,NA,NA,NA,NA,NA,NA,"a"
"37",NA,37,"A","scramble",0,1,2,"outdoor_scenes","objects",NA,NA,"NaN","NaN",NA,NA,3500,1200,"left",NA,0,NA,NA,NA,NA,NA,NA,NA,NA,"a"
"38",NA,38,"I","original",0,1,2,"body_parts","outdoor_scenes",NA,NA,"NaN","NaN",NA,NA,2000,NA,"NaN",NA,0,NA,NA,NA,NA,NA,NA,NA,NA,"a"
"39",NA,39,"J","original",0,1,2,"faces","objects",NA,NA,"NaN","NaN",NA,NA,2500,NA,"NaN",NA,0,NA,NA,NA,NA,NA,NA,NA,NA,"a"
"40",NA,40,"I","scramble",0,1,2,"body_parts","outdoor_scenes",NA,NA,"NaN","NaN",NA,NA,1000,1300,"right",NA,0,NA,NA,NA,NA,NA,NA,NA,NA,"a"
"41",NA,41,"H","original",0,1,2,"faces","outdoor_scenes",NA,NA,"NaN","NaN",NA,NA,1500,NA,"NaN",NA,0,NA,NA,NA,NA,NA,NA,NA,NA,"a"
"42",NA,42,"H","scramble",0,1,2,"faces","outdoor_scenes",NA,NA,"NaN","NaN",NA,NA,1000,700,"left",NA,0,NA,NA,NA,NA,NA,NA,NA,NA,"a"
"43",NA,43,"C","original",0,1,2,"outdoor_scenes","body_parts",NA,NA,"NaN","NaN",NA,NA,5500,NA,"NaN",NA,0,NA,NA,NA,NA,NA,NA,NA,NA,"a"
"44",NA,44,"E","scramble",0,1,2,"objects","body_parts",NA,NA,"NaN","NaN",NA,NA,2000,1000,"left",NA,0,NA,NA,NA,NA,NA,NA,NA,NA,"a"
"45",NA,45,"J","scramble",0,1,2,"faces","objects",NA,NA,"NaN","NaN",NA,NA,2000,1800,"left",NA,0,NA,NA,NA,NA,NA,NA,NA,NA,"a"
"46",NA,46,"F","original",0,1,2,"faces","body_parts",NA,NA,"NaN","NaN",NA,NA,2500,NA,"NaN",NA,0,NA,NA,NA,NA,NA,NA,NA,NA,"a"
"47",NA,47,"D","scramble",0,1,2,"objects","faces",NA,NA,"NaN","NaN",NA,NA,6000,1900,"left",NA,0,NA,NA,NA,NA,NA,NA,NA,NA,"a"
"48",NA,48,"F","scramble",0,1,2,"faces","body_parts",NA,NA,"NaN","NaN",NA,NA,2000,1800,"right",NA,0,NA,NA,NA,NA,NA,NA,NA,NA,"a"
"49",NA,49,"A","original",0,1,2,"outdoor_scenes","objects",NA,NA,"NaN","NaN",NA,NA,1000,NA,"NaN",NA,0,NA,NA,NA,NA,NA,NA,NA,NA,"a"
"50",NA,50,"D","original",0,1,2,"objects","faces",NA,NA,"NaN","NaN",NA,NA,1500,NA,"NaN",NA,0,NA,NA,NA,NA,NA,NA,NA,NA,"a"
"51",NA,51,"C","scramble",0,1,2,"outdoor_scenes","body_parts",NA,NA,"NaN","NaN",NA,NA,3500,1600,"right",NA,0,NA,NA,NA,NA,NA,NA,NA,NA,"a"
"52",NA,52,"G","original",0,1,2,"objects","outdoor_scenes",NA,NA,"NaN","NaN",NA,NA,4500,NA,"NaN",NA,0,NA,NA,NA,NA,NA,NA,NA,NA,"a"
"53",NA,53,"C","original",0,2,3,"outdoor_scenes","body_parts",NA,NA,"NaN","NaN",NA,NA,1000,NA,"NaN",NA,0,NA,NA,NA,NA,NA,NA,NA,NA,"a"
"54",NA,54,"L","scramble",0,2,3,"body_parts","faces",NA,NA,"NaN","NaN",NA,NA,4500,1200,"left",NA,0,NA,NA,NA,NA,NA,NA,NA,NA,"a"
"55",NA,55,"C","scramble",0,2,3,"outdoor_scenes","body_parts",NA,NA,"NaN","NaN",NA,NA,1000,1000,"left",NA,0,NA,NA,NA,NA,NA,NA,NA,NA,"a"
"56",NA,56,"F","original",0,2,3,"faces","body_parts",NA,NA,"NaN","NaN",NA,NA,2500,NA,"NaN",NA,0,NA,NA,NA,NA,NA,NA,NA,NA,"a"
"57",NA,57,"J","scramble",0,2,3,"faces","objects",NA,NA,"NaN","NaN",NA,NA,1000,700,"right",NA,0,NA,NA,NA,NA,NA,NA,NA,NA,"a"
"58",NA,58,"D","original",0,2,3,"objects","faces",NA,NA,"NaN","NaN",NA,NA,1000,NA,"NaN",NA,0,NA,NA,NA,NA,NA,NA,NA,NA,"a"
"59",NA,59,"J","original",0,2,3,"faces","objects",NA,NA,"NaN","NaN",NA,NA,2000,NA,"NaN",NA,0,NA,NA,NA,NA,NA,NA,NA,NA,"a"
"60",NA,60,"G","scramble",0,2,3,"objects","outdoor_scenes",NA,NA,"NaN","NaN",NA,NA,1500,1300,"right",NA,0,NA,NA,NA,NA,NA,NA,NA,NA,"a"
"61",NA,61,"K","original",0,2,3,"body_parts","objects",NA,NA,"NaN","NaN",NA,NA,1000,NA,"NaN",NA,0,NA,NA,NA,NA,NA,NA,NA,NA,"a"
"62",NA,62,"E","scramble",0,2,3,"objects","body_parts",NA,NA,"NaN","NaN",NA,NA,4500,900,"right",NA,0,NA,NA,NA,NA,NA,NA,NA,NA,"a"
"63",NA,63,"A","scramble",0,2,3,"outdoor_scenes","objects",NA,NA,"NaN","NaN",NA,NA,2000,1400,"left",NA,0,NA,NA,NA,NA,NA,NA,NA,NA,"a"
"64",NA,64,"B","original",0,2,3,"outdoor_scenes","faces",NA,NA,"NaN","NaN",NA,NA,3000,NA,"NaN",NA,0,NA,NA,NA,NA,NA,NA,NA,NA,"a"
"65",NA,65,"E","original",0,2,3,"objects","body_parts",NA,NA,"NaN","NaN",NA,NA,2500,NA,"NaN",NA,0,NA,NA,NA,NA,NA,NA,NA,NA,"a"
"66",NA,66,"I","scramble",0,2,3,"body_parts","outdoor_scenes",NA,NA,"NaN","NaN",NA,NA,2500,1100,"right",NA,0,NA,NA,NA,NA,NA,NA,NA,NA,"a"
"67",NA,67,"H","original",0,2,3,"faces","outdoor_scenes",NA,NA,"NaN","NaN",NA,NA,2000,NA,"NaN",NA,0,NA,NA,NA,NA,NA,NA,NA,NA,"a"
"68",NA,68,"K","scramble",0,2,3,"body_parts","objects",NA,NA,"NaN","NaN",NA,NA,3500,900,"left",NA,0,NA,NA,NA,NA,NA,NA,NA,NA,"a"
"69",NA,69,"A","original",0,2,3,"outdoor_scenes","objects",NA,NA,"NaN","NaN",NA,NA,6000,NA,"NaN",NA,0,NA,NA,NA,NA,NA,NA,NA,NA,"a"
"70",NA,70,"D","scramble",0,2,3,"objects","faces",NA,NA,"NaN","NaN",NA,NA,1500,1500,"right",NA,0,NA,NA,NA,NA,NA,NA,NA,NA,"a"
"71",NA,71,"L","original",0,2,3,"body_parts","faces",NA,NA,"NaN","NaN",NA,NA,2500,NA,"NaN",NA,0,NA,NA,NA,NA,NA,NA,NA,NA,"a"
"72",NA,72,"B","scramble",0,2,3,"outdoor_scenes","faces",NA,NA,"NaN","NaN",NA,NA,3000,1400,"right",NA,0,NA,NA,NA,NA,NA,NA,NA,NA,"a"
"73",NA,73,"I","original",0,2,3,"body_parts","outdoor_scenes",NA,NA,"NaN","NaN",NA,NA,1500,NA,"NaN",NA,0,NA,NA,NA,NA,NA,NA,NA,NA,"a"
"74",NA,74,"F","scramble",0,2,3,"faces","body_parts",NA,NA,"NaN","NaN",NA,NA,2000,1100,"left",NA,0,NA,NA,NA,NA,NA,NA,NA,NA,"a"
"75",NA,75,"H","scramble",0,2,3,"faces","outdoor_scenes",NA,NA,"NaN","NaN",NA,NA,3500,1100,"left",NA,0,NA,NA,NA,NA,NA,NA,NA,NA,"a"
"76",NA,76,"G","original",0,2,3,"objects","outdoor_scenes",NA,NA,"NaN","NaN",NA,NA,2500,NA,"NaN",NA,0,NA,NA,NA,NA,NA,NA,NA,NA,"a"
"77",NA,77,"H","scramble",0,2,4,"faces","outdoor_scenes",NA,NA,"NaN","NaN",NA,NA,3500,1500,"left",NA,0,NA,NA,NA,NA,NA,NA,NA,NA,"a"
"78",NA,78,"B","original",0,2,4,"outdoor_scenes","faces",NA,NA,"NaN","NaN",NA,NA,2000,NA,"NaN",NA,0,NA,NA,NA,NA,NA,NA,NA,NA,"a"
"79",NA,79,"K","scramble",0,2,4,"body_parts","objects",NA,NA,"NaN","NaN",NA,NA,1500,100,"right",NA,0,NA,NA,NA,NA,NA,NA,NA,NA,"a"
"80",NA,80,"C","original",0,2,4,"outdoor_scenes","body_parts",NA,NA,"NaN","NaN",NA,NA,1500,NA,"NaN",NA,0,NA,NA,NA,NA,NA,NA,NA,NA,"a"
"81",NA,81,"J","scramble",0,2,4,"faces","objects",NA,NA,"NaN","NaN",NA,NA,4500,1300,"right",NA,0,NA,NA,NA,NA,NA,NA,NA,NA,"a"
"82",NA,82,"C","scramble",0,2,4,"outdoor_scenes","body_parts",NA,NA,"NaN","NaN",NA,NA,1500,1000,"right",NA,0,NA,NA,NA,NA,NA,NA,NA,NA,"a"
"83",NA,83,"E","original",0,2,4,"objects","body_parts",NA,NA,"NaN","NaN",NA,NA,1000,NA,"NaN",NA,0,NA,NA,NA,NA,NA,NA,NA,NA,"a"
"84",NA,84,"H","original",0,2,4,"faces","outdoor_scenes",NA,NA,"NaN","NaN",NA,NA,2000,NA,"NaN",NA,0,NA,NA,NA,NA,NA,NA,NA,NA,"a"
"85",NA,85,"A","scramble",0,2,4,"outdoor_scenes","objects",NA,NA,"NaN","NaN",NA,NA,2000,500,"left",NA,0,NA,NA,NA,NA,NA,NA,NA,NA,"a"
"86",NA,86,"L","scramble",0,2,4,"body_parts","faces",NA,NA,"NaN","NaN",NA,NA,2500,500,"right",NA,0,NA,NA,NA,NA,NA,NA,NA,NA,"a"
"87",NA,87,"G","original",0,2,4,"objects","outdoor_scenes",NA,NA,"NaN","NaN",NA,NA,5500,NA,"NaN",NA,0,NA,NA,NA,NA,NA,NA,NA,NA,"a"
"88",NA,88,"A","original",0,2,4,"outdoor_scenes","objects",NA,NA,"NaN","NaN",NA,NA,1000,NA,"NaN",NA,0,NA,NA,NA,NA,NA,NA,NA,NA,"a"
"89",NA,89,"G","scramble",0,2,4,"objects","outdoor_scenes",NA,NA,"NaN","NaN",NA,NA,3500,1100,"left",NA,0,NA,NA,NA,NA,NA,NA,NA,NA,"a"
"90",NA,90,"I","scramble",0,2,4,"body_parts","outdoor_scenes",NA,NA,"NaN","NaN",NA,NA,2000,700,"left",NA,0,NA,NA,NA,NA,NA,NA,NA,NA,"a"
"91",NA,91,"F","original",0,2,4,"faces","body_parts",NA,NA,"NaN","NaN",NA,NA,2000,NA,"NaN",NA,0,NA,NA,NA,NA,NA,NA,NA,NA,"a"
"92",NA,92,"B","scramble",0,2,4,"outdoor_scenes","faces",NA,NA,"NaN","NaN",NA,NA,2000,1000,"left",NA,0,NA,NA,NA,NA,NA,NA,NA,NA,"a"
"93",NA,93,"K","original",0,2,4,"body_parts","objects",NA,NA,"NaN","NaN",NA,NA,3500,NA,"NaN",NA,0,NA,NA,NA,NA,NA,NA,NA,NA,"a"
"94",NA,94,"I","original",0,2,4,"body_parts","outdoor_scenes",NA,NA,"NaN","NaN",NA,NA,4500,NA,"NaN",NA,0,NA,NA,NA,NA,NA,NA,NA,NA,"a"
"95",NA,95,"F","scramble",0,2,4,"faces","body_parts",NA,NA,"NaN","NaN",NA,NA,2000,200,"left",NA,0,NA,NA,NA,NA,NA,NA,NA,NA,"a"
"96",NA,96,"L","original",0,2,4,"body_parts","faces",NA,NA,"NaN","NaN",NA,NA,1500,NA,"NaN",NA,0,NA,NA,NA,NA,NA,NA,NA,NA,"a"
"97",NA,97,"D","scramble",0,2,4,"objects","faces",NA,NA,"NaN","NaN",NA,NA,5500,1500,"right",NA,0,NA,NA,NA,NA,NA,NA,NA,NA,"a"
"98",NA,98,"J","original",0,2,4,"faces","objects",NA,NA,"NaN","NaN",NA,NA,2000,NA,"NaN",NA,0,NA,NA,NA,NA,NA,NA,NA,NA,"a"
"99",NA,99,"E","scramble",0,2,4,"objects","body_parts",NA,NA,"NaN","NaN",NA,NA,2500,1800,"right",NA,0,NA,NA,NA,NA,NA,NA,NA,NA,"a"
"100",NA,100,"D","original",0,2,4,"objects","faces",NA,NA,"NaN","NaN",NA,NA,2500,NA,"NaN",NA,0,NA,NA,NA,NA,NA,NA,NA,NA,"a"
