"PID","trial","pair_id","stim_type","practice","run","block","left_category","right_category","left_stimulus","right_stimulus","left_path","right_path","left_rating","right_rating","iti","scramble_screen_time","scramble_instructed_side","scramble_acc","no_response","rt","left_chosen","chosen_stimulus","unchosen_stimulus","chosen_category","unchosen_category","chosen_path","unchosen_path"
NA,1,"prac1","original",1,0,0,"NaN","NaN",NA,NA,"Stimuli/Practice_stims/Deliberation/anthony-delanoix-Q0-fOL2nqZc-unsplash.jpg","Stimuli/Practice_stims/Deliberation/becca-tapert-sY5RjMB1KkE-unsplash.jpg",NA,NA,1500,NA,"NaN",NA,0,NA,NA,NA,NA,NA,NA,NA,NA
NA,2,"prac2","scramble",1,0,0,"NaN","NaN",NA,NA,"Stimuli/Practice_stims/Deliberation/scramble/scrambled_clay-banks-1KPfcPdbWFM-unsplash.jpg","Stimuli/Practice_stims/Deliberation/scramble/scrambled_melissa-keizer-sV4Pd8wq5_o-unsplash.jpg",NA,NA,2500,2500,"left",NA,0,NA,NA,NA,NA,NA,NA,NA,NA
NA,3,"prac3","scramble",1,0,0,"NaN","NaN",NA,NA,"Stimuli/Practice_stims/Deliberation/scramble/scrambled_anthony-delanoix-Q0-fOL2nqZc-unsplash.jpg","Stimuli/Practice_stims/Deliberation/scramble/scrambled_becca-tapert-sY5RjMB1KkE-unsplash.jpg",NA,NA,3000,1500,"right",NA,0,NA,NA,NA,NA,NA,NA,NA,NA
NA,4,"prac4","original",1,0,0,"NaN","NaN",NA,NA,"Stimuli/Practice_stims/Deliberation/clay-banks-1KPfcPdbWFM-unsplash.jpg","Stimuli/Practice_stims/Deliberation/melissa-keizer-sV4Pd8wq5_o-unsplash.jpg",NA,NA,2000,NA,"NaN",NA,0,NA,NA,NA,NA,NA,NA,NA,NA
NA,5,"E","scramble",0,1,1,"objects","body_parts",NA,NA,"NaN","NaN",NA,NA,1500,600,"right",NA,0,NA,NA,NA,NA,NA,NA,NA,NA
NA,6,"I","original",0,1,1,"body_parts","outdoor_scenes",NA,NA,"NaN","NaN",NA,NA,2000,NA,"NaN",NA,0,NA,NA,NA,NA,NA,NA,NA,NA
NA,7,"G","scramble",0,1,1,"objects","outdoor_scenes",NA,NA,"NaN","NaN",NA,NA,3000,1800,"left",NA,0,NA,NA,NA,NA,NA,NA,NA,NA
NA,8,"H","original",0,1,1,"faces","outdoor_scenes",NA,NA,"NaN","NaN",NA,NA,1000,NA,"NaN",NA,0,NA,NA,NA,NA,NA,NA,NA,NA
NA,9,"K","scramble",0,1,1,"body_parts","objects",NA,NA,"NaN","NaN",NA,NA,3000,1000,"right",NA,0,NA,NA,NA,NA,NA,NA,NA,NA
NA,10,"A","scramble",0,1,1,"outdoor_scenes","objects",NA,NA,"NaN","NaN",NA,NA,1000,2000,"left",NA,0,NA,NA,NA,NA,NA,NA,NA,NA
NA,11,"B","original",0,1,1,"outdoor_scenes","faces",NA,NA,"NaN","NaN",NA,NA,1500,NA,"NaN",NA,0,NA,NA,NA,NA,NA,NA,NA,NA
NA,12,"H","scramble",0,1,1,"faces","outdoor_scenes",NA,NA,"NaN","NaN",NA,NA,1500,400,"left",NA,0,NA,NA,NA,NA,NA,NA,NA,NA
NA,13,"G","original",0,1,1,"objects","outdoor_scenes",NA,NA,"NaN","NaN",NA,NA,3000,NA,"NaN",NA,0,NA,NA,NA,NA,NA,NA,NA,NA
NA,14,"F","scramble",0,1,1,"faces","body_parts",NA,NA,"NaN","NaN",NA,NA,2000,1600,"right",NA,0,NA,NA,NA,NA,NA,NA,NA,NA
NA,15,"A","original",0,1,1,"outdoor_scenes","objects",NA,NA,"NaN","NaN",NA,NA,1000,NA,"NaN",NA,0,NA,NA,NA,NA,NA,NA,NA,NA
NA,16,"C","original",0,1,1,"outdoor_scenes","body_parts",NA,NA,"NaN","NaN",NA,NA,1000,NA,"NaN",NA,0,NA,NA,NA,NA,NA,NA,NA,NA
NA,17,"D","original",0,1,1,"objects","faces",NA,NA,"NaN","NaN",NA,NA,3000,NA,"NaN",NA,0,NA,NA,NA,NA,NA,NA,NA,NA
NA,18,"L","scramble",0,1,1,"body_parts","faces",NA,NA,"NaN","NaN",NA,NA,1000,1700,"right",NA,0,NA,NA,NA,NA,NA,NA,NA,NA
NA,19,"J","scramble",0,1,1,"faces","objects",NA,NA,"NaN","NaN",NA,NA,1500,1800,"left",NA,0,NA,NA,NA,NA,NA,NA,NA,NA
NA,20,"D","scramble",0,1,1,"objects","faces",NA,NA,"NaN","NaN",NA,NA,2000,1900,"left",NA,0,NA,NA,NA,NA,NA,NA,NA,NA
NA,21,"K","original",0,1,1,"body_parts","objects",NA,NA,"NaN","NaN",NA,NA,3500,NA,"NaN",NA,0,NA,NA,NA,NA,NA,NA,NA,NA
NA,22,"I","scramble",0,1,1,"body_parts","outdoor_scenes",NA,NA,"NaN","NaN",NA,NA,1000,700,"left",NA,0,NA,NA,NA,NA,NA,NA,NA,NA
NA,23,"F","original",0,1,1,"faces","body_parts",NA,NA,"NaN","NaN",NA,NA,1500,NA,"NaN",NA,0,NA,NA,NA,NA,NA,NA,NA,NA
NA,24,"C","scramble",0,1,1,"outdoor_scenes","body_parts",NA,NA,"NaN","NaN",NA,NA,3500,1900,"right",NA,0,NA,NA,NA,NA,NA,NA,NA,NA
NA,25,"E","original",0,1,1,"objects","body_parts",NA,NA,"NaN","NaN",NA,NA,1000,NA,"NaN",NA,0,NA,NA,NA,NA,NA,NA,NA,NA
NA,26,"J","original",0,1,1,"faces","objects",NA,NA,"NaN","NaN",NA,NA,2000,NA,"NaN",NA,0,NA,NA,NA,NA,NA,NA,NA,NA
NA,27,"L","original",0,1,1,"body_parts","faces",NA,NA,"NaN","NaN",NA,NA,1500,NA,"NaN",NA,0,NA,NA,NA,NA,NA,NA,NA,NA
NA,28,"B","scramble",0,1,1,"outdoor_scenes","faces",NA,NA,"NaN","NaN",NA,NA,1000,1700,"right",NA,0,NA,NA,NA,NA,NA,NA,NA,NA
NA,29,"I","scramble",0,1,2,"body_parts","outdoor_scenes",NA,NA,"NaN","NaN",NA,NA,1000,1500,"left",NA,0,NA,NA,NA,NA,NA,NA,NA,NA
NA,30,"G","original",0,1,2,"objects","outdoor_scenes",NA,NA,"NaN","NaN",NA,NA,1000,NA,"NaN",NA,0,NA,NA,NA,NA,NA,NA,NA,NA
NA,31,"H","scramble",0,1,2,"faces","outdoor_scenes",NA,NA,"NaN","NaN",NA,NA,1000,1600,"left",NA,0,NA,NA,NA,NA,NA,NA,NA,NA
NA,32,"J","original",0,1,2,"faces","objects",NA,NA,"NaN","NaN",NA,NA,2000,NA,"NaN",NA,0,NA,NA,NA,NA,NA,NA,NA,NA
NA,33,"D","original",0,1,2,"objects","faces",NA,NA,"NaN","NaN",NA,NA,1500,NA,"NaN",NA,0,NA,NA,NA,NA,NA,NA,NA,NA
NA,34,"J","scramble",0,1,2,"faces","objects",NA,NA,"NaN","NaN",NA,NA,1500,1100,"right",NA,0,NA,NA,NA,NA,NA,NA,NA,NA
NA,35,"B","scramble",0,1,2,"outdoor_scenes","faces",NA,NA,"NaN","NaN",NA,NA,1500,1400,"right",NA,0,NA,NA,NA,NA,NA,NA,NA,NA
NA,36,"E","scramble",0,1,2,"objects","body_parts",NA,NA,"NaN","NaN",NA,NA,3500,1200,"right",NA,0,NA,NA,NA,NA,NA,NA,NA,NA
NA,37,"L","original",0,1,2,"body_parts","faces",NA,NA,"NaN","NaN",NA,NA,1500,NA,"NaN",NA,0,NA,NA,NA,NA,NA,NA,NA,NA
NA,38,"B","original",0,1,2,"outdoor_scenes","faces",NA,NA,"NaN","NaN",NA,NA,3500,NA,"NaN",NA,0,NA,NA,NA,NA,NA,NA,NA,NA
NA,39,"H","original",0,1,2,"faces","outdoor_scenes",NA,NA,"NaN","NaN",NA,NA,1000,NA,"NaN",NA,0,NA,NA,NA,NA,NA,NA,NA,NA
NA,40,"C","scramble",0,1,2,"outdoor_scenes","body_parts",NA,NA,"NaN","NaN",NA,NA,3000,1100,"left",NA,0,NA,NA,NA,NA,NA,NA,NA,NA
NA,41,"C","original",0,1,2,"outdoor_scenes","body_parts",NA,NA,"NaN","NaN",NA,NA,3000,NA,"NaN",NA,0,NA,NA,NA,NA,NA,NA,NA,NA
NA,42,"A","original",0,1,2,"outdoor_scenes","objects",NA,NA,"NaN","NaN",NA,NA,1500,NA,"NaN",NA,0,NA,NA,NA,NA,NA,NA,NA,NA
NA,43,"A","scramble",0,1,2,"outdoor_scenes","objects",NA,NA,"NaN","NaN",NA,NA,3000,1300,"right",NA,0,NA,NA,NA,NA,NA,NA,NA,NA
NA,44,"E","original",0,1,2,"objects","body_parts",NA,NA,"NaN","NaN",NA,NA,2000,NA,"NaN",NA,0,NA,NA,NA,NA,NA,NA,NA,NA
NA,45,"L","scramble",0,1,2,"body_parts","faces",NA,NA,"NaN","NaN",NA,NA,2000,1300,"right",NA,0,NA,NA,NA,NA,NA,NA,NA,NA
NA,46,"K","original",0,1,2,"body_parts","objects",NA,NA,"NaN","NaN",NA,NA,3000,NA,"NaN",NA,0,NA,NA,NA,NA,NA,NA,NA,NA
NA,47,"I","original",0,1,2,"body_parts","outdoor_scenes",NA,NA,"NaN","NaN",NA,NA,1000,NA,"NaN",NA,0,NA,NA,NA,NA,NA,NA,NA,NA
NA,48,"F","original",0,1,2,"faces","body_parts",NA,NA,"NaN","NaN",NA,NA,1000,NA,"NaN",NA,0,NA,NA,NA,NA,NA,NA,NA,NA
NA,49,"D","scramble",0,1,2,"objects","faces",NA,NA,"NaN","NaN",NA,NA,1000,1100,"left",NA,0,NA,NA,NA,NA,NA,NA,NA,NA
NA,50,"K","scramble",0,1,2,"body_parts","objects",NA,NA,"NaN","NaN",NA,NA,1000,600,"left",NA,0,NA,NA,NA,NA,NA,NA,NA,NA
NA,51,"G","scramble",0,1,2,"objects","outdoor_scenes",NA,NA,"NaN","NaN",NA,NA,1500,1900,"left",NA,0,NA,NA,NA,NA,NA,NA,NA,NA
NA,52,"F","scramble",0,1,2,"faces","body_parts",NA,NA,"NaN","NaN",NA,NA,2000,1700,"right",NA,0,NA,NA,NA,NA,NA,NA,NA,NA
NA,53,"E","original",0,2,3,"objects","body_parts",NA,NA,"NaN","NaN",NA,NA,3500,NA,"NaN",NA,0,NA,NA,NA,NA,NA,NA,NA,NA
NA,54,"C","original",0,2,3,"outdoor_scenes","body_parts",NA,NA,"NaN","NaN",NA,NA,1500,NA,"NaN",NA,0,NA,NA,NA,NA,NA,NA,NA,NA
NA,55,"B","scramble",0,2,3,"outdoor_scenes","faces",NA,NA,"NaN","NaN",NA,NA,1000,1200,"left",NA,0,NA,NA,NA,NA,NA,NA,NA,NA
NA,56,"G","original",0,2,3,"objects","outdoor_scenes",NA,NA,"NaN","NaN",NA,NA,2000,NA,"NaN",NA,0,NA,NA,NA,NA,NA,NA,NA,NA
NA,57,"L","original",0,2,3,"body_parts","faces",NA,NA,"NaN","NaN",NA,NA,1000,NA,"NaN",NA,0,NA,NA,NA,NA,NA,NA,NA,NA
NA,58,"K","original",0,2,3,"body_parts","objects",NA,NA,"NaN","NaN",NA,NA,1000,NA,"NaN",NA,0,NA,NA,NA,NA,NA,NA,NA,NA
NA,59,"E","scramble",0,2,3,"objects","body_parts",NA,NA,"NaN","NaN",NA,NA,3000,1100,"left",NA,0,NA,NA,NA,NA,NA,NA,NA,NA
NA,60,"B","original",0,2,3,"outdoor_scenes","faces",NA,NA,"NaN","NaN",NA,NA,1000,NA,"NaN",NA,0,NA,NA,NA,NA,NA,NA,NA,NA
NA,61,"G","scramble",0,2,3,"objects","outdoor_scenes",NA,NA,"NaN","NaN",NA,NA,1000,500,"left",NA,0,NA,NA,NA,NA,NA,NA,NA,NA
NA,62,"H","scramble",0,2,3,"faces","outdoor_scenes",NA,NA,"NaN","NaN",NA,NA,1000,700,"left",NA,0,NA,NA,NA,NA,NA,NA,NA,NA
NA,63,"I","original",0,2,3,"body_parts","outdoor_scenes",NA,NA,"NaN","NaN",NA,NA,3000,NA,"NaN",NA,0,NA,NA,NA,NA,NA,NA,NA,NA
NA,64,"C","scramble",0,2,3,"outdoor_scenes","body_parts",NA,NA,"NaN","NaN",NA,NA,2000,1000,"right",NA,0,NA,NA,NA,NA,NA,NA,NA,NA
NA,65,"A","scramble",0,2,3,"outdoor_scenes","objects",NA,NA,"NaN","NaN",NA,NA,3500,700,"left",NA,0,NA,NA,NA,NA,NA,NA,NA,NA
NA,66,"J","scramble",0,2,3,"faces","objects",NA,NA,"NaN","NaN",NA,NA,1500,1500,"right",NA,0,NA,NA,NA,NA,NA,NA,NA,NA
NA,67,"J","original",0,2,3,"faces","objects",NA,NA,"NaN","NaN",NA,NA,2000,NA,"NaN",NA,0,NA,NA,NA,NA,NA,NA,NA,NA
NA,68,"I","scramble",0,2,3,"body_parts","outdoor_scenes",NA,NA,"NaN","NaN",NA,NA,1500,800,"right",NA,0,NA,NA,NA,NA,NA,NA,NA,NA
NA,69,"D","scramble",0,2,3,"objects","faces",NA,NA,"NaN","NaN",NA,NA,2000,1000,"right",NA,0,NA,NA,NA,NA,NA,NA,NA,NA
NA,70,"F","scramble",0,2,3,"faces","body_parts",NA,NA,"NaN","NaN",NA,NA,3000,1600,"right",NA,0,NA,NA,NA,NA,NA,NA,NA,NA
NA,71,"D","original",0,2,3,"objects","faces",NA,NA,"NaN","NaN",NA,NA,1500,NA,"NaN",NA,0,NA,NA,NA,NA,NA,NA,NA,NA
NA,72,"H","original",0,2,3,"faces","outdoor_scenes",NA,NA,"NaN","NaN",NA,NA,1500,NA,"NaN",NA,0,NA,NA,NA,NA,NA,NA,NA,NA
NA,73,"L","scramble",0,2,3,"body_parts","faces",NA,NA,"NaN","NaN",NA,NA,1500,1400,"left",NA,0,NA,NA,NA,NA,NA,NA,NA,NA
NA,74,"F","original",0,2,3,"faces","body_parts",NA,NA,"NaN","NaN",NA,NA,1000,NA,"NaN",NA,0,NA,NA,NA,NA,NA,NA,NA,NA
NA,75,"A","original",0,2,3,"outdoor_scenes","objects",NA,NA,"NaN","NaN",NA,NA,3000,NA,"NaN",NA,0,NA,NA,NA,NA,NA,NA,NA,NA
NA,76,"K","scramble",0,2,3,"body_parts","objects",NA,NA,"NaN","NaN",NA,NA,1000,1300,"right",NA,0,NA,NA,NA,NA,NA,NA,NA,NA
NA,77,"D","scramble",0,2,4,"objects","faces",NA,NA,"NaN","NaN",NA,NA,1000,1300,"right",NA,0,NA,NA,NA,NA,NA,NA,NA,NA
NA,78,"F","original",0,2,4,"faces","body_parts",NA,NA,"NaN","NaN",NA,NA,3000,NA,"NaN",NA,0,NA,NA,NA,NA,NA,NA,NA,NA
NA,79,"F","scramble",0,2,4,"faces","body_parts",NA,NA,"NaN","NaN",NA,NA,1500,1500,"right",NA,0,NA,NA,NA,NA,NA,NA,NA,NA
NA,80,"I","scramble",0,2,4,"body_parts","outdoor_scenes",NA,NA,"NaN","NaN",NA,NA,1500,1200,"left",NA,0,NA,NA,NA,NA,NA,NA,NA,NA
NA,81,"B","scramble",0,2,4,"outdoor_scenes","faces",NA,NA,"NaN","NaN",NA,NA,2000,1000,"left",NA,0,NA,NA,NA,NA,NA,NA,NA,NA
NA,82,"K","original",0,2,4,"body_parts","objects",NA,NA,"NaN","NaN",NA,NA,1000,NA,"NaN",NA,0,NA,NA,NA,NA,NA,NA,NA,NA
NA,83,"H","original",0,2,4,"faces","outdoor_scenes",NA,NA,"NaN","NaN",NA,NA,1000,NA,"NaN",NA,0,NA,NA,NA,NA,NA,NA,NA,NA
NA,84,"L","original",0,2,4,"body_parts","faces",NA,NA,"NaN","NaN",NA,NA,1500,NA,"NaN",NA,0,NA,NA,NA,NA,NA,NA,NA,NA
NA,85,"L","scramble",0,2,4,"body_parts","faces",NA,NA,"NaN","NaN",NA,NA,1500,600,"left",NA,0,NA,NA,NA,NA,NA,NA,NA,NA
NA,86,"G","original",0,2,4,"objects","outdoor_scenes",NA,NA,"NaN","NaN",NA,NA,2000,NA,"NaN",NA,0,NA,NA,NA,NA,NA,NA,NA,NA
NA,87,"K","scramble",0,2,4,"body_parts","objects",NA,NA,"NaN","NaN",NA,NA,3000,1100,"left",NA,0,NA,NA,NA,NA,NA,NA,NA,NA
NA,88,"E","original",0,2,4,"objects","body_parts",NA,NA,"NaN","NaN",NA,NA,1000,NA,"NaN",NA,0,NA,NA,NA,NA,NA,NA,NA,NA
NA,89,"B","original",0,2,4,"outdoor_scenes","faces",NA,NA,"NaN","NaN",NA,NA,1500,NA,"NaN",NA,0,NA,NA,NA,NA,NA,NA,NA,NA
NA,90,"E","scramble",0,2,4,"objects","body_parts",NA,NA,"NaN","NaN",NA,NA,3500,1300,"right",NA,0,NA,NA,NA,NA,NA,NA,NA,NA
NA,91,"J","original",0,2,4,"faces","objects",NA,NA,"NaN","NaN",NA,NA,3500,NA,"NaN",NA,0,NA,NA,NA,NA,NA,NA,NA,NA
NA,92,"A","scramble",0,2,4,"outdoor_scenes","objects",NA,NA,"NaN","NaN",NA,NA,1000,900,"right",NA,0,NA,NA,NA,NA,NA,NA,NA,NA
NA,93,"I","original",0,2,4,"body_parts","outdoor_scenes",NA,NA,"NaN","NaN",NA,NA,3000,NA,"NaN",NA,0,NA,NA,NA,NA,NA,NA,NA,NA
NA,94,"C","scramble",0,2,4,"outdoor_scenes","body_parts",NA,NA,"NaN","NaN",NA,NA,1000,1500,"left",NA,0,NA,NA,NA,NA,NA,NA,NA,NA
NA,95,"J","scramble",0,2,4,"faces","objects",NA,NA,"NaN","NaN",NA,NA,2000,1500,"right",NA,0,NA,NA,NA,NA,NA,NA,NA,NA
NA,96,"G","scramble",0,2,4,"objects","outdoor_scenes",NA,NA,"NaN","NaN",NA,NA,1000,900,"right",NA,0,NA,NA,NA,NA,NA,NA,NA,NA
NA,97,"D","original",0,2,4,"objects","faces",NA,NA,"NaN","NaN",NA,NA,2000,NA,"NaN",NA,0,NA,NA,NA,NA,NA,NA,NA,NA
NA,98,"H","scramble",0,2,4,"faces","outdoor_scenes",NA,NA,"NaN","NaN",NA,NA,3000,1000,"left",NA,0,NA,NA,NA,NA,NA,NA,NA,NA
NA,99,"A","original",0,2,4,"outdoor_scenes","objects",NA,NA,"NaN","NaN",NA,NA,1000,NA,"NaN",NA,0,NA,NA,NA,NA,NA,NA,NA,NA
NA,100,"C","original",0,2,4,"outdoor_scenes","body_parts",NA,NA,"NaN","NaN",NA,NA,1500,NA,"NaN",NA,0,NA,NA,NA,NA,NA,NA,NA,NA
