"PID","practice","trial","run","task","stimulus_duration","iti","is_odd_ball","path","response","rt"
NA,1,NA,0,"NaN",400,300,0,"Stimuli/Practice_stims/Localizer/annie-spratt-g9KFpAfQ5bc-unsplash.jpg",NA,NA
NA,1,NA,0,"NaN",400,300,0,"Stimuli/Practice_stims/Localizer/becca-tapert-sY5RjMB1KkE-unsplash.jpg",NA,NA
NA,1,NA,0,"NaN",400,300,1,"Stimuli/Practice_stims/Localizer/charl-durand-bsfXvI25iNg-unsplash.jpg",NA,NA
NA,1,NA,0,"NaN",400,300,0,"Stimuli/Practice_stims/Localizer/nizar-albusaidy-B2r2SWAf5CE-unsplash.jpg",NA,NA
NA,1,NA,0,"NaN",400,300,1,"Stimuli/Practice_stims/Localizer/randy-fath-epf1tdtIIkM-unsplash.jpg",NA,NA
NA,1,NA,0,"NaN",400,300,0,"Stimuli/Practice_stims/Localizer/yassine-khalfalli-adsQ9d_Cx0c-unsplash.jpg",NA,NA
NA,0,NA,1,"body_parts",400,300,0,"Stimuli/Experimental_stims/localizer/body_parts/joao-paulo-de-souza-oliveira-PtgU157MUyg-unsplash.jpg",NA,NA
NA,0,NA,1,"body_parts",400,300,0,"Stimuli/Experimental_stims/localizer/body_parts/nihal-karkala-LlOfbQD-IJ0-unsplash.jpg",NA,NA
NA,0,NA,1,"body_parts",400,300,0,"Stimuli/Experimental_stims/localizer/body_parts/jannes-jacobs-pMQgDg_8z88-unsplash.jpg",NA,NA
NA,0,NA,1,"body_parts",400,300,0,"Stimuli/Experimental_stims/localizer/body_parts/wagner-santos-mBWMvIuVnso-unsplash.jpg",NA,NA
NA,0,NA,1,"body_parts",400,300,1,"Stimuli/Experimental_stims/localizer/body_parts/sincerely-media-QyzlAZjm0r0-unsplash.jpg",NA,NA
NA,0,NA,1,"body_parts",400,300,0,"Stimuli/Experimental_stims/localizer/body_parts/liv-bruce-M0oVPGsWk1E-unsplash.jpg",NA,NA
NA,0,NA,1,"body_parts",400,300,0,"Stimuli/Experimental_stims/localizer/body_parts/clay-banks-LjqARJaJotc-unsplash.jpg",NA,NA
NA,0,NA,1,"body_parts",400,300,0,"Stimuli/Experimental_stims/localizer/body_parts/david-fanuel-qnV8X7OViNY-unsplash.jpg",NA,NA
NA,0,NA,1,"body_parts",400,300,0,"Stimuli/Experimental_stims/localizer/body_parts/oz-seyrek-uVPeVPAWGpo-unsplash.jpg",NA,NA
NA,0,NA,1,"body_parts",400,300,0,"Stimuli/Experimental_stims/localizer/body_parts/freestocks-qw9LFf5T790-unsplash.jpg",NA,NA
NA,0,NA,1,"body_parts",400,300,0,"Stimuli/Experimental_stims/localizer/body_parts/juja-han-Z8-6EI2tYtw-unsplash.jpg",NA,NA
NA,0,NA,1,"body_parts",400,300,0,"Stimuli/Experimental_stims/localizer/body_parts/laura-chouette-z6HX83O2H_4-unsplash.jpg",NA,NA
NA,0,NA,1,"body_parts",400,300,0,"Stimuli/Experimental_stims/localizer/body_parts/anna-civolani-xMF00MCZvP0-unsplash.jpg",NA,NA
NA,0,NA,1,"body_parts",400,300,0,"Stimuli/Experimental_stims/localizer/body_parts/lilartsy-1KkhQ8uL28g-unsplash.jpg",NA,NA
NA,0,NA,1,"body_parts",400,300,0,"Stimuli/Experimental_stims/localizer/body_parts/apostolos-vamvouras-g5wKHRu2QW0-unsplash.jpg",NA,NA
NA,0,NA,1,"body_parts",400,300,0,"Stimuli/Experimental_stims/localizer/body_parts/sandra-seitamaa-YCc_YAAhY3I-unsplash.jpg",NA,NA
NA,0,NA,1,"body_parts",400,300,0,"Stimuli/Experimental_stims/localizer/body_parts/inge-poelman-XiCEx98PnUA-unsplash.jpg",NA,NA
NA,0,NA,1,"body_parts",400,300,1,"Stimuli/Experimental_stims/localizer/body_parts/mika-korhonen-Xodzxosar18-unsplash.jpg",NA,NA
NA,0,NA,1,"body_parts",400,300,0,"Stimuli/Experimental_stims/localizer/body_parts/nadine-shaabana-ypyaaEf2ntM-unsplash.jpg",NA,NA
NA,0,NA,1,"body_parts",400,14000,0,"Stimuli/Experimental_stims/localizer/body_parts/megan-menegay-UojxG_BJxnI-unsplash.jpg",NA,NA
NA,0,NA,1,"objects",400,300,0,"Stimuli/Experimental_stims/localizer/objects/mockup-graphics-v_a3DWpOFc0-unsplash.jpg",NA,NA
NA,0,NA,1,"objects",400,300,0,"Stimuli/Experimental_stims/localizer/objects/ana-9GmAaEMMKho-unsplash.jpg",NA,NA
NA,0,NA,1,"objects",400,300,0,"Stimuli/Experimental_stims/localizer/objects/rodion-kutsaiev-pFECUXvWaWU-unsplash.jpg",NA,NA
NA,0,NA,1,"objects",400,300,1,"Stimuli/Experimental_stims/localizer/objects/florian-klauer-mk7D-4UCfmg-unsplash.jpg",NA,NA
NA,0,NA,1,"objects",400,300,0,"Stimuli/Experimental_stims/localizer/objects/nordwood-themes-nDd3dIkkOLo-unsplash.jpg",NA,NA
NA,0,NA,1,"objects",400,300,0,"Stimuli/Experimental_stims/localizer/objects/dario-mendez-WmF_XLF4-Rs-unsplash.jpg",NA,NA
NA,0,NA,1,"objects",400,300,0,"Stimuli/Experimental_stims/localizer/objects/quino-al-4SNUcHPiC8c-unsplash.jpg",NA,NA
NA,0,NA,1,"objects",400,300,0,"Stimuli/Experimental_stims/localizer/objects/markus-spiske-ANrVtttbNss-unsplash.jpg",NA,NA
NA,0,NA,1,"objects",400,300,0,"Stimuli/Experimental_stims/localizer/objects/recha-oktaviani-t__61ap00Mc-unsplash.jpg",NA,NA
NA,0,NA,1,"objects",400,300,0,"Stimuli/Experimental_stims/localizer/objects/jonny-caspari-wsvCC6UyKjs-unsplash.jpg",NA,NA
NA,0,NA,1,"objects",400,300,0,"Stimuli/Experimental_stims/localizer/objects/mourizal-zativa-nRlZOmuuJwA-unsplash.jpg",NA,NA
NA,0,NA,1,"objects",400,300,0,"Stimuli/Experimental_stims/localizer/objects/mourizal-zativa-YGElTTrAaHM-unsplash.jpg",NA,NA
NA,0,NA,1,"objects",400,300,1,"Stimuli/Experimental_stims/localizer/objects/kristina-skoreva-v6o0uSjFw7Q-unsplash.jpg",NA,NA
NA,0,NA,1,"objects",400,300,0,"Stimuli/Experimental_stims/localizer/objects/thought-catalog-9aOswReDKPo-unsplash.jpg",NA,NA
NA,0,NA,1,"objects",400,300,0,"Stimuli/Experimental_stims/localizer/objects/mae-mu-9z-veIxii6k-unsplash.jpg",NA,NA
NA,0,NA,1,"objects",400,300,0,"Stimuli/Experimental_stims/localizer/objects/dan-cristian-padure-ezoshbcxWrM-unsplash.jpg",NA,NA
NA,0,NA,1,"objects",400,300,0,"Stimuli/Experimental_stims/localizer/objects/sam-moghadam-khamseh-xej3GOtAQ-o-unsplash.jpg",NA,NA
NA,0,NA,1,"objects",400,300,0,"Stimuli/Experimental_stims/localizer/objects/mae-mu-U1iYwZ8Dx7k-unsplash.jpg",NA,NA
NA,0,NA,1,"objects",400,300,0,"Stimuli/Experimental_stims/localizer/objects/quaritsch-photography-lZ8onQ1wuY8-unsplash.jpg",NA,NA
NA,0,NA,1,"objects",400,14000,0,"Stimuli/Experimental_stims/localizer/objects/adriano-pucciarelli-BE7yaZnZX6o-unsplash.jpg",NA,NA
NA,0,NA,1,"outdoor_scenes",400,300,0,"Stimuli/Experimental_stims/localizer/outdoor_scenes/alice-donovan-rouse-pZ61ZA8QgcY-unsplash.jpg",NA,NA
NA,0,NA,1,"outdoor_scenes",400,300,1,"Stimuli/Experimental_stims/localizer/outdoor_scenes/nicolas-jehly-LzVB84KkZOE-unsplash.jpg",NA,NA
NA,0,NA,1,"outdoor_scenes",400,300,0,"Stimuli/Experimental_stims/localizer/outdoor_scenes/willian-justen-de-vasconcellos-T_Qe4QlMIvQ-unsplash.jpg",NA,NA
NA,0,NA,1,"outdoor_scenes",400,300,0,"Stimuli/Experimental_stims/localizer/outdoor_scenes/luca-micheli-ruWkmt3nU58-unsplash.jpg",NA,NA
NA,0,NA,1,"outdoor_scenes",400,300,0,"Stimuli/Experimental_stims/localizer/outdoor_scenes/sean-oulashin-KMn4VEeEPR8-unsplash.jpg",NA,NA
NA,0,NA,1,"outdoor_scenes",400,300,1,"Stimuli/Experimental_stims/localizer/outdoor_scenes/daniel-sessler-z_9VmsxR8hs-unsplash.jpg",NA,NA
NA,0,NA,1,"outdoor_scenes",400,300,0,"Stimuli/Experimental_stims/localizer/outdoor_scenes/derek-mack-CcRZ4k3c6gA-unsplash.jpg",NA,NA
NA,0,NA,1,"outdoor_scenes",400,300,0,"Stimuli/Experimental_stims/localizer/outdoor_scenes/jay-cai-F_laX9E8CUo-unsplash.jpg",NA,NA
NA,0,NA,1,"outdoor_scenes",400,300,0,"Stimuli/Experimental_stims/localizer/outdoor_scenes/solotravelgoals-7kLufxYoqWk-unsplash.jpg",NA,NA
NA,0,NA,1,"outdoor_scenes",400,300,0,"Stimuli/Experimental_stims/localizer/outdoor_scenes/hendrik-cornelissen--qrcOR33ErA-unsplash.jpg",NA,NA
NA,0,NA,1,"outdoor_scenes",400,300,0,"Stimuli/Experimental_stims/localizer/outdoor_scenes/mark-harpur-K2s_YE031CA-unsplash.jpg",NA,NA
NA,0,NA,1,"outdoor_scenes",400,300,0,"Stimuli/Experimental_stims/localizer/outdoor_scenes/chang-qing-2YQoKbyGvDc-unsplash.jpg",NA,NA
NA,0,NA,1,"outdoor_scenes",400,300,0,"Stimuli/Experimental_stims/localizer/outdoor_scenes/quino-al-mBQIfKlvowM-unsplash.jpg",NA,NA
NA,0,NA,1,"outdoor_scenes",400,300,0,"Stimuli/Experimental_stims/localizer/outdoor_scenes/pascal-debrunner-1WQ5RZuH9xo-unsplash.jpg",NA,NA
NA,0,NA,1,"outdoor_scenes",400,300,0,"Stimuli/Experimental_stims/localizer/outdoor_scenes/henry-be-IicyiaPYGGI-unsplash.jpg",NA,NA
NA,0,NA,1,"outdoor_scenes",400,300,0,"Stimuli/Experimental_stims/localizer/outdoor_scenes/wil-stewart-pHANr-CpbYM-unsplash.jpg",NA,NA
NA,0,NA,1,"outdoor_scenes",400,300,0,"Stimuli/Experimental_stims/localizer/outdoor_scenes/quentin-zwzeorQPepo-unsplash.jpg",NA,NA
NA,0,NA,1,"outdoor_scenes",400,300,0,"Stimuli/Experimental_stims/localizer/outdoor_scenes/johny-goerend-U_diPCXCBxU-unsplash.jpg",NA,NA
NA,0,NA,1,"outdoor_scenes",400,300,0,"Stimuli/Experimental_stims/localizer/outdoor_scenes/nathan-anderson-5-jtsfuaLBw-unsplash.jpg",NA,NA
NA,0,NA,1,"outdoor_scenes",400,14000,0,"Stimuli/Experimental_stims/localizer/outdoor_scenes/ales-krivec-hsX9KpLLsIE-unsplash.jpg",NA,NA
NA,0,NA,1,"faces",400,300,0,"Stimuli/Experimental_stims/localizer/faces/christina-wocintechchat-com-0Zx1bDv5BNY-unsplash.jpg",NA,NA
NA,0,NA,1,"faces",400,300,0,"Stimuli/Experimental_stims/localizer/faces/mathias-huysmans-U4JDjYmjn1g-unsplash.jpg",NA,NA
NA,0,NA,1,"faces",400,300,1,"Stimuli/Experimental_stims/localizer/faces/leon-elldot-f6HbVnGtNnY-unsplash.jpg",NA,NA
NA,0,NA,1,"faces",400,300,0,"Stimuli/Experimental_stims/localizer/faces/aiony-haust-K0DxxljcRv0-unsplash.jpg",NA,NA
NA,0,NA,1,"faces",400,300,0,"Stimuli/Experimental_stims/localizer/faces/jeffery-erhunse-BQMZ5ligqps-unsplash.jpg",NA,NA
NA,0,NA,1,"faces",400,300,0,"Stimuli/Experimental_stims/localizer/faces/david-siglin-UuW4psOb388-unsplash.jpg",NA,NA
NA,0,NA,1,"faces",400,300,0,"Stimuli/Experimental_stims/localizer/faces/terricks-noah-n9R0MN3XGvY-unsplash.jpg",NA,NA
NA,0,NA,1,"faces",400,300,0,"Stimuli/Experimental_stims/localizer/faces/rafaella-mendes-diniz-et_78QkMMQs-unsplash.jpg",NA,NA
NA,0,NA,1,"faces",400,300,0,"Stimuli/Experimental_stims/localizer/faces/ivan-dodig-R21SyyJDFgc-unsplash.jpg",NA,NA
NA,0,NA,1,"faces",400,300,0,"Stimuli/Experimental_stims/localizer/faces/senjuti-kundu-JfolIjRnveY-unsplash.jpg",NA,NA
NA,0,NA,1,"faces",400,300,1,"Stimuli/Experimental_stims/localizer/faces/hisu-lee-2qvxIr_DXGo-unsplash.jpg",NA,NA
NA,0,NA,1,"faces",400,300,0,"Stimuli/Experimental_stims/localizer/faces/toa-heftiba-2O1EUSTRBrY-unsplash.jpg",NA,NA
NA,0,NA,1,"faces",400,300,0,"Stimuli/Experimental_stims/localizer/faces/hassan-khan-EGVccebWodM-unsplash.jpg",NA,NA
NA,0,NA,1,"faces",400,300,0,"Stimuli/Experimental_stims/localizer/faces/foto-sushi-6anudmpILw4-unsplash.jpg",NA,NA
NA,0,NA,1,"faces",400,300,0,"Stimuli/Experimental_stims/localizer/faces/imansyah-muhamad-putera-n4KewLKFOZw-unsplash.jpg",NA,NA
NA,0,NA,1,"faces",400,300,0,"Stimuli/Experimental_stims/localizer/faces/drew-hays-agGIKYs4mYs-unsplash.jpg",NA,NA
NA,0,NA,1,"faces",400,300,0,"Stimuli/Experimental_stims/localizer/faces/tyler-nix-ZGa9d1a_4tA-unsplash.jpg",NA,NA
NA,0,NA,1,"faces",400,300,0,"Stimuli/Experimental_stims/localizer/faces/allef-vinicius-C_1jjFJioWg-unsplash.jpg",NA,NA
NA,0,NA,1,"faces",400,300,0,"Stimuli/Experimental_stims/localizer/faces/carlos-vaz-KP4bxnxAilU-unsplash.jpg",NA,NA
NA,0,NA,1,"faces",400,14000,0,"Stimuli/Experimental_stims/localizer/faces/ayo-ogunseinde-sibVwORYqs0-unsplash.jpg",NA,NA
NA,0,NA,1,"body_parts",400,300,0,"Stimuli/Experimental_stims/localizer/body_parts/jan-romero-DL4DDQb8yjc-unsplash.jpg",NA,NA
NA,0,NA,1,"body_parts",400,300,0,"Stimuli/Experimental_stims/localizer/body_parts/ignacio-campo-tC9boyqy_40-unsplash.jpg",NA,NA
NA,0,NA,1,"body_parts",400,300,0,"Stimuli/Experimental_stims/localizer/body_parts/meghan-thompson-U1b8OB0QpIo-unsplash.jpg",NA,NA
NA,0,NA,1,"body_parts",400,300,0,"Stimuli/Experimental_stims/localizer/body_parts/toa-heftiba-qxvWnfHb3-M-unsplash.jpg",NA,NA
NA,0,NA,1,"body_parts",400,300,0,"Stimuli/Experimental_stims/localizer/body_parts/toan-nguyen-VIeLuUFzesg-unsplash.jpg",NA,NA
NA,0,NA,1,"body_parts",400,300,0,"Stimuli/Experimental_stims/localizer/body_parts/conscious-design-nyxX6mk7xf0-unsplash.jpg",NA,NA
NA,0,NA,1,"body_parts",400,300,0,"Stimuli/Experimental_stims/localizer/body_parts/nick-page-jAGdpOGvLAA-unsplash.jpg",NA,NA
NA,0,NA,1,"body_parts",400,300,0,"Stimuli/Experimental_stims/localizer/body_parts/helen-ast-l2iY5Sh0mTg-unsplash.jpg",NA,NA
NA,0,NA,1,"body_parts",400,300,0,"Stimuli/Experimental_stims/localizer/body_parts/ivan-pergasi-Q2C6MpQb6KQ-unsplash.jpg",NA,NA
NA,0,NA,1,"body_parts",400,300,0,"Stimuli/Experimental_stims/localizer/body_parts/juan-manuel-sanchez-lTuA_3LKGL8-unsplash.jpg",NA,NA
NA,0,NA,1,"body_parts",400,300,1,"Stimuli/Experimental_stims/localizer/body_parts/bady-abbas-pIySu25o0bM-unsplash.jpg",NA,NA
NA,0,NA,1,"body_parts",400,300,0,"Stimuli/Experimental_stims/localizer/body_parts/manki-kim-ZtwwncrD4A0-unsplash.jpg",NA,NA
NA,0,NA,1,"body_parts",400,300,0,"Stimuli/Experimental_stims/localizer/body_parts/davidcohen-qghuLqyh3nE-unsplash.jpg",NA,NA
NA,0,NA,1,"body_parts",400,300,0,"Stimuli/Experimental_stims/localizer/body_parts/deborah-diem-ieVxpPjl1e0-unsplash.jpg",NA,NA
NA,0,NA,1,"body_parts",400,300,0,"Stimuli/Experimental_stims/localizer/body_parts/jesus-boscan-T9iiLRtHTAw-unsplash.jpg",NA,NA
NA,0,NA,1,"body_parts",400,300,0,"Stimuli/Experimental_stims/localizer/body_parts/sincerely-media-pdynOoM7xmA-unsplash.jpg",NA,NA
NA,0,NA,1,"body_parts",400,300,0,"Stimuli/Experimental_stims/localizer/body_parts/niu-niu-5HzOtV-FSlw-unsplash.jpg",NA,NA
NA,0,NA,1,"body_parts",400,300,1,"Stimuli/Experimental_stims/localizer/body_parts/charles-etoroma-1fo0biloDOc-unsplash.jpg",NA,NA
NA,0,NA,1,"body_parts",400,300,0,"Stimuli/Experimental_stims/localizer/body_parts/towfiqu-barbhuiya-3AsiVDsZnHg-unsplash.jpg",NA,NA
NA,0,NA,1,"body_parts",400,14000,0,"Stimuli/Experimental_stims/localizer/body_parts/sincerely-media-3DZHTq_i7Qk-unsplash.jpg",NA,NA
NA,0,NA,1,"objects",400,300,0,"Stimuli/Experimental_stims/localizer/objects/thomas-stephan-ygW2Hn3PTSI-unsplash.jpg",NA,NA
NA,0,NA,1,"objects",400,300,0,"Stimuli/Experimental_stims/localizer/objects/yossy-made-yulian-WaEqwDSIeTY-unsplash.jpg",NA,NA
NA,0,NA,1,"objects",400,300,0,"Stimuli/Experimental_stims/localizer/objects/mae-mu-yl2d0CKW130-unsplash.jpg",NA,NA
NA,0,NA,1,"objects",400,300,0,"Stimuli/Experimental_stims/localizer/objects/paul-gaudriault-a-QH9MAAVNI-unsplash.jpg",NA,NA
NA,0,NA,1,"objects",400,300,0,"Stimuli/Experimental_stims/localizer/objects/yoann-siloine-_T4w3JDm6ug-unsplash.jpg",NA,NA
NA,0,NA,1,"objects",400,300,0,"Stimuli/Experimental_stims/localizer/objects/leohoho-rngTKHXumy0-unsplash.jpg",NA,NA
NA,0,NA,1,"objects",400,300,0,"Stimuli/Experimental_stims/localizer/objects/sam-moghadam-khamseh-kvmdsTrGOBM-unsplash.jpg",NA,NA
NA,0,NA,1,"objects",400,300,1,"Stimuli/Experimental_stims/localizer/objects/mae-mu-_C5zsV_p-YI-unsplash.jpg",NA,NA
NA,0,NA,1,"objects",400,300,0,"Stimuli/Experimental_stims/localizer/objects/charlesdeluvio-RDjZh9dqlP4-unsplash.jpg",NA,NA
NA,0,NA,1,"objects",400,300,0,"Stimuli/Experimental_stims/localizer/objects/collab-media-eddtBBbaw0Y-unsplash.jpg",NA,NA
NA,0,NA,1,"objects",400,300,1,"Stimuli/Experimental_stims/localizer/objects/nordwood-themes-E9tFH39iRPE-unsplash.jpg",NA,NA
NA,0,NA,1,"objects",400,300,0,"Stimuli/Experimental_stims/localizer/objects/mockup-graphics-haSJEJYzl5A-unsplash.jpg",NA,NA
NA,0,NA,1,"objects",400,300,0,"Stimuli/Experimental_stims/localizer/objects/designecologist-hvgd0ygXuQQ-unsplash.jpg",NA,NA
NA,0,NA,1,"objects",400,300,0,"Stimuli/Experimental_stims/localizer/objects/saif71-com-VIKdvmGUhq8-unsplash.jpg",NA,NA
NA,0,NA,1,"objects",400,300,0,"Stimuli/Experimental_stims/localizer/objects/charlesdeluvio-1-nx1QR5dTE-unsplash.jpg",NA,NA
NA,0,NA,1,"objects",400,300,0,"Stimuli/Experimental_stims/localizer/objects/carlos-felipe-ramirez-mesa-x9g65MOXsPY-unsplash.jpg",NA,NA
NA,0,NA,1,"objects",400,300,0,"Stimuli/Experimental_stims/localizer/objects/chris-briggs-x9TCnxNBofE-unsplash.jpg",NA,NA
NA,0,NA,1,"objects",400,300,0,"Stimuli/Experimental_stims/localizer/objects/namroud-gorguis-FZWivbri0Xk-unsplash.jpg",NA,NA
NA,0,NA,1,"objects",400,300,0,"Stimuli/Experimental_stims/localizer/objects/ian-talmacs-wr4CnlEg_5s-unsplash.jpg",NA,NA
NA,0,NA,1,"objects",400,14000,0,"Stimuli/Experimental_stims/localizer/objects/quino-al-8gWEAAXJjtI-unsplash.jpg",NA,NA
NA,0,NA,1,"outdoor_scenes",400,300,1,"Stimuli/Experimental_stims/localizer/outdoor_scenes/darrell-cassell-hoCXpPUMCoE-unsplash.jpg",NA,NA
NA,0,NA,1,"outdoor_scenes",400,300,0,"Stimuli/Experimental_stims/localizer/outdoor_scenes/jj-ying-9Qwbfa_RM94-unsplash.jpg",NA,NA
NA,0,NA,1,"outdoor_scenes",400,300,0,"Stimuli/Experimental_stims/localizer/outdoor_scenes/erol-ahmed-d3pTF3r_hwY-unsplash.jpg",NA,NA
NA,0,NA,1,"outdoor_scenes",400,300,0,"Stimuli/Experimental_stims/localizer/outdoor_scenes/daniel-roe-lpjb_UMOyx8-unsplash.jpg",NA,NA
NA,0,NA,1,"outdoor_scenes",400,300,0,"Stimuli/Experimental_stims/localizer/outdoor_scenes/lukasz-szmigiel-jFCViYFYcus-unsplash (1).jpg",NA,NA
NA,0,NA,1,"outdoor_scenes",400,300,0,"Stimuli/Experimental_stims/localizer/outdoor_scenes/neom-THlO6Mkf5uI-unsplash.jpg",NA,NA
NA,0,NA,1,"outdoor_scenes",400,300,1,"Stimuli/Experimental_stims/localizer/outdoor_scenes/antoine-beauvillain-qrPqGP-SG8w-unsplash.jpg",NA,NA
NA,0,NA,1,"outdoor_scenes",400,300,0,"Stimuli/Experimental_stims/localizer/outdoor_scenes/cosmic-timetraveler-pYyOZ8q7AII-unsplash.jpg",NA,NA
NA,0,NA,1,"outdoor_scenes",400,300,0,"Stimuli/Experimental_stims/localizer/outdoor_scenes/wai-siew-mTFyV8oNDzU-unsplash.jpg",NA,NA
NA,0,NA,1,"outdoor_scenes",400,300,0,"Stimuli/Experimental_stims/localizer/outdoor_scenes/simon-berger-UqCnDyc_3vA-unsplash.jpg",NA,NA
NA,0,NA,1,"outdoor_scenes",400,300,0,"Stimuli/Experimental_stims/localizer/outdoor_scenes/sabeer-darr-Upz-tnx2v2s-unsplash.jpg",NA,NA
NA,0,NA,1,"outdoor_scenes",400,300,0,"Stimuli/Experimental_stims/localizer/outdoor_scenes/toni-lluch-JoRoy500nCc-unsplash.jpg",NA,NA
NA,0,NA,1,"outdoor_scenes",400,300,0,"Stimuli/Experimental_stims/localizer/outdoor_scenes/eberhard-grossgasteiger-y2azHvupCVo-unsplash.jpg",NA,NA
NA,0,NA,1,"outdoor_scenes",400,300,0,"Stimuli/Experimental_stims/localizer/outdoor_scenes/pietro-de-grandi-T7K4aEPoGGk-unsplash.jpg",NA,NA
NA,0,NA,1,"outdoor_scenes",400,300,0,"Stimuli/Experimental_stims/localizer/outdoor_scenes/dawid-zawila--G3rw6Y02D0-unsplash.jpg",NA,NA
NA,0,NA,1,"outdoor_scenes",400,300,0,"Stimuli/Experimental_stims/localizer/outdoor_scenes/john-mark-arnold-XNIjmb6Ax04-unsplash.jpg",NA,NA
NA,0,NA,1,"outdoor_scenes",400,300,0,"Stimuli/Experimental_stims/localizer/outdoor_scenes/leonard-cotte-c1Jp-fo53U8-unsplash.jpg",NA,NA
NA,0,NA,1,"outdoor_scenes",400,300,0,"Stimuli/Experimental_stims/localizer/outdoor_scenes/jeremy-cai-ucYWe5mzTMU-unsplash.jpg",NA,NA
NA,0,NA,1,"outdoor_scenes",400,300,0,"Stimuli/Experimental_stims/localizer/outdoor_scenes/adam-kool-ndN00KmbJ1c-unsplash.jpg",NA,NA
NA,0,NA,1,"outdoor_scenes",400,14000,0,"Stimuli/Experimental_stims/localizer/outdoor_scenes/marcelo-quinan-u0ZgqJD55pE-unsplash.jpg",NA,NA
NA,0,NA,1,"faces",400,300,0,"Stimuli/Experimental_stims/localizer/faces/danie-franco-A6O7pgc7vHg-unsplash.jpg",NA,NA
NA,0,NA,1,"faces",400,300,0,"Stimuli/Experimental_stims/localizer/faces/sean-kong--1B_y4wGs-s-unsplash.jpg",NA,NA
NA,0,NA,1,"faces",400,300,0,"Stimuli/Experimental_stims/localizer/faces/etty-fidele-nF8eo2nX374-unsplash.jpg",NA,NA
NA,0,NA,1,"faces",400,300,0,"Stimuli/Experimental_stims/localizer/faces/jake-nackos-IF9TK5Uy-KI-unsplash.jpg",NA,NA
NA,0,NA,1,"faces",400,300,0,"Stimuli/Experimental_stims/localizer/faces/james-marty-h1BuNJZzpC8-unsplash.jpg",NA,NA
NA,0,NA,1,"faces",400,300,0,"Stimuli/Experimental_stims/localizer/faces/ravi-patel-VMGAbeeJTKo-unsplash.jpg",NA,NA
NA,0,NA,1,"faces",400,300,0,"Stimuli/Experimental_stims/localizer/faces/ivana-cajina-_7LbC5J-jw4-unsplash.jpg",NA,NA
NA,0,NA,1,"faces",400,300,0,"Stimuli/Experimental_stims/localizer/faces/whereslugo-zl_fPgiwduo-unsplash.jpg",NA,NA
NA,0,NA,1,"faces",400,300,1,"Stimuli/Experimental_stims/localizer/faces/aleksandar-popovski-Jy4ELSGPHTc-unsplash.jpg",NA,NA
NA,0,NA,1,"faces",400,300,0,"Stimuli/Experimental_stims/localizer/faces/christopher-campbell-rDEOVtE7vOs-unsplash.jpg",NA,NA
NA,0,NA,1,"faces",400,300,0,"Stimuli/Experimental_stims/localizer/faces/filipe-almeida-mnEWC72eWDM-unsplash.jpg",NA,NA
NA,0,NA,1,"faces",400,300,0,"Stimuli/Experimental_stims/localizer/faces/prince-akachi-LWkFHEGpleE-unsplash.jpg",NA,NA
NA,0,NA,1,"faces",400,300,0,"Stimuli/Experimental_stims/localizer/faces/matheus-ferrero-W7b3eDUb_2I-unsplash.jpg",NA,NA
NA,0,NA,1,"faces",400,300,0,"Stimuli/Experimental_stims/localizer/faces/chanvre-quebec-mXu1SpzHq6w-unsplash.jpg",NA,NA
NA,0,NA,1,"faces",400,300,1,"Stimuli/Experimental_stims/localizer/faces/alexis-chloe-TYDkKEgc0Fg-unsplash.jpg",NA,NA
NA,0,NA,1,"faces",400,300,0,"Stimuli/Experimental_stims/localizer/faces/cdc-ddKBuWekZr0-unsplash.jpg",NA,NA
NA,0,NA,1,"faces",400,300,0,"Stimuli/Experimental_stims/localizer/faces/jurica-koletic-7YVZYZeITc8-unsplash.jpg",NA,NA
NA,0,NA,1,"faces",400,300,0,"Stimuli/Experimental_stims/localizer/faces/ihor-saveliev-3POm-bxWIN8-unsplash.jpg",NA,NA
NA,0,NA,1,"faces",400,300,0,"Stimuli/Experimental_stims/localizer/faces/samuel-dixon--fQ5XNOcqFQ-unsplash.jpg",NA,NA
NA,0,NA,1,"faces",400,14000,0,"Stimuli/Experimental_stims/localizer/faces/gabriel-silverio-u3WmDyKGsrY-unsplash.jpg",NA,NA
NA,0,NA,1,"objects",400,300,1,"Stimuli/Experimental_stims/localizer/objects/nicolas-hippert-kfr_eSrR08M-unsplash.jpg",NA,NA
NA,0,NA,1,"objects",400,300,0,"Stimuli/Experimental_stims/localizer/objects/ruslan-bardash-4kTbAMRAHtQ-unsplash.jpg",NA,NA
NA,0,NA,1,"objects",400,300,0,"Stimuli/Experimental_stims/localizer/objects/ryunosuke-kikuno-viEzuL1ouDs-unsplash.jpg",NA,NA
NA,0,NA,1,"objects",400,300,0,"Stimuli/Experimental_stims/localizer/objects/charlesdeluvio-0v_1TPz1uXw-unsplash.jpg",NA,NA
NA,0,NA,1,"objects",400,300,0,"Stimuli/Experimental_stims/localizer/objects/diana-polekhina-Q3t49sVquH0-unsplash.jpg",NA,NA
NA,0,NA,1,"objects",400,300,0,"Stimuli/Experimental_stims/localizer/objects/hari-krishnan-qVwe5ZwKRig-unsplash.jpg",NA,NA
NA,0,NA,1,"objects",400,300,0,"Stimuli/Experimental_stims/localizer/objects/mae-mu-vbAEHCrvXZ0-unsplash.jpg",NA,NA
NA,0,NA,1,"objects",400,300,0,"Stimuli/Experimental_stims/localizer/objects/miti-MZPdB1DU4a4-unsplash.jpg",NA,NA
NA,0,NA,1,"objects",400,300,0,"Stimuli/Experimental_stims/localizer/objects/nicolas-hippert-SVgX47QIUlc-unsplash.jpg",NA,NA
NA,0,NA,1,"objects",400,300,0,"Stimuli/Experimental_stims/localizer/objects/ales-krivec-ZMZHcvIVgbg-unsplash.jpg",NA,NA
NA,0,NA,1,"objects",400,300,1,"Stimuli/Experimental_stims/localizer/objects/mockup-graphics-q7BJL1qZ1Bw-unsplash.jpg",NA,NA
NA,0,NA,1,"objects",400,300,0,"Stimuli/Experimental_stims/localizer/objects/eugene-chystiakov-3neSwyntbQ8-unsplash.jpg",NA,NA
NA,0,NA,1,"objects",400,300,0,"Stimuli/Experimental_stims/localizer/objects/annie-spratt-fbAnIjhrOL4-unsplash.jpg",NA,NA
NA,0,NA,1,"objects",400,300,0,"Stimuli/Experimental_stims/localizer/objects/aldi-sigun-K-sdQ12jZeY-unsplash.jpg",NA,NA
NA,0,NA,1,"objects",400,300,0,"Stimuli/Experimental_stims/localizer/objects/girl-with-red-hat-Xxg-r574pLE-unsplash.jpg",NA,NA
NA,0,NA,1,"objects",400,300,0,"Stimuli/Experimental_stims/localizer/objects/c-d-x-PDX_a_82obo-unsplash.jpg",NA,NA
NA,0,NA,1,"objects",400,300,0,"Stimuli/Experimental_stims/localizer/objects/mockup-graphics-paOhdpqcYuY-unsplash.jpg",NA,NA
NA,0,NA,1,"objects",400,300,0,"Stimuli/Experimental_stims/localizer/objects/sam-moghadam-khamseh-L_7MQsHl_aU-unsplash.jpg",NA,NA
NA,0,NA,1,"objects",400,300,0,"Stimuli/Experimental_stims/localizer/objects/saif71-com-NnPiILRe7pY-unsplash.jpg",NA,NA
NA,0,NA,1,"objects",400,14000,0,"Stimuli/Experimental_stims/localizer/objects/maria-lupan-Rlakka_pZMU-unsplash.jpg",NA,NA
NA,0,NA,1,"outdoor_scenes",400,300,0,"Stimuli/Experimental_stims/localizer/outdoor_scenes/jordan-heath-4z_SYrG5mgA-unsplash.jpg",NA,NA
NA,0,NA,1,"outdoor_scenes",400,300,1,"Stimuli/Experimental_stims/localizer/outdoor_scenes/bruno-van-der-kraan-qez8mNJ3ilU-unsplash.jpg",NA,NA
NA,0,NA,1,"outdoor_scenes",400,300,0,"Stimuli/Experimental_stims/localizer/outdoor_scenes/billy-huynh-Umh6cEf4V8s-unsplash.jpg",NA,NA
NA,0,NA,1,"outdoor_scenes",400,300,0,"Stimuli/Experimental_stims/localizer/outdoor_scenes/kenneth-thewissen-D76DklsG-5U-unsplash.jpg",NA,NA
NA,0,NA,1,"outdoor_scenes",400,300,0,"Stimuli/Experimental_stims/localizer/outdoor_scenes/kalen-emsley-Bkci_8qcdvQ-unsplash.jpg",NA,NA
NA,0,NA,1,"outdoor_scenes",400,300,0,"Stimuli/Experimental_stims/localizer/outdoor_scenes/david-marcu-78A265wPiO4-unsplash.jpg",NA,NA
NA,0,NA,1,"outdoor_scenes",400,300,0,"Stimuli/Experimental_stims/localizer/outdoor_scenes/danyu-wang-sR7_ImYvt1Q-unsplash.jpg",NA,NA
NA,0,NA,1,"outdoor_scenes",400,300,0,"Stimuli/Experimental_stims/localizer/outdoor_scenes/keith-hardy-PP8Escz15d8-unsplash.jpg",NA,NA
NA,0,NA,1,"outdoor_scenes",400,300,1,"Stimuli/Experimental_stims/localizer/outdoor_scenes/andres-sanz-uILhNE1VcwA-unsplash.jpg",NA,NA
NA,0,NA,1,"outdoor_scenes",400,300,0,"Stimuli/Experimental_stims/localizer/outdoor_scenes/shannon-kunkle-dM8INmkyDas-unsplash.jpg",NA,NA
NA,0,NA,1,"outdoor_scenes",400,300,0,"Stimuli/Experimental_stims/localizer/outdoor_scenes/jack-millard-zjyP-UYI-ko-unsplash.jpg",NA,NA
NA,0,NA,1,"outdoor_scenes",400,300,0,"Stimuli/Experimental_stims/localizer/outdoor_scenes/ken-cheung-KonWFWUaAuk-unsplash.jpg",NA,NA
NA,0,NA,1,"outdoor_scenes",400,300,0,"Stimuli/Experimental_stims/localizer/outdoor_scenes/fabian-quintero-UWQP2mh5YJI-unsplash.jpg",NA,NA
NA,0,NA,1,"outdoor_scenes",400,300,0,"Stimuli/Experimental_stims/localizer/outdoor_scenes/casey-horner-75_s8iWHKLs-unsplash.jpg",NA,NA
NA,0,NA,1,"outdoor_scenes",400,300,0,"Stimuli/Experimental_stims/localizer/outdoor_scenes/julien-lavallee-X2DE1VmN7x4-unsplash.jpg",NA,NA
NA,0,NA,1,"outdoor_scenes",400,300,0,"Stimuli/Experimental_stims/localizer/outdoor_scenes/gabriel-garcia-marengo-ht9aLtovtSo-unsplash.jpg",NA,NA
NA,0,NA,1,"outdoor_scenes",400,300,0,"Stimuli/Experimental_stims/localizer/outdoor_scenes/kalen-emsley-_LuLiJc1cdo-unsplash.jpg",NA,NA
NA,0,NA,1,"outdoor_scenes",400,300,0,"Stimuli/Experimental_stims/localizer/outdoor_scenes/sebastian-unrau-v4e3JI7DDHI-unsplash.jpg",NA,NA
NA,0,NA,1,"outdoor_scenes",400,300,0,"Stimuli/Experimental_stims/localizer/outdoor_scenes/tim-swaan-eOpewngf68w-unsplash (1).jpg",NA,NA
NA,0,NA,1,"outdoor_scenes",400,14000,0,"Stimuli/Experimental_stims/localizer/outdoor_scenes/alessio-furlan-Vw3a0HgE7AM-unsplash.jpg",NA,NA
NA,0,NA,1,"body_parts",400,300,0,"Stimuli/Experimental_stims/localizer/body_parts/louis-hansel-FjKTMRTQYAs-unsplash.jpg",NA,NA
NA,0,NA,1,"body_parts",400,300,0,"Stimuli/Experimental_stims/localizer/body_parts/hadis-safari-IsYApVdZb5I-unsplash.jpg",NA,NA
NA,0,NA,1,"body_parts",400,300,0,"Stimuli/Experimental_stims/localizer/body_parts/carlos-henrique-NAOJKwZswbs-unsplash.jpg",NA,NA
NA,0,NA,1,"body_parts",400,300,0,"Stimuli/Experimental_stims/localizer/body_parts/ira-vishnevskaya-8DQAvdCby1I-unsplash.jpg",NA,NA
NA,0,NA,1,"body_parts",400,300,0,"Stimuli/Experimental_stims/localizer/body_parts/wc-so-KH4AAPjb-tI-unsplash.jpg",NA,NA
NA,0,NA,1,"body_parts",400,300,0,"Stimuli/Experimental_stims/localizer/body_parts/cristofer-maximilian-iljmM23aZrY-unsplash.jpg",NA,NA
NA,0,NA,1,"body_parts",400,300,0,"Stimuli/Experimental_stims/localizer/body_parts/ekaterina-kuznetsova-RVWopXvxMxE-unsplash.jpg",NA,NA
NA,0,NA,1,"body_parts",400,300,1,"Stimuli/Experimental_stims/localizer/body_parts/kai-wenzel-zYDJOxjaZrQ-unsplash.jpg",NA,NA
NA,0,NA,1,"body_parts",400,300,0,"Stimuli/Experimental_stims/localizer/body_parts/manuel-schinner-ZwjFuJ7ebpk-unsplash.jpg",NA,NA
NA,0,NA,1,"body_parts",400,300,0,"Stimuli/Experimental_stims/localizer/body_parts/femme-spirit-RGYBDUHYbyM-unsplash.jpg",NA,NA
NA,0,NA,1,"body_parts",400,300,0,"Stimuli/Experimental_stims/localizer/body_parts/priscilla-du-preez-e6fcNpur53A-unsplash.jpg",NA,NA
NA,0,NA,1,"body_parts",400,300,0,"Stimuli/Experimental_stims/localizer/body_parts/sincerely-media-9Zf6yh7RYbQ-unsplash.jpg",NA,NA
NA,0,NA,1,"body_parts",400,300,0,"Stimuli/Experimental_stims/localizer/body_parts/adrien-king-XzBluXxBoyQ-unsplash.jpg",NA,NA
NA,0,NA,1,"body_parts",400,300,0,"Stimuli/Experimental_stims/localizer/body_parts/pure-julia-E9Q4bqYHtIM-unsplash.jpg",NA,NA
NA,0,NA,1,"body_parts",400,300,0,"Stimuli/Experimental_stims/localizer/body_parts/betzy-arosemena-YHdgnygtVCQ-unsplash.jpg",NA,NA
NA,0,NA,1,"body_parts",400,300,0,"Stimuli/Experimental_stims/localizer/body_parts/diana-polekhina-SwWjCbIIoFE-unsplash.jpg",NA,NA
NA,0,NA,1,"body_parts",400,300,0,"Stimuli/Experimental_stims/localizer/body_parts/matthew-henry-p-ppCccUZiU-unsplash.jpg",NA,NA
NA,0,NA,1,"body_parts",400,300,0,"Stimuli/Experimental_stims/localizer/body_parts/marcel-fagin-OUYg0Q3ec-Y-unsplash.jpg",NA,NA
NA,0,NA,1,"body_parts",400,300,0,"Stimuli/Experimental_stims/localizer/body_parts/billie-5OXE3KjDEfI-unsplash.jpg",NA,NA
NA,0,NA,1,"body_parts",400,14000,1,"Stimuli/Experimental_stims/localizer/body_parts/sydney-herron-b2W04fGuS70-unsplash.jpg",NA,NA
NA,0,NA,1,"faces",400,300,0,"Stimuli/Experimental_stims/localizer/faces/icons8-team-6LZuSzSwso0-unsplash.jpg",NA,NA
NA,0,NA,1,"faces",400,300,0,"Stimuli/Experimental_stims/localizer/faces/ben-white-qDY9ahp0Mto-unsplash.jpg",NA,NA
NA,0,NA,1,"faces",400,300,0,"Stimuli/Experimental_stims/localizer/faces/binh-ly-k_4A59MzZTY-unsplash.jpg",NA,NA
NA,0,NA,1,"faces",400,300,0,"Stimuli/Experimental_stims/localizer/faces/darshan-patel-QJEVpydulGs-unsplash.jpg",NA,NA
NA,0,NA,1,"faces",400,300,0,"Stimuli/Experimental_stims/localizer/faces/olena-sergienko-XttWKETqCCQ-unsplash.jpg",NA,NA
NA,0,NA,1,"faces",400,300,0,"Stimuli/Experimental_stims/localizer/faces/brooke-cagle-Nm70URdtf3c-unsplash (1).jpg",NA,NA
NA,0,NA,1,"faces",400,300,0,"Stimuli/Experimental_stims/localizer/faces/cesar-rincon-XHVpWcr5grQ-unsplash.jpg",NA,NA
NA,0,NA,1,"faces",400,300,0,"Stimuli/Experimental_stims/localizer/faces/ayo-ogunseinde-6W4F62sN_yI-unsplash.jpg",NA,NA
NA,0,NA,1,"faces",400,300,1,"Stimuli/Experimental_stims/localizer/faces/christian-ferrer-8vT-DgHZDG4-unsplash.jpg",NA,NA
NA,0,NA,1,"faces",400,300,0,"Stimuli/Experimental_stims/localizer/faces/toa-heftiba-O3ymvT7Wf9U-unsplash.jpg",NA,NA
NA,0,NA,1,"faces",400,300,0,"Stimuli/Experimental_stims/localizer/faces/joseph-gonzalez-iFgRcqHznqg-unsplash.jpg",NA,NA
NA,0,NA,1,"faces",400,300,0,"Stimuli/Experimental_stims/localizer/faces/pavel-anoshin-d0peGya6R5Y-unsplash.jpg",NA,NA
NA,0,NA,1,"faces",400,300,0,"Stimuli/Experimental_stims/localizer/faces/mubariz-mehdizadeh-Py8F6-hRn5o-unsplash.jpg",NA,NA
NA,0,NA,1,"faces",400,300,0,"Stimuli/Experimental_stims/localizer/faces/robert-godwin-cdksyTqEXzo-unsplash.jpg",NA,NA
NA,0,NA,1,"faces",400,300,0,"Stimuli/Experimental_stims/localizer/faces/christian-buehner-DItYlc26zVI-unsplash.jpg",NA,NA
NA,0,NA,1,"faces",400,300,0,"Stimuli/Experimental_stims/localizer/faces/linkedin-sales-solutions-pAtA8xe_iVM-unsplash.jpg",NA,NA
NA,0,NA,1,"faces",400,300,0,"Stimuli/Experimental_stims/localizer/faces/austin-wade-X6Uj51n5CE8-unsplash.jpg",NA,NA
NA,0,NA,1,"faces",400,300,1,"Stimuli/Experimental_stims/localizer/faces/jakob-owens-lkMJcGDZLVs-unsplash.jpg",NA,NA
NA,0,NA,1,"faces",400,300,0,"Stimuli/Experimental_stims/localizer/faces/elijah-hiett-umfpFoKxIVg-unsplash.jpg",NA,NA
NA,0,NA,1,"faces",400,14000,0,"Stimuli/Experimental_stims/localizer/faces/philip-martin-5aGUyCW_PJw-unsplash.jpg",NA,NA
