"","PID","time_elapsed","index","block","rt","chosen_trial","gain_left","left_chosen","higher_outcome_chosen","chosen_obj","unchosen_obj","stimulus_left","stimulus_right","rating_left","rating_right","painting_left","painting_right","stimulus_left_deliberation_ind","stimulus_right_deliberation_ind"
"411","1ae5n",981419,0,1,1.455,1,0,0,1,8,36,36,8,61,61,"ospan-ali-mGdA2fzjWLo-unsplash.jpg","bruce-dixon-3M9WJQVHzog-unsplash.jpg",24,25
"414","1ae5n",984581,1,1,1.636,1,1,1,1,8,41,8,41,61,57,"bruce-dixon-3M9WJQVHzog-unsplash.jpg","prince-akachi-i2hoD-C2RUA-unsplash.jpg",25,28
"417","1ae5n",986920,2,1,0.809,1,0,0,1,8,24,24,8,58,61,"joel-mott-LaK153ghdig-unsplash.jpg","bruce-dixon-3M9WJQVHzog-unsplash.jpg",26,25
"420","1ae5n",990645,3,1,2.2,0,0,1,0,13,49,13,49,60,46,"erik-lucatero-d2MSDujJl2g-unsplash.jpg","vicky-hladynets-_gDoyVv5F4c-unsplash.jpg",34,29
"423","1ae5n",993364,4,1,1.189,0,0,1,0,22,45,22,45,57,56,"jessica-radanavong-mrYkTuAesKE-unsplash.jpg","sarah-noltner-pL5ZzPp1zqg-unsplash.jpg",26,27
"426","1ae5n",996412,5,1,1.507,0,1,0,0,27,3,3,27,53,47,"art-hauntington-jzY0KRJopEI-unsplash.jpg","jurica-koletic-7YVZYZeITc8-unsplash.jpg",25,28
"429","1ae5n",998972,6,1,1.028,1,1,1,1,37,46,37,46,60,55,"pavel-anoshin-d0peGya6R5Y-unsplash.jpg","stefan-stefancik-QXevDflbl8A-unsplash.jpg",35,33
"432","1ae5n",1002064,7,1,1.561,1,1,1,1,2,1,2,1,47,60,"arjunsyah-TBUA5KHJn6k-unsplash.jpg","aiony-haust-jmATI5Q_YgY-unsplash.jpg",29,34
"435","1ae5n",1004981,8,1,1.385,0,0,0,1,26,27,27,26,47,59,"jurica-koletic-7YVZYZeITc8-unsplash.jpg","juri-gianfrancesco-9EZadYaMzk4-unsplash.jpg",28,35
"438","1ae5n",1007390,9,1,0.877,1,0,0,1,8,46,46,8,55,61,"stefan-stefancik-QXevDflbl8A-unsplash.jpg","bruce-dixon-3M9WJQVHzog-unsplash.jpg",33,25
"441","1ae5n",1009740,10,1,0.822,1,0,0,1,7,41,41,7,57,55,"prince-akachi-i2hoD-C2RUA-unsplash.jpg","brooke-cagle-HRZUzoX1e6w-unsplash.jpg",28,31
"444","1ae5n",1012502,11,1,1.229,0,0,0,1,26,13,13,26,60,59,"erik-lucatero-d2MSDujJl2g-unsplash.jpg","juri-gianfrancesco-9EZadYaMzk4-unsplash.jpg",34,35
"447","1ae5n",1014986,12,1,0.957,0,1,0,0,13,3,3,13,53,60,"art-hauntington-jzY0KRJopEI-unsplash.jpg","erik-lucatero-d2MSDujJl2g-unsplash.jpg",25,34
"450","1ae5n",1017398,13,1,0.883,1,1,1,1,39,24,39,24,44,58,"philip-martin-5aGUyCW_PJw-unsplash.jpg","joel-mott-LaK153ghdig-unsplash.jpg",27,26
"453","1ae5n",1019506,14,1,0.575,1,1,1,1,39,1,39,1,44,60,"philip-martin-5aGUyCW_PJw-unsplash.jpg","aiony-haust-jmATI5Q_YgY-unsplash.jpg",27,34
"456","1ae5n",1021908,15,1,0.87,1,1,1,1,37,41,37,41,60,57,"pavel-anoshin-d0peGya6R5Y-unsplash.jpg","prince-akachi-i2hoD-C2RUA-unsplash.jpg",35,28
"459","1ae5n",1024188,16,1,0.754,1,1,1,1,40,41,40,41,45,57,"prince-akachi-4Yv84VgQkRM-unsplash.jpg","prince-akachi-i2hoD-C2RUA-unsplash.jpg",30,28
"462","1ae5n",1028235,17,1,NA,0,0,NA,NA,NA,NA,16,3,54,53,"giano-currie-5-9YOsmf8IQ-unsplash.jpg","art-hauntington-jzY0KRJopEI-unsplash.jpg",24,25
"465","1ae5n",1031785,18,1,1.03,0,0,1,0,23,45,23,45,46,56,"joanna-nix-walkup-H4fEMshfwTE-unsplash.jpg","sarah-noltner-pL5ZzPp1zqg-unsplash.jpg",33,27
"468","1ae5n",1034684,19,1,1.37,0,0,1,0,23,48,23,48,46,57,"joanna-nix-walkup-H4fEMshfwTE-unsplash.jpg","velizar-ivanov-7ktP9yZA1g4-unsplash.jpg",33,31
"471","1ae5n",1037056,20,1,0.848,1,1,1,1,37,36,37,36,60,61,"pavel-anoshin-d0peGya6R5Y-unsplash.jpg","ospan-ali-mGdA2fzjWLo-unsplash.jpg",35,24
"474","1ae5n",1039322,21,1,0.726,1,0,0,1,2,36,36,2,61,47,"ospan-ali-mGdA2fzjWLo-unsplash.jpg","arjunsyah-TBUA5KHJn6k-unsplash.jpg",24,29
"477","1ae5n",1042292,22,1,1.438,0,0,0,1,45,16,16,45,54,56,"giano-currie-5-9YOsmf8IQ-unsplash.jpg","sarah-noltner-pL5ZzPp1zqg-unsplash.jpg",24,27
"480","1ae5n",1044784,23,1,0.954,1,0,0,1,39,46,46,39,55,44,"stefan-stefancik-QXevDflbl8A-unsplash.jpg","philip-martin-5aGUyCW_PJw-unsplash.jpg",33,27
"483","1ae5n",1047904,24,1,1.573,0,1,1,1,26,22,26,22,59,57,"juri-gianfrancesco-9EZadYaMzk4-unsplash.jpg","jessica-radanavong-mrYkTuAesKE-unsplash.jpg",35,26
"486","1ae5n",1050795,25,1,1.359,0,0,0,1,49,16,16,49,54,46,"giano-currie-5-9YOsmf8IQ-unsplash.jpg","vicky-hladynets-_gDoyVv5F4c-unsplash.jpg",24,29
"489","1ae5n",1053122,26,1,0.798,1,1,1,1,40,46,40,46,45,55,"prince-akachi-4Yv84VgQkRM-unsplash.jpg","stefan-stefancik-QXevDflbl8A-unsplash.jpg",30,33
"492","1ae5n",1056064,27,1,1.404,0,1,0,0,15,49,49,15,46,56,"vicky-hladynets-_gDoyVv5F4c-unsplash.jpg","gabriel-silverio-u3WmDyKGsrY-unsplash.jpg",29,32
"495","1ae5n",1058813,28,1,1.219,1,1,1,1,2,46,2,46,47,55,"arjunsyah-TBUA5KHJn6k-unsplash.jpg","stefan-stefancik-QXevDflbl8A-unsplash.jpg",29,33
"498","1ae5n",1061551,29,1,1.208,0,1,0,0,22,49,49,22,46,57,"vicky-hladynets-_gDoyVv5F4c-unsplash.jpg","jessica-radanavong-mrYkTuAesKE-unsplash.jpg",29,26
"501","1ae5n",1063947,30,1,0.859,1,0,0,1,2,41,41,2,57,47,"prince-akachi-i2hoD-C2RUA-unsplash.jpg","arjunsyah-TBUA5KHJn6k-unsplash.jpg",28,29
"504","1ae5n",1066396,31,1,0.92,0,1,1,1,48,27,48,27,57,47,"velizar-ivanov-7ktP9yZA1g4-unsplash.jpg","jurica-koletic-7YVZYZeITc8-unsplash.jpg",31,28
"507","1ae5n",1068774,32,1,0.853,1,0,0,1,39,36,36,39,61,44,"ospan-ali-mGdA2fzjWLo-unsplash.jpg","philip-martin-5aGUyCW_PJw-unsplash.jpg",24,27
"510","1ae5n",1071528,33,1,1.219,0,0,0,1,33,16,16,33,54,56,"giano-currie-5-9YOsmf8IQ-unsplash.jpg","olena-sergienko-0TSd6uCKTKc-unsplash.jpg",24,30
"513","1ae5n",1073835,34,1,0.782,1,1,1,1,2,17,2,17,47,56,"arjunsyah-TBUA5KHJn6k-unsplash.jpg","gleb-lukomets-paBzWCPN23k-unsplash.jpg",29,32
"516","1ae5n",1076706,35,1,1.345,1,0,0,1,37,1,1,37,60,60,"aiony-haust-jmATI5Q_YgY-unsplash.jpg","pavel-anoshin-d0peGya6R5Y-unsplash.jpg",34,35
"519","1ae5n",1080752,36,1,NA,0,1,NA,NA,NA,NA,33,15,56,56,"olena-sergienko-0TSd6uCKTKc-unsplash.jpg","gabriel-silverio-u3WmDyKGsrY-unsplash.jpg",30,32
"522","1ae5n",1083950,37,1,0.665,1,1,1,1,7,46,7,46,55,55,"brooke-cagle-HRZUzoX1e6w-unsplash.jpg","stefan-stefancik-QXevDflbl8A-unsplash.jpg",31,33
"525","1ae5n",1086104,38,1,0.624,0,1,0,0,22,3,3,22,53,57,"art-hauntington-jzY0KRJopEI-unsplash.jpg","jessica-radanavong-mrYkTuAesKE-unsplash.jpg",25,26
"528","1ae5n",1088341,39,1,0.706,1,0,1,0,24,2,24,2,58,47,"joel-mott-LaK153ghdig-unsplash.jpg","arjunsyah-TBUA5KHJn6k-unsplash.jpg",26,29
"531","1ae5n",1090753,40,1,0.892,0,1,1,1,48,22,48,22,57,57,"velizar-ivanov-7ktP9yZA1g4-unsplash.jpg","jessica-radanavong-mrYkTuAesKE-unsplash.jpg",31,26
"534","1ae5n",1092847,41,1,0.564,1,0,0,1,7,17,17,7,56,55,"gleb-lukomets-paBzWCPN23k-unsplash.jpg","brooke-cagle-HRZUzoX1e6w-unsplash.jpg",32,31
"537","1ae5n",1095187,42,1,0.819,0,0,0,1,26,23,23,26,46,59,"joanna-nix-walkup-H4fEMshfwTE-unsplash.jpg","juri-gianfrancesco-9EZadYaMzk4-unsplash.jpg",33,35
"540","1ae5n",1098697,43,1,1.984,0,1,0,0,13,48,48,13,57,60,"velizar-ivanov-7ktP9yZA1g4-unsplash.jpg","erik-lucatero-d2MSDujJl2g-unsplash.jpg",31,34
"543","1ae5n",1101052,44,1,0.824,1,0,0,1,40,1,1,40,60,45,"aiony-haust-jmATI5Q_YgY-unsplash.jpg","prince-akachi-4Yv84VgQkRM-unsplash.jpg",34,30
"546","1ae5n",1103349,45,1,0.755,1,1,1,1,37,17,37,17,60,56,"pavel-anoshin-d0peGya6R5Y-unsplash.jpg","gleb-lukomets-paBzWCPN23k-unsplash.jpg",35,32
"549","1ae5n",1106081,46,1,1.212,0,0,1,0,22,33,22,33,57,56,"jessica-radanavong-mrYkTuAesKE-unsplash.jpg","olena-sergienko-0TSd6uCKTKc-unsplash.jpg",26,30
"552","1ae5n",1108446,47,1,0.829,1,0,0,1,40,36,36,40,61,45,"ospan-ali-mGdA2fzjWLo-unsplash.jpg","prince-akachi-4Yv84VgQkRM-unsplash.jpg",24,30
"555","1ae5n",1111528,48,1,1.542,0,0,0,1,3,15,15,3,56,53,"gabriel-silverio-u3WmDyKGsrY-unsplash.jpg","art-hauntington-jzY0KRJopEI-unsplash.jpg",32,25
"558","1ae5n",1114184,49,1,1.126,0,1,1,1,45,27,45,27,56,47,"sarah-noltner-pL5ZzPp1zqg-unsplash.jpg","jurica-koletic-7YVZYZeITc8-unsplash.jpg",27,28
"561","1ae5n",1116410,50,1,0.7,0,1,1,1,26,15,26,15,59,56,"juri-gianfrancesco-9EZadYaMzk4-unsplash.jpg","gabriel-silverio-u3WmDyKGsrY-unsplash.jpg",35,32
"564","1ae5n",1118522,51,1,0.589,0,0,0,1,26,16,16,26,54,59,"giano-currie-5-9YOsmf8IQ-unsplash.jpg","juri-gianfrancesco-9EZadYaMzk4-unsplash.jpg",24,35
"567","1ae5n",1120959,52,1,0.908,1,0,0,1,7,24,24,7,58,55,"joel-mott-LaK153ghdig-unsplash.jpg","brooke-cagle-HRZUzoX1e6w-unsplash.jpg",26,31
"570","1ae5n",1123169,53,1,0.68,1,0,0,1,8,17,17,8,56,61,"gleb-lukomets-paBzWCPN23k-unsplash.jpg","bruce-dixon-3M9WJQVHzog-unsplash.jpg",32,25
"573","1ae5n",1125270,54,1,0.566,1,1,1,1,7,1,7,1,55,60,"brooke-cagle-HRZUzoX1e6w-unsplash.jpg","aiony-haust-jmATI5Q_YgY-unsplash.jpg",31,34
"576","1ae5n",1127639,55,1,0.844,1,1,1,1,39,41,39,41,44,57,"philip-martin-5aGUyCW_PJw-unsplash.jpg","prince-akachi-i2hoD-C2RUA-unsplash.jpg",27,28
"579","1ae5n",1129993,56,1,0.819,0,0,1,0,13,33,13,33,60,56,"erik-lucatero-d2MSDujJl2g-unsplash.jpg","olena-sergienko-0TSd6uCKTKc-unsplash.jpg",34,30
"582","1ae5n",1132768,57,1,1.253,0,0,0,1,49,23,23,49,46,46,"joanna-nix-walkup-H4fEMshfwTE-unsplash.jpg","vicky-hladynets-_gDoyVv5F4c-unsplash.jpg",33,29
"585","1ae5n",1135208,58,1,0.91,0,1,1,1,48,15,48,15,57,56,"velizar-ivanov-7ktP9yZA1g4-unsplash.jpg","gabriel-silverio-u3WmDyKGsrY-unsplash.jpg",31,32
"588","1ae5n",1138718,59,1,1.987,0,0,1,0,13,45,13,45,60,56,"erik-lucatero-d2MSDujJl2g-unsplash.jpg","sarah-noltner-pL5ZzPp1zqg-unsplash.jpg",34,27
"591","1ae5n",1140988,60,1,0.733,0,1,1,1,45,15,45,15,56,56,"sarah-noltner-pL5ZzPp1zqg-unsplash.jpg","gabriel-silverio-u3WmDyKGsrY-unsplash.jpg",27,32
"594","1ae5n",1143265,61,1,0.75,1,0,0,1,37,24,24,37,58,60,"joel-mott-LaK153ghdig-unsplash.jpg","pavel-anoshin-d0peGya6R5Y-unsplash.jpg",26,35
"597","1ae5n",1146018,62,1,1.225,0,0,0,1,33,23,23,33,46,56,"joanna-nix-walkup-H4fEMshfwTE-unsplash.jpg","olena-sergienko-0TSd6uCKTKc-unsplash.jpg",33,30
"600","1ae5n",1150059,63,1,NA,1,0,NA,NA,NA,NA,17,40,56,45,"gleb-lukomets-paBzWCPN23k-unsplash.jpg","prince-akachi-4Yv84VgQkRM-unsplash.jpg",32,30
"603","1ae5n",1155075,64,1,2.483,0,1,1,1,33,27,33,27,56,47,"olena-sergienko-0TSd6uCKTKc-unsplash.jpg","jurica-koletic-7YVZYZeITc8-unsplash.jpg",30,28
"606","1ae5n",1157457,65,1,0.854,1,1,1,1,7,36,7,36,55,61,"brooke-cagle-HRZUzoX1e6w-unsplash.jpg","ospan-ali-mGdA2fzjWLo-unsplash.jpg",31,24
"609","1ae5n",1159867,66,1,0.872,0,1,1,1,49,27,49,27,46,47,"vicky-hladynets-_gDoyVv5F4c-unsplash.jpg","jurica-koletic-7YVZYZeITc8-unsplash.jpg",29,28
"612","1ae5n",1162000,67,1,0.604,1,1,1,1,8,1,8,1,61,60,"bruce-dixon-3M9WJQVHzog-unsplash.jpg","aiony-haust-jmATI5Q_YgY-unsplash.jpg",25,34
"615","1ae5n",1164333,68,1,0.797,0,1,1,1,48,16,48,16,57,54,"velizar-ivanov-7ktP9yZA1g4-unsplash.jpg","giano-currie-5-9YOsmf8IQ-unsplash.jpg",31,24
"618","1ae5n",1167339,69,1,1.478,0,1,0,0,23,3,3,23,53,46,"art-hauntington-jzY0KRJopEI-unsplash.jpg","joanna-nix-walkup-H4fEMshfwTE-unsplash.jpg",25,33
"621","1ae5n",1169957,70,1,1.086,1,0,0,1,40,24,24,40,58,45,"joel-mott-LaK153ghdig-unsplash.jpg","prince-akachi-4Yv84VgQkRM-unsplash.jpg",26,30
"624","1ae5n",1172074,71,1,0.58,1,1,1,1,39,17,39,17,44,56,"philip-martin-5aGUyCW_PJw-unsplash.jpg","gleb-lukomets-paBzWCPN23k-unsplash.jpg",27,32
"628","1ae5n",1199558,72,2,0.732,1,0,0,1,8,24,24,8,58,61,"joel-mott-LaK153ghdig-unsplash.jpg","bruce-dixon-3M9WJQVHzog-unsplash.jpg",26,25
"631","1ae5n",1202004,73,2,0.912,1,0,0,1,2,36,36,2,61,47,"ospan-ali-mGdA2fzjWLo-unsplash.jpg","arjunsyah-TBUA5KHJn6k-unsplash.jpg",24,29
"634","1ae5n",1204038,74,2,0.508,1,0,0,1,8,1,1,8,60,61,"aiony-haust-jmATI5Q_YgY-unsplash.jpg","bruce-dixon-3M9WJQVHzog-unsplash.jpg",34,25
"637","1ae5n",1206571,75,2,1.01,0,0,1,0,23,3,23,3,46,53,"joanna-nix-walkup-H4fEMshfwTE-unsplash.jpg","art-hauntington-jzY0KRJopEI-unsplash.jpg",33,25
"640","1ae5n",1208854,76,2,0.756,0,1,1,1,45,22,45,22,56,57,"sarah-noltner-pL5ZzPp1zqg-unsplash.jpg","jessica-radanavong-mrYkTuAesKE-unsplash.jpg",27,26
"643","1ae5n",1210922,77,2,0.532,1,0,0,1,7,36,36,7,61,55,"ospan-ali-mGdA2fzjWLo-unsplash.jpg","brooke-cagle-HRZUzoX1e6w-unsplash.jpg",24,31
"646","1ae5n",1213022,78,2,0.576,0,0,1,0,13,3,13,3,60,53,"erik-lucatero-d2MSDujJl2g-unsplash.jpg","art-hauntington-jzY0KRJopEI-unsplash.jpg",34,25
"649","1ae5n",1215525,79,2,0.972,0,1,1,1,49,13,49,13,46,60,"vicky-hladynets-_gDoyVv5F4c-unsplash.jpg","erik-lucatero-d2MSDujJl2g-unsplash.jpg",29,34
"652","1ae5n",1217570,80,2,0.517,1,1,0,0,46,39,39,46,44,55,"philip-martin-5aGUyCW_PJw-unsplash.jpg","stefan-stefancik-QXevDflbl8A-unsplash.jpg",27,33
"655","1ae5n",1219811,81,2,0.71,1,1,1,1,39,1,39,1,44,60,"philip-martin-5aGUyCW_PJw-unsplash.jpg","aiony-haust-jmATI5Q_YgY-unsplash.jpg",27,34
"658","1ae5n",1222016,82,2,0.673,0,0,0,1,48,27,27,48,47,57,"jurica-koletic-7YVZYZeITc8-unsplash.jpg","velizar-ivanov-7ktP9yZA1g4-unsplash.jpg",28,31
"661","1ae5n",1224132,83,2,0.588,0,1,1,1,26,27,26,27,59,47,"juri-gianfrancesco-9EZadYaMzk4-unsplash.jpg","jurica-koletic-7YVZYZeITc8-unsplash.jpg",35,28
"664","1ae5n",1226517,84,2,0.847,1,0,0,1,37,1,1,37,60,60,"aiony-haust-jmATI5Q_YgY-unsplash.jpg","pavel-anoshin-d0peGya6R5Y-unsplash.jpg",34,35
"667","1ae5n",1228602,85,2,0.558,0,0,0,1,33,16,16,33,54,56,"giano-currie-5-9YOsmf8IQ-unsplash.jpg","olena-sergienko-0TSd6uCKTKc-unsplash.jpg",24,30
"670","1ae5n",1230703,86,2,0.578,1,1,1,1,40,41,40,41,45,57,"prince-akachi-4Yv84VgQkRM-unsplash.jpg","prince-akachi-i2hoD-C2RUA-unsplash.jpg",30,28
"673","1ae5n",1232954,87,2,0.726,0,1,1,1,26,13,26,13,59,60,"juri-gianfrancesco-9EZadYaMzk4-unsplash.jpg","erik-lucatero-d2MSDujJl2g-unsplash.jpg",35,34
"676","1ae5n",1235247,88,2,0.759,1,0,1,0,46,2,46,2,55,47,"stefan-stefancik-QXevDflbl8A-unsplash.jpg","arjunsyah-TBUA5KHJn6k-unsplash.jpg",33,29
"679","1ae5n",1237337,89,2,0.561,0,0,0,1,49,16,16,49,54,46,"giano-currie-5-9YOsmf8IQ-unsplash.jpg","vicky-hladynets-_gDoyVv5F4c-unsplash.jpg",24,29
"682","1ae5n",1239469,90,2,0.598,1,1,1,1,7,41,7,41,55,57,"brooke-cagle-HRZUzoX1e6w-unsplash.jpg","prince-akachi-i2hoD-C2RUA-unsplash.jpg",31,28
"685","1ae5n",1241635,91,2,0.633,0,1,0,0,22,3,3,22,53,57,"art-hauntington-jzY0KRJopEI-unsplash.jpg","jessica-radanavong-mrYkTuAesKE-unsplash.jpg",25,26
"688","1ae5n",1244362,92,2,1.189,0,1,0,0,22,49,49,22,46,57,"vicky-hladynets-_gDoyVv5F4c-unsplash.jpg","jessica-radanavong-mrYkTuAesKE-unsplash.jpg",29,26
"691","1ae5n",1246473,93,2,0.568,0,0,0,1,45,27,27,45,47,56,"jurica-koletic-7YVZYZeITc8-unsplash.jpg","sarah-noltner-pL5ZzPp1zqg-unsplash.jpg",28,27
"694","1ae5n",1248602,94,2,0.593,1,1,1,1,39,17,39,17,44,56,"philip-martin-5aGUyCW_PJw-unsplash.jpg","gleb-lukomets-paBzWCPN23k-unsplash.jpg",27,32
"697","1ae5n",1250932,95,2,0.798,1,0,0,1,37,46,46,37,55,60,"stefan-stefancik-QXevDflbl8A-unsplash.jpg","pavel-anoshin-d0peGya6R5Y-unsplash.jpg",33,35
"700","1ae5n",1253107,96,2,0.634,1,1,1,1,8,46,8,46,61,55,"bruce-dixon-3M9WJQVHzog-unsplash.jpg","stefan-stefancik-QXevDflbl8A-unsplash.jpg",25,33
"703","1ae5n",1255172,97,2,0.541,1,1,1,1,37,17,37,17,60,56,"pavel-anoshin-d0peGya6R5Y-unsplash.jpg","gleb-lukomets-paBzWCPN23k-unsplash.jpg",35,32
"706","1ae5n",1257298,98,2,0.595,1,1,1,1,7,24,7,24,55,58,"brooke-cagle-HRZUzoX1e6w-unsplash.jpg","joel-mott-LaK153ghdig-unsplash.jpg",31,26
"709","1ae5n",1259690,99,2,0.868,0,1,0,0,13,45,45,13,56,60,"sarah-noltner-pL5ZzPp1zqg-unsplash.jpg","erik-lucatero-d2MSDujJl2g-unsplash.jpg",27,34
"712","1ae5n",1262041,100,2,0.828,0,1,1,1,26,15,26,15,59,56,"juri-gianfrancesco-9EZadYaMzk4-unsplash.jpg","gabriel-silverio-u3WmDyKGsrY-unsplash.jpg",35,32
"715","1ae5n",1264071,101,2,0.506,1,1,1,1,37,41,37,41,60,57,"pavel-anoshin-d0peGya6R5Y-unsplash.jpg","prince-akachi-i2hoD-C2RUA-unsplash.jpg",35,28
"718","1ae5n",1266363,102,2,0.753,0,0,0,1,33,27,27,33,47,56,"jurica-koletic-7YVZYZeITc8-unsplash.jpg","olena-sergienko-0TSd6uCKTKc-unsplash.jpg",28,30
"721","1ae5n",1268862,103,2,0.976,1,1,1,1,37,24,37,24,60,58,"pavel-anoshin-d0peGya6R5Y-unsplash.jpg","joel-mott-LaK153ghdig-unsplash.jpg",35,26
"724","1ae5n",1271036,104,2,0.637,0,1,1,1,49,27,49,27,46,47,"vicky-hladynets-_gDoyVv5F4c-unsplash.jpg","jurica-koletic-7YVZYZeITc8-unsplash.jpg",29,28
"727","1ae5n",1273227,105,2,0.665,0,1,1,1,48,13,48,13,57,60,"velizar-ivanov-7ktP9yZA1g4-unsplash.jpg","erik-lucatero-d2MSDujJl2g-unsplash.jpg",31,34
"730","1ae5n",1275315,106,2,0.55,1,1,1,1,39,24,39,24,44,58,"philip-martin-5aGUyCW_PJw-unsplash.jpg","joel-mott-LaK153ghdig-unsplash.jpg",27,26
"733","1ae5n",1277440,107,2,0.608,1,1,1,1,40,1,40,1,45,60,"prince-akachi-4Yv84VgQkRM-unsplash.jpg","aiony-haust-jmATI5Q_YgY-unsplash.jpg",30,34
"736","1ae5n",1279862,108,2,0.891,1,0,0,1,8,36,36,8,61,61,"ospan-ali-mGdA2fzjWLo-unsplash.jpg","bruce-dixon-3M9WJQVHzog-unsplash.jpg",24,25
"739","1ae5n",1281994,109,2,0.595,1,0,0,1,8,41,41,8,57,61,"prince-akachi-i2hoD-C2RUA-unsplash.jpg","bruce-dixon-3M9WJQVHzog-unsplash.jpg",28,25
"742","1ae5n",1284625,110,2,1.092,0,1,1,1,26,23,26,23,59,46,"juri-gianfrancesco-9EZadYaMzk4-unsplash.jpg","joanna-nix-walkup-H4fEMshfwTE-unsplash.jpg",35,33
"745","1ae5n",1286854,111,2,0.687,0,0,0,1,26,16,16,26,54,59,"giano-currie-5-9YOsmf8IQ-unsplash.jpg","juri-gianfrancesco-9EZadYaMzk4-unsplash.jpg",24,35
"748","1ae5n",1289525,112,2,1.147,1,1,1,1,2,1,2,1,47,60,"arjunsyah-TBUA5KHJn6k-unsplash.jpg","aiony-haust-jmATI5Q_YgY-unsplash.jpg",29,34
"751","1ae5n",1292671,113,2,1.615,1,0,1,0,1,7,1,7,60,55,"aiony-haust-jmATI5Q_YgY-unsplash.jpg","brooke-cagle-HRZUzoX1e6w-unsplash.jpg",34,31
"754","1ae5n",1294968,114,2,0.773,0,0,0,1,45,15,15,45,56,56,"gabriel-silverio-u3WmDyKGsrY-unsplash.jpg","sarah-noltner-pL5ZzPp1zqg-unsplash.jpg",32,27
"757","1ae5n",1298309,115,2,1.807,0,1,1,1,3,16,3,16,53,54,"art-hauntington-jzY0KRJopEI-unsplash.jpg","giano-currie-5-9YOsmf8IQ-unsplash.jpg",25,24
"760","1ae5n",1300750,116,2,0.914,1,1,1,1,40,24,40,24,45,58,"prince-akachi-4Yv84VgQkRM-unsplash.jpg","joel-mott-LaK153ghdig-unsplash.jpg",30,26
"763","1ae5n",1303103,117,2,0.832,1,0,0,1,37,36,36,37,61,60,"ospan-ali-mGdA2fzjWLo-unsplash.jpg","pavel-anoshin-d0peGya6R5Y-unsplash.jpg",24,35
"766","1ae5n",1306563,118,2,1.923,0,0,0,1,33,22,22,33,57,56,"jessica-radanavong-mrYkTuAesKE-unsplash.jpg","olena-sergienko-0TSd6uCKTKc-unsplash.jpg",26,30
"769","1ae5n",1309037,119,2,0.927,0,0,0,1,48,23,23,48,46,57,"joanna-nix-walkup-H4fEMshfwTE-unsplash.jpg","velizar-ivanov-7ktP9yZA1g4-unsplash.jpg",33,31
"772","1ae5n",1311736,120,2,1.174,1,0,0,1,8,17,17,8,56,61,"gleb-lukomets-paBzWCPN23k-unsplash.jpg","bruce-dixon-3M9WJQVHzog-unsplash.jpg",32,25
"775","1ae5n",1313976,121,2,0.719,0,1,1,1,49,15,49,15,46,56,"vicky-hladynets-_gDoyVv5F4c-unsplash.jpg","gabriel-silverio-u3WmDyKGsrY-unsplash.jpg",29,32
"778","1ae5n",1316343,122,2,0.838,0,0,0,1,3,27,27,3,47,53,"jurica-koletic-7YVZYZeITc8-unsplash.jpg","art-hauntington-jzY0KRJopEI-unsplash.jpg",28,25
"781","1ae5n",1318570,123,2,0.698,0,0,0,1,33,15,15,33,56,56,"gabriel-silverio-u3WmDyKGsrY-unsplash.jpg","olena-sergienko-0TSd6uCKTKc-unsplash.jpg",32,30
"784","1ae5n",1320868,124,2,0.77,0,1,0,0,13,33,33,13,56,60,"olena-sergienko-0TSd6uCKTKc-unsplash.jpg","erik-lucatero-d2MSDujJl2g-unsplash.jpg",30,34
"787","1ae5n",1323071,125,2,0.668,0,1,1,1,45,16,45,16,56,54,"sarah-noltner-pL5ZzPp1zqg-unsplash.jpg","giano-currie-5-9YOsmf8IQ-unsplash.jpg",27,24
"790","1ae5n",1326842,126,2,2.253,0,1,1,1,3,15,3,15,53,56,"art-hauntington-jzY0KRJopEI-unsplash.jpg","gabriel-silverio-u3WmDyKGsrY-unsplash.jpg",25,32
"793","1ae5n",1329221,127,2,0.845,1,0,0,1,2,24,24,2,58,47,"joel-mott-LaK153ghdig-unsplash.jpg","arjunsyah-TBUA5KHJn6k-unsplash.jpg",26,29
"796","1ae5n",1331739,128,2,0.983,1,0,0,1,40,36,36,40,61,45,"ospan-ali-mGdA2fzjWLo-unsplash.jpg","prince-akachi-4Yv84VgQkRM-unsplash.jpg",24,30
"799","1ae5n",1334390,129,2,1.114,1,1,1,1,7,46,7,46,55,55,"brooke-cagle-HRZUzoX1e6w-unsplash.jpg","stefan-stefancik-QXevDflbl8A-unsplash.jpg",31,33
"802","1ae5n",1336604,130,2,0.69,1,0,0,1,7,17,17,7,56,55,"gleb-lukomets-paBzWCPN23k-unsplash.jpg","brooke-cagle-HRZUzoX1e6w-unsplash.jpg",32,31
"805","1ae5n",1339000,131,2,0.855,1,0,0,1,2,17,17,2,56,47,"gleb-lukomets-paBzWCPN23k-unsplash.jpg","arjunsyah-TBUA5KHJn6k-unsplash.jpg",32,29
"808","1ae5n",1341375,132,2,0.837,1,0,0,1,39,36,36,39,61,44,"ospan-ali-mGdA2fzjWLo-unsplash.jpg","philip-martin-5aGUyCW_PJw-unsplash.jpg",24,27
"811","1ae5n",1345418,133,2,NA,1,1,NA,NA,NA,NA,40,17,45,56,"prince-akachi-4Yv84VgQkRM-unsplash.jpg","gleb-lukomets-paBzWCPN23k-unsplash.jpg",30,32
"814","1ae5n",1348484,134,2,0.535,0,1,0,0,22,26,26,22,59,57,"juri-gianfrancesco-9EZadYaMzk4-unsplash.jpg","jessica-radanavong-mrYkTuAesKE-unsplash.jpg",35,26
"817","1ae5n",1350699,135,2,0.692,1,1,1,1,40,46,40,46,45,55,"prince-akachi-4Yv84VgQkRM-unsplash.jpg","stefan-stefancik-QXevDflbl8A-unsplash.jpg",30,33
"820","1ae5n",1353093,136,2,0.86,0,1,0,0,23,33,33,23,56,46,"olena-sergienko-0TSd6uCKTKc-unsplash.jpg","joanna-nix-walkup-H4fEMshfwTE-unsplash.jpg",30,33
"823","1ae5n",1355238,137,2,0.619,0,0,0,1,48,15,15,48,56,57,"gabriel-silverio-u3WmDyKGsrY-unsplash.jpg","velizar-ivanov-7ktP9yZA1g4-unsplash.jpg",32,31
"826","1ae5n",1357654,138,2,0.882,0,0,1,0,23,45,23,45,46,56,"joanna-nix-walkup-H4fEMshfwTE-unsplash.jpg","sarah-noltner-pL5ZzPp1zqg-unsplash.jpg",33,27
"829","1ae5n",1359716,139,2,0.526,1,1,1,1,39,41,39,41,44,57,"philip-martin-5aGUyCW_PJw-unsplash.jpg","prince-akachi-i2hoD-C2RUA-unsplash.jpg",27,28
"832","1ae5n",1361912,140,2,0.66,0,0,0,1,48,16,16,48,54,57,"giano-currie-5-9YOsmf8IQ-unsplash.jpg","velizar-ivanov-7ktP9yZA1g4-unsplash.jpg",24,31
"835","1ae5n",1363922,141,2,0.483,1,0,0,1,2,41,41,2,57,47,"prince-akachi-i2hoD-C2RUA-unsplash.jpg","arjunsyah-TBUA5KHJn6k-unsplash.jpg",28,29
"838","1ae5n",1365987,142,2,0.538,0,0,0,1,49,23,23,49,46,46,"joanna-nix-walkup-H4fEMshfwTE-unsplash.jpg","vicky-hladynets-_gDoyVv5F4c-unsplash.jpg",33,29
"841","1ae5n",1368306,143,2,0.786,0,0,0,1,48,22,22,48,57,57,"jessica-radanavong-mrYkTuAesKE-unsplash.jpg","velizar-ivanov-7ktP9yZA1g4-unsplash.jpg",26,31
"845","1ae5n",1371962,144,3,0.509,1,0,0,1,39,24,24,39,58,44,"joel-mott-LaK153ghdig-unsplash.jpg","philip-martin-5aGUyCW_PJw-unsplash.jpg",26,27
"848","1ae5n",1374409,145,3,0.912,0,1,1,1,33,15,33,15,56,56,"olena-sergienko-0TSd6uCKTKc-unsplash.jpg","gabriel-silverio-u3WmDyKGsrY-unsplash.jpg",30,32
"851","1ae5n",1376387,146,3,0.453,0,1,1,1,33,13,33,13,56,60,"olena-sergienko-0TSd6uCKTKc-unsplash.jpg","erik-lucatero-d2MSDujJl2g-unsplash.jpg",30,34
"854","1ae5n",1378427,147,3,0.519,1,0,0,1,40,17,17,40,56,45,"gleb-lukomets-paBzWCPN23k-unsplash.jpg","prince-akachi-4Yv84VgQkRM-unsplash.jpg",32,30
"857","1ae5n",1380816,148,3,0.856,0,1,1,1,48,22,48,22,57,57,"velizar-ivanov-7ktP9yZA1g4-unsplash.jpg","jessica-radanavong-mrYkTuAesKE-unsplash.jpg",31,26
"860","1ae5n",1383869,149,3,1.518,0,0,0,1,48,13,13,48,60,57,"erik-lucatero-d2MSDujJl2g-unsplash.jpg","velizar-ivanov-7ktP9yZA1g4-unsplash.jpg",34,31
"863","1ae5n",1386659,150,3,1.269,0,1,0,0,16,3,3,16,53,54,"art-hauntington-jzY0KRJopEI-unsplash.jpg","giano-currie-5-9YOsmf8IQ-unsplash.jpg",25,24
"866","1ae5n",1388743,151,3,0.552,1,0,0,1,40,36,36,40,61,45,"ospan-ali-mGdA2fzjWLo-unsplash.jpg","prince-akachi-4Yv84VgQkRM-unsplash.jpg",24,30
"869","1ae5n",1391117,152,3,0.837,1,1,1,1,40,24,40,24,45,58,"prince-akachi-4Yv84VgQkRM-unsplash.jpg","joel-mott-LaK153ghdig-unsplash.jpg",30,26
"872","1ae5n",1393351,153,3,0.704,1,1,1,1,39,46,39,46,44,55,"philip-martin-5aGUyCW_PJw-unsplash.jpg","stefan-stefancik-QXevDflbl8A-unsplash.jpg",27,33
"875","1ae5n",1395960,154,3,1.072,1,1,1,1,2,41,2,41,47,57,"arjunsyah-TBUA5KHJn6k-unsplash.jpg","prince-akachi-i2hoD-C2RUA-unsplash.jpg",29,28
"878","1ae5n",1398246,155,3,0.756,1,1,1,1,37,24,37,24,60,58,"pavel-anoshin-d0peGya6R5Y-unsplash.jpg","joel-mott-LaK153ghdig-unsplash.jpg",35,26
"881","1ae5n",1400952,156,3,1.183,0,0,0,1,26,27,27,26,47,59,"jurica-koletic-7YVZYZeITc8-unsplash.jpg","juri-gianfrancesco-9EZadYaMzk4-unsplash.jpg",28,35
"884","1ae5n",1404730,157,3,2.246,1,0,0,1,40,41,41,40,57,45,"prince-akachi-i2hoD-C2RUA-unsplash.jpg","prince-akachi-4Yv84VgQkRM-unsplash.jpg",28,30
"887","1ae5n",1406981,158,3,0.723,1,0,0,1,39,41,41,39,57,44,"prince-akachi-i2hoD-C2RUA-unsplash.jpg","philip-martin-5aGUyCW_PJw-unsplash.jpg",28,27
"890","1ae5n",1409061,159,3,0.543,1,0,0,1,37,36,36,37,61,60,"ospan-ali-mGdA2fzjWLo-unsplash.jpg","pavel-anoshin-d0peGya6R5Y-unsplash.jpg",24,35
"893","1ae5n",1411724,160,3,1.136,0,1,1,1,45,15,45,15,56,56,"sarah-noltner-pL5ZzPp1zqg-unsplash.jpg","gabriel-silverio-u3WmDyKGsrY-unsplash.jpg",27,32
"896","1ae5n",1414000,161,3,0.748,0,1,1,1,33,22,33,22,56,57,"olena-sergienko-0TSd6uCKTKc-unsplash.jpg","jessica-radanavong-mrYkTuAesKE-unsplash.jpg",30,26
"899","1ae5n",1416939,162,3,1.404,1,1,1,1,37,46,37,46,60,55,"pavel-anoshin-d0peGya6R5Y-unsplash.jpg","stefan-stefancik-QXevDflbl8A-unsplash.jpg",35,33
"902","1ae5n",1419344,163,3,0.875,0,0,0,1,49,16,16,49,54,46,"giano-currie-5-9YOsmf8IQ-unsplash.jpg","vicky-hladynets-_gDoyVv5F4c-unsplash.jpg",24,29
"905","1ae5n",1421782,164,3,0.9,1,1,1,1,7,1,7,1,55,60,"brooke-cagle-HRZUzoX1e6w-unsplash.jpg","aiony-haust-jmATI5Q_YgY-unsplash.jpg",31,34
"908","1ae5n",1424042,165,3,0.722,1,1,1,1,37,1,37,1,60,60,"pavel-anoshin-d0peGya6R5Y-unsplash.jpg","aiony-haust-jmATI5Q_YgY-unsplash.jpg",35,34
"911","1ae5n",1426719,166,3,1.149,1,0,0,1,39,1,1,39,60,44,"aiony-haust-jmATI5Q_YgY-unsplash.jpg","philip-martin-5aGUyCW_PJw-unsplash.jpg",34,27
"914","1ae5n",1429550,167,3,1.284,1,1,1,1,8,24,8,24,61,58,"bruce-dixon-3M9WJQVHzog-unsplash.jpg","joel-mott-LaK153ghdig-unsplash.jpg",25,26
"917","1ae5n",1433589,168,3,NA,0,0,NA,NA,NA,NA,13,26,60,59,"erik-lucatero-d2MSDujJl2g-unsplash.jpg","juri-gianfrancesco-9EZadYaMzk4-unsplash.jpg",34,35
"920","1ae5n",1437287,169,3,1.167,0,0,0,1,3,27,27,3,47,53,"jurica-koletic-7YVZYZeITc8-unsplash.jpg","art-hauntington-jzY0KRJopEI-unsplash.jpg",28,25
"923","1ae5n",1439553,170,3,0.732,1,0,0,1,39,36,36,39,61,44,"ospan-ali-mGdA2fzjWLo-unsplash.jpg","philip-martin-5aGUyCW_PJw-unsplash.jpg",24,27
"926","1ae5n",1441940,171,3,0.857,1,1,1,1,40,46,40,46,45,55,"prince-akachi-4Yv84VgQkRM-unsplash.jpg","stefan-stefancik-QXevDflbl8A-unsplash.jpg",30,33
"929","1ae5n",1444194,172,3,0.725,1,1,1,1,2,46,2,46,47,55,"arjunsyah-TBUA5KHJn6k-unsplash.jpg","stefan-stefancik-QXevDflbl8A-unsplash.jpg",29,33
"932","1ae5n",1446400,173,3,0.672,0,1,1,1,26,15,26,15,59,56,"juri-gianfrancesco-9EZadYaMzk4-unsplash.jpg","gabriel-silverio-u3WmDyKGsrY-unsplash.jpg",35,32
"935","1ae5n",1448719,174,3,0.79,0,0,0,1,49,13,13,49,60,46,"erik-lucatero-d2MSDujJl2g-unsplash.jpg","vicky-hladynets-_gDoyVv5F4c-unsplash.jpg",34,29
"938","1ae5n",1451084,175,3,0.834,0,1,1,1,3,15,3,15,53,56,"art-hauntington-jzY0KRJopEI-unsplash.jpg","gabriel-silverio-u3WmDyKGsrY-unsplash.jpg",25,32
"941","1ae5n",1453290,176,3,0.672,0,0,0,1,48,27,27,48,47,57,"jurica-koletic-7YVZYZeITc8-unsplash.jpg","velizar-ivanov-7ktP9yZA1g4-unsplash.jpg",28,31
"944","1ae5n",1455669,177,3,0.849,0,1,0,0,22,3,3,22,53,57,"art-hauntington-jzY0KRJopEI-unsplash.jpg","jessica-radanavong-mrYkTuAesKE-unsplash.jpg",25,26
"947","1ae5n",1457805,178,3,0.6,0,0,1,0,22,45,22,45,57,56,"jessica-radanavong-mrYkTuAesKE-unsplash.jpg","sarah-noltner-pL5ZzPp1zqg-unsplash.jpg",26,27
"950","1ae5n",1459972,179,3,0.628,1,0,0,1,8,17,17,8,56,61,"gleb-lukomets-paBzWCPN23k-unsplash.jpg","bruce-dixon-3M9WJQVHzog-unsplash.jpg",32,25
"953","1ae5n",1462031,180,3,0.532,1,1,1,1,2,17,2,17,47,56,"arjunsyah-TBUA5KHJn6k-unsplash.jpg","gleb-lukomets-paBzWCPN23k-unsplash.jpg",29,32
"956","1ae5n",1464856,181,3,1.298,1,1,1,1,7,24,7,24,55,58,"brooke-cagle-HRZUzoX1e6w-unsplash.jpg","joel-mott-LaK153ghdig-unsplash.jpg",31,26
"959","1ae5n",1466987,182,3,0.596,0,0,0,1,48,15,15,48,56,57,"gabriel-silverio-u3WmDyKGsrY-unsplash.jpg","velizar-ivanov-7ktP9yZA1g4-unsplash.jpg",32,31
"962","1ae5n",1469083,183,3,0.569,0,1,1,1,26,16,26,16,59,54,"juri-gianfrancesco-9EZadYaMzk4-unsplash.jpg","giano-currie-5-9YOsmf8IQ-unsplash.jpg",35,24
"965","1ae5n",1471935,184,3,1.315,0,1,1,1,49,22,49,22,46,57,"vicky-hladynets-_gDoyVv5F4c-unsplash.jpg","jessica-radanavong-mrYkTuAesKE-unsplash.jpg",29,26
"968","1ae5n",1474942,185,3,1.48,0,0,0,1,48,23,23,48,46,57,"joanna-nix-walkup-H4fEMshfwTE-unsplash.jpg","velizar-ivanov-7ktP9yZA1g4-unsplash.jpg",33,31
"971","1ae5n",1477059,186,3,0.585,1,0,0,1,8,41,41,8,57,61,"prince-akachi-i2hoD-C2RUA-unsplash.jpg","bruce-dixon-3M9WJQVHzog-unsplash.jpg",28,25
"974","1ae5n",1479154,187,3,0.561,0,1,1,1,49,15,49,15,46,56,"vicky-hladynets-_gDoyVv5F4c-unsplash.jpg","gabriel-silverio-u3WmDyKGsrY-unsplash.jpg",29,32
"977","1ae5n",1481223,188,3,0.551,1,1,1,1,8,46,8,46,61,55,"bruce-dixon-3M9WJQVHzog-unsplash.jpg","stefan-stefancik-QXevDflbl8A-unsplash.jpg",25,33
"980","1ae5n",1483843,189,3,1.084,1,0,0,1,2,36,36,2,61,47,"ospan-ali-mGdA2fzjWLo-unsplash.jpg","arjunsyah-TBUA5KHJn6k-unsplash.jpg",24,29
"983","1ae5n",1486064,190,3,0.694,0,1,1,1,33,23,33,23,56,46,"olena-sergienko-0TSd6uCKTKc-unsplash.jpg","joanna-nix-walkup-H4fEMshfwTE-unsplash.jpg",30,33
"986","1ae5n",1488151,191,3,0.555,0,0,0,1,33,27,27,33,47,56,"jurica-koletic-7YVZYZeITc8-unsplash.jpg","olena-sergienko-0TSd6uCKTKc-unsplash.jpg",28,30
"989","1ae5n",1490617,192,3,0.925,0,0,0,1,48,16,16,48,54,57,"giano-currie-5-9YOsmf8IQ-unsplash.jpg","velizar-ivanov-7ktP9yZA1g4-unsplash.jpg",24,31
"992","1ae5n",1492827,193,3,0.681,0,0,1,0,23,3,23,3,46,53,"joanna-nix-walkup-H4fEMshfwTE-unsplash.jpg","art-hauntington-jzY0KRJopEI-unsplash.jpg",33,25
"995","1ae5n",1494934,194,3,0.579,1,1,1,1,7,17,7,17,55,56,"brooke-cagle-HRZUzoX1e6w-unsplash.jpg","gleb-lukomets-paBzWCPN23k-unsplash.jpg",31,32
"998","1ae5n",1497051,195,3,0.593,0,0,1,0,13,3,13,3,60,53,"erik-lucatero-d2MSDujJl2g-unsplash.jpg","art-hauntington-jzY0KRJopEI-unsplash.jpg",34,25
"1001","1ae5n",1499308,196,3,0.732,1,0,0,1,2,24,24,2,58,47,"joel-mott-LaK153ghdig-unsplash.jpg","arjunsyah-TBUA5KHJn6k-unsplash.jpg",26,29
"1004","1ae5n",1501387,197,3,0.552,1,1,1,1,40,1,40,1,45,60,"prince-akachi-4Yv84VgQkRM-unsplash.jpg","aiony-haust-jmATI5Q_YgY-unsplash.jpg",30,34
"1007","1ae5n",1503414,198,3,0.507,0,1,1,1,33,16,33,16,56,54,"olena-sergienko-0TSd6uCKTKc-unsplash.jpg","giano-currie-5-9YOsmf8IQ-unsplash.jpg",30,24
"1010","1ae5n",1505599,199,3,0.666,0,0,1,0,23,45,23,45,46,56,"joanna-nix-walkup-H4fEMshfwTE-unsplash.jpg","sarah-noltner-pL5ZzPp1zqg-unsplash.jpg",33,27
"1013","1ae5n",1507673,200,3,0.54,1,0,0,1,8,1,1,8,60,61,"aiony-haust-jmATI5Q_YgY-unsplash.jpg","bruce-dixon-3M9WJQVHzog-unsplash.jpg",34,25
"1016","1ae5n",1509713,201,3,0.506,1,1,1,1,39,17,39,17,44,56,"philip-martin-5aGUyCW_PJw-unsplash.jpg","gleb-lukomets-paBzWCPN23k-unsplash.jpg",27,32
"1019","1ae5n",1511900,202,3,0.665,1,0,0,1,7,41,41,7,57,55,"prince-akachi-i2hoD-C2RUA-unsplash.jpg","brooke-cagle-HRZUzoX1e6w-unsplash.jpg",28,31
"1022","1ae5n",1513921,203,3,0.49,0,1,1,1,49,23,49,23,46,46,"vicky-hladynets-_gDoyVv5F4c-unsplash.jpg","joanna-nix-walkup-H4fEMshfwTE-unsplash.jpg",29,33
"1025","1ae5n",1516034,204,3,0.597,0,1,0,0,27,45,45,27,56,47,"sarah-noltner-pL5ZzPp1zqg-unsplash.jpg","jurica-koletic-7YVZYZeITc8-unsplash.jpg",27,28
"1028","1ae5n",1518407,205,3,0.853,1,0,0,1,8,36,36,8,61,61,"ospan-ali-mGdA2fzjWLo-unsplash.jpg","bruce-dixon-3M9WJQVHzog-unsplash.jpg",24,25
"1031","1ae5n",1520361,206,3,0.426,1,0,0,1,7,36,36,7,61,55,"ospan-ali-mGdA2fzjWLo-unsplash.jpg","brooke-cagle-HRZUzoX1e6w-unsplash.jpg",24,31
"1034","1ae5n",1522669,207,3,0.783,1,0,0,1,2,1,1,2,60,47,"aiony-haust-jmATI5Q_YgY-unsplash.jpg","arjunsyah-TBUA5KHJn6k-unsplash.jpg",34,29
"1037","1ae5n",1525343,208,3,1.15,0,0,0,1,26,22,22,26,57,59,"jessica-radanavong-mrYkTuAesKE-unsplash.jpg","juri-gianfrancesco-9EZadYaMzk4-unsplash.jpg",26,35
"1040","1ae5n",1527786,209,3,0.913,0,0,1,0,13,45,13,45,60,56,"erik-lucatero-d2MSDujJl2g-unsplash.jpg","sarah-noltner-pL5ZzPp1zqg-unsplash.jpg",34,27
"1043","1ae5n",1529842,210,3,0.529,0,0,0,1,49,27,27,49,47,46,"jurica-koletic-7YVZYZeITc8-unsplash.jpg","vicky-hladynets-_gDoyVv5F4c-unsplash.jpg",28,29
"1046","1ae5n",1532036,211,3,0.672,1,0,0,1,37,41,41,37,57,60,"prince-akachi-i2hoD-C2RUA-unsplash.jpg","pavel-anoshin-d0peGya6R5Y-unsplash.jpg",28,35
"1049","1ae5n",1534298,212,3,0.742,1,1,1,1,7,46,7,46,55,55,"brooke-cagle-HRZUzoX1e6w-unsplash.jpg","stefan-stefancik-QXevDflbl8A-unsplash.jpg",31,33
"1052","1ae5n",1536399,213,3,0.571,1,1,1,1,37,17,37,17,60,56,"pavel-anoshin-d0peGya6R5Y-unsplash.jpg","gleb-lukomets-paBzWCPN23k-unsplash.jpg",35,32
"1055","1ae5n",1538578,214,3,0.654,0,1,1,1,26,23,26,23,59,46,"juri-gianfrancesco-9EZadYaMzk4-unsplash.jpg","joanna-nix-walkup-H4fEMshfwTE-unsplash.jpg",35,33
"1058","1ae5n",1542636,215,3,NA,0,1,NA,NA,NA,NA,45,16,56,54,"sarah-noltner-pL5ZzPp1zqg-unsplash.jpg","giano-currie-5-9YOsmf8IQ-unsplash.jpg",27,24
"1740","1K9vK",1189419,0,1,1.34,0,0,1,0,34,30,34,30,37,32,"oliver-johnson-1TUIcKob7Zs-unsplash.jpg","matheus-ferrero-pg_WCHWSdT8-unsplash.jpg",32,24
"1743","1K9vK",1192814,1,1,1.861,0,0,1,0,41,35,41,35,71,69,"prince-akachi-i2hoD-C2RUA-unsplash.jpg","oliver-ragfelt-khV4fTy6-D8-unsplash.jpg",35,34
"1746","1K9vK",1195841,2,1,1.505,0,0,0,1,49,27,27,49,74,64,"jurica-koletic-7YVZYZeITc8-unsplash.jpg","vicky-hladynets-_gDoyVv5F4c-unsplash.jpg",27,28
"1749","1K9vK",1199076,3,1,1.708,0,0,1,0,34,35,34,35,37,69,"oliver-johnson-1TUIcKob7Zs-unsplash.jpg","oliver-ragfelt-khV4fTy6-D8-unsplash.jpg",32,34
"1752","1K9vK",1202406,4,1,1.814,0,0,0,1,49,3,3,49,36,64,"art-hauntington-jzY0KRJopEI-unsplash.jpg","vicky-hladynets-_gDoyVv5F4c-unsplash.jpg",31,28
"1755","1K9vK",1205431,5,1,1.502,1,1,1,1,11,39,11,39,77,36,"christian-ferrer-8vT-DgHZDG4-unsplash.jpg","philip-martin-5aGUyCW_PJw-unsplash.jpg",25,33
"1758","1K9vK",1208506,6,1,1.556,0,1,1,1,13,27,13,27,67,74,"erik-lucatero-d2MSDujJl2g-unsplash.jpg","jurica-koletic-7YVZYZeITc8-unsplash.jpg",26,27
"1761","1K9vK",1211017,7,1,0.996,1,1,1,1,40,39,40,39,62,36,"prince-akachi-4Yv84VgQkRM-unsplash.jpg","philip-martin-5aGUyCW_PJw-unsplash.jpg",26,33
"1764","1K9vK",1213960,8,1,1.416,0,0,1,0,27,30,27,30,74,32,"jurica-koletic-7YVZYZeITc8-unsplash.jpg","matheus-ferrero-pg_WCHWSdT8-unsplash.jpg",27,24
"1767","1K9vK",1217310,9,1,1.8,0,1,1,1,45,27,45,27,67,74,"sarah-noltner-pL5ZzPp1zqg-unsplash.jpg","jurica-koletic-7YVZYZeITc8-unsplash.jpg",25,27
"1770","1K9vK",1220218,10,1,1.366,1,0,0,1,14,2,2,14,77,64,"arjunsyah-TBUA5KHJn6k-unsplash.jpg","freddy-kearney-o-ioeoATbIM-unsplash.jpg",31,24
"1773","1K9vK",1222704,11,1,0.957,1,1,1,1,11,2,11,2,77,77,"christian-ferrer-8vT-DgHZDG4-unsplash.jpg","arjunsyah-TBUA5KHJn6k-unsplash.jpg",25,31
"1776","1K9vK",1225978,12,1,1.745,1,1,1,1,36,24,36,24,40,79,"ospan-ali-mGdA2fzjWLo-unsplash.jpg","joel-mott-LaK153ghdig-unsplash.jpg",30,35
"1779","1K9vK",1228722,13,1,1.21,1,1,1,1,36,39,36,39,40,36,"ospan-ali-mGdA2fzjWLo-unsplash.jpg","philip-martin-5aGUyCW_PJw-unsplash.jpg",30,33
"1782","1K9vK",1231444,14,1,1.172,1,0,0,1,8,16,16,8,41,43,"giano-currie-5-9YOsmf8IQ-unsplash.jpg","bruce-dixon-3M9WJQVHzog-unsplash.jpg",27,28
"1785","1K9vK",1234763,15,1,1.799,0,0,1,0,27,21,27,21,74,32,"jurica-koletic-7YVZYZeITc8-unsplash.jpg","jessica-felicio-_cvwXhGqG-o-unsplash.jpg",27,30
"1788","1K9vK",1237138,16,1,0.83,1,0,0,1,14,42,42,14,38,64,"prince-akachi-l3IHXOdMyHQ-unsplash.jpg","freddy-kearney-o-ioeoATbIM-unsplash.jpg",32,24
"1791","1K9vK",1240794,17,1,2.122,0,1,1,1,35,47,35,47,69,34,"oliver-ragfelt-khV4fTy6-D8-unsplash.jpg","tyler-nix-ZGa9d1a_4tA-unsplash.jpg",34,33
"1794","1K9vK",1244184,18,1,1.858,0,0,0,1,21,34,34,21,37,32,"oliver-johnson-1TUIcKob7Zs-unsplash.jpg","jessica-felicio-_cvwXhGqG-o-unsplash.jpg",32,30
"1797","1K9vK",1247421,19,1,1.711,1,0,0,1,11,24,24,11,79,77,"joel-mott-LaK153ghdig-unsplash.jpg","christian-ferrer-8vT-DgHZDG4-unsplash.jpg",35,25
"1800","1K9vK",1250242,20,1,1.292,1,1,1,1,40,42,40,42,62,38,"prince-akachi-4Yv84VgQkRM-unsplash.jpg","prince-akachi-l3IHXOdMyHQ-unsplash.jpg",26,32
"1803","1K9vK",1253245,21,1,1.481,0,1,1,1,45,4,45,4,67,41,"sarah-noltner-pL5ZzPp1zqg-unsplash.jpg","barna-bartis-2x3vfVxwR7o-unsplash.jpg",25,29
"1806","1K9vK",1256846,22,1,2.061,0,0,0,1,45,41,41,45,71,67,"prince-akachi-i2hoD-C2RUA-unsplash.jpg","sarah-noltner-pL5ZzPp1zqg-unsplash.jpg",35,25
"1809","1K9vK",1259387,23,1,1.012,0,1,1,1,21,4,21,4,32,41,"jessica-felicio-_cvwXhGqG-o-unsplash.jpg","barna-bartis-2x3vfVxwR7o-unsplash.jpg",30,29
"1812","1K9vK",1262051,24,1,1.14,1,0,0,1,26,16,16,26,41,38,"giano-currie-5-9YOsmf8IQ-unsplash.jpg","juri-gianfrancesco-9EZadYaMzk4-unsplash.jpg",27,34
"1815","1K9vK",1266048,25,1,2.462,0,1,1,1,21,47,21,47,32,34,"jessica-felicio-_cvwXhGqG-o-unsplash.jpg","tyler-nix-ZGa9d1a_4tA-unsplash.jpg",30,33
"1818","1K9vK",1268434,26,1,0.84,1,1,1,1,14,25,14,25,64,72,"freddy-kearney-o-ioeoATbIM-unsplash.jpg","joseph-gonzalez-iFgRcqHznqg-unsplash.jpg",24,29
"1821","1K9vK",1271708,27,1,1.73,0,0,0,1,49,41,41,49,71,64,"prince-akachi-i2hoD-C2RUA-unsplash.jpg","vicky-hladynets-_gDoyVv5F4c-unsplash.jpg",35,28
"1824","1K9vK",1274333,28,1,1.103,0,0,0,1,49,4,4,49,41,64,"barna-bartis-2x3vfVxwR7o-unsplash.jpg","vicky-hladynets-_gDoyVv5F4c-unsplash.jpg",29,28
"1827","1K9vK",1277189,29,1,1.335,0,0,1,0,41,30,41,30,71,32,"prince-akachi-i2hoD-C2RUA-unsplash.jpg","matheus-ferrero-pg_WCHWSdT8-unsplash.jpg",35,24
"1830","1K9vK",1279885,30,1,1.169,0,1,1,1,21,41,21,41,32,71,"jessica-felicio-_cvwXhGqG-o-unsplash.jpg","prince-akachi-i2hoD-C2RUA-unsplash.jpg",30,35
"1833","1K9vK",1282378,31,1,0.954,1,1,1,1,8,24,8,24,43,79,"bruce-dixon-3M9WJQVHzog-unsplash.jpg","joel-mott-LaK153ghdig-unsplash.jpg",28,35
"1836","1K9vK",1285227,32,1,1.325,0,1,1,1,35,4,35,4,69,41,"oliver-ragfelt-khV4fTy6-D8-unsplash.jpg","barna-bartis-2x3vfVxwR7o-unsplash.jpg",34,29
"1839","1K9vK",1287976,33,1,1.223,0,1,1,1,45,47,45,47,67,34,"sarah-noltner-pL5ZzPp1zqg-unsplash.jpg","tyler-nix-ZGa9d1a_4tA-unsplash.jpg",25,33
"1842","1K9vK",1291206,34,1,1.707,1,1,1,1,36,2,36,2,40,77,"ospan-ali-mGdA2fzjWLo-unsplash.jpg","arjunsyah-TBUA5KHJn6k-unsplash.jpg",30,31
"1845","1K9vK",1294234,35,1,1.494,1,0,0,1,26,39,39,26,36,38,"philip-martin-5aGUyCW_PJw-unsplash.jpg","juri-gianfrancesco-9EZadYaMzk4-unsplash.jpg",33,34
"1848","1K9vK",1297099,36,1,1.324,1,0,0,1,40,16,16,40,41,62,"giano-currie-5-9YOsmf8IQ-unsplash.jpg","prince-akachi-4Yv84VgQkRM-unsplash.jpg",27,26
"1851","1K9vK",1300095,37,1,1.456,0,0,0,1,21,3,3,21,36,32,"art-hauntington-jzY0KRJopEI-unsplash.jpg","jessica-felicio-_cvwXhGqG-o-unsplash.jpg",31,30
"1854","1K9vK",1302509,38,1,0.875,1,0,0,1,14,16,16,14,41,64,"giano-currie-5-9YOsmf8IQ-unsplash.jpg","freddy-kearney-o-ioeoATbIM-unsplash.jpg",27,24
"1857","1K9vK",1305722,39,1,1.69,1,0,0,1,14,24,24,14,79,64,"joel-mott-LaK153ghdig-unsplash.jpg","freddy-kearney-o-ioeoATbIM-unsplash.jpg",35,24
"1860","1K9vK",1308875,40,1,1.624,0,1,1,1,13,4,13,4,67,41,"erik-lucatero-d2MSDujJl2g-unsplash.jpg","barna-bartis-2x3vfVxwR7o-unsplash.jpg",26,29
"1863","1K9vK",1311482,41,1,1.073,1,0,0,1,40,24,24,40,79,62,"joel-mott-LaK153ghdig-unsplash.jpg","prince-akachi-4Yv84VgQkRM-unsplash.jpg",35,26
"1866","1K9vK",1313886,42,1,0.885,1,0,0,1,8,25,25,8,72,43,"joseph-gonzalez-iFgRcqHznqg-unsplash.jpg","bruce-dixon-3M9WJQVHzog-unsplash.jpg",29,28
"1869","1K9vK",1317067,43,1,1.668,0,0,0,1,13,3,3,13,36,67,"art-hauntington-jzY0KRJopEI-unsplash.jpg","erik-lucatero-d2MSDujJl2g-unsplash.jpg",31,26
"1872","1K9vK",1320640,44,1,2.039,0,1,0,0,3,30,30,3,32,36,"matheus-ferrero-pg_WCHWSdT8-unsplash.jpg","art-hauntington-jzY0KRJopEI-unsplash.jpg",24,31
"1875","1K9vK",1323887,45,1,1.722,0,1,0,0,47,30,30,47,32,34,"matheus-ferrero-pg_WCHWSdT8-unsplash.jpg","tyler-nix-ZGa9d1a_4tA-unsplash.jpg",24,33
"1878","1K9vK",1327582,46,1,2.157,0,0,1,0,34,49,34,49,37,64,"oliver-johnson-1TUIcKob7Zs-unsplash.jpg","vicky-hladynets-_gDoyVv5F4c-unsplash.jpg",32,28
"1881","1K9vK",1330247,47,1,1.122,0,1,1,1,13,34,13,34,67,37,"erik-lucatero-d2MSDujJl2g-unsplash.jpg","oliver-johnson-1TUIcKob7Zs-unsplash.jpg",26,32
"1884","1K9vK",1333094,48,1,1.318,0,0,0,1,35,3,3,35,36,69,"art-hauntington-jzY0KRJopEI-unsplash.jpg","oliver-ragfelt-khV4fTy6-D8-unsplash.jpg",31,34
"1887","1K9vK",1335848,49,1,1.229,1,0,0,1,40,2,2,40,77,62,"arjunsyah-TBUA5KHJn6k-unsplash.jpg","prince-akachi-4Yv84VgQkRM-unsplash.jpg",31,26
"1890","1K9vK",1338746,50,1,1.38,1,1,1,1,36,25,36,25,40,72,"ospan-ali-mGdA2fzjWLo-unsplash.jpg","joseph-gonzalez-iFgRcqHznqg-unsplash.jpg",30,29
"1893","1K9vK",1341596,51,1,1.326,1,1,1,1,36,42,36,42,40,38,"ospan-ali-mGdA2fzjWLo-unsplash.jpg","prince-akachi-l3IHXOdMyHQ-unsplash.jpg",30,32
"1896","1K9vK",1344664,52,1,1.527,1,1,1,1,26,2,26,2,38,77,"juri-gianfrancesco-9EZadYaMzk4-unsplash.jpg","arjunsyah-TBUA5KHJn6k-unsplash.jpg",34,31
"1899","1K9vK",1347409,53,1,1.215,1,1,1,1,11,42,11,42,77,38,"christian-ferrer-8vT-DgHZDG4-unsplash.jpg","prince-akachi-l3IHXOdMyHQ-unsplash.jpg",25,32
"1902","1K9vK",1350749,54,1,1.805,1,0,0,1,26,42,42,26,38,38,"prince-akachi-l3IHXOdMyHQ-unsplash.jpg","juri-gianfrancesco-9EZadYaMzk4-unsplash.jpg",32,34
"1905","1K9vK",1353229,55,1,0.951,1,1,1,1,8,2,8,2,43,77,"bruce-dixon-3M9WJQVHzog-unsplash.jpg","arjunsyah-TBUA5KHJn6k-unsplash.jpg",28,31
"1908","1K9vK",1356719,56,1,1.953,1,0,0,1,11,25,25,11,72,77,"joseph-gonzalez-iFgRcqHznqg-unsplash.jpg","christian-ferrer-8vT-DgHZDG4-unsplash.jpg",29,25
"1911","1K9vK",1360767,57,1,NA,0,1,NA,NA,NA,NA,30,4,32,41,"matheus-ferrero-pg_WCHWSdT8-unsplash.jpg","barna-bartis-2x3vfVxwR7o-unsplash.jpg",24,29
"1914","1K9vK",1364874,58,1,1.587,0,0,0,1,45,3,3,45,36,67,"art-hauntington-jzY0KRJopEI-unsplash.jpg","sarah-noltner-pL5ZzPp1zqg-unsplash.jpg",31,25
"1917","1K9vK",1367607,59,1,1.208,1,1,1,1,36,16,36,16,40,41,"ospan-ali-mGdA2fzjWLo-unsplash.jpg","giano-currie-5-9YOsmf8IQ-unsplash.jpg",30,27
"1920","1K9vK",1370262,60,1,1.138,1,1,1,1,40,25,40,25,62,72,"prince-akachi-4Yv84VgQkRM-unsplash.jpg","joseph-gonzalez-iFgRcqHznqg-unsplash.jpg",26,29
"1923","1K9vK",1372485,61,1,0.691,1,0,0,1,8,39,39,8,36,43,"philip-martin-5aGUyCW_PJw-unsplash.jpg","bruce-dixon-3M9WJQVHzog-unsplash.jpg",33,28
"1926","1K9vK",1375017,62,1,1.01,0,1,1,1,35,27,35,27,69,74,"oliver-ragfelt-khV4fTy6-D8-unsplash.jpg","jurica-koletic-7YVZYZeITc8-unsplash.jpg",34,27
"1929","1K9vK",1377569,63,1,1.026,1,0,0,1,14,39,39,14,36,64,"philip-martin-5aGUyCW_PJw-unsplash.jpg","freddy-kearney-o-ioeoATbIM-unsplash.jpg",33,24
"1932","1K9vK",1380188,64,1,1.081,1,1,1,1,11,16,11,16,77,41,"christian-ferrer-8vT-DgHZDG4-unsplash.jpg","giano-currie-5-9YOsmf8IQ-unsplash.jpg",25,27
"1935","1K9vK",1383100,65,1,1.371,0,1,1,1,13,47,13,47,67,34,"erik-lucatero-d2MSDujJl2g-unsplash.jpg","tyler-nix-ZGa9d1a_4tA-unsplash.jpg",26,33
"1938","1K9vK",1385911,66,1,1.277,1,0,0,1,26,24,24,26,79,38,"joel-mott-LaK153ghdig-unsplash.jpg","juri-gianfrancesco-9EZadYaMzk4-unsplash.jpg",35,34
"1941","1K9vK",1388771,67,1,1.34,1,0,0,1,8,42,42,8,38,43,"prince-akachi-l3IHXOdMyHQ-unsplash.jpg","bruce-dixon-3M9WJQVHzog-unsplash.jpg",32,28
"1944","1K9vK",1392118,68,1,1.818,1,1,1,1,26,25,26,25,38,72,"juri-gianfrancesco-9EZadYaMzk4-unsplash.jpg","joseph-gonzalez-iFgRcqHznqg-unsplash.jpg",34,29
"1947","1K9vK",1394919,69,1,1.28,0,1,1,1,45,34,45,34,67,37,"sarah-noltner-pL5ZzPp1zqg-unsplash.jpg","oliver-johnson-1TUIcKob7Zs-unsplash.jpg",25,32
"1950","1K9vK",1397852,70,1,1.393,0,0,0,1,13,41,41,13,71,67,"prince-akachi-i2hoD-C2RUA-unsplash.jpg","erik-lucatero-d2MSDujJl2g-unsplash.jpg",35,26
"1953","1K9vK",1400775,71,1,1.402,0,1,1,1,49,47,49,47,64,34,"vicky-hladynets-_gDoyVv5F4c-unsplash.jpg","tyler-nix-ZGa9d1a_4tA-unsplash.jpg",28,33
"1957","1K9vK",1406496,72,2,1.5,0,0,0,1,35,4,4,35,41,69,"barna-bartis-2x3vfVxwR7o-unsplash.jpg","oliver-ragfelt-khV4fTy6-D8-unsplash.jpg",29,34
"1960","1K9vK",1409601,73,2,1.565,0,0,0,1,35,27,27,35,74,69,"jurica-koletic-7YVZYZeITc8-unsplash.jpg","oliver-ragfelt-khV4fTy6-D8-unsplash.jpg",27,34
"1963","1K9vK",1412168,74,2,1.028,0,1,1,1,35,47,35,47,69,34,"oliver-ragfelt-khV4fTy6-D8-unsplash.jpg","tyler-nix-ZGa9d1a_4tA-unsplash.jpg",34,33
"1966","1K9vK",1414929,75,2,1.233,1,1,1,1,8,16,8,16,43,41,"bruce-dixon-3M9WJQVHzog-unsplash.jpg","giano-currie-5-9YOsmf8IQ-unsplash.jpg",28,27
"1969","1K9vK",1418491,76,2,2.014,0,0,0,1,21,41,41,21,71,32,"prince-akachi-i2hoD-C2RUA-unsplash.jpg","jessica-felicio-_cvwXhGqG-o-unsplash.jpg",35,30
"1972","1K9vK",1421860,77,2,1.835,1,0,0,1,40,2,2,40,77,62,"arjunsyah-TBUA5KHJn6k-unsplash.jpg","prince-akachi-4Yv84VgQkRM-unsplash.jpg",31,26
"1975","1K9vK",1425306,78,2,1.908,0,1,1,1,45,34,45,34,67,37,"sarah-noltner-pL5ZzPp1zqg-unsplash.jpg","oliver-johnson-1TUIcKob7Zs-unsplash.jpg",25,32
"1978","1K9vK",1427924,79,2,1.074,0,1,1,1,21,4,21,4,32,41,"jessica-felicio-_cvwXhGqG-o-unsplash.jpg","barna-bartis-2x3vfVxwR7o-unsplash.jpg",30,29
"1981","1K9vK",1430335,80,2,0.889,1,0,0,1,11,39,39,11,36,77,"philip-martin-5aGUyCW_PJw-unsplash.jpg","christian-ferrer-8vT-DgHZDG4-unsplash.jpg",33,25
"1984","1K9vK",1433341,81,2,1.469,1,1,1,1,14,39,14,39,64,36,"freddy-kearney-o-ioeoATbIM-unsplash.jpg","philip-martin-5aGUyCW_PJw-unsplash.jpg",24,33
"1987","1K9vK",1436120,82,2,1.251,0,0,0,1,35,3,3,35,36,69,"art-hauntington-jzY0KRJopEI-unsplash.jpg","oliver-ragfelt-khV4fTy6-D8-unsplash.jpg",31,34
"1990","1K9vK",1439343,83,2,1.697,0,1,1,1,49,27,49,27,64,74,"vicky-hladynets-_gDoyVv5F4c-unsplash.jpg","jurica-koletic-7YVZYZeITc8-unsplash.jpg",28,27
"1993","1K9vK",1442393,84,2,1.529,1,0,0,1,36,25,25,36,72,40,"joseph-gonzalez-iFgRcqHznqg-unsplash.jpg","ospan-ali-mGdA2fzjWLo-unsplash.jpg",29,30
"1996","1K9vK",1445275,85,2,1.349,1,0,0,1,40,42,42,40,38,62,"prince-akachi-l3IHXOdMyHQ-unsplash.jpg","prince-akachi-4Yv84VgQkRM-unsplash.jpg",32,26
"1999","1K9vK",1447902,86,2,1.101,1,1,1,1,40,24,40,24,62,79,"prince-akachi-4Yv84VgQkRM-unsplash.jpg","joel-mott-LaK153ghdig-unsplash.jpg",26,35
"2002","1K9vK",1450827,87,2,1.396,0,1,1,1,45,3,45,3,67,36,"sarah-noltner-pL5ZzPp1zqg-unsplash.jpg","art-hauntington-jzY0KRJopEI-unsplash.jpg",25,31
"2005","1K9vK",1453434,88,2,1.088,1,1,1,1,14,24,14,24,64,79,"freddy-kearney-o-ioeoATbIM-unsplash.jpg","joel-mott-LaK153ghdig-unsplash.jpg",24,35
"2008","1K9vK",1455936,89,2,0.972,1,0,0,1,36,16,16,36,41,40,"giano-currie-5-9YOsmf8IQ-unsplash.jpg","ospan-ali-mGdA2fzjWLo-unsplash.jpg",27,30
"2011","1K9vK",1459005,90,2,1.542,0,0,0,1,49,47,47,49,34,64,"tyler-nix-ZGa9d1a_4tA-unsplash.jpg","vicky-hladynets-_gDoyVv5F4c-unsplash.jpg",33,28
"2014","1K9vK",1462768,91,2,2.235,0,1,0,0,41,35,35,41,69,71,"oliver-ragfelt-khV4fTy6-D8-unsplash.jpg","prince-akachi-i2hoD-C2RUA-unsplash.jpg",34,35
"2017","1K9vK",1465175,92,2,0.882,0,0,1,0,34,30,34,30,37,32,"oliver-johnson-1TUIcKob7Zs-unsplash.jpg","matheus-ferrero-pg_WCHWSdT8-unsplash.jpg",32,24
"2020","1K9vK",1467670,93,2,0.964,0,1,1,1,30,27,30,27,32,74,"matheus-ferrero-pg_WCHWSdT8-unsplash.jpg","jurica-koletic-7YVZYZeITc8-unsplash.jpg",24,27
"2023","1K9vK",1469980,94,2,0.773,1,1,1,1,14,42,14,42,64,38,"freddy-kearney-o-ioeoATbIM-unsplash.jpg","prince-akachi-l3IHXOdMyHQ-unsplash.jpg",24,32
"2026","1K9vK",1472581,95,2,1.065,1,1,1,1,11,16,11,16,77,41,"christian-ferrer-8vT-DgHZDG4-unsplash.jpg","giano-currie-5-9YOsmf8IQ-unsplash.jpg",25,27
"2029","1K9vK",1475161,96,2,1.059,1,1,1,1,8,42,8,42,43,38,"bruce-dixon-3M9WJQVHzog-unsplash.jpg","prince-akachi-l3IHXOdMyHQ-unsplash.jpg",28,32
"2032","1K9vK",1477946,97,2,1.258,1,0,0,1,36,42,42,36,38,40,"prince-akachi-l3IHXOdMyHQ-unsplash.jpg","ospan-ali-mGdA2fzjWLo-unsplash.jpg",32,30
"2035","1K9vK",1480262,98,2,0.794,1,1,1,1,40,16,40,16,62,41,"prince-akachi-4Yv84VgQkRM-unsplash.jpg","giano-currie-5-9YOsmf8IQ-unsplash.jpg",26,27
"2038","1K9vK",1483145,99,2,1.35,0,0,0,1,21,34,34,21,37,32,"oliver-johnson-1TUIcKob7Zs-unsplash.jpg","jessica-felicio-_cvwXhGqG-o-unsplash.jpg",32,30
"2041","1K9vK",1485428,100,2,0.752,0,1,1,1,21,3,21,3,32,36,"jessica-felicio-_cvwXhGqG-o-unsplash.jpg","art-hauntington-jzY0KRJopEI-unsplash.jpg",30,31
"2044","1K9vK",1487857,101,2,0.896,1,1,1,1,26,42,26,42,38,38,"juri-gianfrancesco-9EZadYaMzk4-unsplash.jpg","prince-akachi-l3IHXOdMyHQ-unsplash.jpg",34,32
"2047","1K9vK",1490404,102,2,1.018,0,0,0,1,13,27,27,13,74,67,"jurica-koletic-7YVZYZeITc8-unsplash.jpg","erik-lucatero-d2MSDujJl2g-unsplash.jpg",27,26
"2050","1K9vK",1493756,103,2,1.801,0,1,1,1,49,41,49,41,64,71,"vicky-hladynets-_gDoyVv5F4c-unsplash.jpg","prince-akachi-i2hoD-C2RUA-unsplash.jpg",28,35
"2053","1K9vK",1496020,104,2,0.732,1,1,1,1,11,25,11,25,77,72,"christian-ferrer-8vT-DgHZDG4-unsplash.jpg","joseph-gonzalez-iFgRcqHznqg-unsplash.jpg",25,29
"2056","1K9vK",1498177,105,2,0.638,0,0,1,0,41,45,41,45,71,67,"prince-akachi-i2hoD-C2RUA-unsplash.jpg","sarah-noltner-pL5ZzPp1zqg-unsplash.jpg",35,25
"2059","1K9vK",1500267,106,2,0.573,0,0,1,0,41,30,41,30,71,32,"prince-akachi-i2hoD-C2RUA-unsplash.jpg","matheus-ferrero-pg_WCHWSdT8-unsplash.jpg",35,24
"2062","1K9vK",1502517,107,2,0.725,1,1,1,1,8,25,8,25,43,72,"bruce-dixon-3M9WJQVHzog-unsplash.jpg","joseph-gonzalez-iFgRcqHznqg-unsplash.jpg",28,29
"2065","1K9vK",1504716,108,2,0.661,1,1,1,1,26,39,26,39,38,36,"juri-gianfrancesco-9EZadYaMzk4-unsplash.jpg","philip-martin-5aGUyCW_PJw-unsplash.jpg",34,33
"2068","1K9vK",1506911,109,2,0.672,1,1,1,1,11,2,11,2,77,77,"christian-ferrer-8vT-DgHZDG4-unsplash.jpg","arjunsyah-TBUA5KHJn6k-unsplash.jpg",25,31
"2071","1K9vK",1509348,110,2,0.909,1,1,1,1,36,24,36,24,40,79,"ospan-ali-mGdA2fzjWLo-unsplash.jpg","joel-mott-LaK153ghdig-unsplash.jpg",30,35
"2074","1K9vK",1511817,111,2,0.942,0,0,0,1,49,4,4,49,41,64,"barna-bartis-2x3vfVxwR7o-unsplash.jpg","vicky-hladynets-_gDoyVv5F4c-unsplash.jpg",29,28
"2077","1K9vK",1514641,112,2,1.303,0,0,0,1,30,47,47,30,34,32,"tyler-nix-ZGa9d1a_4tA-unsplash.jpg","matheus-ferrero-pg_WCHWSdT8-unsplash.jpg",33,24
"2080","1K9vK",1517859,113,2,1.688,0,0,0,1,45,47,47,45,34,67,"tyler-nix-ZGa9d1a_4tA-unsplash.jpg","sarah-noltner-pL5ZzPp1zqg-unsplash.jpg",33,25
"2083","1K9vK",1521884,114,2,NA,0,1,NA,NA,NA,NA,45,27,67,74,"sarah-noltner-pL5ZzPp1zqg-unsplash.jpg","jurica-koletic-7YVZYZeITc8-unsplash.jpg",25,27
"2086","1K9vK",1525590,115,2,1.175,1,0,0,1,26,2,2,26,77,38,"arjunsyah-TBUA5KHJn6k-unsplash.jpg","juri-gianfrancesco-9EZadYaMzk4-unsplash.jpg",31,34
"2089","1K9vK",1528107,116,2,0.99,0,1,1,1,13,47,13,47,67,34,"erik-lucatero-d2MSDujJl2g-unsplash.jpg","tyler-nix-ZGa9d1a_4tA-unsplash.jpg",26,33
"2092","1K9vK",1530741,117,2,1.098,1,0,0,1,11,42,42,11,38,77,"prince-akachi-l3IHXOdMyHQ-unsplash.jpg","christian-ferrer-8vT-DgHZDG4-unsplash.jpg",32,25
"2095","1K9vK",1534724,118,2,2.444,0,1,1,1,49,3,49,3,64,36,"vicky-hladynets-_gDoyVv5F4c-unsplash.jpg","art-hauntington-jzY0KRJopEI-unsplash.jpg",28,31
"2098","1K9vK",1537477,119,2,1.217,1,1,1,1,8,24,8,24,43,79,"bruce-dixon-3M9WJQVHzog-unsplash.jpg","joel-mott-LaK153ghdig-unsplash.jpg",28,35
"2101","1K9vK",1540694,120,2,1.68,0,0,0,1,13,3,3,13,36,67,"art-hauntington-jzY0KRJopEI-unsplash.jpg","erik-lucatero-d2MSDujJl2g-unsplash.jpg",31,26
"2104","1K9vK",1543433,121,2,1.218,1,1,1,1,26,24,26,24,38,79,"juri-gianfrancesco-9EZadYaMzk4-unsplash.jpg","joel-mott-LaK153ghdig-unsplash.jpg",34,35
"2107","1K9vK",1545852,122,2,0.89,1,0,1,0,39,36,39,36,36,40,"philip-martin-5aGUyCW_PJw-unsplash.jpg","ospan-ali-mGdA2fzjWLo-unsplash.jpg",33,30
"2110","1K9vK",1548562,123,2,1.187,0,1,0,0,34,49,49,34,64,37,"vicky-hladynets-_gDoyVv5F4c-unsplash.jpg","oliver-johnson-1TUIcKob7Zs-unsplash.jpg",28,32
"2113","1K9vK",1551160,124,2,1.081,0,1,1,1,21,27,21,27,32,74,"jessica-felicio-_cvwXhGqG-o-unsplash.jpg","jurica-koletic-7YVZYZeITc8-unsplash.jpg",30,27
"2116","1K9vK",1553540,125,2,0.849,1,0,0,1,8,39,39,8,36,43,"philip-martin-5aGUyCW_PJw-unsplash.jpg","bruce-dixon-3M9WJQVHzog-unsplash.jpg",33,28
"2119","1K9vK",1556352,126,2,1.273,1,1,1,1,40,25,40,25,62,72,"prince-akachi-4Yv84VgQkRM-unsplash.jpg","joseph-gonzalez-iFgRcqHznqg-unsplash.jpg",26,29
"2122","1K9vK",1558846,127,2,0.976,1,0,0,1,14,16,16,14,41,64,"giano-currie-5-9YOsmf8IQ-unsplash.jpg","freddy-kearney-o-ioeoATbIM-unsplash.jpg",27,24
"2125","1K9vK",1561546,128,2,1.169,1,0,0,1,11,24,24,11,79,77,"joel-mott-LaK153ghdig-unsplash.jpg","christian-ferrer-8vT-DgHZDG4-unsplash.jpg",35,25
"2128","1K9vK",1563983,129,2,0.888,1,0,0,1,14,2,2,14,77,64,"arjunsyah-TBUA5KHJn6k-unsplash.jpg","freddy-kearney-o-ioeoATbIM-unsplash.jpg",31,24
"2131","1K9vK",1566616,130,2,1.115,0,1,0,0,34,35,35,34,69,37,"oliver-ragfelt-khV4fTy6-D8-unsplash.jpg","oliver-johnson-1TUIcKob7Zs-unsplash.jpg",34,32
"2134","1K9vK",1568797,131,2,0.636,1,1,1,1,8,2,8,2,43,77,"bruce-dixon-3M9WJQVHzog-unsplash.jpg","arjunsyah-TBUA5KHJn6k-unsplash.jpg",28,31
"2137","1K9vK",1571773,132,2,1.442,0,1,1,1,30,3,30,3,32,36,"matheus-ferrero-pg_WCHWSdT8-unsplash.jpg","art-hauntington-jzY0KRJopEI-unsplash.jpg",24,31
"2140","1K9vK",1574234,133,2,0.919,0,1,1,1,30,4,30,4,32,41,"matheus-ferrero-pg_WCHWSdT8-unsplash.jpg","barna-bartis-2x3vfVxwR7o-unsplash.jpg",24,29
"2143","1K9vK",1576705,134,2,0.939,1,0,0,1,26,25,25,26,72,38,"joseph-gonzalez-iFgRcqHznqg-unsplash.jpg","juri-gianfrancesco-9EZadYaMzk4-unsplash.jpg",29,34
"2146","1K9vK",1579697,135,2,1.457,0,0,1,0,41,13,41,13,71,67,"prince-akachi-i2hoD-C2RUA-unsplash.jpg","erik-lucatero-d2MSDujJl2g-unsplash.jpg",35,26
"2149","1K9vK",1582047,136,2,0.801,0,0,0,1,13,4,4,13,41,67,"barna-bartis-2x3vfVxwR7o-unsplash.jpg","erik-lucatero-d2MSDujJl2g-unsplash.jpg",29,26
"2152","1K9vK",1584393,137,2,0.813,1,0,0,1,40,39,39,40,36,62,"philip-martin-5aGUyCW_PJw-unsplash.jpg","prince-akachi-4Yv84VgQkRM-unsplash.jpg",33,26
"2155","1K9vK",1587284,138,2,1.356,0,0,0,1,13,34,34,13,37,67,"oliver-johnson-1TUIcKob7Zs-unsplash.jpg","erik-lucatero-d2MSDujJl2g-unsplash.jpg",32,26
"2158","1K9vK",1589783,139,2,0.984,1,0,0,1,36,2,2,36,77,40,"arjunsyah-TBUA5KHJn6k-unsplash.jpg","ospan-ali-mGdA2fzjWLo-unsplash.jpg",31,30
"2161","1K9vK",1592101,140,2,0.798,1,0,0,1,26,16,16,26,41,38,"giano-currie-5-9YOsmf8IQ-unsplash.jpg","juri-gianfrancesco-9EZadYaMzk4-unsplash.jpg",27,34
"2164","1K9vK",1594414,141,2,0.792,1,0,0,1,14,25,25,14,72,64,"joseph-gonzalez-iFgRcqHznqg-unsplash.jpg","freddy-kearney-o-ioeoATbIM-unsplash.jpg",29,24
"2167","1K9vK",1597091,142,2,1.162,0,0,0,1,45,4,4,45,41,67,"barna-bartis-2x3vfVxwR7o-unsplash.jpg","sarah-noltner-pL5ZzPp1zqg-unsplash.jpg",29,25
"2170","1K9vK",1599506,143,2,0.886,0,1,1,1,21,47,21,47,32,34,"jessica-felicio-_cvwXhGqG-o-unsplash.jpg","tyler-nix-ZGa9d1a_4tA-unsplash.jpg",30,33
"2174","1K9vK",1605182,144,3,0.853,0,0,1,0,41,35,41,35,71,69,"prince-akachi-i2hoD-C2RUA-unsplash.jpg","oliver-ragfelt-khV4fTy6-D8-unsplash.jpg",35,34
"2177","1K9vK",1607803,145,3,1.087,0,1,1,1,35,34,35,34,69,37,"oliver-ragfelt-khV4fTy6-D8-unsplash.jpg","oliver-johnson-1TUIcKob7Zs-unsplash.jpg",34,32
"2180","1K9vK",1610108,146,3,0.768,1,0,0,1,14,2,2,14,77,64,"arjunsyah-TBUA5KHJn6k-unsplash.jpg","freddy-kearney-o-ioeoATbIM-unsplash.jpg",31,24
"2183","1K9vK",1612666,147,3,1.042,0,0,0,1,21,3,3,21,36,32,"art-hauntington-jzY0KRJopEI-unsplash.jpg","jessica-felicio-_cvwXhGqG-o-unsplash.jpg",31,30
"2186","1K9vK",1615062,148,3,0.876,1,1,1,1,11,16,11,16,77,41,"christian-ferrer-8vT-DgHZDG4-unsplash.jpg","giano-currie-5-9YOsmf8IQ-unsplash.jpg",25,27
"2189","1K9vK",1617396,149,3,0.805,0,1,0,0,4,49,49,4,64,41,"vicky-hladynets-_gDoyVv5F4c-unsplash.jpg","barna-bartis-2x3vfVxwR7o-unsplash.jpg",28,29
"2192","1K9vK",1619659,150,3,0.741,1,0,0,1,11,25,25,11,72,77,"joseph-gonzalez-iFgRcqHznqg-unsplash.jpg","christian-ferrer-8vT-DgHZDG4-unsplash.jpg",29,25
"2195","1K9vK",1622569,151,3,1.391,1,0,0,1,40,42,42,40,38,62,"prince-akachi-l3IHXOdMyHQ-unsplash.jpg","prince-akachi-4Yv84VgQkRM-unsplash.jpg",32,26
"2198","1K9vK",1624877,152,3,0.762,1,0,0,1,26,2,2,26,77,38,"arjunsyah-TBUA5KHJn6k-unsplash.jpg","juri-gianfrancesco-9EZadYaMzk4-unsplash.jpg",31,34
"2201","1K9vK",1627082,153,3,0.674,1,1,1,1,14,24,14,24,64,79,"freddy-kearney-o-ioeoATbIM-unsplash.jpg","joel-mott-LaK153ghdig-unsplash.jpg",24,35
"2204","1K9vK",1629441,154,3,0.821,1,1,1,1,8,25,8,25,43,72,"bruce-dixon-3M9WJQVHzog-unsplash.jpg","joseph-gonzalez-iFgRcqHznqg-unsplash.jpg",28,29
"2207","1K9vK",1631702,155,3,0.732,0,0,0,1,13,47,47,13,34,67,"tyler-nix-ZGa9d1a_4tA-unsplash.jpg","erik-lucatero-d2MSDujJl2g-unsplash.jpg",33,26
"2210","1K9vK",1633867,156,3,0.634,1,0,0,1,11,2,2,11,77,77,"arjunsyah-TBUA5KHJn6k-unsplash.jpg","christian-ferrer-8vT-DgHZDG4-unsplash.jpg",31,25
"2213","1K9vK",1636254,157,3,0.845,0,1,1,1,35,3,35,3,69,36,"oliver-ragfelt-khV4fTy6-D8-unsplash.jpg","art-hauntington-jzY0KRJopEI-unsplash.jpg",34,31
"2216","1K9vK",1638566,158,3,0.799,1,1,1,1,40,25,40,25,62,72,"prince-akachi-4Yv84VgQkRM-unsplash.jpg","joseph-gonzalez-iFgRcqHznqg-unsplash.jpg",26,29
"2219","1K9vK",1641231,159,3,1.141,1,0,0,1,14,39,39,14,36,64,"philip-martin-5aGUyCW_PJw-unsplash.jpg","freddy-kearney-o-ioeoATbIM-unsplash.jpg",33,24
"2222","1K9vK",1643563,160,3,0.791,0,1,1,1,21,47,21,47,32,34,"jessica-felicio-_cvwXhGqG-o-unsplash.jpg","tyler-nix-ZGa9d1a_4tA-unsplash.jpg",30,33
"2225","1K9vK",1646218,161,3,1.135,0,1,1,1,30,27,30,27,32,74,"matheus-ferrero-pg_WCHWSdT8-unsplash.jpg","jurica-koletic-7YVZYZeITc8-unsplash.jpg",24,27
"2228","1K9vK",1648861,162,3,1.103,0,1,0,0,41,21,21,41,32,71,"jessica-felicio-_cvwXhGqG-o-unsplash.jpg","prince-akachi-i2hoD-C2RUA-unsplash.jpg",30,35
"2231","1K9vK",1652244,163,3,1.85,0,0,0,1,30,47,47,30,34,32,"tyler-nix-ZGa9d1a_4tA-unsplash.jpg","matheus-ferrero-pg_WCHWSdT8-unsplash.jpg",33,24
"2234","1K9vK",1655260,164,3,1.481,0,0,0,1,49,34,34,49,37,64,"oliver-johnson-1TUIcKob7Zs-unsplash.jpg","vicky-hladynets-_gDoyVv5F4c-unsplash.jpg",32,28
"2237","1K9vK",1657980,165,3,1.184,1,0,0,1,36,2,2,36,77,40,"arjunsyah-TBUA5KHJn6k-unsplash.jpg","ospan-ali-mGdA2fzjWLo-unsplash.jpg",31,30
"2240","1K9vK",1660531,166,3,1.022,0,0,0,1,13,4,4,13,41,67,"barna-bartis-2x3vfVxwR7o-unsplash.jpg","erik-lucatero-d2MSDujJl2g-unsplash.jpg",29,26
"2243","1K9vK",1663109,167,3,1.042,0,1,0,0,41,30,30,41,32,71,"matheus-ferrero-pg_WCHWSdT8-unsplash.jpg","prince-akachi-i2hoD-C2RUA-unsplash.jpg",24,35
"2246","1K9vK",1666453,168,3,1.812,0,0,0,1,30,34,34,30,37,32,"oliver-johnson-1TUIcKob7Zs-unsplash.jpg","matheus-ferrero-pg_WCHWSdT8-unsplash.jpg",32,24
"2249","1K9vK",1668687,169,3,0.689,1,0,0,1,8,2,2,8,77,43,"arjunsyah-TBUA5KHJn6k-unsplash.jpg","bruce-dixon-3M9WJQVHzog-unsplash.jpg",31,28
"2252","1K9vK",1671275,170,3,1.046,1,1,1,1,40,16,40,16,62,41,"prince-akachi-4Yv84VgQkRM-unsplash.jpg","giano-currie-5-9YOsmf8IQ-unsplash.jpg",26,27
"2255","1K9vK",1674130,171,3,1.316,0,1,1,1,30,4,30,4,32,41,"matheus-ferrero-pg_WCHWSdT8-unsplash.jpg","barna-bartis-2x3vfVxwR7o-unsplash.jpg",24,29
"2258","1K9vK",1676916,172,3,1.254,0,0,0,1,35,27,27,35,74,69,"jurica-koletic-7YVZYZeITc8-unsplash.jpg","oliver-ragfelt-khV4fTy6-D8-unsplash.jpg",27,34
"2261","1K9vK",1679477,173,3,1.018,1,0,0,1,26,16,16,26,41,38,"giano-currie-5-9YOsmf8IQ-unsplash.jpg","juri-gianfrancesco-9EZadYaMzk4-unsplash.jpg",27,34
"2264","1K9vK",1682441,174,3,1.423,0,1,1,1,45,3,45,3,67,36,"sarah-noltner-pL5ZzPp1zqg-unsplash.jpg","art-hauntington-jzY0KRJopEI-unsplash.jpg",25,31
"2267","1K9vK",1684638,175,3,0.656,1,0,0,1,40,2,2,40,77,62,"arjunsyah-TBUA5KHJn6k-unsplash.jpg","prince-akachi-4Yv84VgQkRM-unsplash.jpg",31,26
"2270","1K9vK",1687438,176,3,1.261,0,1,0,0,27,49,49,27,64,74,"vicky-hladynets-_gDoyVv5F4c-unsplash.jpg","jurica-koletic-7YVZYZeITc8-unsplash.jpg",28,27
"2273","1K9vK",1689961,177,3,0.983,0,0,0,1,35,4,4,35,41,69,"barna-bartis-2x3vfVxwR7o-unsplash.jpg","oliver-ragfelt-khV4fTy6-D8-unsplash.jpg",29,34
"2276","1K9vK",1692506,178,3,1.005,0,1,1,1,21,27,21,27,32,74,"jessica-felicio-_cvwXhGqG-o-unsplash.jpg","jurica-koletic-7YVZYZeITc8-unsplash.jpg",30,27
"2279","1K9vK",1695039,179,3,1.001,1,1,1,1,8,39,8,39,43,36,"bruce-dixon-3M9WJQVHzog-unsplash.jpg","philip-martin-5aGUyCW_PJw-unsplash.jpg",28,33
"2282","1K9vK",1697574,180,3,1.002,1,0,0,1,11,39,39,11,36,77,"philip-martin-5aGUyCW_PJw-unsplash.jpg","christian-ferrer-8vT-DgHZDG4-unsplash.jpg",33,25
"2285","1K9vK",1700177,181,3,1.057,1,0,0,1,36,42,42,36,38,40,"prince-akachi-l3IHXOdMyHQ-unsplash.jpg","ospan-ali-mGdA2fzjWLo-unsplash.jpg",32,30
"2288","1K9vK",1703496,182,3,1.795,0,1,1,1,45,4,45,4,67,41,"sarah-noltner-pL5ZzPp1zqg-unsplash.jpg","barna-bartis-2x3vfVxwR7o-unsplash.jpg",25,29
"2291","1K9vK",1706417,183,3,1.39,0,1,1,1,30,3,30,3,32,36,"matheus-ferrero-pg_WCHWSdT8-unsplash.jpg","art-hauntington-jzY0KRJopEI-unsplash.jpg",24,31
"2294","1K9vK",1709053,184,3,1.105,0,1,1,1,45,47,45,47,67,34,"sarah-noltner-pL5ZzPp1zqg-unsplash.jpg","tyler-nix-ZGa9d1a_4tA-unsplash.jpg",25,33
"2297","1K9vK",1712586,185,3,2.002,1,1,1,1,26,25,26,25,38,72,"juri-gianfrancesco-9EZadYaMzk4-unsplash.jpg","joseph-gonzalez-iFgRcqHznqg-unsplash.jpg",34,29
"2300","1K9vK",1714822,186,3,0.7,0,0,0,1,21,4,4,21,41,32,"barna-bartis-2x3vfVxwR7o-unsplash.jpg","jessica-felicio-_cvwXhGqG-o-unsplash.jpg",29,30
"2303","1K9vK",1716930,187,3,0.575,1,1,1,1,8,42,8,42,43,38,"bruce-dixon-3M9WJQVHzog-unsplash.jpg","prince-akachi-l3IHXOdMyHQ-unsplash.jpg",28,32
"2306","1K9vK",1720098,188,3,1.63,1,0,0,1,36,16,16,36,41,40,"giano-currie-5-9YOsmf8IQ-unsplash.jpg","ospan-ali-mGdA2fzjWLo-unsplash.jpg",27,30
"2309","1K9vK",1723934,189,3,2.307,0,0,0,1,45,27,27,45,74,67,"jurica-koletic-7YVZYZeITc8-unsplash.jpg","sarah-noltner-pL5ZzPp1zqg-unsplash.jpg",27,25
"2312","1K9vK",1726483,190,3,1.027,1,1,1,1,8,24,8,24,43,79,"bruce-dixon-3M9WJQVHzog-unsplash.jpg","joel-mott-LaK153ghdig-unsplash.jpg",28,35
"2315","1K9vK",1729248,191,3,1.234,0,0,0,1,49,47,47,49,34,64,"tyler-nix-ZGa9d1a_4tA-unsplash.jpg","vicky-hladynets-_gDoyVv5F4c-unsplash.jpg",33,28
"2318","1K9vK",1731684,192,3,0.913,0,1,0,0,41,45,45,41,67,71,"sarah-noltner-pL5ZzPp1zqg-unsplash.jpg","prince-akachi-i2hoD-C2RUA-unsplash.jpg",25,35
"2321","1K9vK",1734097,193,3,0.87,1,1,1,1,11,42,11,42,77,38,"christian-ferrer-8vT-DgHZDG4-unsplash.jpg","prince-akachi-l3IHXOdMyHQ-unsplash.jpg",25,32
"2324","1K9vK",1736338,194,3,0.712,1,1,1,1,40,39,40,39,62,36,"prince-akachi-4Yv84VgQkRM-unsplash.jpg","philip-martin-5aGUyCW_PJw-unsplash.jpg",26,33
"2327","1K9vK",1738634,195,3,0.752,0,1,1,1,21,34,21,34,32,37,"jessica-felicio-_cvwXhGqG-o-unsplash.jpg","oliver-johnson-1TUIcKob7Zs-unsplash.jpg",30,32
"2330","1K9vK",1741748,196,3,1.584,0,0,0,1,13,34,34,13,37,67,"oliver-johnson-1TUIcKob7Zs-unsplash.jpg","erik-lucatero-d2MSDujJl2g-unsplash.jpg",32,26
"2333","1K9vK",1745168,197,3,1.876,1,0,0,1,26,42,42,26,38,38,"prince-akachi-l3IHXOdMyHQ-unsplash.jpg","juri-gianfrancesco-9EZadYaMzk4-unsplash.jpg",32,34
"2336","1K9vK",1747672,198,3,0.974,1,1,1,1,36,25,36,25,40,72,"ospan-ali-mGdA2fzjWLo-unsplash.jpg","joseph-gonzalez-iFgRcqHznqg-unsplash.jpg",30,29
"2339","1K9vK",1750142,199,3,0.934,1,1,1,1,14,42,14,42,64,38,"freddy-kearney-o-ioeoATbIM-unsplash.jpg","prince-akachi-l3IHXOdMyHQ-unsplash.jpg",24,32
"2342","1K9vK",1752637,200,3,0.962,1,1,1,1,40,24,40,24,62,79,"prince-akachi-4Yv84VgQkRM-unsplash.jpg","joel-mott-LaK153ghdig-unsplash.jpg",26,35
"2345","1K9vK",1755341,201,3,1.159,0,0,0,1,35,47,47,35,34,69,"tyler-nix-ZGa9d1a_4tA-unsplash.jpg","oliver-ragfelt-khV4fTy6-D8-unsplash.jpg",33,34
"2348","1K9vK",1757608,202,3,0.723,1,1,1,1,26,24,26,24,38,79,"juri-gianfrancesco-9EZadYaMzk4-unsplash.jpg","joel-mott-LaK153ghdig-unsplash.jpg",34,35
"2351","1K9vK",1760686,203,3,1.545,0,0,1,0,41,13,41,13,71,67,"prince-akachi-i2hoD-C2RUA-unsplash.jpg","erik-lucatero-d2MSDujJl2g-unsplash.jpg",35,26
"2354","1K9vK",1763807,204,3,1.606,1,1,1,1,36,24,36,24,40,79,"ospan-ali-mGdA2fzjWLo-unsplash.jpg","joel-mott-LaK153ghdig-unsplash.jpg",30,35
"2357","1K9vK",1766378,205,3,1.042,1,0,0,1,26,39,39,26,36,38,"philip-martin-5aGUyCW_PJw-unsplash.jpg","juri-gianfrancesco-9EZadYaMzk4-unsplash.jpg",33,34
"2360","1K9vK",1769334,206,3,1.431,1,1,1,1,14,25,14,25,64,72,"freddy-kearney-o-ioeoATbIM-unsplash.jpg","joseph-gonzalez-iFgRcqHznqg-unsplash.jpg",24,29
"2363","1K9vK",1771468,207,3,0.61,1,1,0,0,39,36,36,39,40,36,"ospan-ali-mGdA2fzjWLo-unsplash.jpg","philip-martin-5aGUyCW_PJw-unsplash.jpg",30,33
"2366","1K9vK",1774252,208,3,1.259,0,1,0,0,3,49,49,3,64,36,"vicky-hladynets-_gDoyVv5F4c-unsplash.jpg","art-hauntington-jzY0KRJopEI-unsplash.jpg",28,31
"2369","1K9vK",1776747,209,3,0.966,0,0,0,1,13,3,3,13,36,67,"art-hauntington-jzY0KRJopEI-unsplash.jpg","erik-lucatero-d2MSDujJl2g-unsplash.jpg",31,26
"2372","1K9vK",1779272,210,3,1.006,1,0,0,1,8,16,16,8,41,43,"giano-currie-5-9YOsmf8IQ-unsplash.jpg","bruce-dixon-3M9WJQVHzog-unsplash.jpg",27,28
"2375","1K9vK",1781855,211,3,1.051,0,0,0,1,13,27,27,13,74,67,"jurica-koletic-7YVZYZeITc8-unsplash.jpg","erik-lucatero-d2MSDujJl2g-unsplash.jpg",27,26
"2378","1K9vK",1784137,212,3,0.761,1,0,0,1,14,16,16,14,41,64,"giano-currie-5-9YOsmf8IQ-unsplash.jpg","freddy-kearney-o-ioeoATbIM-unsplash.jpg",27,24
"2381","1K9vK",1786640,213,3,0.978,0,0,1,0,41,49,41,49,71,64,"prince-akachi-i2hoD-C2RUA-unsplash.jpg","vicky-hladynets-_gDoyVv5F4c-unsplash.jpg",35,28
"2384","1K9vK",1789597,214,3,1.427,0,1,1,1,45,34,45,34,67,37,"sarah-noltner-pL5ZzPp1zqg-unsplash.jpg","oliver-johnson-1TUIcKob7Zs-unsplash.jpg",25,32
"2387","1K9vK",1792099,215,3,0.962,1,0,0,1,11,24,24,11,79,77,"joel-mott-LaK153ghdig-unsplash.jpg","christian-ferrer-8vT-DgHZDG4-unsplash.jpg",35,25
"3078","1pow4",839424,0,1,0.914,1,1,1,1,17,18,17,18,69,72,"gleb-lukomets-paBzWCPN23k-unsplash.jpg","good-faces-xmSWVeGEnJw-unsplash.jpg",30,25
"3081","1pow4",841776,1,1,0.831,1,0,0,1,36,24,24,36,73,61,"joel-mott-LaK153ghdig-unsplash.jpg","ospan-ali-mGdA2fzjWLo-unsplash.jpg",24,26
"3084","1pow4",844000,2,1,0.694,1,1,1,1,17,41,17,41,69,63,"gleb-lukomets-paBzWCPN23k-unsplash.jpg","prince-akachi-i2hoD-C2RUA-unsplash.jpg",30,28
"3087","1pow4",847040,3,1,1.516,0,0,0,1,37,23,23,37,76,63,"joanna-nix-walkup-H4fEMshfwTE-unsplash.jpg","pavel-anoshin-d0peGya6R5Y-unsplash.jpg",25,30
"3090","1pow4",850152,4,1,1.575,0,1,1,1,37,45,37,45,63,65,"pavel-anoshin-d0peGya6R5Y-unsplash.jpg","sarah-noltner-pL5ZzPp1zqg-unsplash.jpg",30,33
"3093","1pow4",852496,5,1,0.817,1,1,1,1,1,21,1,21,73,69,"aiony-haust-jmATI5Q_YgY-unsplash.jpg","jessica-felicio-_cvwXhGqG-o-unsplash.jpg",34,35
"3096","1pow4",854744,6,1,0.71,1,0,0,1,40,24,24,40,73,65,"joel-mott-LaK153ghdig-unsplash.jpg","prince-akachi-4Yv84VgQkRM-unsplash.jpg",24,31
"3099","1pow4",856873,7,1,0.595,1,1,1,1,1,12,1,12,73,64,"aiony-haust-jmATI5Q_YgY-unsplash.jpg","daniel-rigdon-dXmXKPP2L4E-unsplash.jpg",34,27
"3102","1pow4",859764,8,1,1.352,0,1,1,1,19,29,19,29,66,69,"ha-nguy-n-OFSQ6bHjFjs-unsplash.jpg","leilani-angel-K84vnnzxmTQ-unsplash.jpg",32,28
"3105","1pow4",861831,9,1,0.542,1,1,1,1,1,18,1,18,73,72,"aiony-haust-jmATI5Q_YgY-unsplash.jpg","good-faces-xmSWVeGEnJw-unsplash.jpg",34,25
"3108","1pow4",865016,10,1,1.661,0,0,0,1,37,29,29,37,69,63,"leilani-angel-K84vnnzxmTQ-unsplash.jpg","pavel-anoshin-d0peGya6R5Y-unsplash.jpg",28,30
"3111","1pow4",867417,11,1,0.88,1,0,0,1,36,18,18,36,72,61,"good-faces-xmSWVeGEnJw-unsplash.jpg","ospan-ali-mGdA2fzjWLo-unsplash.jpg",25,26
"3114","1pow4",869672,12,1,0.717,1,1,1,1,26,48,26,48,74,77,"juri-gianfrancesco-9EZadYaMzk4-unsplash.jpg","velizar-ivanov-7ktP9yZA1g4-unsplash.jpg",32,33
"3117","1pow4",872096,13,1,0.892,1,1,1,1,1,48,1,48,73,77,"aiony-haust-jmATI5Q_YgY-unsplash.jpg","velizar-ivanov-7ktP9yZA1g4-unsplash.jpg",34,33
"3120","1pow4",875040,14,1,1.4,0,0,1,0,28,5,28,5,66,62,"justin-chen-J7Cf1Gch49E-unsplash.jpg","batel-studio-ttSRjiYG_WM-unsplash.jpg",35,31
"3123","1pow4",877792,15,1,1.224,0,0,1,0,8,33,8,33,67,60,"bruce-dixon-3M9WJQVHzog-unsplash.jpg","olena-sergienko-0TSd6uCKTKc-unsplash.jpg",27,34
"3126","1pow4",880096,16,1,0.785,1,1,1,1,40,12,40,12,65,64,"prince-akachi-4Yv84VgQkRM-unsplash.jpg","daniel-rigdon-dXmXKPP2L4E-unsplash.jpg",31,27
"3129","1pow4",882288,17,1,0.67,0,0,1,0,8,5,8,5,67,62,"bruce-dixon-3M9WJQVHzog-unsplash.jpg","batel-studio-ttSRjiYG_WM-unsplash.jpg",27,31
"3132","1pow4",886338,18,1,NA,0,0,NA,NA,NA,NA,44,19,71,66,"rikonavt-HQjfrvdTfak-unsplash.jpg","ha-nguy-n-OFSQ6bHjFjs-unsplash.jpg",24,32
"3135","1pow4",889624,19,1,0.762,0,1,1,1,39,23,39,23,68,76,"philip-martin-5aGUyCW_PJw-unsplash.jpg","joanna-nix-walkup-H4fEMshfwTE-unsplash.jpg",29,25
"3138","1pow4",891864,20,1,0.716,0,1,0,0,28,19,19,28,66,66,"ha-nguy-n-OFSQ6bHjFjs-unsplash.jpg","justin-chen-J7Cf1Gch49E-unsplash.jpg",32,35
"3141","1pow4",894200,21,1,0.806,0,1,1,1,33,44,33,44,60,71,"olena-sergienko-0TSd6uCKTKc-unsplash.jpg","rikonavt-HQjfrvdTfak-unsplash.jpg",34,24
"3144","1pow4",896584,22,1,0.847,0,0,0,1,47,29,29,47,69,67,"leilani-angel-K84vnnzxmTQ-unsplash.jpg","tyler-nix-ZGa9d1a_4tA-unsplash.jpg",28,26
"3147","1pow4",898879,23,1,0.766,1,0,0,1,13,21,21,13,69,59,"jessica-felicio-_cvwXhGqG-o-unsplash.jpg","erik-lucatero-d2MSDujJl2g-unsplash.jpg",35,29
"3150","1pow4",901040,24,1,0.646,0,1,1,1,19,45,19,45,66,65,"ha-nguy-n-OFSQ6bHjFjs-unsplash.jpg","sarah-noltner-pL5ZzPp1zqg-unsplash.jpg",32,33
"3153","1pow4",903160,25,1,0.597,0,1,0,0,28,37,37,28,63,66,"pavel-anoshin-d0peGya6R5Y-unsplash.jpg","justin-chen-J7Cf1Gch49E-unsplash.jpg",30,35
"3156","1pow4",905288,26,1,0.598,0,1,1,1,33,45,33,45,60,65,"olena-sergienko-0TSd6uCKTKc-unsplash.jpg","sarah-noltner-pL5ZzPp1zqg-unsplash.jpg",34,33
"3159","1pow4",907704,27,1,0.897,0,0,1,0,45,5,45,5,65,62,"sarah-noltner-pL5ZzPp1zqg-unsplash.jpg","batel-studio-ttSRjiYG_WM-unsplash.jpg",33,31
"3162","1pow4",909768,28,1,0.541,1,1,1,1,17,48,17,48,69,77,"gleb-lukomets-paBzWCPN23k-unsplash.jpg","velizar-ivanov-7ktP9yZA1g4-unsplash.jpg",30,33
"3165","1pow4",911936,29,1,0.65,1,0,0,1,40,21,21,40,69,65,"jessica-felicio-_cvwXhGqG-o-unsplash.jpg","prince-akachi-4Yv84VgQkRM-unsplash.jpg",35,31
"3168","1pow4",914360,30,1,0.873,0,1,0,0,28,33,33,28,60,66,"olena-sergienko-0TSd6uCKTKc-unsplash.jpg","justin-chen-J7Cf1Gch49E-unsplash.jpg",34,35
"3171","1pow4",916376,31,1,0.497,1,1,1,1,17,24,17,24,69,73,"gleb-lukomets-paBzWCPN23k-unsplash.jpg","joel-mott-LaK153ghdig-unsplash.jpg",30,24
"3174","1pow4",918519,32,1,0.621,0,1,1,1,19,8,19,8,66,67,"ha-nguy-n-OFSQ6bHjFjs-unsplash.jpg","bruce-dixon-3M9WJQVHzog-unsplash.jpg",32,27
"3177","1pow4",920808,33,1,0.767,1,0,0,1,1,41,41,1,63,73,"prince-akachi-i2hoD-C2RUA-unsplash.jpg","aiony-haust-jmATI5Q_YgY-unsplash.jpg",28,34
"3180","1pow4",923136,34,1,0.795,1,0,0,1,13,12,12,13,64,59,"daniel-rigdon-dXmXKPP2L4E-unsplash.jpg","erik-lucatero-d2MSDujJl2g-unsplash.jpg",27,29
"3183","1pow4",925384,35,1,0.717,1,0,1,0,24,26,24,26,73,74,"joel-mott-LaK153ghdig-unsplash.jpg","juri-gianfrancesco-9EZadYaMzk4-unsplash.jpg",24,32
"3186","1pow4",927472,36,1,0.566,1,1,1,1,36,48,36,48,61,77,"ospan-ali-mGdA2fzjWLo-unsplash.jpg","velizar-ivanov-7ktP9yZA1g4-unsplash.jpg",26,33
"3189","1pow4",930032,37,1,1.015,0,0,0,1,47,45,45,47,65,67,"sarah-noltner-pL5ZzPp1zqg-unsplash.jpg","tyler-nix-ZGa9d1a_4tA-unsplash.jpg",33,26
"3192","1pow4",932135,38,1,0.571,1,1,1,1,26,12,26,12,74,64,"juri-gianfrancesco-9EZadYaMzk4-unsplash.jpg","daniel-rigdon-dXmXKPP2L4E-unsplash.jpg",32,27
"3195","1pow4",934168,39,1,0.508,1,1,1,1,13,18,13,18,59,72,"erik-lucatero-d2MSDujJl2g-unsplash.jpg","good-faces-xmSWVeGEnJw-unsplash.jpg",29,25
"3198","1pow4",936288,40,1,0.59,1,0,0,1,26,18,18,26,72,74,"good-faces-xmSWVeGEnJw-unsplash.jpg","juri-gianfrancesco-9EZadYaMzk4-unsplash.jpg",25,32
"3201","1pow4",938143,41,1,0.332,1,0,1,0,41,36,41,36,63,61,"prince-akachi-i2hoD-C2RUA-unsplash.jpg","ospan-ali-mGdA2fzjWLo-unsplash.jpg",28,26
"3204","1pow4",940344,42,1,0.657,0,0,1,0,28,39,28,39,66,68,"justin-chen-J7Cf1Gch49E-unsplash.jpg","philip-martin-5aGUyCW_PJw-unsplash.jpg",35,29
"3207","1pow4",942759,43,1,0.888,1,0,0,1,13,41,41,13,63,59,"prince-akachi-i2hoD-C2RUA-unsplash.jpg","erik-lucatero-d2MSDujJl2g-unsplash.jpg",28,29
"3210","1pow4",945031,44,1,0.737,0,1,1,1,33,29,33,29,60,69,"olena-sergienko-0TSd6uCKTKc-unsplash.jpg","leilani-angel-K84vnnzxmTQ-unsplash.jpg",34,28
"3213","1pow4",947312,45,1,0.742,1,0,0,1,17,21,21,17,69,69,"jessica-felicio-_cvwXhGqG-o-unsplash.jpg","gleb-lukomets-paBzWCPN23k-unsplash.jpg",35,30
"3216","1pow4",949600,46,1,0.758,0,0,1,0,23,5,23,5,76,62,"joanna-nix-walkup-H4fEMshfwTE-unsplash.jpg","batel-studio-ttSRjiYG_WM-unsplash.jpg",25,31
"3219","1pow4",951880,47,1,0.761,1,0,0,1,13,48,48,13,77,59,"velizar-ivanov-7ktP9yZA1g4-unsplash.jpg","erik-lucatero-d2MSDujJl2g-unsplash.jpg",33,29
"3222","1pow4",954208,48,1,0.804,1,0,0,1,26,21,21,26,69,74,"jessica-felicio-_cvwXhGqG-o-unsplash.jpg","juri-gianfrancesco-9EZadYaMzk4-unsplash.jpg",35,32
"3225","1pow4",956408,49,1,0.673,1,0,0,1,40,18,18,40,72,65,"good-faces-xmSWVeGEnJw-unsplash.jpg","prince-akachi-4Yv84VgQkRM-unsplash.jpg",25,31
"3228","1pow4",958528,50,1,0.591,1,1,1,1,36,21,36,21,61,69,"ospan-ali-mGdA2fzjWLo-unsplash.jpg","jessica-felicio-_cvwXhGqG-o-unsplash.jpg",26,35
"3231","1pow4",960680,51,1,0.617,0,0,0,1,39,45,45,39,65,68,"sarah-noltner-pL5ZzPp1zqg-unsplash.jpg","philip-martin-5aGUyCW_PJw-unsplash.jpg",33,29
"3234","1pow4",962968,52,1,0.758,0,1,1,1,33,23,33,23,60,76,"olena-sergienko-0TSd6uCKTKc-unsplash.jpg","joanna-nix-walkup-H4fEMshfwTE-unsplash.jpg",34,25
"3237","1pow4",965208,53,1,0.707,1,1,1,1,40,48,40,48,65,77,"prince-akachi-4Yv84VgQkRM-unsplash.jpg","velizar-ivanov-7ktP9yZA1g4-unsplash.jpg",31,33
"3240","1pow4",967368,54,1,0.634,0,0,1,0,8,39,8,39,67,68,"bruce-dixon-3M9WJQVHzog-unsplash.jpg","philip-martin-5aGUyCW_PJw-unsplash.jpg",27,29
"3243","1pow4",969424,55,1,0.516,1,1,1,1,36,12,36,12,61,64,"ospan-ali-mGdA2fzjWLo-unsplash.jpg","daniel-rigdon-dXmXKPP2L4E-unsplash.jpg",26,27
"3246","1pow4",971558,56,1,0.604,0,0,1,0,8,47,8,47,67,67,"bruce-dixon-3M9WJQVHzog-unsplash.jpg","tyler-nix-ZGa9d1a_4tA-unsplash.jpg",27,26
"3249","1pow4",973840,57,1,0.763,0,0,0,1,19,23,23,19,76,66,"joanna-nix-walkup-H4fEMshfwTE-unsplash.jpg","ha-nguy-n-OFSQ6bHjFjs-unsplash.jpg",25,32
"3252","1pow4",975888,58,1,0.515,0,0,1,0,8,37,8,37,67,63,"bruce-dixon-3M9WJQVHzog-unsplash.jpg","pavel-anoshin-d0peGya6R5Y-unsplash.jpg",27,30
"3255","1pow4",978272,59,1,0.863,0,1,1,1,47,44,47,44,67,71,"tyler-nix-ZGa9d1a_4tA-unsplash.jpg","rikonavt-HQjfrvdTfak-unsplash.jpg",26,24
"3258","1pow4",980552,60,1,0.731,1,0,0,1,1,24,24,1,73,73,"joel-mott-LaK153ghdig-unsplash.jpg","aiony-haust-jmATI5Q_YgY-unsplash.jpg",24,34
"3261","1pow4",982928,61,1,0.848,0,0,0,1,47,28,28,47,66,67,"justin-chen-J7Cf1Gch49E-unsplash.jpg","tyler-nix-ZGa9d1a_4tA-unsplash.jpg",35,26
"3264","1pow4",985271,62,1,0.793,1,0,0,1,26,41,41,26,63,74,"prince-akachi-i2hoD-C2RUA-unsplash.jpg","juri-gianfrancesco-9EZadYaMzk4-unsplash.jpg",28,32
"3267","1pow4",987400,63,1,0.599,1,1,1,1,13,24,13,24,59,73,"erik-lucatero-d2MSDujJl2g-unsplash.jpg","joel-mott-LaK153ghdig-unsplash.jpg",29,24
"3270","1pow4",989808,64,1,0.893,0,1,1,1,5,29,5,29,62,69,"batel-studio-ttSRjiYG_WM-unsplash.jpg","leilani-angel-K84vnnzxmTQ-unsplash.jpg",31,28
"3273","1pow4",992112,65,1,0.772,1,1,1,1,40,41,40,41,65,63,"prince-akachi-4Yv84VgQkRM-unsplash.jpg","prince-akachi-i2hoD-C2RUA-unsplash.jpg",31,28
"3276","1pow4",994412,66,1,0.78,0,1,1,1,37,44,37,44,63,71,"pavel-anoshin-d0peGya6R5Y-unsplash.jpg","rikonavt-HQjfrvdTfak-unsplash.jpg",30,24
"3279","1pow4",997040,67,1,1.111,0,1,0,0,44,39,39,44,68,71,"philip-martin-5aGUyCW_PJw-unsplash.jpg","rikonavt-HQjfrvdTfak-unsplash.jpg",29,24
"3282","1pow4",999120,68,1,0.551,0,1,0,0,44,5,5,44,62,71,"batel-studio-ttSRjiYG_WM-unsplash.jpg","rikonavt-HQjfrvdTfak-unsplash.jpg",31,24
"3285","1pow4",1001464,69,1,0.807,1,0,0,1,17,12,12,17,64,69,"daniel-rigdon-dXmXKPP2L4E-unsplash.jpg","gleb-lukomets-paBzWCPN23k-unsplash.jpg",27,30
"3288","1pow4",1003544,70,1,0.559,0,1,0,0,23,47,47,23,67,76,"tyler-nix-ZGa9d1a_4tA-unsplash.jpg","joanna-nix-walkup-H4fEMshfwTE-unsplash.jpg",26,25
"3291","1pow4",1005784,71,1,0.707,0,0,0,1,39,29,29,39,69,68,"leilani-angel-K84vnnzxmTQ-unsplash.jpg","philip-martin-5aGUyCW_PJw-unsplash.jpg",28,29
"3295","1pow4",1009553,72,2,0.565,1,1,1,1,17,18,17,18,69,72,"gleb-lukomets-paBzWCPN23k-unsplash.jpg","good-faces-xmSWVeGEnJw-unsplash.jpg",30,25
"3298","1pow4",1011903,73,2,0.804,0,1,1,1,33,29,33,29,60,69,"olena-sergienko-0TSd6uCKTKc-unsplash.jpg","leilani-angel-K84vnnzxmTQ-unsplash.jpg",34,28
"3301","1pow4",1014024,74,2,0.602,1,0,1,0,12,36,12,36,64,61,"daniel-rigdon-dXmXKPP2L4E-unsplash.jpg","ospan-ali-mGdA2fzjWLo-unsplash.jpg",27,26
"3304","1pow4",1016568,75,2,1.023,0,1,1,1,47,45,47,45,67,65,"tyler-nix-ZGa9d1a_4tA-unsplash.jpg","sarah-noltner-pL5ZzPp1zqg-unsplash.jpg",26,33
"3307","1pow4",1018712,76,2,0.626,0,0,0,1,19,29,29,19,69,66,"leilani-angel-K84vnnzxmTQ-unsplash.jpg","ha-nguy-n-OFSQ6bHjFjs-unsplash.jpg",28,32
"3310","1pow4",1020689,77,2,0.456,1,1,1,1,17,24,17,24,69,73,"gleb-lukomets-paBzWCPN23k-unsplash.jpg","joel-mott-LaK153ghdig-unsplash.jpg",30,24
"3313","1pow4",1023160,78,2,0.952,0,0,1,0,29,47,29,47,69,67,"leilani-angel-K84vnnzxmTQ-unsplash.jpg","tyler-nix-ZGa9d1a_4tA-unsplash.jpg",28,26
"3316","1pow4",1025304,79,2,0.611,1,1,1,1,1,48,1,48,73,77,"aiony-haust-jmATI5Q_YgY-unsplash.jpg","velizar-ivanov-7ktP9yZA1g4-unsplash.jpg",34,33
"3319","1pow4",1027433,80,2,0.592,1,1,1,1,17,48,17,48,69,77,"gleb-lukomets-paBzWCPN23k-unsplash.jpg","velizar-ivanov-7ktP9yZA1g4-unsplash.jpg",30,33
"3322","1pow4",1029760,81,2,0.8,1,0,0,1,40,18,18,40,72,65,"good-faces-xmSWVeGEnJw-unsplash.jpg","prince-akachi-4Yv84VgQkRM-unsplash.jpg",25,31
"3325","1pow4",1031880,82,2,0.571,0,1,1,1,5,23,5,23,62,76,"batel-studio-ttSRjiYG_WM-unsplash.jpg","joanna-nix-walkup-H4fEMshfwTE-unsplash.jpg",31,25
"3328","1pow4",1034088,83,2,0.686,0,0,1,0,44,33,44,33,71,60,"rikonavt-HQjfrvdTfak-unsplash.jpg","olena-sergienko-0TSd6uCKTKc-unsplash.jpg",24,34
"3331","1pow4",1036152,84,2,0.526,0,0,1,0,45,5,45,5,65,62,"sarah-noltner-pL5ZzPp1zqg-unsplash.jpg","batel-studio-ttSRjiYG_WM-unsplash.jpg",33,31
"3334","1pow4",1038257,85,2,0.575,1,1,1,1,36,18,36,18,61,72,"ospan-ali-mGdA2fzjWLo-unsplash.jpg","good-faces-xmSWVeGEnJw-unsplash.jpg",26,25
"3337","1pow4",1040601,86,2,0.825,0,0,0,1,33,28,28,33,66,60,"justin-chen-J7Cf1Gch49E-unsplash.jpg","olena-sergienko-0TSd6uCKTKc-unsplash.jpg",35,34
"3340","1pow4",1042680,87,2,0.554,1,0,0,1,1,41,41,1,63,73,"prince-akachi-i2hoD-C2RUA-unsplash.jpg","aiony-haust-jmATI5Q_YgY-unsplash.jpg",28,34
"3343","1pow4",1044624,88,2,0.419,1,0,1,0,24,26,24,26,73,74,"joel-mott-LaK153ghdig-unsplash.jpg","juri-gianfrancesco-9EZadYaMzk4-unsplash.jpg",24,32
"3346","1pow4",1046720,89,2,0.563,0,0,1,0,8,37,8,37,67,63,"bruce-dixon-3M9WJQVHzog-unsplash.jpg","pavel-anoshin-d0peGya6R5Y-unsplash.jpg",27,30
"3349","1pow4",1049033,90,2,0.792,1,0,0,1,1,12,12,1,64,73,"daniel-rigdon-dXmXKPP2L4E-unsplash.jpg","aiony-haust-jmATI5Q_YgY-unsplash.jpg",27,34
"3352","1pow4",1051232,91,2,0.674,0,0,1,0,28,47,28,47,66,67,"justin-chen-J7Cf1Gch49E-unsplash.jpg","tyler-nix-ZGa9d1a_4tA-unsplash.jpg",35,26
"3355","1pow4",1053448,92,2,0.685,0,1,0,0,28,39,39,28,68,66,"philip-martin-5aGUyCW_PJw-unsplash.jpg","justin-chen-J7Cf1Gch49E-unsplash.jpg",29,35
"3358","1pow4",1055664,93,2,0.688,0,0,1,0,8,5,8,5,67,62,"bruce-dixon-3M9WJQVHzog-unsplash.jpg","batel-studio-ttSRjiYG_WM-unsplash.jpg",27,31
"3361","1pow4",1057841,94,2,0.628,1,1,1,1,26,21,26,21,74,69,"juri-gianfrancesco-9EZadYaMzk4-unsplash.jpg","jessica-felicio-_cvwXhGqG-o-unsplash.jpg",32,35
"3364","1pow4",1060240,95,2,0.869,1,1,1,1,40,12,40,12,65,64,"prince-akachi-4Yv84VgQkRM-unsplash.jpg","daniel-rigdon-dXmXKPP2L4E-unsplash.jpg",31,27
"3367","1pow4",1062704,96,2,0.918,0,1,1,1,37,45,37,45,63,65,"pavel-anoshin-d0peGya6R5Y-unsplash.jpg","sarah-noltner-pL5ZzPp1zqg-unsplash.jpg",30,33
"3370","1pow4",1064624,97,2,0.395,0,1,1,1,37,28,37,28,63,66,"pavel-anoshin-d0peGya6R5Y-unsplash.jpg","justin-chen-J7Cf1Gch49E-unsplash.jpg",30,35
"3373","1pow4",1066880,98,2,0.718,0,1,0,0,28,5,5,28,62,66,"batel-studio-ttSRjiYG_WM-unsplash.jpg","justin-chen-J7Cf1Gch49E-unsplash.jpg",31,35
"3376","1pow4",1068952,99,2,0.552,0,1,1,1,19,23,19,23,66,76,"ha-nguy-n-OFSQ6bHjFjs-unsplash.jpg","joanna-nix-walkup-H4fEMshfwTE-unsplash.jpg",32,25
"3379","1pow4",1071096,100,2,0.611,0,1,1,1,33,45,33,45,60,65,"olena-sergienko-0TSd6uCKTKc-unsplash.jpg","sarah-noltner-pL5ZzPp1zqg-unsplash.jpg",34,33
"3382","1pow4",1073208,101,2,0.563,1,1,1,1,17,41,17,41,69,63,"gleb-lukomets-paBzWCPN23k-unsplash.jpg","prince-akachi-i2hoD-C2RUA-unsplash.jpg",30,28
"3385","1pow4",1075457,102,2,0.719,1,0,0,1,40,41,41,40,63,65,"prince-akachi-i2hoD-C2RUA-unsplash.jpg","prince-akachi-4Yv84VgQkRM-unsplash.jpg",28,31
"3388","1pow4",1077520,103,2,0.534,0,0,1,0,29,37,29,37,69,63,"leilani-angel-K84vnnzxmTQ-unsplash.jpg","pavel-anoshin-d0peGya6R5Y-unsplash.jpg",28,30
"3391","1pow4",1079817,104,2,0.767,1,0,0,1,26,18,18,26,72,74,"good-faces-xmSWVeGEnJw-unsplash.jpg","juri-gianfrancesco-9EZadYaMzk4-unsplash.jpg",25,32
"3394","1pow4",1081944,105,2,0.596,1,0,0,1,26,41,41,26,63,74,"prince-akachi-i2hoD-C2RUA-unsplash.jpg","juri-gianfrancesco-9EZadYaMzk4-unsplash.jpg",28,32
"3397","1pow4",1084088,106,2,0.61,1,0,0,1,17,12,12,17,64,69,"daniel-rigdon-dXmXKPP2L4E-unsplash.jpg","gleb-lukomets-paBzWCPN23k-unsplash.jpg",27,30
"3400","1pow4",1086408,107,2,0.788,1,1,1,1,13,21,13,21,59,69,"erik-lucatero-d2MSDujJl2g-unsplash.jpg","jessica-felicio-_cvwXhGqG-o-unsplash.jpg",29,35
"3403","1pow4",1088967,108,2,1.034,0,1,1,1,47,23,47,23,67,76,"tyler-nix-ZGa9d1a_4tA-unsplash.jpg","joanna-nix-walkup-H4fEMshfwTE-unsplash.jpg",26,25
"3406","1pow4",1091727,109,2,1.219,1,0,0,1,36,48,48,36,77,61,"velizar-ivanov-7ktP9yZA1g4-unsplash.jpg","ospan-ali-mGdA2fzjWLo-unsplash.jpg",33,26
"3409","1pow4",1093920,110,2,0.662,0,0,1,0,8,47,8,47,67,67,"bruce-dixon-3M9WJQVHzog-unsplash.jpg","tyler-nix-ZGa9d1a_4tA-unsplash.jpg",27,26
"3412","1pow4",1096063,111,2,0.618,0,0,0,1,19,44,44,19,71,66,"rikonavt-HQjfrvdTfak-unsplash.jpg","ha-nguy-n-OFSQ6bHjFjs-unsplash.jpg",24,32
"3415","1pow4",1098216,112,2,0.625,1,0,0,1,1,18,18,1,72,73,"good-faces-xmSWVeGEnJw-unsplash.jpg","aiony-haust-jmATI5Q_YgY-unsplash.jpg",25,34
"3418","1pow4",1100457,113,2,0.707,0,1,0,0,8,39,39,8,68,67,"philip-martin-5aGUyCW_PJw-unsplash.jpg","bruce-dixon-3M9WJQVHzog-unsplash.jpg",29,27
"3421","1pow4",1102672,114,2,0.695,1,1,1,1,13,18,13,18,59,72,"erik-lucatero-d2MSDujJl2g-unsplash.jpg","good-faces-xmSWVeGEnJw-unsplash.jpg",29,25
"3424","1pow4",1105025,115,2,0.818,1,0,0,1,36,21,21,36,69,61,"jessica-felicio-_cvwXhGqG-o-unsplash.jpg","ospan-ali-mGdA2fzjWLo-unsplash.jpg",35,26
"3427","1pow4",1107224,116,2,0.68,0,0,1,0,8,19,8,19,67,66,"bruce-dixon-3M9WJQVHzog-unsplash.jpg","ha-nguy-n-OFSQ6bHjFjs-unsplash.jpg",27,32
"3430","1pow4",1109447,117,2,0.689,1,1,1,1,13,12,13,12,59,64,"erik-lucatero-d2MSDujJl2g-unsplash.jpg","daniel-rigdon-dXmXKPP2L4E-unsplash.jpg",29,27
"3433","1pow4",1111712,118,2,0.73,1,1,1,1,40,48,40,48,65,77,"prince-akachi-4Yv84VgQkRM-unsplash.jpg","velizar-ivanov-7ktP9yZA1g4-unsplash.jpg",31,33
"3436","1pow4",1113968,119,2,0.749,0,0,1,0,29,39,29,39,69,68,"leilani-angel-K84vnnzxmTQ-unsplash.jpg","philip-martin-5aGUyCW_PJw-unsplash.jpg",28,29
"3439","1pow4",1116520,120,2,1.02,1,1,1,1,1,24,1,24,73,73,"aiony-haust-jmATI5Q_YgY-unsplash.jpg","joel-mott-LaK153ghdig-unsplash.jpg",34,24
"3442","1pow4",1118728,121,2,0.679,1,1,1,1,36,41,36,41,61,63,"ospan-ali-mGdA2fzjWLo-unsplash.jpg","prince-akachi-i2hoD-C2RUA-unsplash.jpg",26,28
"3445","1pow4",1120840,122,2,0.582,1,0,0,1,40,21,21,40,69,65,"jessica-felicio-_cvwXhGqG-o-unsplash.jpg","prince-akachi-4Yv84VgQkRM-unsplash.jpg",35,31
"3448","1pow4",1122960,123,2,0.587,1,0,0,1,13,41,41,13,63,59,"prince-akachi-i2hoD-C2RUA-unsplash.jpg","erik-lucatero-d2MSDujJl2g-unsplash.jpg",28,29
"3451","1pow4",1125311,124,2,0.81,1,0,0,1,40,24,24,40,73,65,"joel-mott-LaK153ghdig-unsplash.jpg","prince-akachi-4Yv84VgQkRM-unsplash.jpg",24,31
"3454","1pow4",1127792,125,2,0.955,0,1,0,0,8,33,33,8,60,67,"olena-sergienko-0TSd6uCKTKc-unsplash.jpg","bruce-dixon-3M9WJQVHzog-unsplash.jpg",34,27
"3457","1pow4",1130432,126,2,1.124,0,1,0,0,44,37,37,44,63,71,"pavel-anoshin-d0peGya6R5Y-unsplash.jpg","rikonavt-HQjfrvdTfak-unsplash.jpg",30,24
"3460","1pow4",1132688,127,2,0.729,0,1,0,0,23,39,39,23,68,76,"philip-martin-5aGUyCW_PJw-unsplash.jpg","joanna-nix-walkup-H4fEMshfwTE-unsplash.jpg",29,25
"3463","1pow4",1134968,128,2,0.763,1,1,1,1,26,48,26,48,74,77,"juri-gianfrancesco-9EZadYaMzk4-unsplash.jpg","velizar-ivanov-7ktP9yZA1g4-unsplash.jpg",32,33
"3466","1pow4",1137576,129,2,1.079,0,1,1,1,47,44,47,44,67,71,"tyler-nix-ZGa9d1a_4tA-unsplash.jpg","rikonavt-HQjfrvdTfak-unsplash.jpg",26,24
"3469","1pow4",1139888,130,2,0.794,0,1,1,1,19,45,19,45,66,65,"ha-nguy-n-OFSQ6bHjFjs-unsplash.jpg","sarah-noltner-pL5ZzPp1zqg-unsplash.jpg",32,33
"3472","1pow4",1142073,131,2,0.657,1,1,1,1,1,21,1,21,73,69,"aiony-haust-jmATI5Q_YgY-unsplash.jpg","jessica-felicio-_cvwXhGqG-o-unsplash.jpg",34,35
"3475","1pow4",1144215,132,2,0.605,1,1,1,1,36,24,36,24,61,73,"ospan-ali-mGdA2fzjWLo-unsplash.jpg","joel-mott-LaK153ghdig-unsplash.jpg",26,24
"3478","1pow4",1146448,133,2,0.711,0,1,1,1,19,28,19,28,66,66,"ha-nguy-n-OFSQ6bHjFjs-unsplash.jpg","justin-chen-J7Cf1Gch49E-unsplash.jpg",32,35
"3481","1pow4",1149032,134,2,1.057,1,0,1,0,48,13,48,13,77,59,"velizar-ivanov-7ktP9yZA1g4-unsplash.jpg","erik-lucatero-d2MSDujJl2g-unsplash.jpg",33,29
"3484","1pow4",1151216,135,2,0.652,0,0,0,1,33,23,23,33,76,60,"joanna-nix-walkup-H4fEMshfwTE-unsplash.jpg","olena-sergienko-0TSd6uCKTKc-unsplash.jpg",25,34
"3487","1pow4",1153752,136,2,0.997,0,1,1,1,39,45,39,45,68,65,"philip-martin-5aGUyCW_PJw-unsplash.jpg","sarah-noltner-pL5ZzPp1zqg-unsplash.jpg",29,33
"3490","1pow4",1155984,137,2,0.71,0,0,1,0,29,5,29,5,69,62,"leilani-angel-K84vnnzxmTQ-unsplash.jpg","batel-studio-ttSRjiYG_WM-unsplash.jpg",28,31
"3493","1pow4",1158000,138,2,0.485,1,0,0,1,13,24,24,13,73,59,"joel-mott-LaK153ghdig-unsplash.jpg","erik-lucatero-d2MSDujJl2g-unsplash.jpg",24,29
"3496","1pow4",1160248,139,2,0.716,0,0,1,0,44,5,44,5,71,62,"rikonavt-HQjfrvdTfak-unsplash.jpg","batel-studio-ttSRjiYG_WM-unsplash.jpg",24,31
"3499","1pow4",1162336,140,2,0.566,1,0,0,1,17,21,21,17,69,69,"jessica-felicio-_cvwXhGqG-o-unsplash.jpg","gleb-lukomets-paBzWCPN23k-unsplash.jpg",35,30
"3502","1pow4",1164519,141,2,0.656,1,1,1,1,26,12,26,12,74,64,"juri-gianfrancesco-9EZadYaMzk4-unsplash.jpg","daniel-rigdon-dXmXKPP2L4E-unsplash.jpg",32,27
"3505","1pow4",1166584,142,2,0.52,0,0,0,1,39,44,44,39,71,68,"rikonavt-HQjfrvdTfak-unsplash.jpg","philip-martin-5aGUyCW_PJw-unsplash.jpg",24,29
"3508","1pow4",1168736,143,2,0.619,0,0,1,0,23,37,23,37,76,63,"joanna-nix-walkup-H4fEMshfwTE-unsplash.jpg","pavel-anoshin-d0peGya6R5Y-unsplash.jpg",25,30
"3512","1pow4",1198112,144,3,0.735,1,0,0,1,17,24,24,17,73,69,"joel-mott-LaK153ghdig-unsplash.jpg","gleb-lukomets-paBzWCPN23k-unsplash.jpg",24,30
"3515","1pow4",1200197,145,3,0.546,1,1,1,1,36,18,36,18,61,72,"ospan-ali-mGdA2fzjWLo-unsplash.jpg","good-faces-xmSWVeGEnJw-unsplash.jpg",26,25
"3518","1pow4",1202384,146,3,0.67,1,0,0,1,26,24,24,26,73,74,"joel-mott-LaK153ghdig-unsplash.jpg","juri-gianfrancesco-9EZadYaMzk4-unsplash.jpg",24,32
"3521","1pow4",1204522,147,3,0.608,0,1,1,1,33,29,33,29,60,69,"olena-sergienko-0TSd6uCKTKc-unsplash.jpg","leilani-angel-K84vnnzxmTQ-unsplash.jpg",34,28
"3524","1pow4",1206553,148,3,0.511,0,1,0,0,28,37,37,28,63,66,"pavel-anoshin-d0peGya6R5Y-unsplash.jpg","justin-chen-J7Cf1Gch49E-unsplash.jpg",30,35
"3527","1pow4",1208697,149,3,0.624,1,0,0,1,13,21,21,13,69,59,"jessica-felicio-_cvwXhGqG-o-unsplash.jpg","erik-lucatero-d2MSDujJl2g-unsplash.jpg",35,29
"3530","1pow4",1210968,150,3,0.753,0,1,1,1,37,29,37,29,63,69,"pavel-anoshin-d0peGya6R5Y-unsplash.jpg","leilani-angel-K84vnnzxmTQ-unsplash.jpg",30,28
"3533","1pow4",1213385,151,3,0.889,0,1,0,0,8,47,47,8,67,67,"tyler-nix-ZGa9d1a_4tA-unsplash.jpg","bruce-dixon-3M9WJQVHzog-unsplash.jpg",26,27
"3536","1pow4",1215360,152,3,0.456,0,0,1,0,8,37,8,37,67,63,"bruce-dixon-3M9WJQVHzog-unsplash.jpg","pavel-anoshin-d0peGya6R5Y-unsplash.jpg",27,30
"3539","1pow4",1217385,153,3,0.497,1,1,1,1,1,24,1,24,73,73,"aiony-haust-jmATI5Q_YgY-unsplash.jpg","joel-mott-LaK153ghdig-unsplash.jpg",34,24
"3542","1pow4",1219528,154,3,0.624,0,0,1,0,45,5,45,5,65,62,"sarah-noltner-pL5ZzPp1zqg-unsplash.jpg","batel-studio-ttSRjiYG_WM-unsplash.jpg",33,31
"3545","1pow4",1221826,155,3,0.779,0,0,1,0,44,37,44,37,71,63,"rikonavt-HQjfrvdTfak-unsplash.jpg","pavel-anoshin-d0peGya6R5Y-unsplash.jpg",24,30
"3548","1pow4",1224369,156,3,0.996,0,1,1,1,47,23,47,23,67,76,"tyler-nix-ZGa9d1a_4tA-unsplash.jpg","joanna-nix-walkup-H4fEMshfwTE-unsplash.jpg",26,25
"3551","1pow4",1226577,157,3,0.69,1,0,0,1,40,24,24,40,73,65,"joel-mott-LaK153ghdig-unsplash.jpg","prince-akachi-4Yv84VgQkRM-unsplash.jpg",24,31
"3554","1pow4",1228577,158,3,0.461,1,1,1,1,17,12,17,12,69,64,"gleb-lukomets-paBzWCPN23k-unsplash.jpg","daniel-rigdon-dXmXKPP2L4E-unsplash.jpg",30,27
"3557","1pow4",1230945,159,3,0.837,1,1,1,1,26,12,26,12,74,64,"juri-gianfrancesco-9EZadYaMzk4-unsplash.jpg","daniel-rigdon-dXmXKPP2L4E-unsplash.jpg",32,27
"3560","1pow4",1233096,160,3,0.633,1,1,1,1,13,41,13,41,59,63,"erik-lucatero-d2MSDujJl2g-unsplash.jpg","prince-akachi-i2hoD-C2RUA-unsplash.jpg",29,28
"3563","1pow4",1235369,161,3,0.744,0,0,0,1,39,23,23,39,76,68,"joanna-nix-walkup-H4fEMshfwTE-unsplash.jpg","philip-martin-5aGUyCW_PJw-unsplash.jpg",25,29
"3566","1pow4",1237592,162,3,0.697,1,0,0,1,1,21,21,1,69,73,"jessica-felicio-_cvwXhGqG-o-unsplash.jpg","aiony-haust-jmATI5Q_YgY-unsplash.jpg",35,34
"3569","1pow4",1239977,163,3,0.866,1,0,0,1,36,48,48,36,77,61,"velizar-ivanov-7ktP9yZA1g4-unsplash.jpg","ospan-ali-mGdA2fzjWLo-unsplash.jpg",33,26
"3572","1pow4",1242064,164,3,0.57,0,1,1,1,33,45,33,45,60,65,"olena-sergienko-0TSd6uCKTKc-unsplash.jpg","sarah-noltner-pL5ZzPp1zqg-unsplash.jpg",34,33
"3575","1pow4",1244353,165,3,0.764,0,0,0,1,19,45,45,19,65,66,"sarah-noltner-pL5ZzPp1zqg-unsplash.jpg","ha-nguy-n-OFSQ6bHjFjs-unsplash.jpg",33,32
"3578","1pow4",1246648,166,3,0.759,0,0,0,1,33,44,44,33,71,60,"rikonavt-HQjfrvdTfak-unsplash.jpg","olena-sergienko-0TSd6uCKTKc-unsplash.jpg",24,34
"3581","1pow4",1248840,167,3,0.67,0,1,0,0,28,39,39,28,68,66,"philip-martin-5aGUyCW_PJw-unsplash.jpg","justin-chen-J7Cf1Gch49E-unsplash.jpg",29,35
"3584","1pow4",1250929,168,3,0.561,0,0,0,1,19,44,44,19,71,66,"rikonavt-HQjfrvdTfak-unsplash.jpg","ha-nguy-n-OFSQ6bHjFjs-unsplash.jpg",24,32
"3587","1pow4",1253056,169,3,0.585,1,0,0,1,17,21,21,17,69,69,"jessica-felicio-_cvwXhGqG-o-unsplash.jpg","gleb-lukomets-paBzWCPN23k-unsplash.jpg",35,30
"3590","1pow4",1255120,170,3,0.537,0,0,1,0,28,47,28,47,66,67,"justin-chen-J7Cf1Gch49E-unsplash.jpg","tyler-nix-ZGa9d1a_4tA-unsplash.jpg",35,26
"3593","1pow4",1257192,171,3,0.542,0,1,1,1,19,23,19,23,66,76,"ha-nguy-n-OFSQ6bHjFjs-unsplash.jpg","joanna-nix-walkup-H4fEMshfwTE-unsplash.jpg",32,25
"3596","1pow4",1259216,172,3,0.503,1,1,1,1,1,18,1,18,73,72,"aiony-haust-jmATI5Q_YgY-unsplash.jpg","good-faces-xmSWVeGEnJw-unsplash.jpg",34,25
"3599","1pow4",1261448,173,3,0.7,0,1,1,1,33,23,33,23,60,76,"olena-sergienko-0TSd6uCKTKc-unsplash.jpg","joanna-nix-walkup-H4fEMshfwTE-unsplash.jpg",34,25
"3602","1pow4",1263704,174,3,0.726,1,1,1,1,36,41,36,41,61,63,"ospan-ali-mGdA2fzjWLo-unsplash.jpg","prince-akachi-i2hoD-C2RUA-unsplash.jpg",26,28
"3605","1pow4",1265672,175,3,0.444,1,1,1,1,1,12,1,12,73,64,"aiony-haust-jmATI5Q_YgY-unsplash.jpg","daniel-rigdon-dXmXKPP2L4E-unsplash.jpg",34,27
"3608","1pow4",1267768,176,3,0.568,1,1,1,1,17,48,17,48,69,77,"gleb-lukomets-paBzWCPN23k-unsplash.jpg","velizar-ivanov-7ktP9yZA1g4-unsplash.jpg",30,33
"3611","1pow4",1269880,177,3,0.576,1,0,0,1,36,12,12,36,64,61,"daniel-rigdon-dXmXKPP2L4E-unsplash.jpg","ospan-ali-mGdA2fzjWLo-unsplash.jpg",27,26
"3614","1pow4",1272040,178,3,0.631,1,0,0,1,40,41,41,40,63,65,"prince-akachi-i2hoD-C2RUA-unsplash.jpg","prince-akachi-4Yv84VgQkRM-unsplash.jpg",28,31
"3617","1pow4",1274184,179,3,0.607,0,1,1,1,47,45,47,45,67,65,"tyler-nix-ZGa9d1a_4tA-unsplash.jpg","sarah-noltner-pL5ZzPp1zqg-unsplash.jpg",26,33
"3620","1pow4",1276208,180,3,0.5,1,0,0,1,1,41,41,1,63,73,"prince-akachi-i2hoD-C2RUA-unsplash.jpg","aiony-haust-jmATI5Q_YgY-unsplash.jpg",28,34
"3623","1pow4",1278352,181,3,0.615,0,1,0,0,8,5,5,8,62,67,"batel-studio-ttSRjiYG_WM-unsplash.jpg","bruce-dixon-3M9WJQVHzog-unsplash.jpg",31,27
"3626","1pow4",1280560,182,3,0.679,0,0,1,0,29,5,29,5,69,62,"leilani-angel-K84vnnzxmTQ-unsplash.jpg","batel-studio-ttSRjiYG_WM-unsplash.jpg",28,31
"3629","1pow4",1282608,183,3,0.521,0,1,0,0,44,5,5,44,62,71,"batel-studio-ttSRjiYG_WM-unsplash.jpg","rikonavt-HQjfrvdTfak-unsplash.jpg",31,24
"3632","1pow4",1285736,184,3,1.59,0,0,0,1,47,29,29,47,69,67,"leilani-angel-K84vnnzxmTQ-unsplash.jpg","tyler-nix-ZGa9d1a_4tA-unsplash.jpg",28,26
"3635","1pow4",1287752,185,3,0.49,1,1,1,1,1,48,1,48,73,77,"aiony-haust-jmATI5Q_YgY-unsplash.jpg","velizar-ivanov-7ktP9yZA1g4-unsplash.jpg",34,33
"3638","1pow4",1291280,186,3,1.997,0,1,0,0,29,39,39,29,68,69,"philip-martin-5aGUyCW_PJw-unsplash.jpg","leilani-angel-K84vnnzxmTQ-unsplash.jpg",29,28
"3641","1pow4",1293360,187,3,0.548,1,1,1,1,40,18,40,18,65,72,"prince-akachi-4Yv84VgQkRM-unsplash.jpg","good-faces-xmSWVeGEnJw-unsplash.jpg",31,25
"3644","1pow4",1295537,188,3,0.645,1,0,0,1,40,48,48,40,77,65,"velizar-ivanov-7ktP9yZA1g4-unsplash.jpg","prince-akachi-4Yv84VgQkRM-unsplash.jpg",33,31
"3647","1pow4",1297880,189,3,0.812,0,0,1,0,44,39,44,39,71,68,"rikonavt-HQjfrvdTfak-unsplash.jpg","philip-martin-5aGUyCW_PJw-unsplash.jpg",24,29
"3650","1pow4",1299976,190,3,0.556,0,0,1,0,44,47,44,47,71,67,"rikonavt-HQjfrvdTfak-unsplash.jpg","tyler-nix-ZGa9d1a_4tA-unsplash.jpg",24,26
"3653","1pow4",1302312,191,3,0.809,0,0,0,1,19,29,29,19,69,66,"leilani-angel-K84vnnzxmTQ-unsplash.jpg","ha-nguy-n-OFSQ6bHjFjs-unsplash.jpg",28,32
"3656","1pow4",1304536,192,3,0.696,1,0,0,1,36,21,21,36,69,61,"jessica-felicio-_cvwXhGqG-o-unsplash.jpg","ospan-ali-mGdA2fzjWLo-unsplash.jpg",35,26
"3659","1pow4",1306715,193,3,0.649,1,1,1,1,13,12,13,12,59,64,"erik-lucatero-d2MSDujJl2g-unsplash.jpg","daniel-rigdon-dXmXKPP2L4E-unsplash.jpg",29,27
"3662","1pow4",1308944,194,3,0.712,0,0,1,0,23,5,23,5,76,62,"joanna-nix-walkup-H4fEMshfwTE-unsplash.jpg","batel-studio-ttSRjiYG_WM-unsplash.jpg",25,31
"3665","1pow4",1310977,195,3,0.506,1,1,1,1,13,18,13,18,59,72,"erik-lucatero-d2MSDujJl2g-unsplash.jpg","good-faces-xmSWVeGEnJw-unsplash.jpg",29,25
"3668","1pow4",1313224,196,3,0.733,0,1,0,0,45,39,39,45,68,65,"philip-martin-5aGUyCW_PJw-unsplash.jpg","sarah-noltner-pL5ZzPp1zqg-unsplash.jpg",29,33
"3671","1pow4",1315528,197,3,0.766,1,0,0,1,40,12,12,40,64,65,"daniel-rigdon-dXmXKPP2L4E-unsplash.jpg","prince-akachi-4Yv84VgQkRM-unsplash.jpg",27,31
"3674","1pow4",1317536,198,3,0.478,1,0,0,1,40,21,21,40,69,65,"jessica-felicio-_cvwXhGqG-o-unsplash.jpg","prince-akachi-4Yv84VgQkRM-unsplash.jpg",35,31
"3677","1pow4",1320024,199,3,0.96,0,0,1,0,45,37,45,37,65,63,"sarah-noltner-pL5ZzPp1zqg-unsplash.jpg","pavel-anoshin-d0peGya6R5Y-unsplash.jpg",33,30
"3680","1pow4",1322304,200,3,0.761,0,1,0,0,8,33,33,8,60,67,"olena-sergienko-0TSd6uCKTKc-unsplash.jpg","bruce-dixon-3M9WJQVHzog-unsplash.jpg",34,27
"3683","1pow4",1324568,201,3,0.726,0,1,0,0,8,39,39,8,68,67,"philip-martin-5aGUyCW_PJw-unsplash.jpg","bruce-dixon-3M9WJQVHzog-unsplash.jpg",29,27
"3686","1pow4",1326601,202,3,0.504,1,1,1,1,13,24,13,24,59,73,"erik-lucatero-d2MSDujJl2g-unsplash.jpg","joel-mott-LaK153ghdig-unsplash.jpg",29,24
"3689","1pow4",1328792,203,3,0.652,1,0,0,1,17,18,18,17,72,69,"good-faces-xmSWVeGEnJw-unsplash.jpg","gleb-lukomets-paBzWCPN23k-unsplash.jpg",25,30
"3692","1pow4",1331120,204,3,0.804,1,0,0,1,13,48,48,13,77,59,"velizar-ivanov-7ktP9yZA1g4-unsplash.jpg","erik-lucatero-d2MSDujJl2g-unsplash.jpg",33,29
"3695","1pow4",1333425,205,3,0.784,1,0,0,1,26,18,18,26,72,74,"good-faces-xmSWVeGEnJw-unsplash.jpg","juri-gianfrancesco-9EZadYaMzk4-unsplash.jpg",25,32
"3698","1pow4",1335696,206,3,0.745,0,0,1,0,28,5,28,5,66,62,"justin-chen-J7Cf1Gch49E-unsplash.jpg","batel-studio-ttSRjiYG_WM-unsplash.jpg",35,31
"3701","1pow4",1337816,207,3,0.592,1,1,1,1,26,48,26,48,74,77,"juri-gianfrancesco-9EZadYaMzk4-unsplash.jpg","velizar-ivanov-7ktP9yZA1g4-unsplash.jpg",32,33
"3704","1pow4",1339897,208,3,0.555,1,1,1,1,36,24,36,24,61,73,"ospan-ali-mGdA2fzjWLo-unsplash.jpg","joel-mott-LaK153ghdig-unsplash.jpg",26,24
"3707","1pow4",1341888,209,3,0.471,0,1,0,0,28,33,33,28,60,66,"olena-sergienko-0TSd6uCKTKc-unsplash.jpg","justin-chen-J7Cf1Gch49E-unsplash.jpg",34,35
"3710","1pow4",1343904,210,3,0.49,1,1,1,1,17,41,17,41,69,63,"gleb-lukomets-paBzWCPN23k-unsplash.jpg","prince-akachi-i2hoD-C2RUA-unsplash.jpg",30,28
"3713","1pow4",1346408,211,3,0.979,0,0,0,1,37,23,23,37,76,63,"joanna-nix-walkup-H4fEMshfwTE-unsplash.jpg","pavel-anoshin-d0peGya6R5Y-unsplash.jpg",25,30
"3716","1pow4",1348568,212,3,0.638,1,0,0,1,26,41,41,26,63,74,"prince-akachi-i2hoD-C2RUA-unsplash.jpg","juri-gianfrancesco-9EZadYaMzk4-unsplash.jpg",28,32
"3719","1pow4",1351112,213,3,1.012,0,1,1,1,19,8,19,8,66,67,"ha-nguy-n-OFSQ6bHjFjs-unsplash.jpg","bruce-dixon-3M9WJQVHzog-unsplash.jpg",32,27
"3722","1pow4",1353336,214,3,0.692,1,1,1,1,26,21,26,21,74,69,"juri-gianfrancesco-9EZadYaMzk4-unsplash.jpg","jessica-felicio-_cvwXhGqG-o-unsplash.jpg",32,35
"3725","1pow4",1355609,215,3,0.747,0,0,1,0,28,19,28,19,66,66,"justin-chen-J7Cf1Gch49E-unsplash.jpg","ha-nguy-n-OFSQ6bHjFjs-unsplash.jpg",35,32
"4403","6mfmY",1208303,0,1,0.94,1,0,0,1,30,27,27,30,90,90,"jurica-koletic-7YVZYZeITc8-unsplash.jpg","matheus-ferrero-pg_WCHWSdT8-unsplash.jpg",31,25
"4406","6mfmY",1210430,1,1,0.616,1,0,0,1,20,38,38,20,74,87,"petr-sevcovic-HzDF-rxlSeM-unsplash.jpg","houcine-ncib-B4TjXnI0Y2c-unsplash.jpg",26,32
"4409","6mfmY",1212545,2,1,0.608,1,0,0,1,1,38,38,1,74,93,"petr-sevcovic-HzDF-rxlSeM-unsplash.jpg","aiony-haust-jmATI5Q_YgY-unsplash.jpg",26,34
"4412","6mfmY",1214790,3,1,0.739,1,0,0,1,45,29,29,45,93,88,"leilani-angel-K84vnnzxmTQ-unsplash.jpg","sarah-noltner-pL5ZzPp1zqg-unsplash.jpg",33,35
"4415","6mfmY",1217086,4,1,0.79,0,1,0,0,24,32,32,24,71,84,"nathan-dumlao-ger61_TX6oI-unsplash.jpg","joel-mott-LaK153ghdig-unsplash.jpg",34,30
"4418","6mfmY",1219564,5,1,0.97,0,0,0,1,8,23,23,8,88,75,"joanna-nix-walkup-H4fEMshfwTE-unsplash.jpg","bruce-dixon-3M9WJQVHzog-unsplash.jpg",28,25
"4421","6mfmY",1221832,6,1,0.758,1,0,1,0,15,45,15,45,88,88,"gabriel-silverio-u3WmDyKGsrY-unsplash.jpg","sarah-noltner-pL5ZzPp1zqg-unsplash.jpg",30,35
"4424","6mfmY",1224398,7,1,1.057,0,0,1,0,23,39,23,39,88,92,"joanna-nix-walkup-H4fEMshfwTE-unsplash.jpg","philip-martin-5aGUyCW_PJw-unsplash.jpg",28,24
"4427","6mfmY",1226853,8,1,0.949,0,1,1,1,0,23,0,23,89,88,"abstral-official-cyOKLSgkgCE-unsplash.jpg","joanna-nix-walkup-H4fEMshfwTE-unsplash.jpg",35,28
"4430","6mfmY",1228930,9,1,0.572,0,1,0,0,24,0,0,24,89,84,"abstral-official-cyOKLSgkgCE-unsplash.jpg","joel-mott-LaK153ghdig-unsplash.jpg",35,30
"4433","6mfmY",1231116,10,1,0.676,0,1,0,0,24,8,8,24,75,84,"bruce-dixon-3M9WJQVHzog-unsplash.jpg","joel-mott-LaK153ghdig-unsplash.jpg",25,30
"4436","6mfmY",1233411,11,1,0.788,1,1,0,0,15,20,20,15,87,88,"houcine-ncib-B4TjXnI0Y2c-unsplash.jpg","gabriel-silverio-u3WmDyKGsrY-unsplash.jpg",32,30
"4439","6mfmY",1235711,12,1,0.794,0,0,1,0,36,0,36,0,68,89,"ospan-ali-mGdA2fzjWLo-unsplash.jpg","abstral-official-cyOKLSgkgCE-unsplash.jpg",29,35
"4442","6mfmY",1238012,13,1,0.797,0,0,1,0,36,26,36,26,68,87,"ospan-ali-mGdA2fzjWLo-unsplash.jpg","juri-gianfrancesco-9EZadYaMzk4-unsplash.jpg",29,32
"4445","6mfmY",1240639,14,1,1.118,1,1,1,1,19,38,19,38,92,74,"ha-nguy-n-OFSQ6bHjFjs-unsplash.jpg","petr-sevcovic-HzDF-rxlSeM-unsplash.jpg",27,26
"4448","6mfmY",1243995,15,1,1.848,1,1,1,1,1,33,1,33,93,80,"aiony-haust-jmATI5Q_YgY-unsplash.jpg","olena-sergienko-0TSd6uCKTKc-unsplash.jpg",34,29
"4451","6mfmY",1246508,16,1,1.006,0,0,1,0,49,8,49,8,91,75,"vicky-hladynets-_gDoyVv5F4c-unsplash.jpg","bruce-dixon-3M9WJQVHzog-unsplash.jpg",33,25
"4454","6mfmY",1248625,17,1,0.609,1,1,0,0,15,19,19,15,92,88,"ha-nguy-n-OFSQ6bHjFjs-unsplash.jpg","gabriel-silverio-u3WmDyKGsrY-unsplash.jpg",27,30
"4457","6mfmY",1251022,18,1,0.888,1,1,0,0,33,20,20,33,87,80,"houcine-ncib-B4TjXnI0Y2c-unsplash.jpg","olena-sergienko-0TSd6uCKTKc-unsplash.jpg",32,29
"4460","6mfmY",1254630,19,1,2.099,0,0,0,1,32,23,23,32,88,71,"joanna-nix-walkup-H4fEMshfwTE-unsplash.jpg","nathan-dumlao-ger61_TX6oI-unsplash.jpg",28,34
"4463","6mfmY",1257177,20,1,1.042,0,1,0,0,49,26,26,49,87,91,"juri-gianfrancesco-9EZadYaMzk4-unsplash.jpg","vicky-hladynets-_gDoyVv5F4c-unsplash.jpg",32,33
"4466","6mfmY",1259540,21,1,0.855,0,0,1,0,24,26,24,26,84,87,"joel-mott-LaK153ghdig-unsplash.jpg","juri-gianfrancesco-9EZadYaMzk4-unsplash.jpg",30,32
"4469","6mfmY",1261643,22,1,0.595,0,1,0,0,24,43,43,24,90,84,"raamin-ka-0qJBEzudn5E-unsplash.jpg","joel-mott-LaK153ghdig-unsplash.jpg",27,30
"4472","6mfmY",1263958,23,1,0.809,0,1,1,1,26,23,26,23,87,88,"juri-gianfrancesco-9EZadYaMzk4-unsplash.jpg","joanna-nix-walkup-H4fEMshfwTE-unsplash.jpg",32,28
"4475","6mfmY",1266489,24,1,1.022,1,0,0,1,1,48,48,1,93,93,"velizar-ivanov-7ktP9yZA1g4-unsplash.jpg","aiony-haust-jmATI5Q_YgY-unsplash.jpg",28,34
"4478","6mfmY",1268835,25,1,0.842,0,1,0,0,49,32,32,49,71,91,"nathan-dumlao-ger61_TX6oI-unsplash.jpg","vicky-hladynets-_gDoyVv5F4c-unsplash.jpg",34,33
"4481","6mfmY",1271532,26,1,1.186,1,0,0,1,30,29,29,30,93,90,"leilani-angel-K84vnnzxmTQ-unsplash.jpg","matheus-ferrero-pg_WCHWSdT8-unsplash.jpg",33,25
"4484","6mfmY",1273812,27,1,0.772,1,1,1,1,45,38,45,38,88,74,"sarah-noltner-pL5ZzPp1zqg-unsplash.jpg","petr-sevcovic-HzDF-rxlSeM-unsplash.jpg",35,26
"4487","6mfmY",1276351,28,1,1.03,0,1,1,1,8,12,8,12,75,88,"bruce-dixon-3M9WJQVHzog-unsplash.jpg","daniel-rigdon-dXmXKPP2L4E-unsplash.jpg",25,31
