PID,trial,stimulus_index,rt,rating,category,stimulus,path,iti
38808,1,38,4800,75,objects,art-lasovsky-8XddFc6NkBY-unsplash.jpg,Stimuli/Experimental_stims/objects/art-lasovsky-8XddFc6NkBY-unsplash.jpg,NaN
38808,2,24,3357,44,body_parts,clay-banks-LjqARJaJotc-unsplash.jpg,Stimuli/Experimental_stims/body_parts/clay-banks-LjqARJaJotc-unsplash.jpg,NaN
38808,3,13,3116,79,faces,daniel-rigdon-dXmXKPP2L4E-unsplash.jpg,Stimuli/Experimental_stims/faces/daniel-rigdon-dXmXKPP2L4E-unsplash.jpg,NaN
38808,4,2,3621,90,outdoor_scenes,bruno-van-der-kraan-qez8mNJ3ilU-unsplash.jpg,Stimuli/Experimental_stims/outdoor_scenes/bruno-van-der-kraan-qez8mNJ3ilU-unsplash.jpg,NaN
38808,5,36,3530,80,objects,alexander-andrews-JYGnB9gTCls-unsplash.jpg,Stimuli/Experimental_stims/objects/alexander-andrews-JYGnB9gTCls-unsplash.jpg,NaN
38808,6,7,2593,28,outdoor_scenes,petr-vysohlid-9fqwGqGLUxc-unsplash.jpg,Stimuli/Experimental_stims/outdoor_scenes/petr-vysohlid-9fqwGqGLUxc-unsplash.jpg,NaN
38808,7,28,3177,76,body_parts,ira-vishnevskaya-8DQAvdCby1I-unsplash.jpg,Stimuli/Experimental_stims/body_parts/ira-vishnevskaya-8DQAvdCby1I-unsplash.jpg,NaN
38808,8,14,2788,29,faces,david-siglin-UuW4psOb388-unsplash.jpg,Stimuli/Experimental_stims/faces/david-siglin-UuW4psOb388-unsplash.jpg,NaN
38808,9,23,2557,83,faces,rikonavt-HQjfrvdTfak-unsplash.jpg,Stimuli/Experimental_stims/faces/rikonavt-HQjfrvdTfak-unsplash.jpg,NaN
38808,10,39,2961,28,objects,charlesdeluvio-1-nx1QR5dTE-unsplash.jpg,Stimuli/Experimental_stims/objects/charlesdeluvio-1-nx1QR5dTE-unsplash.jpg,NaN
38808,11,11,4747,79,outdoor_scenes,stephen-leonardi-gyIRjKPXupE-unsplash.jpg,Stimuli/Experimental_stims/outdoor_scenes/stephen-leonardi-gyIRjKPXupE-unsplash.jpg,NaN
38808,12,16,3242,22,faces,freddy-kearney-o-ioeoATbIM-unsplash.jpg,Stimuli/Experimental_stims/faces/freddy-kearney-o-ioeoATbIM-unsplash.jpg,NaN
38808,13,46,3326,79,objects,mockup-graphics-PNsj6RiHAF4-unsplash.jpg,Stimuli/Experimental_stims/objects/mockup-graphics-PNsj6RiHAF4-unsplash.jpg,NaN
38808,14,20,3530,43,faces,justin-chen-J7Cf1Gch49E-unsplash.jpg,Stimuli/Experimental_stims/faces/justin-chen-J7Cf1Gch49E-unsplash.jpg,NaN
38808,15,18,2799,82,faces,jessica-radanavong-mrYkTuAesKE-unsplash.jpg,Stimuli/Experimental_stims/faces/jessica-radanavong-mrYkTuAesKE-unsplash.jpg,NaN
38808,16,42,3157,18,objects,jess-bailey-nOeVi8DsN8U-unsplash.jpg,Stimuli/Experimental_stims/objects/jess-bailey-nOeVi8DsN8U-unsplash.jpg,NaN
38808,17,5,2529,67,outdoor_scenes,jeff-king-bJHWJeiHfHc-unsplash.jpg,Stimuli/Experimental_stims/outdoor_scenes/jeff-king-bJHWJeiHfHc-unsplash.jpg,NaN
38808,18,25,12102,71,body_parts,engin-akyurt-Q2rfH3GW39c-unsplash.jpg,Stimuli/Experimental_stims/body_parts/engin-akyurt-Q2rfH3GW39c-unsplash.jpg,NaN
38808,19,29,3741,29,body_parts,manuel-schinner-ZwjFuJ7ebpk-unsplash.jpg,Stimuli/Experimental_stims/body_parts/manuel-schinner-ZwjFuJ7ebpk-unsplash.jpg,NaN
38808,20,47,2914,75,objects,ronaldo-arthur-vidal-Cdz_lvnl37k-unsplash.jpg,Stimuli/Experimental_stims/objects/ronaldo-arthur-vidal-Cdz_lvnl37k-unsplash.jpg,NaN
38808,21,4,3197,25,outdoor_scenes,jarrett-kow-1ZOyYPOBn7I-unsplash.jpg,Stimuli/Experimental_stims/outdoor_scenes/jarrett-kow-1ZOyYPOBn7I-unsplash.jpg,NaN
38808,22,31,2910,86,body_parts,sincerely-media-VN6DbKajo5s-unsplash.jpg,Stimuli/Experimental_stims/body_parts/sincerely-media-VN6DbKajo5s-unsplash.jpg,NaN
38808,23,44,10246,86,objects,kuiye-chen-NuOGFo4PudE-unsplash.jpg,Stimuli/Experimental_stims/objects/kuiye-chen-NuOGFo4PudE-unsplash.jpg,NaN
38808,24,37,2823,39,objects,alexander-andrews-VLGWE_SumrA-unsplash.jpg,Stimuli/Experimental_stims/objects/alexander-andrews-VLGWE_SumrA-unsplash.jpg,NaN
38808,25,10,377258,70,outdoor_scenes,shannon-kunkle-dM8INmkyDas-unsplash.jpg,Stimuli/Experimental_stims/outdoor_scenes/shannon-kunkle-dM8INmkyDas-unsplash.jpg,NaN
38808,26,40,3526,28,objects,fabian-blank-pElSkGRA2NU-unsplash.jpg,Stimuli/Experimental_stims/objects/fabian-blank-pElSkGRA2NU-unsplash.jpg,NaN
38808,27,9,3119,70,outdoor_scenes,sergey-pesterev-y-b_FOmJXdg-unsplash.jpg,Stimuli/Experimental_stims/outdoor_scenes/sergey-pesterev-y-b_FOmJXdg-unsplash.jpg,NaN
38808,28,41,4521,27,objects,insung-yoon-w2JtIQQXoRU-unsplash.jpg,Stimuli/Experimental_stims/objects/insung-yoon-w2JtIQQXoRU-unsplash.jpg,NaN
38808,29,8,4183,76,outdoor_scenes,samsommer-vddccTqwal8-unsplash.jpg,Stimuli/Experimental_stims/outdoor_scenes/samsommer-vddccTqwal8-unsplash.jpg,NaN
38808,30,3,2938,73,outdoor_scenes,henry-be-NLF6hTe4PAg-unsplash.jpg,Stimuli/Experimental_stims/outdoor_scenes/henry-be-NLF6hTe4PAg-unsplash.jpg,NaN
38808,31,27,3250,31,body_parts,heike-mintel-i_Gns0ELnLw-unsplash.jpg,Stimuli/Experimental_stims/body_parts/heike-mintel-i_Gns0ELnLw-unsplash.jpg,NaN
38808,32,19,2668,76,faces,joel-mott-LaK153ghdig-unsplash.jpg,Stimuli/Experimental_stims/faces/joel-mott-LaK153ghdig-unsplash.jpg,NaN
38808,33,45,2760,28,objects,leohoho-rngTKHXumy0-unsplash.jpg,Stimuli/Experimental_stims/objects/leohoho-rngTKHXumy0-unsplash.jpg,NaN
38808,34,30,3589,11,body_parts,mika-korhonen-Xodzxosar18-unsplash.jpg,Stimuli/Experimental_stims/body_parts/mika-korhonen-Xodzxosar18-unsplash.jpg,NaN
38808,35,21,2932,18,faces,leilani-angel-K84vnnzxmTQ-unsplash.jpg,Stimuli/Experimental_stims/faces/leilani-angel-K84vnnzxmTQ-unsplash.jpg,NaN
38808,36,34,2841,24,body_parts,wagner-santos-mBWMvIuVnso-unsplash.jpg,Stimuli/Experimental_stims/body_parts/wagner-santos-mBWMvIuVnso-unsplash.jpg,NaN
38808,37,35,2626,33,body_parts,wc-so-KH4AAPjb-tI-unsplash.jpg,Stimuli/Experimental_stims/body_parts/wc-so-KH4AAPjb-tI-unsplash.jpg,NaN
38808,38,15,2949,5,faces,erik-lucatero-d2MSDujJl2g-unsplash.jpg,Stimuli/Experimental_stims/faces/erik-lucatero-d2MSDujJl2g-unsplash.jpg,NaN
38808,39,1,2827,41,outdoor_scenes,ashim-d-silva-S2Q5mdOrrVc-unsplash.jpg,Stimuli/Experimental_stims/outdoor_scenes/ashim-d-silva-S2Q5mdOrrVc-unsplash.jpg,NaN
38808,40,22,3856,4,faces,ravi-patel-VMGAbeeJTKo-unsplash.jpg,Stimuli/Experimental_stims/faces/ravi-patel-VMGAbeeJTKo-unsplash.jpg,NaN
38808,41,26,2763,25,body_parts,engin-akyurt-x_3gyC42btc-unsplash.jpg,Stimuli/Experimental_stims/body_parts/engin-akyurt-x_3gyC42btc-unsplash.jpg,NaN
38808,42,0,5091,39,outdoor_scenes,aleksandra-boguslawska-MS7KD9Ti7FQ-unsplash.jpg,Stimuli/Experimental_stims/outdoor_scenes/aleksandra-boguslawska-MS7KD9Ti7FQ-unsplash.jpg,NaN
38808,43,43,3982,2,objects,jonathan-greenaway-Y4hGgeiFn3s-unsplash.jpg,Stimuli/Experimental_stims/objects/jonathan-greenaway-Y4hGgeiFn3s-unsplash.jpg,NaN
38808,44,32,3505,13,body_parts,towfiqu-barbhuiya-3AsiVDsZnHg-unsplash.jpg,Stimuli/Experimental_stims/body_parts/towfiqu-barbhuiya-3AsiVDsZnHg-unsplash.jpg,NaN
38808,45,17,3696,6,faces,good-faces-xmSWVeGEnJw-unsplash.jpg,Stimuli/Experimental_stims/faces/good-faces-xmSWVeGEnJw-unsplash.jpg,NaN
38808,46,6,31136,8,outdoor_scenes,meng-ji-8BH_M-53CyA-unsplash.jpg,Stimuli/Experimental_stims/outdoor_scenes/meng-ji-8BH_M-53CyA-unsplash.jpg,NaN
38808,47,33,3540,90,body_parts,tucker-good-36skLT5jZcc-unsplash.jpg,Stimuli/Experimental_stims/body_parts/tucker-good-36skLT5jZcc-unsplash.jpg,NaN
38808,48,12,2905,24,faces,aiony-haust-jmATI5Q_YgY-unsplash.jpg,Stimuli/Experimental_stims/faces/aiony-haust-jmATI5Q_YgY-unsplash.jpg,NaN