PID,trial,stimulus_index,rt,rating,category,stimulus,path,iti
12,1,59,1378,50,objects,ronaldo-arthur-vidal-Cdz_lvnl37k-unsplash.jpg,Stimuli/Experimental_stims/objects/ronaldo-arthur-vidal-Cdz_lvnl37k-unsplash.jpg,NaN
12,2,55,176,50,objects,jiangxulei1990-eIzzzwtkBjU-unsplash.jpg,Stimuli/Experimental_stims/objects/jiangxulei1990-eIzzzwtkBjU-unsplash.jpg,NaN
12,3,42,175,50,body_parts,lucrezia-carnelos-kn6QrWtnAtY-unsplash.jpg,Stimuli/Experimental_stims/body_parts/lucrezia-carnelos-kn6QrWtnAtY-unsplash.jpg,NaN
12,4,47,264,50,body_parts,tucker-good-36skLT5jZcc-unsplash.jpg,Stimuli/Experimental_stims/body_parts/tucker-good-36skLT5jZcc-unsplash.jpg,NaN
12,5,35,194,50,faces,rikonavt-HQjfrvdTfak-unsplash.jpg,Stimuli/Experimental_stims/faces/rikonavt-HQjfrvdTfak-unsplash.jpg,NaN
12,6,30,175,50,faces,good-faces-xmSWVeGEnJw-unsplash.jpg,Stimuli/Experimental_stims/faces/good-faces-xmSWVeGEnJw-unsplash.jpg,NaN
12,7,45,178,50,body_parts,sincerely-media-7TBFwUQA6Xk-unsplash.jpg,Stimuli/Experimental_stims/body_parts/sincerely-media-7TBFwUQA6Xk-unsplash.jpg,NaN
12,8,53,162,50,objects,insung-yoon-w2JtIQQXoRU-unsplash.jpg,Stimuli/Experimental_stims/objects/insung-yoon-w2JtIQQXoRU-unsplash.jpg,NaN
12,9,17,151,50,outdoor_scenes,jeff-king-bJHWJeiHfHc-unsplash.jpg,Stimuli/Experimental_stims/outdoor_scenes/jeff-king-bJHWJeiHfHc-unsplash.jpg,NaN
12,10,32,173,50,faces,justin-chen-J7Cf1Gch49E-unsplash.jpg,Stimuli/Experimental_stims/faces/justin-chen-J7Cf1Gch49E-unsplash.jpg,NaN
12,11,26,173,50,faces,art-hauntington-jzY0KRJopEI-unsplash.jpg,Stimuli/Experimental_stims/faces/art-hauntington-jzY0KRJopEI-unsplash.jpg,NaN
12,12,14,164,50,outdoor_scenes,bruno-van-der-kraan-qez8mNJ3ilU-unsplash.jpg,Stimuli/Experimental_stims/outdoor_scenes/bruno-van-der-kraan-qez8mNJ3ilU-unsplash.jpg,NaN
12,13,12,171,50,outdoor_scenes,aleksandra-boguslawska-MS7KD9Ti7FQ-unsplash.jpg,Stimuli/Experimental_stims/outdoor_scenes/aleksandra-boguslawska-MS7KD9Ti7FQ-unsplash.jpg,NaN
12,14,36,166,50,body_parts,callum-skelton-3KLMq7y46nA-unsplash.jpg,Stimuli/Experimental_stims/body_parts/callum-skelton-3KLMq7y46nA-unsplash.jpg,NaN
12,15,21,173,50,outdoor_scenes,sergey-pesterev-y-b_FOmJXdg-unsplash.jpg,Stimuli/Experimental_stims/outdoor_scenes/sergey-pesterev-y-b_FOmJXdg-unsplash.jpg,NaN
12,16,52,174,50,objects,fabian-blank-pElSkGRA2NU-unsplash.jpg,Stimuli/Experimental_stims/objects/fabian-blank-pElSkGRA2NU-unsplash.jpg,NaN
12,17,54,186,50,objects,jess-bailey-nOeVi8DsN8U-unsplash.jpg,Stimuli/Experimental_stims/objects/jess-bailey-nOeVi8DsN8U-unsplash.jpg,NaN
12,18,37,160,50,body_parts,engin-akyurt-Q2rfH3GW39c-unsplash.jpg,Stimuli/Experimental_stims/body_parts/engin-akyurt-Q2rfH3GW39c-unsplash.jpg,NaN
12,19,38,179,50,body_parts,engin-akyurt-x_3gyC42btc-unsplash.jpg,Stimuli/Experimental_stims/body_parts/engin-akyurt-x_3gyC42btc-unsplash.jpg,NaN
12,20,46,174,50,body_parts,sincerely-media-VN6DbKajo5s-unsplash.jpg,Stimuli/Experimental_stims/body_parts/sincerely-media-VN6DbKajo5s-unsplash.jpg,NaN
12,21,22,151,50,outdoor_scenes,stephen-leonardi-gyIRjKPXupE-unsplash.jpg,Stimuli/Experimental_stims/outdoor_scenes/stephen-leonardi-gyIRjKPXupE-unsplash.jpg,NaN
12,22,51,173,50,objects,art-lasovsky-8XddFc6NkBY-unsplash.jpg,Stimuli/Experimental_stims/objects/art-lasovsky-8XddFc6NkBY-unsplash.jpg,NaN
12,23,49,177,50,objects,alexander-andrews-VLGWE_SumrA-unsplash.jpg,Stimuli/Experimental_stims/objects/alexander-andrews-VLGWE_SumrA-unsplash.jpg,NaN
12,24,57,184,50,objects,kuiye-chen-NuOGFo4PudE-unsplash.jpg,Stimuli/Experimental_stims/objects/kuiye-chen-NuOGFo4PudE-unsplash.jpg,NaN
12,25,48,163,50,objects,alexander-andrews-JYGnB9gTCls-unsplash.jpg,Stimuli/Experimental_stims/objects/alexander-andrews-JYGnB9gTCls-unsplash.jpg,NaN
12,26,44,176,50,body_parts,pure-julia-9lVaya31sMk-unsplash.jpg,Stimuli/Experimental_stims/body_parts/pure-julia-9lVaya31sMk-unsplash.jpg,NaN
12,27,29,195,50,faces,freddy-kearney-o-ioeoATbIM-unsplash.jpg,Stimuli/Experimental_stims/faces/freddy-kearney-o-ioeoATbIM-unsplash.jpg,NaN
12,28,33,162,50,faces,leilani-angel-K84vnnzxmTQ-unsplash.jpg,Stimuli/Experimental_stims/faces/leilani-angel-K84vnnzxmTQ-unsplash.jpg,NaN
12,29,56,188,50,objects,jonathan-greenaway-Y4hGgeiFn3s-unsplash.jpg,Stimuli/Experimental_stims/objects/jonathan-greenaway-Y4hGgeiFn3s-unsplash.jpg,NaN
12,30,15,186,50,outdoor_scenes,henry-be-NLF6hTe4PAg-unsplash.jpg,Stimuli/Experimental_stims/outdoor_scenes/henry-be-NLF6hTe4PAg-unsplash.jpg,NaN
12,31,43,196,50,body_parts,megan-menegay-UojxG_BJxnI-unsplash.jpg,Stimuli/Experimental_stims/body_parts/megan-menegay-UojxG_BJxnI-unsplash.jpg,NaN
12,32,28,173,50,faces,erik-lucatero-d2MSDujJl2g-unsplash.jpg,Stimuli/Experimental_stims/faces/erik-lucatero-d2MSDujJl2g-unsplash.jpg,NaN
12,33,50,197,50,objects,andrew-petrov-TVJqDat4MAw-unsplash.jpg,Stimuli/Experimental_stims/objects/andrew-petrov-TVJqDat4MAw-unsplash.jpg,NaN
12,34,40,173,50,body_parts,klara-kulikova-TcUfF24fUMY-unsplash.jpg,Stimuli/Experimental_stims/body_parts/klara-kulikova-TcUfF24fUMY-unsplash.jpg,NaN
12,35,13,175,50,outdoor_scenes,ashim-d-silva-S2Q5mdOrrVc-unsplash.jpg,Stimuli/Experimental_stims/outdoor_scenes/ashim-d-silva-S2Q5mdOrrVc-unsplash.jpg,NaN
12,36,58,183,50,objects,mockup-graphics-PNsj6RiHAF4-unsplash.jpg,Stimuli/Experimental_stims/objects/mockup-graphics-PNsj6RiHAF4-unsplash.jpg,NaN
12,37,39,186,50,body_parts,jonathan-borba-hTwH8QFkPMs-unsplash.jpg,Stimuli/Experimental_stims/body_parts/jonathan-borba-hTwH8QFkPMs-unsplash.jpg,NaN
12,38,19,175,50,outdoor_scenes,petr-vysohlid-9fqwGqGLUxc-unsplash.jpg,Stimuli/Experimental_stims/outdoor_scenes/petr-vysohlid-9fqwGqGLUxc-unsplash.jpg,NaN
12,39,27,196,50,faces,daniel-rigdon-dXmXKPP2L4E-unsplash.jpg,Stimuli/Experimental_stims/faces/daniel-rigdon-dXmXKPP2L4E-unsplash.jpg,NaN
12,40,25,174,50,faces,aiony-haust-jmATI5Q_YgY-unsplash.jpg,Stimuli/Experimental_stims/faces/aiony-haust-jmATI5Q_YgY-unsplash.jpg,NaN
12,41,24,185,50,faces,abstral-official-cyOKLSgkgCE-unsplash.jpg,Stimuli/Experimental_stims/faces/abstral-official-cyOKLSgkgCE-unsplash.jpg,NaN
12,42,23,184,50,outdoor_scenes,yuriy-bogdanov-W51VK3Obcj0-unsplash.jpg,Stimuli/Experimental_stims/outdoor_scenes/yuriy-bogdanov-W51VK3Obcj0-unsplash.jpg,NaN
12,43,16,198,50,outdoor_scenes,jarrett-kow-1ZOyYPOBn7I-unsplash.jpg,Stimuli/Experimental_stims/outdoor_scenes/jarrett-kow-1ZOyYPOBn7I-unsplash.jpg,NaN
12,44,31,174,50,faces,jessica-radanavong-mrYkTuAesKE-unsplash.jpg,Stimuli/Experimental_stims/faces/jessica-radanavong-mrYkTuAesKE-unsplash.jpg,NaN
12,45,20,186,50,outdoor_scenes,samsommer-vddccTqwal8-unsplash.jpg,Stimuli/Experimental_stims/outdoor_scenes/samsommer-vddccTqwal8-unsplash.jpg,NaN
12,46,41,185,50,body_parts,lucaxx-freire-CacZwMexYdk-unsplash.jpg,Stimuli/Experimental_stims/body_parts/lucaxx-freire-CacZwMexYdk-unsplash.jpg,NaN
12,47,34,186,50,faces,olena-sergienko-0TSd6uCKTKc-unsplash.jpg,Stimuli/Experimental_stims/faces/olena-sergienko-0TSd6uCKTKc-unsplash.jpg,NaN
12,48,18,206,50,outdoor_scenes,meng-ji-8BH_M-53CyA-unsplash.jpg,Stimuli/Experimental_stims/outdoor_scenes/meng-ji-8BH_M-53CyA-unsplash.jpg,NaN