,PID,practice,run,trial,item_id,stimulus,path,outcome,iti,isi,response,response_acc,response_rt,long_iti,simulation,version,level_0,index,block,no_response
0,14054,1,0,1,prac1,NaN,Stimuli/Practice_stims/Outcome_learning/nizar-albusaidy-B2r2SWAf5CE-unsplash.jpg,gain,1500,1000,gain,1,212,0,20,3,,,0,0
1,14054,1,0,2,prac2,NaN,Stimuli/Practice_stims/Outcome_learning/randy-fath-epf1tdtIIkM-unsplash.jpg,no-gain,1000,1500,gain,0,118,0,20,3,,,0,0
2,14054,1,0,3,prac2,NaN,Stimuli/Practice_stims/Outcome_learning/randy-fath-epf1tdtIIkM-unsplash.jpg,no-gain,2000,1000,gain,0,618,0,20,3,,,0,0
3,14054,1,0,4,prac1,NaN,Stimuli/Practice_stims/Outcome_learning/nizar-albusaidy-B2r2SWAf5CE-unsplash.jpg,gain,1000,2000,gain,1,781,0,20,3,,,0,0
4,14054,0,1,5,K,32,Stimuli/Experimental_stims/body_parts/towfiqu-barbhuiya-3AsiVDsZnHg-unsplash.jpg,no_gain,1800,1900,no_response,0,NaN,0,20,3,0.0,4.0,1,1
5,14054,0,1,6,B,9,Stimuli/Experimental_stims/outdoor_scenes/sergey-pesterev-y-b_FOmJXdg-unsplash.jpg,gain,1200,1600,no_response,0,NaN,0,20,3,1.0,5.0,1,1
6,14054,0,1,7,J,17,Stimuli/Experimental_stims/faces/good-faces-xmSWVeGEnJw-unsplash.jpg,no_gain,1100,1800,no_response,0,NaN,0,20,3,2.0,6.0,1,1
7,14054,0,1,8,D,40,Stimuli/Experimental_stims/objects/fabian-blank-pElSkGRA2NU-unsplash.jpg,gain,1700,1800,no_response,0,NaN,0,20,3,3.0,7.0,1,1
8,14054,0,1,9,C,2,Stimuli/Experimental_stims/outdoor_scenes/bruno-van-der-kraan-qez8mNJ3ilU-unsplash.jpg,no_gain,3300,1000,no_response,0,NaN,1,20,3,4.0,8.0,1,1
9,14054,0,1,10,E,46,Stimuli/Experimental_stims/objects/mockup-graphics-PNsj6RiHAF4-unsplash.jpg,no_gain,1900,1100,no_response,0,NaN,0,20,3,5.0,9.0,1,1
10,14054,0,1,11,I,26,Stimuli/Experimental_stims/body_parts/engin-akyurt-x_3gyC42btc-unsplash.jpg,gain,2500,1300,no_response,0,NaN,0,20,3,6.0,10.0,1,1
11,14054,0,1,12,H,15,Stimuli/Experimental_stims/faces/erik-lucatero-d2MSDujJl2g-unsplash.jpg,gain,1100,1900,no_response,0,NaN,0,20,3,7.0,11.0,1,1
12,14054,0,1,13,L,35,Stimuli/Experimental_stims/body_parts/wc-so-KH4AAPjb-tI-unsplash.jpg,gain,1800,3100,no_response,0,NaN,0,20,3,8.0,12.0,1,1
13,14054,0,1,14,F,16,Stimuli/Experimental_stims/faces/freddy-kearney-o-ioeoATbIM-unsplash.jpg,no_gain,1200,3500,no_response,0,NaN,0,20,3,9.0,13.0,1,1
14,14054,0,1,15,G,47,Stimuli/Experimental_stims/objects/ronaldo-arthur-vidal-Cdz_lvnl37k-unsplash.jpg,gain,3000,1900,no_response,0,NaN,1,20,3,10.0,14.0,1,1
15,14054,0,1,16,A,3,Stimuli/Experimental_stims/outdoor_scenes/henry-be-NLF6hTe4PAg-unsplash.jpg,no_gain,2100,1600,no_response,0,NaN,0,20,3,11.0,15.0,1,1
16,14054,0,1,17,H,15,Stimuli/Experimental_stims/faces/erik-lucatero-d2MSDujJl2g-unsplash.jpg,gain,2000,1500,no_response,0,NaN,0,20,3,12.0,16.0,2,1
17,14054,0,1,18,A,3,Stimuli/Experimental_stims/outdoor_scenes/henry-be-NLF6hTe4PAg-unsplash.jpg,no_gain,1800,2700,no_response,0,NaN,0,20,3,13.0,17.0,2,1
18,14054,0,1,19,I,26,Stimuli/Experimental_stims/body_parts/engin-akyurt-x_3gyC42btc-unsplash.jpg,gain,1500,3300,no_response,0,NaN,0,20,3,14.0,18.0,2,1
19,14054,0,1,20,J,17,Stimuli/Experimental_stims/faces/good-faces-xmSWVeGEnJw-unsplash.jpg,no_gain,1100,1400,no_response,0,NaN,0,20,3,15.0,19.0,2,1
20,14054,0,1,21,E,46,Stimuli/Experimental_stims/objects/mockup-graphics-PNsj6RiHAF4-unsplash.jpg,no_gain,1700,2200,no_response,0,NaN,0,20,3,16.0,20.0,2,1
21,14054,0,1,22,F,16,Stimuli/Experimental_stims/faces/freddy-kearney-o-ioeoATbIM-unsplash.jpg,no_gain,1900,1400,no_response,0,NaN,0,20,3,17.0,21.0,2,1
22,14054,0,1,23,K,32,Stimuli/Experimental_stims/body_parts/towfiqu-barbhuiya-3AsiVDsZnHg-unsplash.jpg,no_gain,4600,1900,no_response,0,NaN,1,20,3,18.0,22.0,2,1
23,14054,0,1,24,D,40,Stimuli/Experimental_stims/objects/fabian-blank-pElSkGRA2NU-unsplash.jpg,gain,1200,2200,no_response,0,NaN,0,20,3,19.0,23.0,2,1
24,14054,0,1,25,B,9,Stimuli/Experimental_stims/outdoor_scenes/sergey-pesterev-y-b_FOmJXdg-unsplash.jpg,gain,1100,1800,no_response,0,NaN,0,20,3,20.0,24.0,2,1
25,14054,0,1,26,L,35,Stimuli/Experimental_stims/body_parts/wc-so-KH4AAPjb-tI-unsplash.jpg,gain,1700,1100,no_response,0,NaN,0,20,3,21.0,25.0,2,1
26,14054,0,1,27,C,2,Stimuli/Experimental_stims/outdoor_scenes/bruno-van-der-kraan-qez8mNJ3ilU-unsplash.jpg,no_gain,1100,1300,no_response,0,NaN,0,20,3,22.0,26.0,2,1
27,14054,0,1,28,G,47,Stimuli/Experimental_stims/objects/ronaldo-arthur-vidal-Cdz_lvnl37k-unsplash.jpg,gain,4500,2300,no_response,0,NaN,1,20,3,23.0,27.0,2,1
28,14054,0,1,29,C,2,Stimuli/Experimental_stims/outdoor_scenes/bruno-van-der-kraan-qez8mNJ3ilU-unsplash.jpg,no_gain,2100,3000,no_response,0,NaN,0,20,3,24.0,28.0,3,1
29,14054,0,1,30,A,3,Stimuli/Experimental_stims/outdoor_scenes/henry-be-NLF6hTe4PAg-unsplash.jpg,no_gain,1400,3100,no_response,0,NaN,0,20,3,25.0,29.0,3,1
30,14054,0,1,31,G,47,Stimuli/Experimental_stims/objects/ronaldo-arthur-vidal-Cdz_lvnl37k-unsplash.jpg,gain,1600,1300,no_response,0,NaN,0,20,3,26.0,30.0,3,1
31,14054,0,1,32,F,16,Stimuli/Experimental_stims/faces/freddy-kearney-o-ioeoATbIM-unsplash.jpg,no_gain,1700,1200,no_response,0,NaN,0,20,3,27.0,31.0,3,1
32,14054,0,1,33,I,26,Stimuli/Experimental_stims/body_parts/engin-akyurt-x_3gyC42btc-unsplash.jpg,gain,4100,1600,no_response,0,NaN,1,20,3,28.0,32.0,3,1
33,14054,0,1,34,H,15,Stimuli/Experimental_stims/faces/erik-lucatero-d2MSDujJl2g-unsplash.jpg,gain,2200,1900,no_response,0,NaN,0,20,3,29.0,33.0,3,1
34,14054,0,1,35,B,9,Stimuli/Experimental_stims/outdoor_scenes/sergey-pesterev-y-b_FOmJXdg-unsplash.jpg,gain,2500,1700,no_response,0,NaN,0,20,3,30.0,34.0,3,1
35,14054,0,1,36,E,46,Stimuli/Experimental_stims/objects/mockup-graphics-PNsj6RiHAF4-unsplash.jpg,no_gain,1100,3100,no_response,0,NaN,0,20,3,31.0,35.0,3,1
36,14054,0,1,37,L,35,Stimuli/Experimental_stims/body_parts/wc-so-KH4AAPjb-tI-unsplash.jpg,gain,1000,3300,no_response,0,NaN,0,20,3,32.0,36.0,3,1
37,14054,0,1,38,J,17,Stimuli/Experimental_stims/faces/good-faces-xmSWVeGEnJw-unsplash.jpg,no_gain,2400,3300,no_response,0,NaN,0,20,3,33.0,37.0,3,1
38,14054,0,1,39,D,40,Stimuli/Experimental_stims/objects/fabian-blank-pElSkGRA2NU-unsplash.jpg,gain,1300,1200,no_response,0,NaN,0,20,3,34.0,38.0,3,1
39,14054,0,1,40,K,32,Stimuli/Experimental_stims/body_parts/towfiqu-barbhuiya-3AsiVDsZnHg-unsplash.jpg,no_gain,3700,1700,no_response,0,NaN,1,20,3,35.0,39.0,3,1
40,14054,0,2,41,C,2,Stimuli/Experimental_stims/outdoor_scenes/bruno-van-der-kraan-qez8mNJ3ilU-unsplash.jpg,no_gain,1500,2500,no_response,0,NaN,0,16,3,36.0,40.0,4,1
41,14054,0,2,42,D,40,Stimuli/Experimental_stims/objects/fabian-blank-pElSkGRA2NU-unsplash.jpg,gain,1100,1600,no_response,0,NaN,0,16,3,37.0,41.0,4,1
42,14054,0,2,43,H,15,Stimuli/Experimental_stims/faces/erik-lucatero-d2MSDujJl2g-unsplash.jpg,gain,3000,1100,no_response,0,NaN,0,16,3,38.0,42.0,4,1
43,14054,0,2,44,K,32,Stimuli/Experimental_stims/body_parts/towfiqu-barbhuiya-3AsiVDsZnHg-unsplash.jpg,no_gain,1400,2700,no_response,0,NaN,0,16,3,39.0,43.0,4,1
44,14054,0,2,45,F,16,Stimuli/Experimental_stims/faces/freddy-kearney-o-ioeoATbIM-unsplash.jpg,no_gain,3600,1600,no_response,0,NaN,1,16,3,40.0,44.0,4,1
45,14054,0,2,46,J,17,Stimuli/Experimental_stims/faces/good-faces-xmSWVeGEnJw-unsplash.jpg,no_gain,1700,3000,no_response,0,NaN,0,16,3,41.0,45.0,4,1
46,14054,0,2,47,B,9,Stimuli/Experimental_stims/outdoor_scenes/sergey-pesterev-y-b_FOmJXdg-unsplash.jpg,gain,1300,1300,no_response,0,NaN,0,16,3,42.0,46.0,4,1
47,14054,0,2,48,E,46,Stimuli/Experimental_stims/objects/mockup-graphics-PNsj6RiHAF4-unsplash.jpg,no_gain,1600,1900,no_response,0,NaN,0,16,3,43.0,47.0,4,1
48,14054,0,2,49,I,26,Stimuli/Experimental_stims/body_parts/engin-akyurt-x_3gyC42btc-unsplash.jpg,gain,3000,2100,no_response,0,NaN,0,16,3,44.0,48.0,4,1
49,14054,0,2,50,A,3,Stimuli/Experimental_stims/outdoor_scenes/henry-be-NLF6hTe4PAg-unsplash.jpg,no_gain,1300,1300,no_response,0,NaN,0,16,3,45.0,49.0,4,1
50,14054,0,2,51,G,47,Stimuli/Experimental_stims/objects/ronaldo-arthur-vidal-Cdz_lvnl37k-unsplash.jpg,gain,1300,1400,no_response,0,NaN,0,16,3,46.0,50.0,4,1
51,14054,0,2,52,L,35,Stimuli/Experimental_stims/body_parts/wc-so-KH4AAPjb-tI-unsplash.jpg,gain,3800,1200,no_response,0,NaN,1,16,3,47.0,51.0,4,1
52,14054,0,2,53,C,2,Stimuli/Experimental_stims/outdoor_scenes/bruno-van-der-kraan-qez8mNJ3ilU-unsplash.jpg,no_gain,1700,1700,no_response,0,NaN,0,16,3,48.0,52.0,5,1
53,14054,0,2,54,F,16,Stimuli/Experimental_stims/faces/freddy-kearney-o-ioeoATbIM-unsplash.jpg,no_gain,1000,3500,no_response,0,NaN,0,16,3,49.0,53.0,5,1
54,14054,0,2,55,G,47,Stimuli/Experimental_stims/objects/ronaldo-arthur-vidal-Cdz_lvnl37k-unsplash.jpg,gain,1500,2500,no_response,0,NaN,0,16,3,50.0,54.0,5,1
55,14054,0,2,56,J,17,Stimuli/Experimental_stims/faces/good-faces-xmSWVeGEnJw-unsplash.jpg,no_gain,1200,1200,no_response,0,NaN,0,16,3,51.0,55.0,5,1
56,14054,0,2,57,D,40,Stimuli/Experimental_stims/objects/fabian-blank-pElSkGRA2NU-unsplash.jpg,gain,1700,1400,no_response,0,NaN,0,16,3,52.0,56.0,5,1
57,14054,0,2,58,A,3,Stimuli/Experimental_stims/outdoor_scenes/henry-be-NLF6hTe4PAg-unsplash.jpg,no_gain,2500,2400,no_response,0,NaN,0,16,3,53.0,57.0,5,1
58,14054,0,2,59,E,46,Stimuli/Experimental_stims/objects/mockup-graphics-PNsj6RiHAF4-unsplash.jpg,no_gain,1000,2400,no_response,0,NaN,0,16,3,54.0,58.0,5,1
59,14054,0,2,60,H,15,Stimuli/Experimental_stims/faces/erik-lucatero-d2MSDujJl2g-unsplash.jpg,gain,2100,1100,no_response,0,NaN,0,16,3,55.0,59.0,5,1
60,14054,0,2,61,L,35,Stimuli/Experimental_stims/body_parts/wc-so-KH4AAPjb-tI-unsplash.jpg,gain,3600,1000,no_response,0,NaN,1,16,3,56.0,60.0,5,1
61,14054,0,2,62,K,32,Stimuli/Experimental_stims/body_parts/towfiqu-barbhuiya-3AsiVDsZnHg-unsplash.jpg,no_gain,1100,2200,no_response,0,NaN,0,16,3,57.0,61.0,5,1
62,14054,0,2,63,B,9,Stimuli/Experimental_stims/outdoor_scenes/sergey-pesterev-y-b_FOmJXdg-unsplash.jpg,gain,1300,1200,no_response,0,NaN,0,16,3,58.0,62.0,5,1
63,14054,0,2,64,I,26,Stimuli/Experimental_stims/body_parts/engin-akyurt-x_3gyC42btc-unsplash.jpg,gain,1800,3100,no_response,0,NaN,0,16,3,59.0,63.0,5,1
64,14054,0,2,65,D,40,Stimuli/Experimental_stims/objects/fabian-blank-pElSkGRA2NU-unsplash.jpg,gain,1500,1900,no_response,0,NaN,0,16,3,60.0,64.0,6,1
65,14054,0,2,66,L,35,Stimuli/Experimental_stims/body_parts/wc-so-KH4AAPjb-tI-unsplash.jpg,gain,5000,3500,no_response,0,NaN,1,16,3,61.0,65.0,6,1
66,14054,0,2,67,K,32,Stimuli/Experimental_stims/body_parts/towfiqu-barbhuiya-3AsiVDsZnHg-unsplash.jpg,no_gain,1700,1100,no_response,0,NaN,0,16,3,62.0,66.0,6,1
67,14054,0,2,68,H,15,Stimuli/Experimental_stims/faces/erik-lucatero-d2MSDujJl2g-unsplash.jpg,gain,1400,1500,no_response,0,NaN,0,16,3,63.0,67.0,6,1
68,14054,0,2,69,C,2,Stimuli/Experimental_stims/outdoor_scenes/bruno-van-der-kraan-qez8mNJ3ilU-unsplash.jpg,no_gain,1300,2300,no_response,0,NaN,0,16,3,64.0,68.0,6,1
69,14054,0,2,70,B,9,Stimuli/Experimental_stims/outdoor_scenes/sergey-pesterev-y-b_FOmJXdg-unsplash.jpg,gain,1800,1000,no_response,0,NaN,0,16,3,65.0,69.0,6,1
70,14054,0,2,71,I,26,Stimuli/Experimental_stims/body_parts/engin-akyurt-x_3gyC42btc-unsplash.jpg,gain,1800,3000,no_response,0,NaN,0,16,3,66.0,70.0,6,1
71,14054,0,2,72,J,17,Stimuli/Experimental_stims/faces/good-faces-xmSWVeGEnJw-unsplash.jpg,no_gain,4900,3300,no_response,0,NaN,1,16,3,67.0,71.0,6,1
72,14054,0,2,73,G,47,Stimuli/Experimental_stims/objects/ronaldo-arthur-vidal-Cdz_lvnl37k-unsplash.jpg,gain,2100,2800,no_response,0,NaN,0,16,3,68.0,72.0,6,1
73,14054,0,2,74,A,3,Stimuli/Experimental_stims/outdoor_scenes/henry-be-NLF6hTe4PAg-unsplash.jpg,no_gain,2600,1400,no_response,0,NaN,0,16,3,69.0,73.0,6,1
74,14054,0,2,75,E,46,Stimuli/Experimental_stims/objects/mockup-graphics-PNsj6RiHAF4-unsplash.jpg,no_gain,1700,1600,no_response,0,NaN,0,16,3,70.0,74.0,6,1
75,14054,0,2,76,F,16,Stimuli/Experimental_stims/faces/freddy-kearney-o-ioeoATbIM-unsplash.jpg,no_gain,1100,3200,no_response,0,NaN,0,16,3,71.0,75.0,6,1