,PID,practice,run,trial,item_id,stimulus,path,outcome,iti,isi,response,response_acc,response_rt,long_iti,simulation,version,level_0,index,block,no_response
0,37104,1,0,1,prac1,NaN,Stimuli/Practice_stims/Outcome_learning/nizar-albusaidy-B2r2SWAf5CE-unsplash.jpg,gain,1500,1000,gain,1,902,0,19,1,,,0,0
1,37104,1,0,2,prac2,NaN,Stimuli/Practice_stims/Outcome_learning/randy-fath-epf1tdtIIkM-unsplash.jpg,no-gain,1000,1500,no_gain,0,587,0,19,1,,,0,0
2,37104,1,0,3,prac2,NaN,Stimuli/Practice_stims/Outcome_learning/randy-fath-epf1tdtIIkM-unsplash.jpg,no-gain,2000,1000,no_gain,0,577,0,19,1,,,0,0
3,37104,1,0,4,prac1,NaN,Stimuli/Practice_stims/Outcome_learning/nizar-albusaidy-B2r2SWAf5CE-unsplash.jpg,gain,1000,2000,gain,1,447,0,19,1,,,0,0
4,37104,0,1,5,K,27,Stimuli/Experimental_stims/body_parts/heike-mintel-i_Gns0ELnLw-unsplash.jpg,no_gain,3200,1200,no_gain,1,417,1,19,1,0.0,4.0,1,0
5,37104,0,1,6,B,2,Stimuli/Experimental_stims/outdoor_scenes/bruno-van-der-kraan-qez8mNJ3ilU-unsplash.jpg,no_gain,1300,2800,no_gain,1,512,0,19,1,1.0,5.0,1,0
6,37104,0,1,7,J,23,Stimuli/Experimental_stims/faces/rikonavt-HQjfrvdTfak-unsplash.jpg,gain,1200,1500,gain,1,443,0,19,1,2.0,6.0,1,0
7,37104,0,1,8,D,18,Stimuli/Experimental_stims/faces/jessica-radanavong-mrYkTuAesKE-unsplash.jpg,gain,1400,1300,gain,1,586,0,19,1,3.0,7.0,1,0
8,37104,0,1,9,C,10,Stimuli/Experimental_stims/outdoor_scenes/shannon-kunkle-dM8INmkyDas-unsplash.jpg,gain,1400,1000,gain,1,480,0,19,1,4.0,8.0,1,0
9,37104,0,1,10,E,28,Stimuli/Experimental_stims/body_parts/ira-vishnevskaya-8DQAvdCby1I-unsplash.jpg,gain,1200,1700,gain,1,475,0,19,1,5.0,9.0,1,0
10,37104,0,1,11,I,0,Stimuli/Experimental_stims/outdoor_scenes/aleksandra-boguslawska-MS7KD9Ti7FQ-unsplash.jpg,no_gain,1200,1700,no_gain,1,455,0,19,1,6.0,10.0,1,0
11,37104,0,1,12,H,7,Stimuli/Experimental_stims/outdoor_scenes/petr-vysohlid-9fqwGqGLUxc-unsplash.jpg,gain,1100,2200,gain,1,428,0,19,1,7.0,11.0,1,0
12,37104,0,1,13,L,17,Stimuli/Experimental_stims/faces/good-faces-xmSWVeGEnJw-unsplash.jpg,no_gain,1200,1800,no_gain,1,458,0,19,1,8.0,12.0,1,0
13,37104,0,1,14,F,19,Stimuli/Experimental_stims/faces/joel-mott-LaK153ghdig-unsplash.jpg,no_gain,3700,1600,no_gain,1,432,1,19,1,9.0,13.0,1,0
14,37104,0,1,15,G,3,Stimuli/Experimental_stims/outdoor_scenes/henry-be-NLF6hTe4PAg-unsplash.jpg,no_gain,2300,1200,no_gain,1,433,0,19,1,10.0,14.0,1,0
15,37104,0,1,16,A,8,Stimuli/Experimental_stims/outdoor_scenes/samsommer-vddccTqwal8-unsplash.jpg,gain,1400,3500,gain,1,518,0,19,1,11.0,15.0,1,0
16,37104,0,1,17,H,7,Stimuli/Experimental_stims/outdoor_scenes/petr-vysohlid-9fqwGqGLUxc-unsplash.jpg,gain,1900,1100,gain,1,641,0,19,1,12.0,16.0,2,0
17,37104,0,1,18,A,8,Stimuli/Experimental_stims/outdoor_scenes/samsommer-vddccTqwal8-unsplash.jpg,gain,1700,1700,gain,1,646,0,19,1,13.0,17.0,2,0
18,37104,0,1,19,I,0,Stimuli/Experimental_stims/outdoor_scenes/aleksandra-boguslawska-MS7KD9Ti7FQ-unsplash.jpg,no_gain,1000,2400,no_gain,1,430,0,19,1,14.0,18.0,2,0
19,37104,0,1,20,J,23,Stimuli/Experimental_stims/faces/rikonavt-HQjfrvdTfak-unsplash.jpg,gain,5400,1200,gain,1,481,1,19,1,15.0,19.0,2,0
20,37104,0,1,21,E,28,Stimuli/Experimental_stims/body_parts/ira-vishnevskaya-8DQAvdCby1I-unsplash.jpg,gain,2500,2700,gain,1,460,0,19,1,16.0,20.0,2,0
21,37104,0,1,22,F,19,Stimuli/Experimental_stims/faces/joel-mott-LaK153ghdig-unsplash.jpg,no_gain,1600,1400,no_gain,1,517,0,19,1,17.0,21.0,2,0
22,37104,0,1,23,K,27,Stimuli/Experimental_stims/body_parts/heike-mintel-i_Gns0ELnLw-unsplash.jpg,no_gain,1100,2000,no_gain,1,496,0,19,1,18.0,22.0,2,0
23,37104,0,1,24,D,18,Stimuli/Experimental_stims/faces/jessica-radanavong-mrYkTuAesKE-unsplash.jpg,gain,1800,1200,gain,1,425,0,19,1,19.0,23.0,2,0
24,37104,0,1,25,B,2,Stimuli/Experimental_stims/outdoor_scenes/bruno-van-der-kraan-qez8mNJ3ilU-unsplash.jpg,no_gain,1500,2100,no_gain,1,480,0,19,1,20.0,24.0,2,0
25,37104,0,1,26,L,17,Stimuli/Experimental_stims/faces/good-faces-xmSWVeGEnJw-unsplash.jpg,no_gain,2300,1100,no_gain,1,447,0,19,1,21.0,25.0,2,0
26,37104,0,1,27,C,10,Stimuli/Experimental_stims/outdoor_scenes/shannon-kunkle-dM8INmkyDas-unsplash.jpg,gain,3600,1900,gain,1,429,1,19,1,22.0,26.0,2,0
27,37104,0,1,28,G,3,Stimuli/Experimental_stims/outdoor_scenes/henry-be-NLF6hTe4PAg-unsplash.jpg,no_gain,1900,1500,no_gain,1,534,0,19,1,23.0,27.0,2,0
28,37104,0,1,29,C,10,Stimuli/Experimental_stims/outdoor_scenes/shannon-kunkle-dM8INmkyDas-unsplash.jpg,gain,1700,2700,gain,1,493,0,19,1,24.0,28.0,3,0
29,37104,0,1,30,A,8,Stimuli/Experimental_stims/outdoor_scenes/samsommer-vddccTqwal8-unsplash.jpg,gain,1700,1900,gain,1,437,0,19,1,25.0,29.0,3,0
30,37104,0,1,31,G,3,Stimuli/Experimental_stims/outdoor_scenes/henry-be-NLF6hTe4PAg-unsplash.jpg,no_gain,2300,2900,no_gain,1,506,0,19,1,26.0,30.0,3,0
31,37104,0,1,32,F,19,Stimuli/Experimental_stims/faces/joel-mott-LaK153ghdig-unsplash.jpg,no_gain,1500,3100,no_gain,1,416,0,19,1,27.0,31.0,3,0
32,37104,0,1,33,I,0,Stimuli/Experimental_stims/outdoor_scenes/aleksandra-boguslawska-MS7KD9Ti7FQ-unsplash.jpg,no_gain,3800,2700,no_gain,1,511,1,19,1,28.0,32.0,3,0
33,37104,0,1,34,H,7,Stimuli/Experimental_stims/outdoor_scenes/petr-vysohlid-9fqwGqGLUxc-unsplash.jpg,gain,1800,2300,gain,1,625,0,19,1,29.0,33.0,3,0
34,37104,0,1,35,B,2,Stimuli/Experimental_stims/outdoor_scenes/bruno-van-der-kraan-qez8mNJ3ilU-unsplash.jpg,no_gain,1500,1600,no_gain,1,542,0,19,1,30.0,34.0,3,0
35,37104,0,1,36,E,28,Stimuli/Experimental_stims/body_parts/ira-vishnevskaya-8DQAvdCby1I-unsplash.jpg,gain,2700,3300,gain,1,528,0,19,1,31.0,35.0,3,0
36,37104,0,1,37,L,17,Stimuli/Experimental_stims/faces/good-faces-xmSWVeGEnJw-unsplash.jpg,no_gain,2100,1100,no_gain,1,564,0,19,1,32.0,36.0,3,0
37,37104,0,1,38,J,23,Stimuli/Experimental_stims/faces/rikonavt-HQjfrvdTfak-unsplash.jpg,gain,1400,2600,gain,1,413,0,19,1,33.0,37.0,3,0
38,37104,0,1,39,D,18,Stimuli/Experimental_stims/faces/jessica-radanavong-mrYkTuAesKE-unsplash.jpg,gain,1500,2900,gain,1,694,0,19,1,34.0,38.0,3,0
39,37104,0,1,40,K,27,Stimuli/Experimental_stims/body_parts/heike-mintel-i_Gns0ELnLw-unsplash.jpg,no_gain,3100,3100,no_gain,1,520,1,19,1,35.0,39.0,3,0
40,37104,0,2,41,C,10,Stimuli/Experimental_stims/outdoor_scenes/shannon-kunkle-dM8INmkyDas-unsplash.jpg,gain,2600,2400,gain,1,790,1,7,1,36.0,40.0,4,0
41,37104,0,2,42,D,18,Stimuli/Experimental_stims/faces/jessica-radanavong-mrYkTuAesKE-unsplash.jpg,gain,1200,2200,gain,1,419,0,7,1,37.0,41.0,4,0
42,37104,0,2,43,H,7,Stimuli/Experimental_stims/outdoor_scenes/petr-vysohlid-9fqwGqGLUxc-unsplash.jpg,gain,1000,1100,gain,1,555,0,7,1,38.0,42.0,4,0
43,37104,0,2,44,K,27,Stimuli/Experimental_stims/body_parts/heike-mintel-i_Gns0ELnLw-unsplash.jpg,no_gain,2000,1400,no_gain,1,565,0,7,1,39.0,43.0,4,0
44,37104,0,2,45,F,19,Stimuli/Experimental_stims/faces/joel-mott-LaK153ghdig-unsplash.jpg,no_gain,1400,1100,no_gain,1,440,0,7,1,40.0,44.0,4,0
45,37104,0,2,46,J,23,Stimuli/Experimental_stims/faces/rikonavt-HQjfrvdTfak-unsplash.jpg,gain,1700,2200,gain,1,439,0,7,1,41.0,45.0,4,0
46,37104,0,2,47,B,2,Stimuli/Experimental_stims/outdoor_scenes/bruno-van-der-kraan-qez8mNJ3ilU-unsplash.jpg,no_gain,5600,2900,no_gain,1,484,1,7,1,42.0,46.0,4,0
47,37104,0,2,48,E,28,Stimuli/Experimental_stims/body_parts/ira-vishnevskaya-8DQAvdCby1I-unsplash.jpg,gain,1600,1200,gain,1,421,0,7,1,43.0,47.0,4,0
48,37104,0,2,49,I,0,Stimuli/Experimental_stims/outdoor_scenes/aleksandra-boguslawska-MS7KD9Ti7FQ-unsplash.jpg,no_gain,1400,2200,no_gain,1,610,0,7,1,44.0,48.0,4,0
49,37104,0,2,50,A,8,Stimuli/Experimental_stims/outdoor_scenes/samsommer-vddccTqwal8-unsplash.jpg,gain,1300,1100,gain,1,427,0,7,1,45.0,49.0,4,0
50,37104,0,2,51,G,3,Stimuli/Experimental_stims/outdoor_scenes/henry-be-NLF6hTe4PAg-unsplash.jpg,no_gain,1800,3100,no_gain,1,552,0,7,1,46.0,50.0,4,0
51,37104,0,2,52,L,17,Stimuli/Experimental_stims/faces/good-faces-xmSWVeGEnJw-unsplash.jpg,no_gain,2800,1100,no_response,0,NaN,1,7,1,47.0,51.0,4,1
52,37104,0,2,53,C,10,Stimuli/Experimental_stims/outdoor_scenes/shannon-kunkle-dM8INmkyDas-unsplash.jpg,gain,2200,3100,gain,1,435,0,7,1,48.0,52.0,5,0
53,37104,0,2,54,F,19,Stimuli/Experimental_stims/faces/joel-mott-LaK153ghdig-unsplash.jpg,no_gain,1200,1100,no_gain,1,852,0,7,1,49.0,53.0,5,0
54,37104,0,2,55,G,3,Stimuli/Experimental_stims/outdoor_scenes/henry-be-NLF6hTe4PAg-unsplash.jpg,no_gain,1800,1700,no_gain,1,522,0,7,1,50.0,54.0,5,0
55,37104,0,2,56,J,23,Stimuli/Experimental_stims/faces/rikonavt-HQjfrvdTfak-unsplash.jpg,gain,1500,2900,gain,1,428,0,7,1,51.0,55.0,5,0
56,37104,0,2,57,D,18,Stimuli/Experimental_stims/faces/jessica-radanavong-mrYkTuAesKE-unsplash.jpg,gain,1300,3000,gain,1,548,0,7,1,52.0,56.0,5,0
57,37104,0,2,58,A,8,Stimuli/Experimental_stims/outdoor_scenes/samsommer-vddccTqwal8-unsplash.jpg,gain,1900,2400,gain,1,377,0,7,1,53.0,57.0,5,0
58,37104,0,2,59,E,28,Stimuli/Experimental_stims/body_parts/ira-vishnevskaya-8DQAvdCby1I-unsplash.jpg,gain,1100,2000,gain,1,391,0,7,1,54.0,58.0,5,0
59,37104,0,2,60,H,7,Stimuli/Experimental_stims/outdoor_scenes/petr-vysohlid-9fqwGqGLUxc-unsplash.jpg,gain,1400,1200,gain,1,440,0,7,1,55.0,59.0,5,0
60,37104,0,2,61,L,17,Stimuli/Experimental_stims/faces/good-faces-xmSWVeGEnJw-unsplash.jpg,no_gain,4300,2200,no_gain,1,370,1,7,1,56.0,60.0,5,0
61,37104,0,2,62,K,27,Stimuli/Experimental_stims/body_parts/heike-mintel-i_Gns0ELnLw-unsplash.jpg,no_gain,2000,3100,no_gain,1,490,0,7,1,57.0,61.0,5,0
62,37104,0,2,63,B,2,Stimuli/Experimental_stims/outdoor_scenes/bruno-van-der-kraan-qez8mNJ3ilU-unsplash.jpg,no_gain,1200,1100,no_gain,1,491,0,7,1,58.0,62.0,5,0
63,37104,0,2,64,I,0,Stimuli/Experimental_stims/outdoor_scenes/aleksandra-boguslawska-MS7KD9Ti7FQ-unsplash.jpg,no_gain,1200,2400,no_gain,1,467,0,7,1,59.0,63.0,5,0
64,37104,0,2,65,D,18,Stimuli/Experimental_stims/faces/jessica-radanavong-mrYkTuAesKE-unsplash.jpg,gain,2400,2900,gain,1,503,0,7,1,60.0,64.0,6,0
65,37104,0,2,66,L,17,Stimuli/Experimental_stims/faces/good-faces-xmSWVeGEnJw-unsplash.jpg,no_gain,1700,1800,no_gain,1,509,0,7,1,61.0,65.0,6,0
66,37104,0,2,67,K,27,Stimuli/Experimental_stims/body_parts/heike-mintel-i_Gns0ELnLw-unsplash.jpg,no_gain,4600,2300,no_gain,1,368,1,7,1,62.0,66.0,6,0
67,37104,0,2,68,H,7,Stimuli/Experimental_stims/outdoor_scenes/petr-vysohlid-9fqwGqGLUxc-unsplash.jpg,gain,1900,3500,gain,1,494,0,7,1,63.0,67.0,6,0
68,37104,0,2,69,C,10,Stimuli/Experimental_stims/outdoor_scenes/shannon-kunkle-dM8INmkyDas-unsplash.jpg,gain,1300,1600,gain,1,439,0,7,1,64.0,68.0,6,0
69,37104,0,2,70,B,2,Stimuli/Experimental_stims/outdoor_scenes/bruno-van-der-kraan-qez8mNJ3ilU-unsplash.jpg,no_gain,1200,2000,no_gain,1,395,0,7,1,65.0,69.0,6,0
70,37104,0,2,71,I,0,Stimuli/Experimental_stims/outdoor_scenes/aleksandra-boguslawska-MS7KD9Ti7FQ-unsplash.jpg,no_gain,1500,1700,no_gain,1,419,0,7,1,66.0,70.0,6,0
71,37104,0,2,72,J,23,Stimuli/Experimental_stims/faces/rikonavt-HQjfrvdTfak-unsplash.jpg,gain,1300,1100,gain,1,495,0,7,1,67.0,71.0,6,0
72,37104,0,2,73,G,3,Stimuli/Experimental_stims/outdoor_scenes/henry-be-NLF6hTe4PAg-unsplash.jpg,no_gain,1600,2900,no_gain,1,497,0,7,1,68.0,72.0,6,0
73,37104,0,2,74,A,8,Stimuli/Experimental_stims/outdoor_scenes/samsommer-vddccTqwal8-unsplash.jpg,gain,2400,1200,gain,1,453,0,7,1,69.0,73.0,6,0
74,37104,0,2,75,E,28,Stimuli/Experimental_stims/body_parts/ira-vishnevskaya-8DQAvdCby1I-unsplash.jpg,gain,2300,1200,gain,1,439,0,7,1,70.0,74.0,6,0
75,37104,0,2,76,F,19,Stimuli/Experimental_stims/faces/joel-mott-LaK153ghdig-unsplash.jpg,no_gain,4300,1600,no_gain,1,478,1,7,1,71.0,75.0,6,0