,PID,practice,run,trial,item_id,stimulus,path,outcome,iti,isi,response,response_acc,response_rt,long_iti,simulation,version,level_0,index,block,no_response
0,75229,1,0,1,prac1,NaN,Stimuli/Practice_stims/Outcome_learning/nizar-albusaidy-B2r2SWAf5CE-unsplash.jpg,gain,1500,1000,gain,1,1222,0,3,2,,,0,0
1,75229,1,0,2,prac2,NaN,Stimuli/Practice_stims/Outcome_learning/randy-fath-epf1tdtIIkM-unsplash.jpg,no-gain,1000,1500,no_gain,0,356,0,3,2,,,0,0
2,75229,1,0,3,prac2,NaN,Stimuli/Practice_stims/Outcome_learning/randy-fath-epf1tdtIIkM-unsplash.jpg,no-gain,2000,1000,no_gain,0,626,0,3,2,,,0,0
3,75229,1,0,4,prac1,NaN,Stimuli/Practice_stims/Outcome_learning/nizar-albusaidy-B2r2SWAf5CE-unsplash.jpg,gain,1000,2000,gain,1,608,0,3,2,,,0,0
4,75229,0,1,5,K,36,Stimuli/Experimental_stims/objects/alexander-andrews-JYGnB9gTCls-unsplash.jpg,no_gain,4200,1800,gain,0,729,1,3,2,0.0,4.0,1,0
5,75229,0,1,6,B,18,Stimuli/Experimental_stims/faces/jessica-radanavong-mrYkTuAesKE-unsplash.jpg,no_gain,1200,2100,no_response,0,NaN,0,3,2,1.0,5.0,1,1
6,75229,0,1,7,J,39,Stimuli/Experimental_stims/objects/charlesdeluvio-1-nx1QR5dTE-unsplash.jpg,gain,1100,1900,gain,1,1177,0,3,2,2.0,6.0,1,0
7,75229,0,1,8,D,14,Stimuli/Experimental_stims/faces/david-siglin-UuW4psOb388-unsplash.jpg,gain,1000,1100,gain,1,942,0,3,2,3.0,7.0,1,0
8,75229,0,1,9,C,28,Stimuli/Experimental_stims/body_parts/ira-vishnevskaya-8DQAvdCby1I-unsplash.jpg,gain,2100,1400,gain,1,1322,0,3,2,4.0,8.0,1,0
9,75229,0,1,10,E,33,Stimuli/Experimental_stims/body_parts/tucker-good-36skLT5jZcc-unsplash.jpg,no_gain,2000,2000,no_gain,1,1486,0,3,2,5.0,9.0,1,0
10,75229,0,1,11,I,27,Stimuli/Experimental_stims/body_parts/heike-mintel-i_Gns0ELnLw-unsplash.jpg,no_gain,1300,2900,no_gain,1,1299,0,3,2,6.0,10.0,1,0
11,75229,0,1,12,H,9,Stimuli/Experimental_stims/outdoor_scenes/sergey-pesterev-y-b_FOmJXdg-unsplash.jpg,no_gain,1100,1900,no_response,0,NaN,0,3,2,7.0,11.0,1,1
12,75229,0,1,13,L,31,Stimuli/Experimental_stims/body_parts/sincerely-media-VN6DbKajo5s-unsplash.jpg,gain,1100,1100,gain,1,1439,0,3,2,8.0,12.0,1,0
13,75229,0,1,14,F,32,Stimuli/Experimental_stims/body_parts/towfiqu-barbhuiya-3AsiVDsZnHg-unsplash.jpg,gain,4200,3200,gain,1,987,1,3,2,9.0,13.0,1,0
14,75229,0,1,15,G,4,Stimuli/Experimental_stims/outdoor_scenes/jarrett-kow-1ZOyYPOBn7I-unsplash.jpg,gain,2700,1000,no_response,0,NaN,0,3,2,10.0,14.0,1,1
15,75229,0,1,16,A,40,Stimuli/Experimental_stims/objects/fabian-blank-pElSkGRA2NU-unsplash.jpg,no_gain,1600,1700,no_gain,1,1117,0,3,2,11.0,15.0,1,0
16,75229,0,1,17,H,9,Stimuli/Experimental_stims/outdoor_scenes/sergey-pesterev-y-b_FOmJXdg-unsplash.jpg,no_gain,1000,1500,no_gain,1,1093,0,3,2,12.0,16.0,2,0
17,75229,0,1,18,A,40,Stimuli/Experimental_stims/objects/fabian-blank-pElSkGRA2NU-unsplash.jpg,no_gain,2700,1700,no_gain,1,1103,0,3,2,13.0,17.0,2,0
18,75229,0,1,19,I,27,Stimuli/Experimental_stims/body_parts/heike-mintel-i_Gns0ELnLw-unsplash.jpg,no_gain,1600,1500,no_response,0,NaN,0,3,2,14.0,18.0,2,1
19,75229,0,1,20,J,39,Stimuli/Experimental_stims/objects/charlesdeluvio-1-nx1QR5dTE-unsplash.jpg,gain,1100,2100,gain,1,940,0,3,2,15.0,19.0,2,0
20,75229,0,1,21,E,33,Stimuli/Experimental_stims/body_parts/tucker-good-36skLT5jZcc-unsplash.jpg,no_gain,3000,2200,no_gain,1,1448,1,3,2,16.0,20.0,2,0
21,75229,0,1,22,F,32,Stimuli/Experimental_stims/body_parts/towfiqu-barbhuiya-3AsiVDsZnHg-unsplash.jpg,gain,1300,1700,gain,1,860,0,3,2,17.0,21.0,2,0
22,75229,0,1,23,K,36,Stimuli/Experimental_stims/objects/alexander-andrews-JYGnB9gTCls-unsplash.jpg,no_gain,2700,1400,no_gain,1,1157,0,3,2,18.0,22.0,2,0
23,75229,0,1,24,D,14,Stimuli/Experimental_stims/faces/david-siglin-UuW4psOb388-unsplash.jpg,gain,2000,3100,gain,1,844,0,3,2,19.0,23.0,2,0
24,75229,0,1,25,B,18,Stimuli/Experimental_stims/faces/jessica-radanavong-mrYkTuAesKE-unsplash.jpg,no_gain,1300,1000,no_response,0,NaN,0,3,2,20.0,24.0,2,1
25,75229,0,1,26,L,31,Stimuli/Experimental_stims/body_parts/sincerely-media-VN6DbKajo5s-unsplash.jpg,gain,4100,1600,gain,1,1121,1,3,2,21.0,25.0,2,0
26,75229,0,1,27,C,28,Stimuli/Experimental_stims/body_parts/ira-vishnevskaya-8DQAvdCby1I-unsplash.jpg,gain,2800,1400,no_response,0,NaN,0,3,2,22.0,26.0,2,1
27,75229,0,1,28,G,4,Stimuli/Experimental_stims/outdoor_scenes/jarrett-kow-1ZOyYPOBn7I-unsplash.jpg,gain,1000,1200,no_response,0,NaN,0,3,2,23.0,27.0,2,1
28,75229,0,1,29,C,28,Stimuli/Experimental_stims/body_parts/ira-vishnevskaya-8DQAvdCby1I-unsplash.jpg,gain,1600,2100,gain,1,798,0,3,2,24.0,28.0,3,0
29,75229,0,1,30,A,40,Stimuli/Experimental_stims/objects/fabian-blank-pElSkGRA2NU-unsplash.jpg,no_gain,1000,3200,no_gain,1,703,0,3,2,25.0,29.0,3,0
30,75229,0,1,31,G,4,Stimuli/Experimental_stims/outdoor_scenes/jarrett-kow-1ZOyYPOBn7I-unsplash.jpg,gain,1400,1400,gain,1,848,0,3,2,26.0,30.0,3,0
31,75229,0,1,32,F,32,Stimuli/Experimental_stims/body_parts/towfiqu-barbhuiya-3AsiVDsZnHg-unsplash.jpg,gain,3200,3100,gain,1,906,1,3,2,27.0,31.0,3,0
32,75229,0,1,33,I,27,Stimuli/Experimental_stims/body_parts/heike-mintel-i_Gns0ELnLw-unsplash.jpg,no_gain,1700,2900,no_gain,1,911,0,3,2,28.0,32.0,3,0
33,75229,0,1,34,H,9,Stimuli/Experimental_stims/outdoor_scenes/sergey-pesterev-y-b_FOmJXdg-unsplash.jpg,no_gain,2200,2900,no_gain,1,951,0,3,2,29.0,33.0,3,0
34,75229,0,1,35,B,18,Stimuli/Experimental_stims/faces/jessica-radanavong-mrYkTuAesKE-unsplash.jpg,no_gain,2800,1600,no_gain,1,1074,0,3,2,30.0,34.0,3,0
35,75229,0,1,36,E,33,Stimuli/Experimental_stims/body_parts/tucker-good-36skLT5jZcc-unsplash.jpg,no_gain,1900,1500,no_gain,1,920,0,3,2,31.0,35.0,3,0
36,75229,0,1,37,L,31,Stimuli/Experimental_stims/body_parts/sincerely-media-VN6DbKajo5s-unsplash.jpg,gain,1100,2500,gain,1,1054,0,3,2,32.0,36.0,3,0
37,75229,0,1,38,J,39,Stimuli/Experimental_stims/objects/charlesdeluvio-1-nx1QR5dTE-unsplash.jpg,gain,1200,2100,gain,1,1280,0,3,2,33.0,37.0,3,0
38,75229,0,1,39,D,14,Stimuli/Experimental_stims/faces/david-siglin-UuW4psOb388-unsplash.jpg,gain,2600,2900,gain,1,808,0,3,2,34.0,38.0,3,0
39,75229,0,1,40,K,36,Stimuli/Experimental_stims/objects/alexander-andrews-JYGnB9gTCls-unsplash.jpg,no_gain,3100,3300,no_gain,1,971,1,3,2,35.0,39.0,3,0
40,75229,0,2,41,C,28,Stimuli/Experimental_stims/body_parts/ira-vishnevskaya-8DQAvdCby1I-unsplash.jpg,gain,4000,3000,gain,1,830,1,9,2,36.0,40.0,4,0
41,75229,0,2,42,D,14,Stimuli/Experimental_stims/faces/david-siglin-UuW4psOb388-unsplash.jpg,gain,1000,2000,gain,1,796,0,9,2,37.0,41.0,4,0
42,75229,0,2,43,H,9,Stimuli/Experimental_stims/outdoor_scenes/sergey-pesterev-y-b_FOmJXdg-unsplash.jpg,no_gain,1600,2000,no_gain,1,972,0,9,2,38.0,42.0,4,0
43,75229,0,2,44,K,36,Stimuli/Experimental_stims/objects/alexander-andrews-JYGnB9gTCls-unsplash.jpg,no_gain,1100,2300,no_gain,1,930,0,9,2,39.0,43.0,4,0
44,75229,0,2,45,F,32,Stimuli/Experimental_stims/body_parts/towfiqu-barbhuiya-3AsiVDsZnHg-unsplash.jpg,gain,1300,2300,gain,1,1327,0,9,2,40.0,44.0,4,0
45,75229,0,2,46,J,39,Stimuli/Experimental_stims/objects/charlesdeluvio-1-nx1QR5dTE-unsplash.jpg,gain,2000,1500,gain,1,908,0,9,2,41.0,45.0,4,0
46,75229,0,2,47,B,18,Stimuli/Experimental_stims/faces/jessica-radanavong-mrYkTuAesKE-unsplash.jpg,no_gain,4300,2000,no_gain,1,806,1,9,2,42.0,46.0,4,0
47,75229,0,2,48,E,33,Stimuli/Experimental_stims/body_parts/tucker-good-36skLT5jZcc-unsplash.jpg,no_gain,1300,3300,no_gain,1,791,0,9,2,43.0,47.0,4,0
48,75229,0,2,49,I,27,Stimuli/Experimental_stims/body_parts/heike-mintel-i_Gns0ELnLw-unsplash.jpg,no_gain,2300,2200,no_gain,1,938,0,9,2,44.0,48.0,4,0
49,75229,0,2,50,A,40,Stimuli/Experimental_stims/objects/fabian-blank-pElSkGRA2NU-unsplash.jpg,no_gain,1400,1100,no_gain,1,853,0,9,2,45.0,49.0,4,0
50,75229,0,2,51,G,4,Stimuli/Experimental_stims/outdoor_scenes/jarrett-kow-1ZOyYPOBn7I-unsplash.jpg,gain,2500,1400,gain,1,887,0,9,2,46.0,50.0,4,0
51,75229,0,2,52,L,31,Stimuli/Experimental_stims/body_parts/sincerely-media-VN6DbKajo5s-unsplash.jpg,gain,1800,2300,gain,1,912,0,9,2,47.0,51.0,4,0
52,75229,0,2,53,C,28,Stimuli/Experimental_stims/body_parts/ira-vishnevskaya-8DQAvdCby1I-unsplash.jpg,gain,3700,2000,gain,1,1205,1,9,2,48.0,52.0,5,0
53,75229,0,2,54,F,32,Stimuli/Experimental_stims/body_parts/towfiqu-barbhuiya-3AsiVDsZnHg-unsplash.jpg,gain,1400,1400,gain,1,783,0,9,2,49.0,53.0,5,0
54,75229,0,2,55,G,4,Stimuli/Experimental_stims/outdoor_scenes/jarrett-kow-1ZOyYPOBn7I-unsplash.jpg,gain,1600,1100,gain,1,852,0,9,2,50.0,54.0,5,0
55,75229,0,2,56,J,39,Stimuli/Experimental_stims/objects/charlesdeluvio-1-nx1QR5dTE-unsplash.jpg,gain,1300,2700,gain,1,889,0,9,2,51.0,55.0,5,0
56,75229,0,2,57,D,14,Stimuli/Experimental_stims/faces/david-siglin-UuW4psOb388-unsplash.jpg,gain,1300,1100,gain,1,1234,0,9,2,52.0,56.0,5,0
57,75229,0,2,58,A,40,Stimuli/Experimental_stims/objects/fabian-blank-pElSkGRA2NU-unsplash.jpg,no_gain,1100,1200,no_gain,1,1457,0,9,2,53.0,57.0,5,0
58,75229,0,2,59,E,33,Stimuli/Experimental_stims/body_parts/tucker-good-36skLT5jZcc-unsplash.jpg,no_gain,1500,1400,no_gain,1,1075,0,9,2,54.0,58.0,5,0
59,75229,0,2,60,H,9,Stimuli/Experimental_stims/outdoor_scenes/sergey-pesterev-y-b_FOmJXdg-unsplash.jpg,no_gain,4200,2000,no_gain,1,969,1,9,2,55.0,59.0,5,0
60,75229,0,2,61,L,31,Stimuli/Experimental_stims/body_parts/sincerely-media-VN6DbKajo5s-unsplash.jpg,gain,1400,1300,gain,1,759,0,9,2,56.0,60.0,5,0
61,75229,0,2,62,K,36,Stimuli/Experimental_stims/objects/alexander-andrews-JYGnB9gTCls-unsplash.jpg,no_gain,1500,1200,gain,0,1110,0,9,2,57.0,61.0,5,0
62,75229,0,2,63,B,18,Stimuli/Experimental_stims/faces/jessica-radanavong-mrYkTuAesKE-unsplash.jpg,no_gain,1000,1800,no_gain,1,1076,0,9,2,58.0,62.0,5,0
63,75229,0,2,64,I,27,Stimuli/Experimental_stims/body_parts/heike-mintel-i_Gns0ELnLw-unsplash.jpg,no_gain,1800,2900,no_gain,1,793,0,9,2,59.0,63.0,5,0
64,75229,0,2,65,D,14,Stimuli/Experimental_stims/faces/david-siglin-UuW4psOb388-unsplash.jpg,gain,1400,1400,gain,1,868,0,9,2,60.0,64.0,6,0
65,75229,0,2,66,L,31,Stimuli/Experimental_stims/body_parts/sincerely-media-VN6DbKajo5s-unsplash.jpg,gain,3300,1800,gain,1,807,1,9,2,61.0,65.0,6,0
66,75229,0,2,67,K,36,Stimuli/Experimental_stims/objects/alexander-andrews-JYGnB9gTCls-unsplash.jpg,no_gain,2200,2500,no_gain,1,875,0,9,2,62.0,66.0,6,0
67,75229,0,2,68,H,9,Stimuli/Experimental_stims/outdoor_scenes/sergey-pesterev-y-b_FOmJXdg-unsplash.jpg,no_gain,1200,2900,no_gain,1,788,0,9,2,63.0,67.0,6,0
68,75229,0,2,69,C,28,Stimuli/Experimental_stims/body_parts/ira-vishnevskaya-8DQAvdCby1I-unsplash.jpg,gain,2500,1600,gain,1,1042,0,9,2,64.0,68.0,6,0
69,75229,0,2,70,B,18,Stimuli/Experimental_stims/faces/jessica-radanavong-mrYkTuAesKE-unsplash.jpg,no_gain,2600,2300,no_gain,1,907,0,9,2,65.0,69.0,6,0
70,75229,0,2,71,I,27,Stimuli/Experimental_stims/body_parts/heike-mintel-i_Gns0ELnLw-unsplash.jpg,no_gain,2200,2700,no_gain,1,891,0,9,2,66.0,70.0,6,0
71,75229,0,2,72,J,39,Stimuli/Experimental_stims/objects/charlesdeluvio-1-nx1QR5dTE-unsplash.jpg,gain,4600,2500,gain,1,873,1,9,2,67.0,71.0,6,0
72,75229,0,2,73,G,4,Stimuli/Experimental_stims/outdoor_scenes/jarrett-kow-1ZOyYPOBn7I-unsplash.jpg,gain,1100,2100,gain,1,1164,0,9,2,68.0,72.0,6,0
73,75229,0,2,74,A,40,Stimuli/Experimental_stims/objects/fabian-blank-pElSkGRA2NU-unsplash.jpg,no_gain,1400,3300,no_gain,1,1146,0,9,2,69.0,73.0,6,0
74,75229,0,2,75,E,33,Stimuli/Experimental_stims/body_parts/tucker-good-36skLT5jZcc-unsplash.jpg,no_gain,1700,2200,no_gain,1,1025,0,9,2,70.0,74.0,6,0
75,75229,0,2,76,F,32,Stimuli/Experimental_stims/body_parts/towfiqu-barbhuiya-3AsiVDsZnHg-unsplash.jpg,gain,1400,1200,gain,1,937,0,9,2,71.0,75.0,6,0