"PID","practice","run","block","trial","item_id","stimulus","path","outcome","iti","isi","response","response_acc","response_rt"
NA,1,0,0,1,"prac1",NA,"Stimuli/Practice_stims/Outcome_learning/nizar-albusaidy-B2r2SWAf5CE-unsplash.jpg","gain",1500,1000,NA,NA,NA
NA,1,0,0,2,"prac2",NA,"Stimuli/Practice_stims/Outcome_learning/randy-fath-epf1tdtIIkM-unsplash.jpg","no-gain",1000,1500,NA,NA,NA
NA,1,0,0,3,"prac2",NA,"Stimuli/Practice_stims/Outcome_learning/randy-fath-epf1tdtIIkM-unsplash.jpg","no-gain",4000,1000,NA,NA,NA
NA,1,0,0,4,"prac1",NA,"Stimuli/Practice_stims/Outcome_learning/nizar-albusaidy-B2r2SWAf5CE-unsplash.jpg","gain",2000,2000,NA,NA,NA
NA,0,1,1,5,"K",NA,"NaN","NaN",NA,NA,NA,NA,NA
NA,0,1,1,6,"B",NA,"NaN","NaN",NA,NA,NA,NA,NA
NA,0,1,1,7,"J",NA,"NaN","NaN",NA,NA,NA,NA,NA
NA,0,1,1,8,"D",NA,"NaN","NaN",NA,NA,NA,NA,NA
NA,0,1,1,9,"C",NA,"NaN","NaN",NA,NA,NA,NA,NA
NA,0,1,1,10,"E",NA,"NaN","NaN",NA,NA,NA,NA,NA
NA,0,1,1,11,"I",NA,"NaN","NaN",NA,NA,NA,NA,NA
NA,0,1,1,12,"H",NA,"NaN","NaN",NA,NA,NA,NA,NA
NA,0,1,1,13,"L",NA,"NaN","NaN",NA,NA,NA,NA,NA
NA,0,1,1,14,"F",NA,"NaN","NaN",NA,NA,NA,NA,NA
NA,0,1,1,15,"G",NA,"NaN","NaN",NA,NA,NA,NA,NA
NA,0,1,1,16,"A",NA,"NaN","NaN",NA,NA,NA,NA,NA
NA,0,1,2,17,"H",NA,"NaN","NaN",NA,NA,NA,NA,NA
NA,0,1,2,18,"A",NA,"NaN","NaN",NA,NA,NA,NA,NA
NA,0,1,2,19,"I",NA,"NaN","NaN",NA,NA,NA,NA,NA
NA,0,1,2,20,"J",NA,"NaN","NaN",NA,NA,NA,NA,NA
NA,0,1,2,21,"E",NA,"NaN","NaN",NA,NA,NA,NA,NA
NA,0,1,2,22,"F",NA,"NaN","NaN",NA,NA,NA,NA,NA
NA,0,1,2,23,"K",NA,"NaN","NaN",NA,NA,NA,NA,NA
NA,0,1,2,24,"D",NA,"NaN","NaN",NA,NA,NA,NA,NA
NA,0,1,2,25,"B",NA,"NaN","NaN",NA,NA,NA,NA,NA
NA,0,1,2,26,"L",NA,"NaN","NaN",NA,NA,NA,NA,NA
NA,0,1,2,27,"C",NA,"NaN","NaN",NA,NA,NA,NA,NA
NA,0,1,2,28,"G",NA,"NaN","NaN",NA,NA,NA,NA,NA
NA,0,1,3,29,"C",NA,"NaN","NaN",NA,NA,NA,NA,NA
NA,0,1,3,30,"A",NA,"NaN","NaN",NA,NA,NA,NA,NA
NA,0,1,3,31,"G",NA,"NaN","NaN",NA,NA,NA,NA,NA
NA,0,1,3,32,"F",NA,"NaN","NaN",NA,NA,NA,NA,NA
NA,0,1,3,33,"I",NA,"NaN","NaN",NA,NA,NA,NA,NA
NA,0,1,3,34,"H",NA,"NaN","NaN",NA,NA,NA,NA,NA
NA,0,1,3,35,"B",NA,"NaN","NaN",NA,NA,NA,NA,NA
NA,0,1,3,36,"E",NA,"NaN","NaN",NA,NA,NA,NA,NA
NA,0,1,3,37,"L",NA,"NaN","NaN",NA,NA,NA,NA,NA
NA,0,1,3,38,"J",NA,"NaN","NaN",NA,NA,NA,NA,NA
NA,0,1,3,39,"D",NA,"NaN","NaN",NA,NA,NA,NA,NA
NA,0,1,3,40,"K",NA,"NaN","NaN",NA,NA,NA,NA,NA
NA,0,2,4,41,"C",NA,"NaN","NaN",NA,NA,NA,NA,NA
NA,0,2,4,42,"D",NA,"NaN","NaN",NA,NA,NA,NA,NA
NA,0,2,4,43,"H",NA,"NaN","NaN",NA,NA,NA,NA,NA
NA,0,2,4,44,"K",NA,"NaN","NaN",NA,NA,NA,NA,NA
NA,0,2,4,45,"F",NA,"NaN","NaN",NA,NA,NA,NA,NA
NA,0,2,4,46,"J",NA,"NaN","NaN",NA,NA,NA,NA,NA
NA,0,2,4,47,"B",NA,"NaN","NaN",NA,NA,NA,NA,NA
NA,0,2,4,48,"E",NA,"NaN","NaN",NA,NA,NA,NA,NA
NA,0,2,4,49,"I",NA,"NaN","NaN",NA,NA,NA,NA,NA
NA,0,2,4,50,"A",NA,"NaN","NaN",NA,NA,NA,NA,NA
NA,0,2,4,51,"G",NA,"NaN","NaN",NA,NA,NA,NA,NA
NA,0,2,4,52,"L",NA,"NaN","NaN",NA,NA,NA,NA,NA
NA,0,2,5,53,"C",NA,"NaN","NaN",NA,NA,NA,NA,NA
NA,0,2,5,54,"F",NA,"NaN","NaN",NA,NA,NA,NA,NA
NA,0,2,5,55,"G",NA,"NaN","NaN",NA,NA,NA,NA,NA
NA,0,2,5,56,"J",NA,"NaN","NaN",NA,NA,NA,NA,NA
NA,0,2,5,57,"D",NA,"NaN","NaN",NA,NA,NA,NA,NA
NA,0,2,5,58,"A",NA,"NaN","NaN",NA,NA,NA,NA,NA
NA,0,2,5,59,"E",NA,"NaN","NaN",NA,NA,NA,NA,NA
NA,0,2,5,60,"H",NA,"NaN","NaN",NA,NA,NA,NA,NA
NA,0,2,5,61,"L",NA,"NaN","NaN",NA,NA,NA,NA,NA
NA,0,2,5,62,"K",NA,"NaN","NaN",NA,NA,NA,NA,NA
NA,0,2,5,63,"B",NA,"NaN","NaN",NA,NA,NA,NA,NA
NA,0,2,5,64,"I",NA,"NaN","NaN",NA,NA,NA,NA,NA
NA,0,2,6,65,"D",NA,"NaN","NaN",NA,NA,NA,NA,NA
NA,0,2,6,66,"L",NA,"NaN","NaN",NA,NA,NA,NA,NA
NA,0,2,6,67,"K",NA,"NaN","NaN",NA,NA,NA,NA,NA
NA,0,2,6,68,"H",NA,"NaN","NaN",NA,NA,NA,NA,NA
NA,0,2,6,69,"C",NA,"NaN","NaN",NA,NA,NA,NA,NA
NA,0,2,6,70,"B",NA,"NaN","NaN",NA,NA,NA,NA,NA
NA,0,2,6,71,"I",NA,"NaN","NaN",NA,NA,NA,NA,NA
NA,0,2,6,72,"J",NA,"NaN","NaN",NA,NA,NA,NA,NA
NA,0,2,6,73,"G",NA,"NaN","NaN",NA,NA,NA,NA,NA
NA,0,2,6,74,"A",NA,"NaN","NaN",NA,NA,NA,NA,NA
NA,0,2,6,75,"E",NA,"NaN","NaN",NA,NA,NA,NA,NA
NA,0,2,6,76,"F",NA,"NaN","NaN",NA,NA,NA,NA,NA
