,PID,practice,run,block,trial,pair_type,old_pair,chosen_left,pair_id,chosen_id,iti,left_stimulus,right_stimulus,left_path,right_path,old_response,pair_acc,pair_rt,long_iti,simulation,version,left_category,right_category
0,75229,1,0,0,1,,0,0,,,1500,,,Stimuli/Practice_stims/Memory/annie-spratt-g9KFpAfQ5bc-unsplash.jpg,Stimuli/Practice_stims/Memory/charl-durand-bsfXvI25iNg-unsplash.jpg,NaN,NaN,NaN,0,12,2,NaN,NaN
1,75229,1,0,0,2,,0,0,,,1000,,,Stimuli/Practice_stims/Memory/charl-durand-bsfXvI25iNg-unsplash.jpg,Stimuli/Practice_stims/Memory/jimmy-dean-Yn0l7uwBrpw-unsplash.jpg,NaN,NaN,NaN,0,12,2,NaN,NaN
2,75229,1,0,0,3,,0,0,,,3000,,,Stimuli/Practice_stims/Memory/jimmy-dean-Yn0l7uwBrpw-unsplash.jpg,Stimuli/Practice_stims/Memory/annie-spratt-g9KFpAfQ5bc-unsplash.jpg,NaN,NaN,NaN,0,12,2,NaN,NaN
3,75229,0,1,1,4,recombined,0,1,,K,1200,36,19,Stimuli/Experimental_stims/objects/alexander-andrews-JYGnB9gTCls-unsplash.jpg,Stimuli/Experimental_stims/faces/joel-mott-LaK153ghdig-unsplash.jpg,NaN,NaN,NaN,0,12,2,objects,faces
4,75229,0,1,1,5,recombined,0,0,,C,2100,47,28,Stimuli/Experimental_stims/objects/ronaldo-arthur-vidal-Cdz_lvnl37k-unsplash.jpg,Stimuli/Experimental_stims/body_parts/ira-vishnevskaya-8DQAvdCby1I-unsplash.jpg,NaN,NaN,NaN,0,12,2,objects,body_parts
5,75229,0,1,1,6,intact,1,0,K,K,2300,29,36,Stimuli/Experimental_stims/body_parts/manuel-schinner-ZwjFuJ7ebpk-unsplash.jpg,Stimuli/Experimental_stims/objects/alexander-andrews-JYGnB9gTCls-unsplash.jpg,NaN,NaN,NaN,0,12,2,body_parts,objects
6,75229,0,1,1,7,recombined,0,1,,J,1800,39,20,Stimuli/Experimental_stims/objects/charlesdeluvio-1-nx1QR5dTE-unsplash.jpg,Stimuli/Experimental_stims/faces/justin-chen-J7Cf1Gch49E-unsplash.jpg,NaN,NaN,NaN,0,12,2,objects,faces
7,75229,0,1,1,8,recombined,0,0,,B,1600,37,18,Stimuli/Experimental_stims/objects/alexander-andrews-VLGWE_SumrA-unsplash.jpg,Stimuli/Experimental_stims/faces/jessica-radanavong-mrYkTuAesKE-unsplash.jpg,NaN,NaN,NaN,0,12,2,objects,faces
8,75229,0,1,1,9,intact,1,0,J,J,2100,19,39,Stimuli/Experimental_stims/faces/joel-mott-LaK153ghdig-unsplash.jpg,Stimuli/Experimental_stims/objects/charlesdeluvio-1-nx1QR5dTE-unsplash.jpg,NaN,NaN,NaN,0,12,2,faces,objects
9,75229,0,1,1,10,intact,1,0,D,D,2600,37,14,Stimuli/Experimental_stims/objects/alexander-andrews-VLGWE_SumrA-unsplash.jpg,Stimuli/Experimental_stims/faces/david-siglin-UuW4psOb388-unsplash.jpg,NaN,NaN,NaN,0,12,2,objects,faces
10,75229,0,1,1,11,recombined,0,0,,E,1300,5,33,Stimuli/Experimental_stims/outdoor_scenes/jeff-king-bJHWJeiHfHc-unsplash.jpg,Stimuli/Experimental_stims/body_parts/tucker-good-36skLT5jZcc-unsplash.jpg,NaN,NaN,NaN,0,12,2,outdoor_scenes,body_parts
11,75229,0,1,1,12,recombined,0,1,,F,4800,32,3,Stimuli/Experimental_stims/body_parts/towfiqu-barbhuiya-3AsiVDsZnHg-unsplash.jpg,Stimuli/Experimental_stims/outdoor_scenes/henry-be-NLF6hTe4PAg-unsplash.jpg,NaN,NaN,NaN,1,12,2,body_parts,outdoor_scenes
12,75229,0,1,1,13,intact,1,0,H,H,2000,20,9,Stimuli/Experimental_stims/faces/justin-chen-J7Cf1Gch49E-unsplash.jpg,Stimuli/Experimental_stims/outdoor_scenes/sergey-pesterev-y-b_FOmJXdg-unsplash.jpg,NaN,NaN,NaN,0,12,2,faces,outdoor_scenes
13,75229,0,1,1,14,recombined,0,1,,L,1900,31,11,Stimuli/Experimental_stims/body_parts/sincerely-media-VN6DbKajo5s-unsplash.jpg,Stimuli/Experimental_stims/outdoor_scenes/stephen-leonardi-gyIRjKPXupE-unsplash.jpg,NaN,NaN,NaN,0,12,2,body_parts,outdoor_scenes
14,75229,0,1,1,15,intact,1,1,I,I,1600,27,11,Stimuli/Experimental_stims/body_parts/heike-mintel-i_Gns0ELnLw-unsplash.jpg,Stimuli/Experimental_stims/outdoor_scenes/stephen-leonardi-gyIRjKPXupE-unsplash.jpg,NaN,NaN,NaN,0,12,2,body_parts,outdoor_scenes
15,75229,0,1,1,16,recombined,0,1,,A,1700,40,21,Stimuli/Experimental_stims/objects/fabian-blank-pElSkGRA2NU-unsplash.jpg,Stimuli/Experimental_stims/faces/leilani-angel-K84vnnzxmTQ-unsplash.jpg,NaN,NaN,NaN,0,12,2,objects,faces
16,75229,0,1,1,17,intact,1,0,B,B,1200,6,18,Stimuli/Experimental_stims/outdoor_scenes/meng-ji-8BH_M-53CyA-unsplash.jpg,Stimuli/Experimental_stims/faces/jessica-radanavong-mrYkTuAesKE-unsplash.jpg,NaN,NaN,NaN,0,12,2,outdoor_scenes,faces
17,75229,0,1,1,18,recombined,0,1,,D,4200,14,45,Stimuli/Experimental_stims/faces/david-siglin-UuW4psOb388-unsplash.jpg,Stimuli/Experimental_stims/objects/leohoho-rngTKHXumy0-unsplash.jpg,NaN,NaN,NaN,1,12,2,faces,objects
18,75229,0,1,1,19,intact,1,0,A,A,1100,5,40,Stimuli/Experimental_stims/outdoor_scenes/jeff-king-bJHWJeiHfHc-unsplash.jpg,Stimuli/Experimental_stims/objects/fabian-blank-pElSkGRA2NU-unsplash.jpg,NaN,NaN,NaN,0,12,2,outdoor_scenes,objects
19,75229,0,1,1,20,intact,1,0,E,E,2900,47,33,Stimuli/Experimental_stims/objects/ronaldo-arthur-vidal-Cdz_lvnl37k-unsplash.jpg,Stimuli/Experimental_stims/body_parts/tucker-good-36skLT5jZcc-unsplash.jpg,NaN,NaN,NaN,0,12,2,objects,body_parts
20,75229,0,1,1,21,recombined,0,0,,G,1000,15,4,Stimuli/Experimental_stims/faces/erik-lucatero-d2MSDujJl2g-unsplash.jpg,Stimuli/Experimental_stims/outdoor_scenes/jarrett-kow-1ZOyYPOBn7I-unsplash.jpg,NaN,NaN,NaN,0,12,2,faces,outdoor_scenes
21,75229,0,1,1,22,intact,1,0,G,G,2900,45,4,Stimuli/Experimental_stims/objects/leohoho-rngTKHXumy0-unsplash.jpg,Stimuli/Experimental_stims/outdoor_scenes/jarrett-kow-1ZOyYPOBn7I-unsplash.jpg,NaN,NaN,NaN,0,12,2,objects,outdoor_scenes
22,75229,0,1,1,23,intact,1,1,L,L,1600,31,15,Stimuli/Experimental_stims/body_parts/sincerely-media-VN6DbKajo5s-unsplash.jpg,Stimuli/Experimental_stims/faces/erik-lucatero-d2MSDujJl2g-unsplash.jpg,NaN,NaN,NaN,0,12,2,body_parts,faces
23,75229,0,1,1,24,recombined,0,0,,I,3000,6,27,Stimuli/Experimental_stims/outdoor_scenes/meng-ji-8BH_M-53CyA-unsplash.jpg,Stimuli/Experimental_stims/body_parts/heike-mintel-i_Gns0ELnLw-unsplash.jpg,NaN,NaN,NaN,1,12,2,outdoor_scenes,body_parts
24,75229,0,1,1,25,intact,1,0,C,C,2100,3,28,Stimuli/Experimental_stims/outdoor_scenes/henry-be-NLF6hTe4PAg-unsplash.jpg,Stimuli/Experimental_stims/body_parts/ira-vishnevskaya-8DQAvdCby1I-unsplash.jpg,NaN,NaN,NaN,0,12,2,outdoor_scenes,body_parts
25,75229,0,1,1,26,recombined,0,0,,H,1400,29,9,Stimuli/Experimental_stims/body_parts/manuel-schinner-ZwjFuJ7ebpk-unsplash.jpg,Stimuli/Experimental_stims/outdoor_scenes/sergey-pesterev-y-b_FOmJXdg-unsplash.jpg,NaN,NaN,NaN,0,12,2,body_parts,outdoor_scenes
26,75229,0,1,1,27,intact,1,0,F,F,1200,21,32,Stimuli/Experimental_stims/faces/leilani-angel-K84vnnzxmTQ-unsplash.jpg,Stimuli/Experimental_stims/body_parts/towfiqu-barbhuiya-3AsiVDsZnHg-unsplash.jpg,NaN,NaN,NaN,0,12,2,faces,body_parts
27,75229,0,1,2,28,recombined,0,1,,K,1300,36,19,Stimuli/Experimental_stims/objects/alexander-andrews-JYGnB9gTCls-unsplash.jpg,Stimuli/Experimental_stims/faces/joel-mott-LaK153ghdig-unsplash.jpg,NaN,NaN,NaN,0,12,2,objects,faces
28,75229,0,1,2,29,intact,1,0,D,D,2600,37,14,Stimuli/Experimental_stims/objects/alexander-andrews-VLGWE_SumrA-unsplash.jpg,Stimuli/Experimental_stims/faces/david-siglin-UuW4psOb388-unsplash.jpg,NaN,NaN,NaN,0,12,2,objects,faces
29,75229,0,1,2,30,intact,1,0,E,E,1900,47,33,Stimuli/Experimental_stims/objects/ronaldo-arthur-vidal-Cdz_lvnl37k-unsplash.jpg,Stimuli/Experimental_stims/body_parts/tucker-good-36skLT5jZcc-unsplash.jpg,NaN,NaN,NaN,0,12,2,objects,body_parts
30,75229,0,1,2,31,recombined,0,1,,J,2600,39,20,Stimuli/Experimental_stims/objects/charlesdeluvio-1-nx1QR5dTE-unsplash.jpg,Stimuli/Experimental_stims/faces/justin-chen-J7Cf1Gch49E-unsplash.jpg,NaN,NaN,NaN,0,12,2,objects,faces
31,75229,0,1,2,32,recombined,0,1,,A,3000,40,21,Stimuli/Experimental_stims/objects/fabian-blank-pElSkGRA2NU-unsplash.jpg,Stimuli/Experimental_stims/faces/leilani-angel-K84vnnzxmTQ-unsplash.jpg,NaN,NaN,NaN,1,12,2,objects,faces
32,75229,0,1,2,33,intact,1,1,I,I,1200,27,11,Stimuli/Experimental_stims/body_parts/heike-mintel-i_Gns0ELnLw-unsplash.jpg,Stimuli/Experimental_stims/outdoor_scenes/stephen-leonardi-gyIRjKPXupE-unsplash.jpg,NaN,NaN,NaN,0,12,2,body_parts,outdoor_scenes
33,75229,0,1,2,34,recombined,0,0,,B,1400,37,18,Stimuli/Experimental_stims/objects/alexander-andrews-VLGWE_SumrA-unsplash.jpg,Stimuli/Experimental_stims/faces/jessica-radanavong-mrYkTuAesKE-unsplash.jpg,NaN,NaN,NaN,0,12,2,objects,faces
34,75229,0,1,2,35,intact,1,0,J,J,1300,19,39,Stimuli/Experimental_stims/faces/joel-mott-LaK153ghdig-unsplash.jpg,Stimuli/Experimental_stims/objects/charlesdeluvio-1-nx1QR5dTE-unsplash.jpg,NaN,NaN,NaN,0,12,2,faces,objects
35,75229,0,1,2,36,recombined,0,0,,E,1400,5,33,Stimuli/Experimental_stims/outdoor_scenes/jeff-king-bJHWJeiHfHc-unsplash.jpg,Stimuli/Experimental_stims/body_parts/tucker-good-36skLT5jZcc-unsplash.jpg,NaN,NaN,NaN,0,12,2,outdoor_scenes,body_parts
36,75229,0,1,2,37,recombined,0,0,,I,4500,6,27,Stimuli/Experimental_stims/outdoor_scenes/meng-ji-8BH_M-53CyA-unsplash.jpg,Stimuli/Experimental_stims/body_parts/heike-mintel-i_Gns0ELnLw-unsplash.jpg,NaN,NaN,NaN,1,12,2,outdoor_scenes,body_parts
37,75229,0,1,2,38,intact,1,0,G,G,1800,45,4,Stimuli/Experimental_stims/objects/leohoho-rngTKHXumy0-unsplash.jpg,Stimuli/Experimental_stims/outdoor_scenes/jarrett-kow-1ZOyYPOBn7I-unsplash.jpg,NaN,NaN,NaN,0,12,2,objects,outdoor_scenes
38,75229,0,1,2,39,recombined,0,1,,L,1200,31,11,Stimuli/Experimental_stims/body_parts/sincerely-media-VN6DbKajo5s-unsplash.jpg,Stimuli/Experimental_stims/outdoor_scenes/stephen-leonardi-gyIRjKPXupE-unsplash.jpg,NaN,NaN,NaN,0,12,2,body_parts,outdoor_scenes
39,75229,0,1,2,40,intact,1,0,B,B,2500,6,18,Stimuli/Experimental_stims/outdoor_scenes/meng-ji-8BH_M-53CyA-unsplash.jpg,Stimuli/Experimental_stims/faces/jessica-radanavong-mrYkTuAesKE-unsplash.jpg,NaN,NaN,NaN,0,12,2,outdoor_scenes,faces
40,75229,0,1,2,41,intact,1,1,L,L,1300,31,15,Stimuli/Experimental_stims/body_parts/sincerely-media-VN6DbKajo5s-unsplash.jpg,Stimuli/Experimental_stims/faces/erik-lucatero-d2MSDujJl2g-unsplash.jpg,NaN,NaN,NaN,0,12,2,body_parts,faces
41,75229,0,1,2,42,recombined,0,0,,F,3000,3,32,Stimuli/Experimental_stims/outdoor_scenes/henry-be-NLF6hTe4PAg-unsplash.jpg,Stimuli/Experimental_stims/body_parts/towfiqu-barbhuiya-3AsiVDsZnHg-unsplash.jpg,NaN,NaN,NaN,1,12,2,outdoor_scenes,body_parts
42,75229,0,1,2,43,recombined,0,0,,C,1800,47,28,Stimuli/Experimental_stims/objects/ronaldo-arthur-vidal-Cdz_lvnl37k-unsplash.jpg,Stimuli/Experimental_stims/body_parts/ira-vishnevskaya-8DQAvdCby1I-unsplash.jpg,NaN,NaN,NaN,0,12,2,objects,body_parts
43,75229,0,1,2,44,intact,1,0,K,K,1300,29,36,Stimuli/Experimental_stims/body_parts/manuel-schinner-ZwjFuJ7ebpk-unsplash.jpg,Stimuli/Experimental_stims/objects/alexander-andrews-JYGnB9gTCls-unsplash.jpg,NaN,NaN,NaN,0,12,2,body_parts,objects
44,75229,0,1,2,45,intact,1,0,A,A,1000,5,40,Stimuli/Experimental_stims/outdoor_scenes/jeff-king-bJHWJeiHfHc-unsplash.jpg,Stimuli/Experimental_stims/objects/fabian-blank-pElSkGRA2NU-unsplash.jpg,NaN,NaN,NaN,0,12,2,outdoor_scenes,objects
45,75229,0,1,2,46,recombined,0,1,,D,2000,14,45,Stimuli/Experimental_stims/faces/david-siglin-UuW4psOb388-unsplash.jpg,Stimuli/Experimental_stims/objects/leohoho-rngTKHXumy0-unsplash.jpg,NaN,NaN,NaN,0,12,2,faces,objects
46,75229,0,1,2,47,intact,1,0,H,H,1700,20,9,Stimuli/Experimental_stims/faces/justin-chen-J7Cf1Gch49E-unsplash.jpg,Stimuli/Experimental_stims/outdoor_scenes/sergey-pesterev-y-b_FOmJXdg-unsplash.jpg,NaN,NaN,NaN,0,12,2,faces,outdoor_scenes
47,75229,0,1,2,48,recombined,0,0,,H,1000,29,9,Stimuli/Experimental_stims/body_parts/manuel-schinner-ZwjFuJ7ebpk-unsplash.jpg,Stimuli/Experimental_stims/outdoor_scenes/sergey-pesterev-y-b_FOmJXdg-unsplash.jpg,NaN,NaN,NaN,0,12,2,body_parts,outdoor_scenes
48,75229,0,1,2,49,recombined,0,1,,G,1800,4,15,Stimuli/Experimental_stims/outdoor_scenes/jarrett-kow-1ZOyYPOBn7I-unsplash.jpg,Stimuli/Experimental_stims/faces/erik-lucatero-d2MSDujJl2g-unsplash.jpg,NaN,NaN,NaN,0,12,2,outdoor_scenes,faces
49,75229,0,1,2,50,intact,1,0,C,C,1300,3,28,Stimuli/Experimental_stims/outdoor_scenes/henry-be-NLF6hTe4PAg-unsplash.jpg,Stimuli/Experimental_stims/body_parts/ira-vishnevskaya-8DQAvdCby1I-unsplash.jpg,NaN,NaN,NaN,0,12,2,outdoor_scenes,body_parts
50,75229,0,1,2,51,intact,1,0,F,F,3500,21,32,Stimuli/Experimental_stims/faces/leilani-angel-K84vnnzxmTQ-unsplash.jpg,Stimuli/Experimental_stims/body_parts/towfiqu-barbhuiya-3AsiVDsZnHg-unsplash.jpg,NaN,NaN,NaN,1,12,2,faces,body_parts
51,75229,0,1,3,52,recombined,0,1,,L,2800,31,11,Stimuli/Experimental_stims/body_parts/sincerely-media-VN6DbKajo5s-unsplash.jpg,Stimuli/Experimental_stims/outdoor_scenes/stephen-leonardi-gyIRjKPXupE-unsplash.jpg,NaN,NaN,NaN,1,37,2,body_parts,outdoor_scenes
52,75229,0,1,3,53,intact,1,0,C,C,1100,3,28,Stimuli/Experimental_stims/outdoor_scenes/henry-be-NLF6hTe4PAg-unsplash.jpg,Stimuli/Experimental_stims/body_parts/ira-vishnevskaya-8DQAvdCby1I-unsplash.jpg,NaN,NaN,NaN,0,37,2,outdoor_scenes,body_parts
53,75229,0,1,3,54,recombined,0,1,,D,2400,14,45,Stimuli/Experimental_stims/faces/david-siglin-UuW4psOb388-unsplash.jpg,Stimuli/Experimental_stims/objects/leohoho-rngTKHXumy0-unsplash.jpg,NaN,NaN,NaN,0,37,2,faces,objects
54,75229,0,1,3,55,intact,1,0,G,G,1500,45,4,Stimuli/Experimental_stims/objects/leohoho-rngTKHXumy0-unsplash.jpg,Stimuli/Experimental_stims/outdoor_scenes/jarrett-kow-1ZOyYPOBn7I-unsplash.jpg,NaN,NaN,NaN,0,37,2,objects,outdoor_scenes
55,75229,0,1,3,56,recombined,0,0,,F,1200,3,32,Stimuli/Experimental_stims/outdoor_scenes/henry-be-NLF6hTe4PAg-unsplash.jpg,Stimuli/Experimental_stims/body_parts/towfiqu-barbhuiya-3AsiVDsZnHg-unsplash.jpg,NaN,NaN,NaN,0,37,2,outdoor_scenes,body_parts
56,75229,0,1,3,57,recombined,0,0,,G,1900,15,4,Stimuli/Experimental_stims/faces/erik-lucatero-d2MSDujJl2g-unsplash.jpg,Stimuli/Experimental_stims/outdoor_scenes/jarrett-kow-1ZOyYPOBn7I-unsplash.jpg,NaN,NaN,NaN,0,37,2,faces,outdoor_scenes
57,75229,0,1,3,58,intact,1,0,H,H,2900,20,9,Stimuli/Experimental_stims/faces/justin-chen-J7Cf1Gch49E-unsplash.jpg,Stimuli/Experimental_stims/outdoor_scenes/sergey-pesterev-y-b_FOmJXdg-unsplash.jpg,NaN,NaN,NaN,1,37,2,faces,outdoor_scenes
58,75229,0,1,3,59,intact,1,0,B,B,1500,6,18,Stimuli/Experimental_stims/outdoor_scenes/meng-ji-8BH_M-53CyA-unsplash.jpg,Stimuli/Experimental_stims/faces/jessica-radanavong-mrYkTuAesKE-unsplash.jpg,NaN,NaN,NaN,0,37,2,outdoor_scenes,faces
59,75229,0,1,3,60,recombined,0,1,,B,2200,18,37,Stimuli/Experimental_stims/faces/jessica-radanavong-mrYkTuAesKE-unsplash.jpg,Stimuli/Experimental_stims/objects/alexander-andrews-VLGWE_SumrA-unsplash.jpg,NaN,NaN,NaN,0,37,2,faces,objects
60,75229,0,1,3,61,intact,1,0,F,F,2400,21,32,Stimuli/Experimental_stims/faces/leilani-angel-K84vnnzxmTQ-unsplash.jpg,Stimuli/Experimental_stims/body_parts/towfiqu-barbhuiya-3AsiVDsZnHg-unsplash.jpg,NaN,NaN,NaN,0,37,2,faces,body_parts
61,75229,0,1,3,62,recombined,0,1,,J,2500,39,20,Stimuli/Experimental_stims/objects/charlesdeluvio-1-nx1QR5dTE-unsplash.jpg,Stimuli/Experimental_stims/faces/justin-chen-J7Cf1Gch49E-unsplash.jpg,NaN,NaN,NaN,0,37,2,objects,faces
62,75229,0,1,3,63,intact,1,0,K,K,1700,29,36,Stimuli/Experimental_stims/body_parts/manuel-schinner-ZwjFuJ7ebpk-unsplash.jpg,Stimuli/Experimental_stims/objects/alexander-andrews-JYGnB9gTCls-unsplash.jpg,NaN,NaN,NaN,0,37,2,body_parts,objects
63,75229,0,1,3,64,recombined,0,0,,A,1400,21,40,Stimuli/Experimental_stims/faces/leilani-angel-K84vnnzxmTQ-unsplash.jpg,Stimuli/Experimental_stims/objects/fabian-blank-pElSkGRA2NU-unsplash.jpg,NaN,NaN,NaN,0,37,2,faces,objects
64,75229,0,1,3,65,intact,1,1,L,L,3000,31,15,Stimuli/Experimental_stims/body_parts/sincerely-media-VN6DbKajo5s-unsplash.jpg,Stimuli/Experimental_stims/faces/erik-lucatero-d2MSDujJl2g-unsplash.jpg,NaN,NaN,NaN,1,37,2,body_parts,faces
65,75229,0,1,3,66,recombined,0,0,,E,2500,5,33,Stimuli/Experimental_stims/outdoor_scenes/jeff-king-bJHWJeiHfHc-unsplash.jpg,Stimuli/Experimental_stims/body_parts/tucker-good-36skLT5jZcc-unsplash.jpg,NaN,NaN,NaN,0,37,2,outdoor_scenes,body_parts
66,75229,0,1,3,67,recombined,0,1,,I,2400,27,6,Stimuli/Experimental_stims/body_parts/heike-mintel-i_Gns0ELnLw-unsplash.jpg,Stimuli/Experimental_stims/outdoor_scenes/meng-ji-8BH_M-53CyA-unsplash.jpg,NaN,NaN,NaN,0,37,2,body_parts,outdoor_scenes
67,75229,0,1,3,68,intact,1,0,D,D,1600,37,14,Stimuli/Experimental_stims/objects/alexander-andrews-VLGWE_SumrA-unsplash.jpg,Stimuli/Experimental_stims/faces/david-siglin-UuW4psOb388-unsplash.jpg,NaN,NaN,NaN,0,37,2,objects,faces
68,75229,0,1,3,69,intact,1,0,J,J,2400,19,39,Stimuli/Experimental_stims/faces/joel-mott-LaK153ghdig-unsplash.jpg,Stimuli/Experimental_stims/objects/charlesdeluvio-1-nx1QR5dTE-unsplash.jpg,NaN,NaN,NaN,0,37,2,faces,objects
69,75229,0,1,3,70,recombined,0,1,,H,1700,9,29,Stimuli/Experimental_stims/outdoor_scenes/sergey-pesterev-y-b_FOmJXdg-unsplash.jpg,Stimuli/Experimental_stims/body_parts/manuel-schinner-ZwjFuJ7ebpk-unsplash.jpg,NaN,NaN,NaN,0,37,2,outdoor_scenes,body_parts
70,75229,0,1,3,71,intact,1,0,E,E,2200,47,33,Stimuli/Experimental_stims/objects/ronaldo-arthur-vidal-Cdz_lvnl37k-unsplash.jpg,Stimuli/Experimental_stims/body_parts/tucker-good-36skLT5jZcc-unsplash.jpg,NaN,NaN,NaN,0,37,2,objects,body_parts
71,75229,0,1,3,72,recombined,0,0,,K,2900,19,36,Stimuli/Experimental_stims/faces/joel-mott-LaK153ghdig-unsplash.jpg,Stimuli/Experimental_stims/objects/alexander-andrews-JYGnB9gTCls-unsplash.jpg,NaN,NaN,NaN,1,37,2,faces,objects
72,75229,0,1,3,73,intact,1,1,I,I,1500,27,11,Stimuli/Experimental_stims/body_parts/heike-mintel-i_Gns0ELnLw-unsplash.jpg,Stimuli/Experimental_stims/outdoor_scenes/stephen-leonardi-gyIRjKPXupE-unsplash.jpg,NaN,NaN,NaN,0,37,2,body_parts,outdoor_scenes
73,75229,0,1,3,74,intact,1,0,A,A,1800,5,40,Stimuli/Experimental_stims/outdoor_scenes/jeff-king-bJHWJeiHfHc-unsplash.jpg,Stimuli/Experimental_stims/objects/fabian-blank-pElSkGRA2NU-unsplash.jpg,NaN,NaN,NaN,0,37,2,outdoor_scenes,objects
74,75229,0,1,3,75,recombined,0,0,,C,1200,47,28,Stimuli/Experimental_stims/objects/ronaldo-arthur-vidal-Cdz_lvnl37k-unsplash.jpg,Stimuli/Experimental_stims/body_parts/ira-vishnevskaya-8DQAvdCby1I-unsplash.jpg,NaN,NaN,NaN,0,37,2,objects,body_parts
75,75229,0,1,4,76,intact,1,0,F,F,2200,21,32,Stimuli/Experimental_stims/faces/leilani-angel-K84vnnzxmTQ-unsplash.jpg,Stimuli/Experimental_stims/body_parts/towfiqu-barbhuiya-3AsiVDsZnHg-unsplash.jpg,NaN,NaN,NaN,0,37,2,faces,body_parts
76,75229,0,1,4,77,intact,1,0,B,B,1200,6,18,Stimuli/Experimental_stims/outdoor_scenes/meng-ji-8BH_M-53CyA-unsplash.jpg,Stimuli/Experimental_stims/faces/jessica-radanavong-mrYkTuAesKE-unsplash.jpg,NaN,NaN,NaN,0,37,2,outdoor_scenes,faces
77,75229,0,1,4,78,recombined,0,1,,E,1000,33,5,Stimuli/Experimental_stims/body_parts/tucker-good-36skLT5jZcc-unsplash.jpg,Stimuli/Experimental_stims/outdoor_scenes/jeff-king-bJHWJeiHfHc-unsplash.jpg,NaN,NaN,NaN,0,37,2,body_parts,outdoor_scenes
78,75229,0,1,4,79,recombined,0,0,,L,1000,11,31,Stimuli/Experimental_stims/outdoor_scenes/stephen-leonardi-gyIRjKPXupE-unsplash.jpg,Stimuli/Experimental_stims/body_parts/sincerely-media-VN6DbKajo5s-unsplash.jpg,NaN,NaN,NaN,0,37,2,outdoor_scenes,body_parts
79,75229,0,1,4,80,intact,1,0,E,E,1700,47,33,Stimuli/Experimental_stims/objects/ronaldo-arthur-vidal-Cdz_lvnl37k-unsplash.jpg,Stimuli/Experimental_stims/body_parts/tucker-good-36skLT5jZcc-unsplash.jpg,NaN,NaN,NaN,0,37,2,objects,body_parts
80,75229,0,1,4,81,recombined,0,1,,D,1800,14,45,Stimuli/Experimental_stims/faces/david-siglin-UuW4psOb388-unsplash.jpg,Stimuli/Experimental_stims/objects/leohoho-rngTKHXumy0-unsplash.jpg,NaN,NaN,NaN,0,37,2,faces,objects
81,75229,0,1,4,82,intact,1,1,L,L,1200,31,15,Stimuli/Experimental_stims/body_parts/sincerely-media-VN6DbKajo5s-unsplash.jpg,Stimuli/Experimental_stims/faces/erik-lucatero-d2MSDujJl2g-unsplash.jpg,NaN,NaN,NaN,0,37,2,body_parts,faces
82,75229,0,1,4,83,recombined,0,0,,K,2000,19,36,Stimuli/Experimental_stims/faces/joel-mott-LaK153ghdig-unsplash.jpg,Stimuli/Experimental_stims/objects/alexander-andrews-JYGnB9gTCls-unsplash.jpg,NaN,NaN,NaN,0,37,2,faces,objects
83,75229,0,1,4,84,intact,1,1,I,I,1800,27,11,Stimuli/Experimental_stims/body_parts/heike-mintel-i_Gns0ELnLw-unsplash.jpg,Stimuli/Experimental_stims/outdoor_scenes/stephen-leonardi-gyIRjKPXupE-unsplash.jpg,NaN,NaN,NaN,0,37,2,body_parts,outdoor_scenes
84,75229,0,1,4,85,intact,1,0,A,A,3700,5,40,Stimuli/Experimental_stims/outdoor_scenes/jeff-king-bJHWJeiHfHc-unsplash.jpg,Stimuli/Experimental_stims/objects/fabian-blank-pElSkGRA2NU-unsplash.jpg,NaN,NaN,NaN,1,37,2,outdoor_scenes,objects
85,75229,0,1,4,86,recombined,0,0,,A,2200,21,40,Stimuli/Experimental_stims/faces/leilani-angel-K84vnnzxmTQ-unsplash.jpg,Stimuli/Experimental_stims/objects/fabian-blank-pElSkGRA2NU-unsplash.jpg,NaN,NaN,NaN,0,37,2,faces,objects
86,75229,0,1,4,87,recombined,0,1,,G,1300,4,15,Stimuli/Experimental_stims/outdoor_scenes/jarrett-kow-1ZOyYPOBn7I-unsplash.jpg,Stimuli/Experimental_stims/faces/erik-lucatero-d2MSDujJl2g-unsplash.jpg,NaN,NaN,NaN,0,37,2,outdoor_scenes,faces
87,75229,0,1,4,88,intact,1,0,G,G,2000,45,4,Stimuli/Experimental_stims/objects/leohoho-rngTKHXumy0-unsplash.jpg,Stimuli/Experimental_stims/outdoor_scenes/jarrett-kow-1ZOyYPOBn7I-unsplash.jpg,NaN,NaN,NaN,0,37,2,objects,outdoor_scenes
88,75229,0,1,4,89,intact,1,0,C,C,2100,3,28,Stimuli/Experimental_stims/outdoor_scenes/henry-be-NLF6hTe4PAg-unsplash.jpg,Stimuli/Experimental_stims/body_parts/ira-vishnevskaya-8DQAvdCby1I-unsplash.jpg,NaN,NaN,NaN,0,37,2,outdoor_scenes,body_parts
89,75229,0,1,4,90,recombined,0,0,,C,2100,47,28,Stimuli/Experimental_stims/objects/ronaldo-arthur-vidal-Cdz_lvnl37k-unsplash.jpg,Stimuli/Experimental_stims/body_parts/ira-vishnevskaya-8DQAvdCby1I-unsplash.jpg,NaN,NaN,NaN,0,37,2,objects,body_parts
90,75229,0,1,4,91,recombined,0,1,,H,2300,9,29,Stimuli/Experimental_stims/outdoor_scenes/sergey-pesterev-y-b_FOmJXdg-unsplash.jpg,Stimuli/Experimental_stims/body_parts/manuel-schinner-ZwjFuJ7ebpk-unsplash.jpg,NaN,NaN,NaN,0,37,2,outdoor_scenes,body_parts
91,75229,0,1,4,92,intact,1,0,D,D,4500,37,14,Stimuli/Experimental_stims/objects/alexander-andrews-VLGWE_SumrA-unsplash.jpg,Stimuli/Experimental_stims/faces/david-siglin-UuW4psOb388-unsplash.jpg,NaN,NaN,NaN,1,37,2,objects,faces
92,75229,0,1,4,93,intact,1,0,J,J,1200,19,39,Stimuli/Experimental_stims/faces/joel-mott-LaK153ghdig-unsplash.jpg,Stimuli/Experimental_stims/objects/charlesdeluvio-1-nx1QR5dTE-unsplash.jpg,NaN,NaN,NaN,0,37,2,faces,objects
93,75229,0,1,4,94,recombined,0,1,,J,2200,39,20,Stimuli/Experimental_stims/objects/charlesdeluvio-1-nx1QR5dTE-unsplash.jpg,Stimuli/Experimental_stims/faces/justin-chen-J7Cf1Gch49E-unsplash.jpg,NaN,NaN,NaN,0,37,2,objects,faces
94,75229,0,1,4,95,recombined,0,0,,I,1300,6,27,Stimuli/Experimental_stims/outdoor_scenes/meng-ji-8BH_M-53CyA-unsplash.jpg,Stimuli/Experimental_stims/body_parts/heike-mintel-i_Gns0ELnLw-unsplash.jpg,NaN,NaN,NaN,0,37,2,outdoor_scenes,body_parts
95,75229,0,1,4,96,intact,1,0,K,K,1400,29,36,Stimuli/Experimental_stims/body_parts/manuel-schinner-ZwjFuJ7ebpk-unsplash.jpg,Stimuli/Experimental_stims/objects/alexander-andrews-JYGnB9gTCls-unsplash.jpg,NaN,NaN,NaN,0,37,2,body_parts,objects
96,75229,0,1,4,97,recombined,0,0,,F,2000,3,32,Stimuli/Experimental_stims/outdoor_scenes/henry-be-NLF6hTe4PAg-unsplash.jpg,Stimuli/Experimental_stims/body_parts/towfiqu-barbhuiya-3AsiVDsZnHg-unsplash.jpg,NaN,NaN,NaN,0,37,2,outdoor_scenes,body_parts
97,75229,0,1,4,98,recombined,0,1,,B,1000,18,37,Stimuli/Experimental_stims/faces/jessica-radanavong-mrYkTuAesKE-unsplash.jpg,Stimuli/Experimental_stims/objects/alexander-andrews-VLGWE_SumrA-unsplash.jpg,NaN,NaN,NaN,0,37,2,faces,objects
98,75229,0,1,4,99,intact,1,0,H,H,4100,20,9,Stimuli/Experimental_stims/faces/justin-chen-J7Cf1Gch49E-unsplash.jpg,Stimuli/Experimental_stims/outdoor_scenes/sergey-pesterev-y-b_FOmJXdg-unsplash.jpg,NaN,NaN,NaN,1,37,2,faces,outdoor_scenes