,PID,practice,run,block,trial,pair_type,old_pair,chosen_left,pair_id,chosen_id,iti,left_stimulus,right_stimulus,left_path,right_path,old_response,pair_acc,pair_rt,long_iti,simulation,version,left_category,right_category,pairs_rt,no_response
0,51659,1,0,0,1,,0,0,,,1500,,,Stimuli/Practice_stims/Memory/annie-spratt-g9KFpAfQ5bc-unsplash.jpg,Stimuli/Practice_stims/Memory/charl-durand-bsfXvI25iNg-unsplash.jpg,0,1,NaN,0,30,4,NaN,NaN,1247,0
1,51659,1,0,0,2,,0,0,,,1000,,,Stimuli/Practice_stims/Memory/charl-durand-bsfXvI25iNg-unsplash.jpg,Stimuli/Practice_stims/Memory/jimmy-dean-Yn0l7uwBrpw-unsplash.jpg,0,1,NaN,0,30,4,NaN,NaN,679,0
2,51659,1,0,0,3,,0,0,,,3000,,,Stimuli/Practice_stims/Memory/jimmy-dean-Yn0l7uwBrpw-unsplash.jpg,Stimuli/Practice_stims/Memory/annie-spratt-g9KFpAfQ5bc-unsplash.jpg,1,0,NaN,0,30,4,NaN,NaN,842,0
3,51659,0,1,1,4,intact,1,0,H,H,3800,21,4,Stimuli/Experimental_stims/faces/leilani-angel-K84vnnzxmTQ-unsplash.jpg,Stimuli/Experimental_stims/outdoor_scenes/jarrett-kow-1ZOyYPOBn7I-unsplash.jpg,1,1,NaN,1,30,4,faces,outdoor_scenes,1251,0
4,51659,0,1,1,5,intact,1,0,A,A,1300,2,42,Stimuli/Experimental_stims/outdoor_scenes/bruno-van-der-kraan-qez8mNJ3ilU-unsplash.jpg,Stimuli/Experimental_stims/objects/jess-bailey-nOeVi8DsN8U-unsplash.jpg,0,0,NaN,0,30,4,outdoor_scenes,objects,1087,0
5,51659,0,1,1,6,recombined,0,1,,L,1400,35,2,Stimuli/Experimental_stims/body_parts/wc-so-KH4AAPjb-tI-unsplash.jpg,Stimuli/Experimental_stims/outdoor_scenes/bruno-van-der-kraan-qez8mNJ3ilU-unsplash.jpg,0,1,NaN,0,30,4,body_parts,outdoor_scenes,960,0
6,51659,0,1,1,7,intact,1,0,J,J,1100,12,38,Stimuli/Experimental_stims/faces/aiony-haust-jmATI5Q_YgY-unsplash.jpg,Stimuli/Experimental_stims/objects/art-lasovsky-8XddFc6NkBY-unsplash.jpg,1,1,NaN,0,30,4,faces,objects,1005,0
7,51659,0,1,1,8,intact,1,1,D,D,2700,36,13,Stimuli/Experimental_stims/objects/alexander-andrews-JYGnB9gTCls-unsplash.jpg,Stimuli/Experimental_stims/faces/daniel-rigdon-dXmXKPP2L4E-unsplash.jpg,1,1,NaN,0,30,4,objects,faces,847,0
8,51659,0,1,1,9,recombined,0,1,,F,2800,24,5,Stimuli/Experimental_stims/body_parts/clay-banks-LjqARJaJotc-unsplash.jpg,Stimuli/Experimental_stims/outdoor_scenes/jeff-king-bJHWJeiHfHc-unsplash.jpg,1,0,NaN,1,30,4,body_parts,outdoor_scenes,689,0
9,51659,0,1,1,10,recombined,0,0,,H,1200,27,4,Stimuli/Experimental_stims/body_parts/heike-mintel-i_Gns0ELnLw-unsplash.jpg,Stimuli/Experimental_stims/outdoor_scenes/jarrett-kow-1ZOyYPOBn7I-unsplash.jpg,1,0,NaN,0,30,4,body_parts,outdoor_scenes,938,0
10,51659,0,1,1,11,intact,1,0,G,G,1100,41,6,Stimuli/Experimental_stims/objects/insung-yoon-w2JtIQQXoRU-unsplash.jpg,Stimuli/Experimental_stims/outdoor_scenes/meng-ji-8BH_M-53CyA-unsplash.jpg,0,0,NaN,0,30,4,objects,outdoor_scenes,1409,0
11,51659,0,1,1,12,intact,1,1,I,I,1200,28,5,Stimuli/Experimental_stims/body_parts/ira-vishnevskaya-8DQAvdCby1I-unsplash.jpg,Stimuli/Experimental_stims/outdoor_scenes/jeff-king-bJHWJeiHfHc-unsplash.jpg,1,1,NaN,0,30,4,body_parts,outdoor_scenes,1396,0
12,51659,0,1,1,13,recombined,0,0,,C,1300,13,9,Stimuli/Experimental_stims/faces/daniel-rigdon-dXmXKPP2L4E-unsplash.jpg,Stimuli/Experimental_stims/outdoor_scenes/sergey-pesterev-y-b_FOmJXdg-unsplash.jpg,0,1,NaN,0,30,4,faces,outdoor_scenes,1151,0
13,51659,0,1,1,14,intact,1,0,K,K,2000,32,44,Stimuli/Experimental_stims/body_parts/towfiqu-barbhuiya-3AsiVDsZnHg-unsplash.jpg,Stimuli/Experimental_stims/objects/kuiye-chen-NuOGFo4PudE-unsplash.jpg,0,0,NaN,0,30,4,body_parts,objects,1294,0
14,51659,0,1,1,15,recombined,0,1,,A,2400,42,18,Stimuli/Experimental_stims/objects/jess-bailey-nOeVi8DsN8U-unsplash.jpg,Stimuli/Experimental_stims/faces/jessica-radanavong-mrYkTuAesKE-unsplash.jpg,0,1,NaN,0,30,4,objects,faces,1099,0
15,51659,0,1,1,16,intact,1,1,B,B,1400,3,18,Stimuli/Experimental_stims/outdoor_scenes/henry-be-NLF6hTe4PAg-unsplash.jpg,Stimuli/Experimental_stims/faces/jessica-radanavong-mrYkTuAesKE-unsplash.jpg,0,0,NaN,0,30,4,outdoor_scenes,faces,1370,0
16,51659,0,1,1,17,recombined,0,1,,J,1300,38,23,Stimuli/Experimental_stims/objects/art-lasovsky-8XddFc6NkBY-unsplash.jpg,Stimuli/Experimental_stims/faces/rikonavt-HQjfrvdTfak-unsplash.jpg,1,0,NaN,0,30,4,objects,faces,1053,0
17,51659,0,1,1,18,recombined,0,0,,I,1900,37,28,Stimuli/Experimental_stims/objects/alexander-andrews-VLGWE_SumrA-unsplash.jpg,Stimuli/Experimental_stims/body_parts/ira-vishnevskaya-8DQAvdCby1I-unsplash.jpg,1,0,NaN,0,30,4,objects,body_parts,973,0
18,51659,0,1,1,19,intact,1,0,F,F,3800,14,24,Stimuli/Experimental_stims/faces/david-siglin-UuW4psOb388-unsplash.jpg,Stimuli/Experimental_stims/body_parts/clay-banks-LjqARJaJotc-unsplash.jpg,0,0,NaN,1,30,4,faces,body_parts,988,0
19,51659,0,1,1,20,recombined,0,0,,E,2100,41,31,Stimuli/Experimental_stims/objects/insung-yoon-w2JtIQQXoRU-unsplash.jpg,Stimuli/Experimental_stims/body_parts/sincerely-media-VN6DbKajo5s-unsplash.jpg,0,1,NaN,0,30,4,objects,body_parts,1334,0
20,51659,0,1,1,21,intact,1,1,L,L,1600,35,23,Stimuli/Experimental_stims/body_parts/wc-so-KH4AAPjb-tI-unsplash.jpg,Stimuli/Experimental_stims/faces/rikonavt-HQjfrvdTfak-unsplash.jpg,0,0,NaN,0,30,4,body_parts,faces,1390,0
21,51659,0,1,1,22,recombined,0,1,,K,2000,44,14,Stimuli/Experimental_stims/objects/kuiye-chen-NuOGFo4PudE-unsplash.jpg,Stimuli/Experimental_stims/faces/david-siglin-UuW4psOb388-unsplash.jpg,1,0,NaN,0,30,4,objects,faces,858,0
22,51659,0,1,1,23,intact,1,1,C,C,1200,9,27,Stimuli/Experimental_stims/outdoor_scenes/sergey-pesterev-y-b_FOmJXdg-unsplash.jpg,Stimuli/Experimental_stims/body_parts/heike-mintel-i_Gns0ELnLw-unsplash.jpg,1,1,NaN,0,30,4,outdoor_scenes,body_parts,1143,0
23,51659,0,1,1,24,recombined,0,0,,B,1300,12,3,Stimuli/Experimental_stims/faces/aiony-haust-jmATI5Q_YgY-unsplash.jpg,Stimuli/Experimental_stims/outdoor_scenes/henry-be-NLF6hTe4PAg-unsplash.jpg,1,0,NaN,0,30,4,faces,outdoor_scenes,1234,0
24,51659,0,1,1,25,intact,1,0,E,E,1200,37,31,Stimuli/Experimental_stims/objects/alexander-andrews-VLGWE_SumrA-unsplash.jpg,Stimuli/Experimental_stims/body_parts/sincerely-media-VN6DbKajo5s-unsplash.jpg,0,0,NaN,0,30,4,objects,body_parts,1190,0
25,51659,0,1,1,26,recombined,0,0,,G,1100,32,6,Stimuli/Experimental_stims/body_parts/towfiqu-barbhuiya-3AsiVDsZnHg-unsplash.jpg,Stimuli/Experimental_stims/outdoor_scenes/meng-ji-8BH_M-53CyA-unsplash.jpg,1,0,NaN,0,30,4,body_parts,outdoor_scenes,1188,0
26,51659,0,1,1,27,recombined,0,1,,D,1900,36,21,Stimuli/Experimental_stims/objects/alexander-andrews-JYGnB9gTCls-unsplash.jpg,Stimuli/Experimental_stims/faces/leilani-angel-K84vnnzxmTQ-unsplash.jpg,0,1,NaN,0,30,4,objects,faces,1439,0
27,51659,0,1,2,28,intact,1,0,F,F,1700,14,24,Stimuli/Experimental_stims/faces/david-siglin-UuW4psOb388-unsplash.jpg,Stimuli/Experimental_stims/body_parts/clay-banks-LjqARJaJotc-unsplash.jpg,NaN,0,NaN,0,30,4,faces,body_parts,,1
28,51659,0,1,2,29,recombined,0,0,,F,2100,5,24,Stimuli/Experimental_stims/outdoor_scenes/jeff-king-bJHWJeiHfHc-unsplash.jpg,Stimuli/Experimental_stims/body_parts/clay-banks-LjqARJaJotc-unsplash.jpg,0,1,NaN,0,30,4,outdoor_scenes,body_parts,677,0
29,51659,0,1,2,30,recombined,0,0,,E,2000,41,31,Stimuli/Experimental_stims/objects/insung-yoon-w2JtIQQXoRU-unsplash.jpg,Stimuli/Experimental_stims/body_parts/sincerely-media-VN6DbKajo5s-unsplash.jpg,0,1,NaN,0,30,4,objects,body_parts,1154,0
30,51659,0,1,2,31,intact,1,1,D,D,3300,36,13,Stimuli/Experimental_stims/objects/alexander-andrews-JYGnB9gTCls-unsplash.jpg,Stimuli/Experimental_stims/faces/daniel-rigdon-dXmXKPP2L4E-unsplash.jpg,1,1,NaN,1,30,4,objects,faces,707,0
31,51659,0,1,2,32,recombined,0,1,,D,2700,36,21,Stimuli/Experimental_stims/objects/alexander-andrews-JYGnB9gTCls-unsplash.jpg,Stimuli/Experimental_stims/faces/leilani-angel-K84vnnzxmTQ-unsplash.jpg,0,1,NaN,0,30,4,objects,faces,983,0
32,51659,0,1,2,33,intact,1,1,B,B,2700,3,18,Stimuli/Experimental_stims/outdoor_scenes/henry-be-NLF6hTe4PAg-unsplash.jpg,Stimuli/Experimental_stims/faces/jessica-radanavong-mrYkTuAesKE-unsplash.jpg,1,1,NaN,0,30,4,outdoor_scenes,faces,1151,0
33,51659,0,1,2,34,recombined,0,0,,C,1600,13,9,Stimuli/Experimental_stims/faces/daniel-rigdon-dXmXKPP2L4E-unsplash.jpg,Stimuli/Experimental_stims/outdoor_scenes/sergey-pesterev-y-b_FOmJXdg-unsplash.jpg,1,0,NaN,0,30,4,faces,outdoor_scenes,1237,0
34,51659,0,1,2,35,recombined,0,1,,L,1000,35,2,Stimuli/Experimental_stims/body_parts/wc-so-KH4AAPjb-tI-unsplash.jpg,Stimuli/Experimental_stims/outdoor_scenes/bruno-van-der-kraan-qez8mNJ3ilU-unsplash.jpg,0,1,NaN,0,30,4,body_parts,outdoor_scenes,1112,0
35,51659,0,1,2,36,intact,1,1,I,I,1600,28,5,Stimuli/Experimental_stims/body_parts/ira-vishnevskaya-8DQAvdCby1I-unsplash.jpg,Stimuli/Experimental_stims/outdoor_scenes/jeff-king-bJHWJeiHfHc-unsplash.jpg,0,0,NaN,0,30,4,body_parts,outdoor_scenes,112,0
36,51659,0,1,2,37,intact,1,1,L,L,1300,35,23,Stimuli/Experimental_stims/body_parts/wc-so-KH4AAPjb-tI-unsplash.jpg,Stimuli/Experimental_stims/faces/rikonavt-HQjfrvdTfak-unsplash.jpg,0,0,NaN,0,30,4,body_parts,faces,33,0
37,51659,0,1,2,38,recombined,0,0,,H,2400,27,4,Stimuli/Experimental_stims/body_parts/heike-mintel-i_Gns0ELnLw-unsplash.jpg,Stimuli/Experimental_stims/outdoor_scenes/jarrett-kow-1ZOyYPOBn7I-unsplash.jpg,1,0,NaN,0,30,4,body_parts,outdoor_scenes,595,0
38,51659,0,1,2,39,intact,1,1,C,C,1500,9,27,Stimuli/Experimental_stims/outdoor_scenes/sergey-pesterev-y-b_FOmJXdg-unsplash.jpg,Stimuli/Experimental_stims/body_parts/heike-mintel-i_Gns0ELnLw-unsplash.jpg,0,0,NaN,0,30,4,outdoor_scenes,body_parts,1057,0
39,51659,0,1,2,40,recombined,0,1,,K,1400,44,14,Stimuli/Experimental_stims/objects/kuiye-chen-NuOGFo4PudE-unsplash.jpg,Stimuli/Experimental_stims/faces/david-siglin-UuW4psOb388-unsplash.jpg,1,0,NaN,0,30,4,objects,faces,668,0
40,51659,0,1,2,41,intact,1,0,K,K,4800,32,44,Stimuli/Experimental_stims/body_parts/towfiqu-barbhuiya-3AsiVDsZnHg-unsplash.jpg,Stimuli/Experimental_stims/objects/kuiye-chen-NuOGFo4PudE-unsplash.jpg,1,1,NaN,1,30,4,body_parts,objects,600,0
41,51659,0,1,2,42,recombined,0,1,,J,2600,38,23,Stimuli/Experimental_stims/objects/art-lasovsky-8XddFc6NkBY-unsplash.jpg,Stimuli/Experimental_stims/faces/rikonavt-HQjfrvdTfak-unsplash.jpg,1,0,NaN,0,30,4,objects,faces,1166,0
42,51659,0,1,2,43,recombined,0,0,,B,1900,12,3,Stimuli/Experimental_stims/faces/aiony-haust-jmATI5Q_YgY-unsplash.jpg,Stimuli/Experimental_stims/outdoor_scenes/henry-be-NLF6hTe4PAg-unsplash.jpg,0,1,NaN,0,30,4,faces,outdoor_scenes,1164,0
43,51659,0,1,2,44,intact,1,0,A,A,1600,2,42,Stimuli/Experimental_stims/outdoor_scenes/bruno-van-der-kraan-qez8mNJ3ilU-unsplash.jpg,Stimuli/Experimental_stims/objects/jess-bailey-nOeVi8DsN8U-unsplash.jpg,1,1,NaN,0,30,4,outdoor_scenes,objects,902,0
44,51659,0,1,2,45,recombined,0,1,,G,1200,6,32,Stimuli/Experimental_stims/outdoor_scenes/meng-ji-8BH_M-53CyA-unsplash.jpg,Stimuli/Experimental_stims/body_parts/towfiqu-barbhuiya-3AsiVDsZnHg-unsplash.jpg,1,0,NaN,0,30,4,outdoor_scenes,body_parts,1038,0
45,51659,0,1,2,46,intact,1,0,H,H,3100,21,4,Stimuli/Experimental_stims/faces/leilani-angel-K84vnnzxmTQ-unsplash.jpg,Stimuli/Experimental_stims/outdoor_scenes/jarrett-kow-1ZOyYPOBn7I-unsplash.jpg,1,1,NaN,1,30,4,faces,outdoor_scenes,1126,0
46,51659,0,1,2,47,recombined,0,1,,A,2500,42,18,Stimuli/Experimental_stims/objects/jess-bailey-nOeVi8DsN8U-unsplash.jpg,Stimuli/Experimental_stims/faces/jessica-radanavong-mrYkTuAesKE-unsplash.jpg,0,1,NaN,0,30,4,objects,faces,1005,0
47,51659,0,1,2,48,intact,1,0,J,J,1800,12,38,Stimuli/Experimental_stims/faces/aiony-haust-jmATI5Q_YgY-unsplash.jpg,Stimuli/Experimental_stims/objects/art-lasovsky-8XddFc6NkBY-unsplash.jpg,1,1,NaN,0,30,4,faces,objects,898,0
48,51659,0,1,2,49,recombined,0,0,,I,1200,37,28,Stimuli/Experimental_stims/objects/alexander-andrews-VLGWE_SumrA-unsplash.jpg,Stimuli/Experimental_stims/body_parts/ira-vishnevskaya-8DQAvdCby1I-unsplash.jpg,0,1,NaN,0,30,4,objects,body_parts,1244,0
49,51659,0,1,2,50,intact,1,0,G,G,2200,41,6,Stimuli/Experimental_stims/objects/insung-yoon-w2JtIQQXoRU-unsplash.jpg,Stimuli/Experimental_stims/outdoor_scenes/meng-ji-8BH_M-53CyA-unsplash.jpg,1,1,NaN,0,30,4,objects,outdoor_scenes,1342,0
50,51659,0,1,2,51,intact,1,0,E,E,4700,37,31,Stimuli/Experimental_stims/objects/alexander-andrews-VLGWE_SumrA-unsplash.jpg,Stimuli/Experimental_stims/body_parts/sincerely-media-VN6DbKajo5s-unsplash.jpg,1,1,NaN,1,30,4,objects,body_parts,904,0
51,51659,0,1,3,52,intact,1,0,A,A,3500,2,42,Stimuli/Experimental_stims/outdoor_scenes/bruno-van-der-kraan-qez8mNJ3ilU-unsplash.jpg,Stimuli/Experimental_stims/objects/jess-bailey-nOeVi8DsN8U-unsplash.jpg,0,0,NaN,1,37,4,outdoor_scenes,objects,1125,0
52,51659,0,1,3,53,recombined,0,0,,F,1500,5,24,Stimuli/Experimental_stims/outdoor_scenes/jeff-king-bJHWJeiHfHc-unsplash.jpg,Stimuli/Experimental_stims/body_parts/clay-banks-LjqARJaJotc-unsplash.jpg,1,0,NaN,0,37,4,outdoor_scenes,body_parts,1086,0
53,51659,0,1,3,54,intact,1,0,E,E,1600,37,31,Stimuli/Experimental_stims/objects/alexander-andrews-VLGWE_SumrA-unsplash.jpg,Stimuli/Experimental_stims/body_parts/sincerely-media-VN6DbKajo5s-unsplash.jpg,1,1,NaN,0,37,4,objects,body_parts,1095,0
54,51659,0,1,3,55,intact,1,0,J,J,1800,12,38,Stimuli/Experimental_stims/faces/aiony-haust-jmATI5Q_YgY-unsplash.jpg,Stimuli/Experimental_stims/objects/art-lasovsky-8XddFc6NkBY-unsplash.jpg,1,1,NaN,0,37,4,faces,objects,953,0
55,51659,0,1,3,56,recombined,0,0,,C,1100,13,9,Stimuli/Experimental_stims/faces/daniel-rigdon-dXmXKPP2L4E-unsplash.jpg,Stimuli/Experimental_stims/outdoor_scenes/sergey-pesterev-y-b_FOmJXdg-unsplash.jpg,0,1,NaN,0,37,4,faces,outdoor_scenes,1293,0
56,51659,0,1,3,57,recombined,0,1,,J,4300,38,23,Stimuli/Experimental_stims/objects/art-lasovsky-8XddFc6NkBY-unsplash.jpg,Stimuli/Experimental_stims/faces/rikonavt-HQjfrvdTfak-unsplash.jpg,1,0,NaN,1,37,4,objects,faces,1262,0
57,51659,0,1,3,58,intact,1,0,H,H,1600,21,4,Stimuli/Experimental_stims/faces/leilani-angel-K84vnnzxmTQ-unsplash.jpg,Stimuli/Experimental_stims/outdoor_scenes/jarrett-kow-1ZOyYPOBn7I-unsplash.jpg,1,1,NaN,0,37,4,faces,outdoor_scenes,806,0
58,51659,0,1,3,59,recombined,0,1,,I,1100,28,37,Stimuli/Experimental_stims/body_parts/ira-vishnevskaya-8DQAvdCby1I-unsplash.jpg,Stimuli/Experimental_stims/objects/alexander-andrews-VLGWE_SumrA-unsplash.jpg,0,1,NaN,0,37,4,body_parts,objects,1042,0
59,51659,0,1,3,60,intact,1,1,D,D,1400,36,13,Stimuli/Experimental_stims/objects/alexander-andrews-JYGnB9gTCls-unsplash.jpg,Stimuli/Experimental_stims/faces/daniel-rigdon-dXmXKPP2L4E-unsplash.jpg,1,1,NaN,0,37,4,objects,faces,1167,0
60,51659,0,1,3,61,intact,1,0,G,G,2000,41,6,Stimuli/Experimental_stims/objects/insung-yoon-w2JtIQQXoRU-unsplash.jpg,Stimuli/Experimental_stims/outdoor_scenes/meng-ji-8BH_M-53CyA-unsplash.jpg,1,1,NaN,0,37,4,objects,outdoor_scenes,1036,0
61,51659,0,1,3,62,recombined,0,1,,D,1400,36,21,Stimuli/Experimental_stims/objects/alexander-andrews-JYGnB9gTCls-unsplash.jpg,Stimuli/Experimental_stims/faces/leilani-angel-K84vnnzxmTQ-unsplash.jpg,1,0,NaN,0,37,4,objects,faces,820,0
62,51659,0,1,3,63,intact,1,1,C,C,2900,9,27,Stimuli/Experimental_stims/outdoor_scenes/sergey-pesterev-y-b_FOmJXdg-unsplash.jpg,Stimuli/Experimental_stims/body_parts/heike-mintel-i_Gns0ELnLw-unsplash.jpg,0,0,NaN,0,37,4,outdoor_scenes,body_parts,1208,0
63,51659,0,1,3,64,recombined,0,0,,E,3500,41,31,Stimuli/Experimental_stims/objects/insung-yoon-w2JtIQQXoRU-unsplash.jpg,Stimuli/Experimental_stims/body_parts/sincerely-media-VN6DbKajo5s-unsplash.jpg,1,0,NaN,1,37,4,objects,body_parts,850,0
64,51659,0,1,3,65,intact,1,1,I,I,1500,28,5,Stimuli/Experimental_stims/body_parts/ira-vishnevskaya-8DQAvdCby1I-unsplash.jpg,Stimuli/Experimental_stims/outdoor_scenes/jeff-king-bJHWJeiHfHc-unsplash.jpg,1,1,NaN,0,37,4,body_parts,outdoor_scenes,1113,0
65,51659,0,1,3,66,intact,1,1,L,L,2900,35,23,Stimuli/Experimental_stims/body_parts/wc-so-KH4AAPjb-tI-unsplash.jpg,Stimuli/Experimental_stims/faces/rikonavt-HQjfrvdTfak-unsplash.jpg,1,1,NaN,0,37,4,body_parts,faces,1215,0
66,51659,0,1,3,67,recombined,0,1,,H,1400,4,27,Stimuli/Experimental_stims/outdoor_scenes/jarrett-kow-1ZOyYPOBn7I-unsplash.jpg,Stimuli/Experimental_stims/body_parts/heike-mintel-i_Gns0ELnLw-unsplash.jpg,1,0,NaN,0,37,4,outdoor_scenes,body_parts,1421,0
67,51659,0,1,3,68,intact,1,0,K,K,1200,32,44,Stimuli/Experimental_stims/body_parts/towfiqu-barbhuiya-3AsiVDsZnHg-unsplash.jpg,Stimuli/Experimental_stims/objects/kuiye-chen-NuOGFo4PudE-unsplash.jpg,1,1,NaN,0,37,4,body_parts,objects,921,0
68,51659,0,1,3,69,recombined,0,1,,B,1100,3,12,Stimuli/Experimental_stims/outdoor_scenes/henry-be-NLF6hTe4PAg-unsplash.jpg,Stimuli/Experimental_stims/faces/aiony-haust-jmATI5Q_YgY-unsplash.jpg,1,0,NaN,0,37,4,outdoor_scenes,faces,1261,0
69,51659,0,1,3,70,intact,1,0,F,F,4700,14,24,Stimuli/Experimental_stims/faces/david-siglin-UuW4psOb388-unsplash.jpg,Stimuli/Experimental_stims/body_parts/clay-banks-LjqARJaJotc-unsplash.jpg,0,0,NaN,1,37,4,faces,body_parts,1385,0
70,51659,0,1,3,71,recombined,0,0,,A,2300,18,42,Stimuli/Experimental_stims/faces/jessica-radanavong-mrYkTuAesKE-unsplash.jpg,Stimuli/Experimental_stims/objects/jess-bailey-nOeVi8DsN8U-unsplash.jpg,0,1,NaN,0,37,4,faces,objects,1036,0
71,51659,0,1,3,72,recombined,0,1,,L,1700,35,2,Stimuli/Experimental_stims/body_parts/wc-so-KH4AAPjb-tI-unsplash.jpg,Stimuli/Experimental_stims/outdoor_scenes/bruno-van-der-kraan-qez8mNJ3ilU-unsplash.jpg,1,0,NaN,0,37,4,body_parts,outdoor_scenes,1008,0
72,51659,0,1,3,73,intact,1,1,B,B,1100,3,18,Stimuli/Experimental_stims/outdoor_scenes/henry-be-NLF6hTe4PAg-unsplash.jpg,Stimuli/Experimental_stims/faces/jessica-radanavong-mrYkTuAesKE-unsplash.jpg,1,1,NaN,0,37,4,outdoor_scenes,faces,1145,0
73,51659,0,1,3,74,recombined,0,0,,G,2400,32,6,Stimuli/Experimental_stims/body_parts/towfiqu-barbhuiya-3AsiVDsZnHg-unsplash.jpg,Stimuli/Experimental_stims/outdoor_scenes/meng-ji-8BH_M-53CyA-unsplash.jpg,0,1,NaN,0,37,4,body_parts,outdoor_scenes,1461,0
74,51659,0,1,3,75,recombined,0,0,,K,1100,14,44,Stimuli/Experimental_stims/faces/david-siglin-UuW4psOb388-unsplash.jpg,Stimuli/Experimental_stims/objects/kuiye-chen-NuOGFo4PudE-unsplash.jpg,1,0,NaN,0,37,4,faces,objects,213,0
75,51659,0,1,4,76,intact,1,0,E,E,2100,37,31,Stimuli/Experimental_stims/objects/alexander-andrews-VLGWE_SumrA-unsplash.jpg,Stimuli/Experimental_stims/body_parts/sincerely-media-VN6DbKajo5s-unsplash.jpg,1,1,NaN,0,37,4,objects,body_parts,956,0
76,51659,0,1,4,77,intact,1,0,G,G,1200,41,6,Stimuli/Experimental_stims/objects/insung-yoon-w2JtIQQXoRU-unsplash.jpg,Stimuli/Experimental_stims/outdoor_scenes/meng-ji-8BH_M-53CyA-unsplash.jpg,1,1,NaN,0,37,4,objects,outdoor_scenes,1125,0
77,51659,0,1,4,78,recombined,0,0,,I,1700,37,28,Stimuli/Experimental_stims/objects/alexander-andrews-VLGWE_SumrA-unsplash.jpg,Stimuli/Experimental_stims/body_parts/ira-vishnevskaya-8DQAvdCby1I-unsplash.jpg,1,0,NaN,0,37,4,objects,body_parts,959,0
78,51659,0,1,4,79,intact,1,1,L,L,1500,35,23,Stimuli/Experimental_stims/body_parts/wc-so-KH4AAPjb-tI-unsplash.jpg,Stimuli/Experimental_stims/faces/rikonavt-HQjfrvdTfak-unsplash.jpg,0,0,NaN,0,37,4,body_parts,faces,649,0
79,51659,0,1,4,80,recombined,0,1,,G,1400,6,32,Stimuli/Experimental_stims/outdoor_scenes/meng-ji-8BH_M-53CyA-unsplash.jpg,Stimuli/Experimental_stims/body_parts/towfiqu-barbhuiya-3AsiVDsZnHg-unsplash.jpg,1,0,NaN,0,37,4,outdoor_scenes,body_parts,1359,0
80,51659,0,1,4,81,recombined,0,1,,B,1300,3,12,Stimuli/Experimental_stims/outdoor_scenes/henry-be-NLF6hTe4PAg-unsplash.jpg,Stimuli/Experimental_stims/faces/aiony-haust-jmATI5Q_YgY-unsplash.jpg,1,0,NaN,0,37,4,outdoor_scenes,faces,1344,0
81,51659,0,1,4,82,intact,1,0,A,A,3500,2,42,Stimuli/Experimental_stims/outdoor_scenes/bruno-van-der-kraan-qez8mNJ3ilU-unsplash.jpg,Stimuli/Experimental_stims/objects/jess-bailey-nOeVi8DsN8U-unsplash.jpg,0,0,NaN,1,37,4,outdoor_scenes,objects,1336,0
82,51659,0,1,4,83,recombined,0,0,,A,1100,18,42,Stimuli/Experimental_stims/faces/jessica-radanavong-mrYkTuAesKE-unsplash.jpg,Stimuli/Experimental_stims/objects/jess-bailey-nOeVi8DsN8U-unsplash.jpg,NaN,0,NaN,0,37,4,faces,objects,,1
83,51659,0,1,4,84,intact,1,1,I,I,2800,28,5,Stimuli/Experimental_stims/body_parts/ira-vishnevskaya-8DQAvdCby1I-unsplash.jpg,Stimuli/Experimental_stims/outdoor_scenes/jeff-king-bJHWJeiHfHc-unsplash.jpg,1,1,NaN,0,37,4,body_parts,outdoor_scenes,1026,0
84,51659,0,1,4,85,intact,1,0,H,H,1400,21,4,Stimuli/Experimental_stims/faces/leilani-angel-K84vnnzxmTQ-unsplash.jpg,Stimuli/Experimental_stims/outdoor_scenes/jarrett-kow-1ZOyYPOBn7I-unsplash.jpg,1,1,NaN,0,37,4,faces,outdoor_scenes,1094,0
85,51659,0,1,4,86,recombined,0,1,,H,2000,4,27,Stimuli/Experimental_stims/outdoor_scenes/jarrett-kow-1ZOyYPOBn7I-unsplash.jpg,Stimuli/Experimental_stims/body_parts/heike-mintel-i_Gns0ELnLw-unsplash.jpg,1,0,NaN,0,37,4,outdoor_scenes,body_parts,1237,0
86,51659,0,1,4,87,intact,1,1,B,B,2200,3,18,Stimuli/Experimental_stims/outdoor_scenes/henry-be-NLF6hTe4PAg-unsplash.jpg,Stimuli/Experimental_stims/faces/jessica-radanavong-mrYkTuAesKE-unsplash.jpg,0,0,NaN,0,37,4,outdoor_scenes,faces,1105,0
87,51659,0,1,4,88,intact,1,1,C,C,3200,9,27,Stimuli/Experimental_stims/outdoor_scenes/sergey-pesterev-y-b_FOmJXdg-unsplash.jpg,Stimuli/Experimental_stims/body_parts/heike-mintel-i_Gns0ELnLw-unsplash.jpg,0,0,NaN,1,37,4,outdoor_scenes,body_parts,1173,0
88,51659,0,1,4,89,recombined,0,0,,K,2500,14,44,Stimuli/Experimental_stims/faces/david-siglin-UuW4psOb388-unsplash.jpg,Stimuli/Experimental_stims/objects/kuiye-chen-NuOGFo4PudE-unsplash.jpg,1,0,NaN,0,37,4,faces,objects,539,0
89,51659,0,1,4,90,intact,1,0,K,K,1400,32,44,Stimuli/Experimental_stims/body_parts/towfiqu-barbhuiya-3AsiVDsZnHg-unsplash.jpg,Stimuli/Experimental_stims/objects/kuiye-chen-NuOGFo4PudE-unsplash.jpg,1,1,NaN,0,37,4,body_parts,objects,113,0
90,51659,0,1,4,91,recombined,0,1,,E,1300,31,41,Stimuli/Experimental_stims/body_parts/sincerely-media-VN6DbKajo5s-unsplash.jpg,Stimuli/Experimental_stims/objects/insung-yoon-w2JtIQQXoRU-unsplash.jpg,1,0,NaN,0,37,4,body_parts,objects,707,0
91,51659,0,1,4,92,recombined,0,1,,D,1300,36,21,Stimuli/Experimental_stims/objects/alexander-andrews-JYGnB9gTCls-unsplash.jpg,Stimuli/Experimental_stims/faces/leilani-angel-K84vnnzxmTQ-unsplash.jpg,1,0,NaN,0,37,4,objects,faces,1106,0
92,51659,0,1,4,93,intact,1,0,J,J,4900,12,38,Stimuli/Experimental_stims/faces/aiony-haust-jmATI5Q_YgY-unsplash.jpg,Stimuli/Experimental_stims/objects/art-lasovsky-8XddFc6NkBY-unsplash.jpg,1,1,NaN,1,37,4,faces,objects,1415,0
93,51659,0,1,4,94,intact,1,1,D,D,1700,36,13,Stimuli/Experimental_stims/objects/alexander-andrews-JYGnB9gTCls-unsplash.jpg,Stimuli/Experimental_stims/faces/daniel-rigdon-dXmXKPP2L4E-unsplash.jpg,NaN,0,NaN,0,37,4,objects,faces,,1
94,51659,0,1,4,95,recombined,0,0,,L,1600,2,35,Stimuli/Experimental_stims/outdoor_scenes/bruno-van-der-kraan-qez8mNJ3ilU-unsplash.jpg,Stimuli/Experimental_stims/body_parts/wc-so-KH4AAPjb-tI-unsplash.jpg,0,1,NaN,0,37,4,outdoor_scenes,body_parts,1249,0
95,51659,0,1,4,96,recombined,0,0,,F,1700,5,24,Stimuli/Experimental_stims/outdoor_scenes/jeff-king-bJHWJeiHfHc-unsplash.jpg,Stimuli/Experimental_stims/body_parts/clay-banks-LjqARJaJotc-unsplash.jpg,1,0,NaN,0,37,4,outdoor_scenes,body_parts,978,0
96,51659,0,1,4,97,intact,1,0,F,F,1100,14,24,Stimuli/Experimental_stims/faces/david-siglin-UuW4psOb388-unsplash.jpg,Stimuli/Experimental_stims/body_parts/clay-banks-LjqARJaJotc-unsplash.jpg,1,1,NaN,0,37,4,faces,body_parts,1230,0
97,51659,0,1,4,98,recombined,0,1,,J,1000,38,23,Stimuli/Experimental_stims/objects/art-lasovsky-8XddFc6NkBY-unsplash.jpg,Stimuli/Experimental_stims/faces/rikonavt-HQjfrvdTfak-unsplash.jpg,1,0,NaN,0,37,4,objects,faces,1274,0
98,51659,0,1,4,99,recombined,0,0,,C,3000,13,9,Stimuli/Experimental_stims/faces/daniel-rigdon-dXmXKPP2L4E-unsplash.jpg,Stimuli/Experimental_stims/outdoor_scenes/sergey-pesterev-y-b_FOmJXdg-unsplash.jpg,0,1,NaN,1,37,4,faces,outdoor_scenes,1285,0