,PID,practice,run,block,trial,pair_type,old_pair,chosen_left,pair_id,chosen_id,iti,left_stimulus,right_stimulus,left_path,right_path,old_response,pair_acc,pair_rt,long_iti,simulation,version,left_category,right_category,no_response
0,37104,1,0,0,1,,0,0,,,1500,,,Stimuli/Practice_stims/Memory/annie-spratt-g9KFpAfQ5bc-unsplash.jpg,Stimuli/Practice_stims/Memory/charl-durand-bsfXvI25iNg-unsplash.jpg,1,0,745,0,2,1,NaN,NaN,0
1,37104,1,0,0,2,,0,0,,,1000,,,Stimuli/Practice_stims/Memory/charl-durand-bsfXvI25iNg-unsplash.jpg,Stimuli/Practice_stims/Memory/jimmy-dean-Yn0l7uwBrpw-unsplash.jpg,0,1,998,0,2,1,NaN,NaN,0
2,37104,1,0,0,3,,0,0,,,3000,,,Stimuli/Practice_stims/Memory/jimmy-dean-Yn0l7uwBrpw-unsplash.jpg,Stimuli/Practice_stims/Memory/annie-spratt-g9KFpAfQ5bc-unsplash.jpg,0,1,1054,0,2,1,NaN,NaN,0
3,37104,0,1,1,4,recombined,0,1,,A,3700,8,33,Stimuli/Experimental_stims/outdoor_scenes/samsommer-vddccTqwal8-unsplash.jpg,Stimuli/Experimental_stims/body_parts/tucker-good-36skLT5jZcc-unsplash.jpg,1,0,992,1,2,1,outdoor_scenes,body_parts,0
4,37104,0,1,1,5,recombined,0,0,,E,2400,47,28,Stimuli/Experimental_stims/objects/ronaldo-arthur-vidal-Cdz_lvnl37k-unsplash.jpg,Stimuli/Experimental_stims/body_parts/ira-vishnevskaya-8DQAvdCby1I-unsplash.jpg,1,0,1159,0,2,1,objects,body_parts,0
5,37104,0,1,1,6,intact,1,1,K,K,2600,27,40,Stimuli/Experimental_stims/body_parts/heike-mintel-i_Gns0ELnLw-unsplash.jpg,Stimuli/Experimental_stims/objects/fabian-blank-pElSkGRA2NU-unsplash.jpg,0,0,715,0,2,1,body_parts,objects,0
6,37104,0,1,1,7,intact,1,0,E,E,1300,38,28,Stimuli/Experimental_stims/objects/art-lasovsky-8XddFc6NkBY-unsplash.jpg,Stimuli/Experimental_stims/body_parts/ira-vishnevskaya-8DQAvdCby1I-unsplash.jpg,1,1,853,0,2,1,objects,body_parts,0
7,37104,0,1,1,8,recombined,0,0,,I,2200,35,0,Stimuli/Experimental_stims/body_parts/wc-so-KH4AAPjb-tI-unsplash.jpg,Stimuli/Experimental_stims/outdoor_scenes/aleksandra-boguslawska-MS7KD9Ti7FQ-unsplash.jpg,0,1,1041,0,2,1,body_parts,outdoor_scenes,0
8,37104,0,1,1,9,intact,1,0,L,L,3000,35,17,Stimuli/Experimental_stims/body_parts/wc-so-KH4AAPjb-tI-unsplash.jpg,Stimuli/Experimental_stims/faces/good-faces-xmSWVeGEnJw-unsplash.jpg,1,1,732,1,2,1,body_parts,faces,0
9,37104,0,1,1,10,intact,1,1,J,J,1100,23,47,Stimuli/Experimental_stims/faces/rikonavt-HQjfrvdTfak-unsplash.jpg,Stimuli/Experimental_stims/objects/ronaldo-arthur-vidal-Cdz_lvnl37k-unsplash.jpg,0,0,836,0,2,1,faces,objects,0
10,37104,0,1,1,11,recombined,0,0,,B,1500,30,2,Stimuli/Experimental_stims/body_parts/mika-korhonen-Xodzxosar18-unsplash.jpg,Stimuli/Experimental_stims/outdoor_scenes/bruno-van-der-kraan-qez8mNJ3ilU-unsplash.jpg,1,0,1003,0,2,1,body_parts,outdoor_scenes,0
11,37104,0,1,1,12,recombined,0,1,,F,1400,19,37,Stimuli/Experimental_stims/faces/joel-mott-LaK153ghdig-unsplash.jpg,Stimuli/Experimental_stims/objects/alexander-andrews-VLGWE_SumrA-unsplash.jpg,0,1,718,0,2,1,faces,objects,0
12,37104,0,1,1,13,intact,1,1,B,B,2200,2,13,Stimuli/Experimental_stims/outdoor_scenes/bruno-van-der-kraan-qez8mNJ3ilU-unsplash.jpg,Stimuli/Experimental_stims/faces/daniel-rigdon-dXmXKPP2L4E-unsplash.jpg,1,1,931,0,2,1,outdoor_scenes,faces,0
13,37104,0,1,1,14,recombined,0,1,,K,3200,27,45,Stimuli/Experimental_stims/body_parts/heike-mintel-i_Gns0ELnLw-unsplash.jpg,Stimuli/Experimental_stims/objects/leohoho-rngTKHXumy0-unsplash.jpg,0,1,795,1,2,1,body_parts,objects,0
14,37104,0,1,1,15,intact,1,0,I,I,1300,30,0,Stimuli/Experimental_stims/body_parts/mika-korhonen-Xodzxosar18-unsplash.jpg,Stimuli/Experimental_stims/outdoor_scenes/aleksandra-boguslawska-MS7KD9Ti7FQ-unsplash.jpg,1,1,687,0,2,1,body_parts,outdoor_scenes,0
15,37104,0,1,1,16,recombined,0,0,,H,2700,34,7,Stimuli/Experimental_stims/body_parts/wagner-santos-mBWMvIuVnso-unsplash.jpg,Stimuli/Experimental_stims/outdoor_scenes/petr-vysohlid-9fqwGqGLUxc-unsplash.jpg,1,0,795,0,2,1,body_parts,outdoor_scenes,0
16,37104,0,1,1,17,recombined,0,0,,G,1100,13,3,Stimuli/Experimental_stims/faces/daniel-rigdon-dXmXKPP2L4E-unsplash.jpg,Stimuli/Experimental_stims/outdoor_scenes/henry-be-NLF6hTe4PAg-unsplash.jpg,0,1,587,0,2,1,faces,outdoor_scenes,0
17,37104,0,1,1,18,intact,1,0,H,H,2700,14,7,Stimuli/Experimental_stims/faces/david-siglin-UuW4psOb388-unsplash.jpg,Stimuli/Experimental_stims/outdoor_scenes/petr-vysohlid-9fqwGqGLUxc-unsplash.jpg,1,1,676,0,2,1,faces,outdoor_scenes,0
18,37104,0,1,1,19,recombined,0,1,,J,2500,23,41,Stimuli/Experimental_stims/faces/rikonavt-HQjfrvdTfak-unsplash.jpg,Stimuli/Experimental_stims/objects/insung-yoon-w2JtIQQXoRU-unsplash.jpg,0,1,882,0,2,1,faces,objects,0
19,37104,0,1,1,20,recombined,0,1,,L,1700,17,38,Stimuli/Experimental_stims/faces/good-faces-xmSWVeGEnJw-unsplash.jpg,Stimuli/Experimental_stims/objects/art-lasovsky-8XddFc6NkBY-unsplash.jpg,0,1,831,0,2,1,faces,objects,0
20,37104,0,1,1,21,intact,1,1,A,A,2400,8,37,Stimuli/Experimental_stims/outdoor_scenes/samsommer-vddccTqwal8-unsplash.jpg,Stimuli/Experimental_stims/objects/alexander-andrews-VLGWE_SumrA-unsplash.jpg,0,0,1000,0,2,1,outdoor_scenes,objects,0
21,37104,0,1,1,22,intact,1,1,C,C,1300,10,33,Stimuli/Experimental_stims/outdoor_scenes/shannon-kunkle-dM8INmkyDas-unsplash.jpg,Stimuli/Experimental_stims/body_parts/tucker-good-36skLT5jZcc-unsplash.jpg,0,0,749,0,2,1,outdoor_scenes,body_parts,0
22,37104,0,1,1,23,recombined,0,1,,D,2400,18,40,Stimuli/Experimental_stims/faces/jessica-radanavong-mrYkTuAesKE-unsplash.jpg,Stimuli/Experimental_stims/objects/fabian-blank-pElSkGRA2NU-unsplash.jpg,1,0,578,0,2,1,faces,objects,0
23,37104,0,1,1,24,intact,1,1,F,F,1800,19,34,Stimuli/Experimental_stims/faces/joel-mott-LaK153ghdig-unsplash.jpg,Stimuli/Experimental_stims/body_parts/wagner-santos-mBWMvIuVnso-unsplash.jpg,1,1,591,0,2,1,faces,body_parts,0
24,37104,0,1,1,25,recombined,0,0,,C,1000,14,10,Stimuli/Experimental_stims/faces/david-siglin-UuW4psOb388-unsplash.jpg,Stimuli/Experimental_stims/outdoor_scenes/shannon-kunkle-dM8INmkyDas-unsplash.jpg,0,1,882,0,2,1,faces,outdoor_scenes,0
25,37104,0,1,1,26,intact,1,0,D,D,3200,45,18,Stimuli/Experimental_stims/objects/leohoho-rngTKHXumy0-unsplash.jpg,Stimuli/Experimental_stims/faces/jessica-radanavong-mrYkTuAesKE-unsplash.jpg,0,0,1252,1,2,1,objects,faces,0
26,37104,0,1,1,27,intact,1,0,G,G,1100,41,3,Stimuli/Experimental_stims/objects/insung-yoon-w2JtIQQXoRU-unsplash.jpg,Stimuli/Experimental_stims/outdoor_scenes/henry-be-NLF6hTe4PAg-unsplash.jpg,1,1,570,0,2,1,objects,outdoor_scenes,0
27,37104,0,1,2,28,recombined,0,0,,B,1400,30,2,Stimuli/Experimental_stims/body_parts/mika-korhonen-Xodzxosar18-unsplash.jpg,Stimuli/Experimental_stims/outdoor_scenes/bruno-van-der-kraan-qez8mNJ3ilU-unsplash.jpg,0,1,697,0,2,1,body_parts,outdoor_scenes,0
28,37104,0,1,2,29,intact,1,0,I,I,2100,30,0,Stimuli/Experimental_stims/body_parts/mika-korhonen-Xodzxosar18-unsplash.jpg,Stimuli/Experimental_stims/outdoor_scenes/aleksandra-boguslawska-MS7KD9Ti7FQ-unsplash.jpg,0,0,814,0,2,1,body_parts,outdoor_scenes,0
29,37104,0,1,2,30,intact,1,0,G,G,1800,41,3,Stimuli/Experimental_stims/objects/insung-yoon-w2JtIQQXoRU-unsplash.jpg,Stimuli/Experimental_stims/outdoor_scenes/henry-be-NLF6hTe4PAg-unsplash.jpg,1,1,717,0,2,1,objects,outdoor_scenes,0
30,37104,0,1,2,31,recombined,0,1,,G,1300,3,13,Stimuli/Experimental_stims/outdoor_scenes/henry-be-NLF6hTe4PAg-unsplash.jpg,Stimuli/Experimental_stims/faces/daniel-rigdon-dXmXKPP2L4E-unsplash.jpg,0,1,799,0,2,1,outdoor_scenes,faces,0
31,37104,0,1,2,32,recombined,0,0,,F,1200,37,19,Stimuli/Experimental_stims/objects/alexander-andrews-VLGWE_SumrA-unsplash.jpg,Stimuli/Experimental_stims/faces/joel-mott-LaK153ghdig-unsplash.jpg,0,1,967,0,2,1,objects,faces,0
32,37104,0,1,2,33,intact,1,1,F,F,1800,19,34,Stimuli/Experimental_stims/faces/joel-mott-LaK153ghdig-unsplash.jpg,Stimuli/Experimental_stims/body_parts/wagner-santos-mBWMvIuVnso-unsplash.jpg,1,1,947,0,2,1,faces,body_parts,0
33,37104,0,1,2,34,recombined,0,1,,K,2100,27,45,Stimuli/Experimental_stims/body_parts/heike-mintel-i_Gns0ELnLw-unsplash.jpg,Stimuli/Experimental_stims/objects/leohoho-rngTKHXumy0-unsplash.jpg,1,0,805,0,2,1,body_parts,objects,0
34,37104,0,1,2,35,recombined,0,1,,L,2800,17,38,Stimuli/Experimental_stims/faces/good-faces-xmSWVeGEnJw-unsplash.jpg,Stimuli/Experimental_stims/objects/art-lasovsky-8XddFc6NkBY-unsplash.jpg,0,1,836,0,2,1,faces,objects,0
35,37104,0,1,2,36,intact,1,1,K,K,2800,27,40,Stimuli/Experimental_stims/body_parts/heike-mintel-i_Gns0ELnLw-unsplash.jpg,Stimuli/Experimental_stims/objects/fabian-blank-pElSkGRA2NU-unsplash.jpg,1,1,857,0,2,1,body_parts,objects,0
36,37104,0,1,2,37,intact,1,0,D,D,1600,45,18,Stimuli/Experimental_stims/objects/leohoho-rngTKHXumy0-unsplash.jpg,Stimuli/Experimental_stims/faces/jessica-radanavong-mrYkTuAesKE-unsplash.jpg,1,1,888,0,2,1,objects,faces,0
37,37104,0,1,2,38,recombined,0,0,,H,2900,34,7,Stimuli/Experimental_stims/body_parts/wagner-santos-mBWMvIuVnso-unsplash.jpg,Stimuli/Experimental_stims/outdoor_scenes/petr-vysohlid-9fqwGqGLUxc-unsplash.jpg,1,0,995,1,2,1,body_parts,outdoor_scenes,0
38,37104,0,1,2,39,recombined,0,0,,C,2400,14,10,Stimuli/Experimental_stims/faces/david-siglin-UuW4psOb388-unsplash.jpg,Stimuli/Experimental_stims/outdoor_scenes/shannon-kunkle-dM8INmkyDas-unsplash.jpg,1,0,883,0,2,1,faces,outdoor_scenes,0
39,37104,0,1,2,40,intact,1,0,L,L,1500,35,17,Stimuli/Experimental_stims/body_parts/wc-so-KH4AAPjb-tI-unsplash.jpg,Stimuli/Experimental_stims/faces/good-faces-xmSWVeGEnJw-unsplash.jpg,0,0,783,0,2,1,body_parts,faces,0
40,37104,0,1,2,41,recombined,0,1,,D,2100,18,40,Stimuli/Experimental_stims/faces/jessica-radanavong-mrYkTuAesKE-unsplash.jpg,Stimuli/Experimental_stims/objects/fabian-blank-pElSkGRA2NU-unsplash.jpg,1,0,744,0,2,1,faces,objects,0
41,37104,0,1,2,42,intact,1,1,J,J,1000,23,47,Stimuli/Experimental_stims/faces/rikonavt-HQjfrvdTfak-unsplash.jpg,Stimuli/Experimental_stims/objects/ronaldo-arthur-vidal-Cdz_lvnl37k-unsplash.jpg,1,1,733,0,2,1,faces,objects,0
42,37104,0,1,2,43,intact,1,1,B,B,1100,2,13,Stimuli/Experimental_stims/outdoor_scenes/bruno-van-der-kraan-qez8mNJ3ilU-unsplash.jpg,Stimuli/Experimental_stims/faces/daniel-rigdon-dXmXKPP2L4E-unsplash.jpg,0,0,1103,0,2,1,outdoor_scenes,faces,0
43,37104,0,1,2,44,recombined,0,1,,J,2900,23,41,Stimuli/Experimental_stims/faces/rikonavt-HQjfrvdTfak-unsplash.jpg,Stimuli/Experimental_stims/objects/insung-yoon-w2JtIQQXoRU-unsplash.jpg,1,0,754,1,2,1,faces,objects,0
44,37104,0,1,2,45,intact,1,1,A,A,2200,8,37,Stimuli/Experimental_stims/outdoor_scenes/samsommer-vddccTqwal8-unsplash.jpg,Stimuli/Experimental_stims/objects/alexander-andrews-VLGWE_SumrA-unsplash.jpg,1,1,690,0,2,1,outdoor_scenes,objects,0
45,37104,0,1,2,46,intact,1,0,E,E,1100,38,28,Stimuli/Experimental_stims/objects/art-lasovsky-8XddFc6NkBY-unsplash.jpg,Stimuli/Experimental_stims/body_parts/ira-vishnevskaya-8DQAvdCby1I-unsplash.jpg,1,1,837,0,2,1,objects,body_parts,0
46,37104,0,1,2,47,recombined,0,1,,A,1700,8,33,Stimuli/Experimental_stims/outdoor_scenes/samsommer-vddccTqwal8-unsplash.jpg,Stimuli/Experimental_stims/body_parts/tucker-good-36skLT5jZcc-unsplash.jpg,1,0,809,0,2,1,outdoor_scenes,body_parts,0
47,37104,0,1,2,48,intact,1,1,C,C,1200,10,33,Stimuli/Experimental_stims/outdoor_scenes/shannon-kunkle-dM8INmkyDas-unsplash.jpg,Stimuli/Experimental_stims/body_parts/tucker-good-36skLT5jZcc-unsplash.jpg,1,1,911,0,2,1,outdoor_scenes,body_parts,0
48,37104,0,1,2,49,recombined,0,0,,I,1700,35,0,Stimuli/Experimental_stims/body_parts/wc-so-KH4AAPjb-tI-unsplash.jpg,Stimuli/Experimental_stims/outdoor_scenes/aleksandra-boguslawska-MS7KD9Ti7FQ-unsplash.jpg,0,1,1113,0,2,1,body_parts,outdoor_scenes,0
49,37104,0,1,2,50,recombined,0,0,,E,1000,47,28,Stimuli/Experimental_stims/objects/ronaldo-arthur-vidal-Cdz_lvnl37k-unsplash.jpg,Stimuli/Experimental_stims/body_parts/ira-vishnevskaya-8DQAvdCby1I-unsplash.jpg,NaN,0,,0,2,1,objects,body_parts,1
50,37104,0,1,2,51,intact,1,0,H,H,4500,14,7,Stimuli/Experimental_stims/faces/david-siglin-UuW4psOb388-unsplash.jpg,Stimuli/Experimental_stims/outdoor_scenes/petr-vysohlid-9fqwGqGLUxc-unsplash.jpg,1,1,609,1,2,1,faces,outdoor_scenes,0
51,37104,0,1,3,52,recombined,0,0,,F,1900,37,19,Stimuli/Experimental_stims/objects/alexander-andrews-VLGWE_SumrA-unsplash.jpg,Stimuli/Experimental_stims/faces/joel-mott-LaK153ghdig-unsplash.jpg,1,0,711,0,31,1,objects,faces,0
52,37104,0,1,3,53,recombined,0,1,,B,1800,2,30,Stimuli/Experimental_stims/outdoor_scenes/bruno-van-der-kraan-qez8mNJ3ilU-unsplash.jpg,Stimuli/Experimental_stims/body_parts/mika-korhonen-Xodzxosar18-unsplash.jpg,1,0,880,0,31,1,outdoor_scenes,body_parts,0
53,37104,0,1,3,54,intact,1,1,C,C,1300,10,33,Stimuli/Experimental_stims/outdoor_scenes/shannon-kunkle-dM8INmkyDas-unsplash.jpg,Stimuli/Experimental_stims/body_parts/tucker-good-36skLT5jZcc-unsplash.jpg,0,0,760,0,31,1,outdoor_scenes,body_parts,0
54,37104,0,1,3,55,intact,1,0,L,L,2500,35,17,Stimuli/Experimental_stims/body_parts/wc-so-KH4AAPjb-tI-unsplash.jpg,Stimuli/Experimental_stims/faces/good-faces-xmSWVeGEnJw-unsplash.jpg,0,0,1093,0,31,1,body_parts,faces,0
55,37104,0,1,3,56,recombined,0,1,,H,2900,7,34,Stimuli/Experimental_stims/outdoor_scenes/petr-vysohlid-9fqwGqGLUxc-unsplash.jpg,Stimuli/Experimental_stims/body_parts/wagner-santos-mBWMvIuVnso-unsplash.jpg,1,0,636,1,31,1,outdoor_scenes,body_parts,0
56,37104,0,1,3,57,intact,1,0,D,D,2200,45,18,Stimuli/Experimental_stims/objects/leohoho-rngTKHXumy0-unsplash.jpg,Stimuli/Experimental_stims/faces/jessica-radanavong-mrYkTuAesKE-unsplash.jpg,1,1,496,0,31,1,objects,faces,0
57,37104,0,1,3,58,recombined,0,1,,L,1300,17,38,Stimuli/Experimental_stims/faces/good-faces-xmSWVeGEnJw-unsplash.jpg,Stimuli/Experimental_stims/objects/art-lasovsky-8XddFc6NkBY-unsplash.jpg,0,1,626,0,31,1,faces,objects,0
58,37104,0,1,3,59,intact,1,0,H,H,2200,14,7,Stimuli/Experimental_stims/faces/david-siglin-UuW4psOb388-unsplash.jpg,Stimuli/Experimental_stims/outdoor_scenes/petr-vysohlid-9fqwGqGLUxc-unsplash.jpg,1,1,614,0,31,1,faces,outdoor_scenes,0
59,37104,0,1,3,60,recombined,0,1,,J,2500,23,41,Stimuli/Experimental_stims/faces/rikonavt-HQjfrvdTfak-unsplash.jpg,Stimuli/Experimental_stims/objects/insung-yoon-w2JtIQQXoRU-unsplash.jpg,0,1,518,0,31,1,faces,objects,0
60,37104,0,1,3,61,intact,1,0,G,G,4500,41,3,Stimuli/Experimental_stims/objects/insung-yoon-w2JtIQQXoRU-unsplash.jpg,Stimuli/Experimental_stims/outdoor_scenes/henry-be-NLF6hTe4PAg-unsplash.jpg,1,1,819,1,31,1,objects,outdoor_scenes,0
61,37104,0,1,3,62,recombined,0,0,,K,1900,45,27,Stimuli/Experimental_stims/objects/leohoho-rngTKHXumy0-unsplash.jpg,Stimuli/Experimental_stims/body_parts/heike-mintel-i_Gns0ELnLw-unsplash.jpg,0,1,934,0,31,1,objects,body_parts,0
62,37104,0,1,3,63,intact,1,1,F,F,2200,19,34,Stimuli/Experimental_stims/faces/joel-mott-LaK153ghdig-unsplash.jpg,Stimuli/Experimental_stims/body_parts/wagner-santos-mBWMvIuVnso-unsplash.jpg,1,1,996,0,31,1,faces,body_parts,0
63,37104,0,1,3,64,intact,1,1,A,A,1200,8,37,Stimuli/Experimental_stims/outdoor_scenes/samsommer-vddccTqwal8-unsplash.jpg,Stimuli/Experimental_stims/objects/alexander-andrews-VLGWE_SumrA-unsplash.jpg,1,1,1099,0,31,1,outdoor_scenes,objects,0
64,37104,0,1,3,65,recombined,0,0,,A,1500,33,8,Stimuli/Experimental_stims/body_parts/tucker-good-36skLT5jZcc-unsplash.jpg,Stimuli/Experimental_stims/outdoor_scenes/samsommer-vddccTqwal8-unsplash.jpg,0,1,982,0,31,1,body_parts,outdoor_scenes,0
65,37104,0,1,3,66,recombined,0,1,,I,1500,0,35,Stimuli/Experimental_stims/outdoor_scenes/aleksandra-boguslawska-MS7KD9Ti7FQ-unsplash.jpg,Stimuli/Experimental_stims/body_parts/wc-so-KH4AAPjb-tI-unsplash.jpg,0,1,812,0,31,1,outdoor_scenes,body_parts,0
66,37104,0,1,3,67,intact,1,0,E,E,4300,38,28,Stimuli/Experimental_stims/objects/art-lasovsky-8XddFc6NkBY-unsplash.jpg,Stimuli/Experimental_stims/body_parts/ira-vishnevskaya-8DQAvdCby1I-unsplash.jpg,1,1,867,1,31,1,objects,body_parts,0
67,37104,0,1,3,68,intact,1,1,J,J,1000,23,47,Stimuli/Experimental_stims/faces/rikonavt-HQjfrvdTfak-unsplash.jpg,Stimuli/Experimental_stims/objects/ronaldo-arthur-vidal-Cdz_lvnl37k-unsplash.jpg,1,1,866,0,31,1,faces,objects,0
68,37104,0,1,3,69,recombined,0,0,,E,2300,47,28,Stimuli/Experimental_stims/objects/ronaldo-arthur-vidal-Cdz_lvnl37k-unsplash.jpg,Stimuli/Experimental_stims/body_parts/ira-vishnevskaya-8DQAvdCby1I-unsplash.jpg,1,0,909,0,31,1,objects,body_parts,0
69,37104,0,1,3,70,intact,1,1,B,B,1500,2,13,Stimuli/Experimental_stims/outdoor_scenes/bruno-van-der-kraan-qez8mNJ3ilU-unsplash.jpg,Stimuli/Experimental_stims/faces/daniel-rigdon-dXmXKPP2L4E-unsplash.jpg,0,0,824,0,31,1,outdoor_scenes,faces,0
70,37104,0,1,3,71,recombined,0,1,,D,1700,18,40,Stimuli/Experimental_stims/faces/jessica-radanavong-mrYkTuAesKE-unsplash.jpg,Stimuli/Experimental_stims/objects/fabian-blank-pElSkGRA2NU-unsplash.jpg,1,0,798,0,31,1,faces,objects,0
71,37104,0,1,3,72,recombined,0,0,,G,4800,13,3,Stimuli/Experimental_stims/faces/daniel-rigdon-dXmXKPP2L4E-unsplash.jpg,Stimuli/Experimental_stims/outdoor_scenes/henry-be-NLF6hTe4PAg-unsplash.jpg,1,0,789,1,31,1,faces,outdoor_scenes,0
72,37104,0,1,3,73,intact,1,0,I,I,2100,30,0,Stimuli/Experimental_stims/body_parts/mika-korhonen-Xodzxosar18-unsplash.jpg,Stimuli/Experimental_stims/outdoor_scenes/aleksandra-boguslawska-MS7KD9Ti7FQ-unsplash.jpg,1,1,918,0,31,1,body_parts,outdoor_scenes,0
73,37104,0,1,3,74,recombined,0,0,,C,1800,14,10,Stimuli/Experimental_stims/faces/david-siglin-UuW4psOb388-unsplash.jpg,Stimuli/Experimental_stims/outdoor_scenes/shannon-kunkle-dM8INmkyDas-unsplash.jpg,0,1,625,0,31,1,faces,outdoor_scenes,0
74,37104,0,1,3,75,intact,1,1,K,K,2300,27,40,Stimuli/Experimental_stims/body_parts/heike-mintel-i_Gns0ELnLw-unsplash.jpg,Stimuli/Experimental_stims/objects/fabian-blank-pElSkGRA2NU-unsplash.jpg,1,1,907,0,31,1,body_parts,objects,0
75,37104,0,1,4,76,recombined,0,0,,I,1900,35,0,Stimuli/Experimental_stims/body_parts/wc-so-KH4AAPjb-tI-unsplash.jpg,Stimuli/Experimental_stims/outdoor_scenes/aleksandra-boguslawska-MS7KD9Ti7FQ-unsplash.jpg,0,1,842,0,31,1,body_parts,outdoor_scenes,0
76,37104,0,1,4,77,recombined,0,0,,F,1400,37,19,Stimuli/Experimental_stims/objects/alexander-andrews-VLGWE_SumrA-unsplash.jpg,Stimuli/Experimental_stims/faces/joel-mott-LaK153ghdig-unsplash.jpg,1,0,1097,0,31,1,objects,faces,0
77,37104,0,1,4,78,intact,1,0,E,E,2500,38,28,Stimuli/Experimental_stims/objects/art-lasovsky-8XddFc6NkBY-unsplash.jpg,Stimuli/Experimental_stims/body_parts/ira-vishnevskaya-8DQAvdCby1I-unsplash.jpg,1,1,762,0,31,1,objects,body_parts,0
78,37104,0,1,4,79,intact,1,0,G,G,1300,41,3,Stimuli/Experimental_stims/objects/insung-yoon-w2JtIQQXoRU-unsplash.jpg,Stimuli/Experimental_stims/outdoor_scenes/henry-be-NLF6hTe4PAg-unsplash.jpg,0,0,904,0,31,1,objects,outdoor_scenes,0
79,37104,0,1,4,80,recombined,0,1,,J,1100,23,41,Stimuli/Experimental_stims/faces/rikonavt-HQjfrvdTfak-unsplash.jpg,Stimuli/Experimental_stims/objects/insung-yoon-w2JtIQQXoRU-unsplash.jpg,1,0,693,0,31,1,faces,objects,0
80,37104,0,1,4,81,intact,1,1,B,B,1100,2,13,Stimuli/Experimental_stims/outdoor_scenes/bruno-van-der-kraan-qez8mNJ3ilU-unsplash.jpg,Stimuli/Experimental_stims/faces/daniel-rigdon-dXmXKPP2L4E-unsplash.jpg,0,0,707,0,31,1,outdoor_scenes,faces,0
81,37104,0,1,4,82,recombined,0,0,,K,2200,45,27,Stimuli/Experimental_stims/objects/leohoho-rngTKHXumy0-unsplash.jpg,Stimuli/Experimental_stims/body_parts/heike-mintel-i_Gns0ELnLw-unsplash.jpg,1,0,815,0,31,1,objects,body_parts,0
82,37104,0,1,4,83,intact,1,1,C,C,1300,10,33,Stimuli/Experimental_stims/outdoor_scenes/shannon-kunkle-dM8INmkyDas-unsplash.jpg,Stimuli/Experimental_stims/body_parts/tucker-good-36skLT5jZcc-unsplash.jpg,0,0,575,0,31,1,outdoor_scenes,body_parts,0
83,37104,0,1,4,84,recombined,0,0,,L,2300,38,17,Stimuli/Experimental_stims/objects/art-lasovsky-8XddFc6NkBY-unsplash.jpg,Stimuli/Experimental_stims/faces/good-faces-xmSWVeGEnJw-unsplash.jpg,1,0,845,0,31,1,objects,faces,0
84,37104,0,1,4,85,intact,1,1,F,F,1700,19,34,Stimuli/Experimental_stims/faces/joel-mott-LaK153ghdig-unsplash.jpg,Stimuli/Experimental_stims/body_parts/wagner-santos-mBWMvIuVnso-unsplash.jpg,1,1,722,0,31,1,faces,body_parts,0
85,37104,0,1,4,86,recombined,0,0,,C,2800,14,10,Stimuli/Experimental_stims/faces/david-siglin-UuW4psOb388-unsplash.jpg,Stimuli/Experimental_stims/outdoor_scenes/shannon-kunkle-dM8INmkyDas-unsplash.jpg,0,1,775,1,31,1,faces,outdoor_scenes,0
86,37104,0,1,4,87,intact,1,0,D,D,2200,45,18,Stimuli/Experimental_stims/objects/leohoho-rngTKHXumy0-unsplash.jpg,Stimuli/Experimental_stims/faces/jessica-radanavong-mrYkTuAesKE-unsplash.jpg,1,1,788,0,31,1,objects,faces,0
87,37104,0,1,4,88,recombined,0,1,,B,1200,2,30,Stimuli/Experimental_stims/outdoor_scenes/bruno-van-der-kraan-qez8mNJ3ilU-unsplash.jpg,Stimuli/Experimental_stims/body_parts/mika-korhonen-Xodzxosar18-unsplash.jpg,0,1,788,0,31,1,outdoor_scenes,body_parts,0
88,37104,0,1,4,89,intact,1,1,K,K,1200,27,40,Stimuli/Experimental_stims/body_parts/heike-mintel-i_Gns0ELnLw-unsplash.jpg,Stimuli/Experimental_stims/objects/fabian-blank-pElSkGRA2NU-unsplash.jpg,1,1,692,0,31,1,body_parts,objects,0
89,37104,0,1,4,90,intact,1,1,A,A,2200,8,37,Stimuli/Experimental_stims/outdoor_scenes/samsommer-vddccTqwal8-unsplash.jpg,Stimuli/Experimental_stims/objects/alexander-andrews-VLGWE_SumrA-unsplash.jpg,0,0,727,0,31,1,outdoor_scenes,objects,0
90,37104,0,1,4,91,recombined,0,1,,H,1900,7,34,Stimuli/Experimental_stims/outdoor_scenes/petr-vysohlid-9fqwGqGLUxc-unsplash.jpg,Stimuli/Experimental_stims/body_parts/wagner-santos-mBWMvIuVnso-unsplash.jpg,0,1,921,0,31,1,outdoor_scenes,body_parts,0
91,37104,0,1,4,92,recombined,0,1,,E,2900,28,47,Stimuli/Experimental_stims/body_parts/ira-vishnevskaya-8DQAvdCby1I-unsplash.jpg,Stimuli/Experimental_stims/objects/ronaldo-arthur-vidal-Cdz_lvnl37k-unsplash.jpg,1,0,1159,1,31,1,body_parts,objects,0
92,37104,0,1,4,93,intact,1,0,H,H,1200,14,7,Stimuli/Experimental_stims/faces/david-siglin-UuW4psOb388-unsplash.jpg,Stimuli/Experimental_stims/outdoor_scenes/petr-vysohlid-9fqwGqGLUxc-unsplash.jpg,0,0,695,0,31,1,faces,outdoor_scenes,0
93,37104,0,1,4,94,intact,1,1,J,J,1600,23,47,Stimuli/Experimental_stims/faces/rikonavt-HQjfrvdTfak-unsplash.jpg,Stimuli/Experimental_stims/objects/ronaldo-arthur-vidal-Cdz_lvnl37k-unsplash.jpg,NaN,0,,0,31,1,faces,objects,1
94,37104,0,1,4,95,recombined,0,0,,A,1600,33,8,Stimuli/Experimental_stims/body_parts/tucker-good-36skLT5jZcc-unsplash.jpg,Stimuli/Experimental_stims/outdoor_scenes/samsommer-vddccTqwal8-unsplash.jpg,0,1,602,0,31,1,body_parts,outdoor_scenes,0
95,37104,0,1,4,96,recombined,0,1,,G,1100,3,13,Stimuli/Experimental_stims/outdoor_scenes/henry-be-NLF6hTe4PAg-unsplash.jpg,Stimuli/Experimental_stims/faces/daniel-rigdon-dXmXKPP2L4E-unsplash.jpg,1,0,812,0,31,1,outdoor_scenes,faces,0
96,37104,0,1,4,97,intact,1,0,L,L,1200,35,17,Stimuli/Experimental_stims/body_parts/wc-so-KH4AAPjb-tI-unsplash.jpg,Stimuli/Experimental_stims/faces/good-faces-xmSWVeGEnJw-unsplash.jpg,0,0,948,0,31,1,body_parts,faces,0
97,37104,0,1,4,98,recombined,0,1,,D,1500,18,40,Stimuli/Experimental_stims/faces/jessica-radanavong-mrYkTuAesKE-unsplash.jpg,Stimuli/Experimental_stims/objects/fabian-blank-pElSkGRA2NU-unsplash.jpg,1,0,622,0,31,1,faces,objects,0
98,37104,0,1,4,99,intact,1,0,I,I,3400,30,0,Stimuli/Experimental_stims/body_parts/mika-korhonen-Xodzxosar18-unsplash.jpg,Stimuli/Experimental_stims/outdoor_scenes/aleksandra-boguslawska-MS7KD9Ti7FQ-unsplash.jpg,1,1,1015,1,31,1,body_parts,outdoor_scenes,0