,PID,practice,run,block,trial,pair_type,old_pair,chosen_left,pair_id,chosen_id,iti,left_stimulus,right_stimulus,left_path,right_path,old_response,pair_acc,pair_rt,long_iti,simulation,version,left_category,right_category,no_response
0,85508,1,0,0,1,,0,0,,,1500,,,Stimuli/Practice_stims/Memory/annie-spratt-g9KFpAfQ5bc-unsplash.jpg,Stimuli/Practice_stims/Memory/charl-durand-bsfXvI25iNg-unsplash.jpg,1,0,1318,0,2,1,NaN,NaN,0
1,85508,1,0,0,2,,0,0,,,1000,,,Stimuli/Practice_stims/Memory/charl-durand-bsfXvI25iNg-unsplash.jpg,Stimuli/Practice_stims/Memory/jimmy-dean-Yn0l7uwBrpw-unsplash.jpg,0,1,835,0,2,1,NaN,NaN,0
2,85508,1,0,0,3,,0,0,,,3000,,,Stimuli/Practice_stims/Memory/jimmy-dean-Yn0l7uwBrpw-unsplash.jpg,Stimuli/Practice_stims/Memory/annie-spratt-g9KFpAfQ5bc-unsplash.jpg,1,0,717,0,2,1,NaN,NaN,0
3,85508,0,1,1,4,recombined,0,1,,A,3700,3,34,Stimuli/Experimental_stims/outdoor_scenes/henry-be-NLF6hTe4PAg-unsplash.jpg,Stimuli/Experimental_stims/body_parts/wagner-santos-mBWMvIuVnso-unsplash.jpg,0,1,1073,1,2,1,outdoor_scenes,body_parts,0
4,85508,0,1,1,5,recombined,0,0,,E,2400,22,42,Stimuli/Experimental_stims/faces/ravi-patel-VMGAbeeJTKo-unsplash.jpg,Stimuli/Experimental_stims/objects/jess-bailey-nOeVi8DsN8U-unsplash.jpg,1,0,1002,0,2,1,faces,objects,0
5,85508,0,1,1,6,intact,1,0,K,K,2600,33,45,Stimuli/Experimental_stims/body_parts/tucker-good-36skLT5jZcc-unsplash.jpg,Stimuli/Experimental_stims/objects/leohoho-rngTKHXumy0-unsplash.jpg,1,1,956,0,2,1,body_parts,objects,0
6,85508,0,1,1,7,intact,1,1,E,E,1300,42,34,Stimuli/Experimental_stims/objects/jess-bailey-nOeVi8DsN8U-unsplash.jpg,Stimuli/Experimental_stims/body_parts/wagner-santos-mBWMvIuVnso-unsplash.jpg,0,0,571,0,2,1,objects,body_parts,0
7,85508,0,1,1,8,recombined,0,0,,I,2200,4,28,Stimuli/Experimental_stims/outdoor_scenes/jarrett-kow-1ZOyYPOBn7I-unsplash.jpg,Stimuli/Experimental_stims/body_parts/ira-vishnevskaya-8DQAvdCby1I-unsplash.jpg,0,1,582,0,2,1,outdoor_scenes,body_parts,0
8,85508,0,1,1,9,intact,1,1,L,L,3000,29,12,Stimuli/Experimental_stims/body_parts/manuel-schinner-ZwjFuJ7ebpk-unsplash.jpg,Stimuli/Experimental_stims/faces/aiony-haust-jmATI5Q_YgY-unsplash.jpg,0,0,554,1,2,1,body_parts,faces,0
9,85508,0,1,1,10,intact,1,1,J,J,1100,19,44,Stimuli/Experimental_stims/faces/joel-mott-LaK153ghdig-unsplash.jpg,Stimuli/Experimental_stims/objects/kuiye-chen-NuOGFo4PudE-unsplash.jpg,1,1,824,0,2,1,faces,objects,0
10,85508,0,1,1,11,recombined,0,0,,B,1500,44,14,Stimuli/Experimental_stims/objects/kuiye-chen-NuOGFo4PudE-unsplash.jpg,Stimuli/Experimental_stims/faces/david-siglin-UuW4psOb388-unsplash.jpg,1,0,801,0,2,1,objects,faces,0
11,85508,0,1,1,12,recombined,0,1,,F,1400,26,11,Stimuli/Experimental_stims/body_parts/engin-akyurt-x_3gyC42btc-unsplash.jpg,Stimuli/Experimental_stims/outdoor_scenes/stephen-leonardi-gyIRjKPXupE-unsplash.jpg,0,1,585,0,2,1,body_parts,outdoor_scenes,0
12,85508,0,1,1,13,intact,1,0,B,B,2200,1,14,Stimuli/Experimental_stims/outdoor_scenes/ashim-d-silva-S2Q5mdOrrVc-unsplash.jpg,Stimuli/Experimental_stims/faces/david-siglin-UuW4psOb388-unsplash.jpg,1,1,760,0,2,1,outdoor_scenes,faces,0
13,85508,0,1,1,14,recombined,0,1,,K,3200,45,18,Stimuli/Experimental_stims/objects/leohoho-rngTKHXumy0-unsplash.jpg,Stimuli/Experimental_stims/faces/jessica-radanavong-mrYkTuAesKE-unsplash.jpg,1,0,508,1,2,1,objects,faces,0
14,85508,0,1,1,15,intact,1,1,I,I,1300,28,11,Stimuli/Experimental_stims/body_parts/ira-vishnevskaya-8DQAvdCby1I-unsplash.jpg,Stimuli/Experimental_stims/outdoor_scenes/stephen-leonardi-gyIRjKPXupE-unsplash.jpg,NaN,0,,0,2,1,body_parts,outdoor_scenes,1
15,85508,0,1,1,16,recombined,0,0,,H,2700,47,16,Stimuli/Experimental_stims/objects/ronaldo-arthur-vidal-Cdz_lvnl37k-unsplash.jpg,Stimuli/Experimental_stims/faces/freddy-kearney-o-ioeoATbIM-unsplash.jpg,1,0,1432,0,2,1,objects,faces,0
16,85508,0,1,1,17,recombined,0,0,,G,1100,33,2,Stimuli/Experimental_stims/body_parts/tucker-good-36skLT5jZcc-unsplash.jpg,Stimuli/Experimental_stims/outdoor_scenes/bruno-van-der-kraan-qez8mNJ3ilU-unsplash.jpg,1,0,805,0,2,1,body_parts,outdoor_scenes,0
17,85508,0,1,1,18,intact,1,1,H,H,2700,16,7,Stimuli/Experimental_stims/faces/freddy-kearney-o-ioeoATbIM-unsplash.jpg,Stimuli/Experimental_stims/outdoor_scenes/petr-vysohlid-9fqwGqGLUxc-unsplash.jpg,0,0,828,0,2,1,faces,outdoor_scenes,0
18,85508,0,1,1,19,recombined,0,1,,J,2500,19,46,Stimuli/Experimental_stims/faces/joel-mott-LaK153ghdig-unsplash.jpg,Stimuli/Experimental_stims/objects/mockup-graphics-PNsj6RiHAF4-unsplash.jpg,0,1,1059,0,2,1,faces,objects,0
19,85508,0,1,1,20,recombined,0,1,,L,1700,29,7,Stimuli/Experimental_stims/body_parts/manuel-schinner-ZwjFuJ7ebpk-unsplash.jpg,Stimuli/Experimental_stims/outdoor_scenes/petr-vysohlid-9fqwGqGLUxc-unsplash.jpg,1,0,587,0,2,1,body_parts,outdoor_scenes,0
20,85508,0,1,1,21,intact,1,1,A,A,2400,3,47,Stimuli/Experimental_stims/outdoor_scenes/henry-be-NLF6hTe4PAg-unsplash.jpg,Stimuli/Experimental_stims/objects/ronaldo-arthur-vidal-Cdz_lvnl37k-unsplash.jpg,1,1,701,0,2,1,outdoor_scenes,objects,0
21,85508,0,1,1,22,intact,1,0,C,C,1300,4,30,Stimuli/Experimental_stims/outdoor_scenes/jarrett-kow-1ZOyYPOBn7I-unsplash.jpg,Stimuli/Experimental_stims/body_parts/mika-korhonen-Xodzxosar18-unsplash.jpg,1,1,793,0,2,1,outdoor_scenes,body_parts,0
22,85508,0,1,1,23,recombined,0,1,,D,2400,38,12,Stimuli/Experimental_stims/objects/art-lasovsky-8XddFc6NkBY-unsplash.jpg,Stimuli/Experimental_stims/faces/aiony-haust-jmATI5Q_YgY-unsplash.jpg,0,1,579,0,2,1,objects,faces,0
23,85508,0,1,1,24,intact,1,0,F,F,1800,22,26,Stimuli/Experimental_stims/faces/ravi-patel-VMGAbeeJTKo-unsplash.jpg,Stimuli/Experimental_stims/body_parts/engin-akyurt-x_3gyC42btc-unsplash.jpg,0,0,269,0,2,1,faces,body_parts,0
24,85508,0,1,1,25,recombined,0,0,,C,1000,1,30,Stimuli/Experimental_stims/outdoor_scenes/ashim-d-silva-S2Q5mdOrrVc-unsplash.jpg,Stimuli/Experimental_stims/body_parts/mika-korhonen-Xodzxosar18-unsplash.jpg,0,1,661,0,2,1,outdoor_scenes,body_parts,0
25,85508,0,1,1,26,intact,1,1,D,D,3200,38,18,Stimuli/Experimental_stims/objects/art-lasovsky-8XddFc6NkBY-unsplash.jpg,Stimuli/Experimental_stims/faces/jessica-radanavong-mrYkTuAesKE-unsplash.jpg,0,0,397,1,2,1,objects,faces,0
26,85508,0,1,1,27,intact,1,0,G,G,1100,46,2,Stimuli/Experimental_stims/objects/mockup-graphics-PNsj6RiHAF4-unsplash.jpg,Stimuli/Experimental_stims/outdoor_scenes/bruno-van-der-kraan-qez8mNJ3ilU-unsplash.jpg,1,1,655,0,2,1,objects,outdoor_scenes,0
27,85508,0,1,2,28,recombined,0,0,,B,1400,44,14,Stimuli/Experimental_stims/objects/kuiye-chen-NuOGFo4PudE-unsplash.jpg,Stimuli/Experimental_stims/faces/david-siglin-UuW4psOb388-unsplash.jpg,1,0,648,0,2,1,objects,faces,0
28,85508,0,1,2,29,intact,1,1,I,I,2100,28,11,Stimuli/Experimental_stims/body_parts/ira-vishnevskaya-8DQAvdCby1I-unsplash.jpg,Stimuli/Experimental_stims/outdoor_scenes/stephen-leonardi-gyIRjKPXupE-unsplash.jpg,0,0,546,0,2,1,body_parts,outdoor_scenes,0
29,85508,0,1,2,30,intact,1,0,G,G,1800,46,2,Stimuli/Experimental_stims/objects/mockup-graphics-PNsj6RiHAF4-unsplash.jpg,Stimuli/Experimental_stims/outdoor_scenes/bruno-van-der-kraan-qez8mNJ3ilU-unsplash.jpg,1,1,937,0,2,1,objects,outdoor_scenes,0
30,85508,0,1,2,31,recombined,0,1,,G,1300,2,33,Stimuli/Experimental_stims/outdoor_scenes/bruno-van-der-kraan-qez8mNJ3ilU-unsplash.jpg,Stimuli/Experimental_stims/body_parts/tucker-good-36skLT5jZcc-unsplash.jpg,0,1,613,0,2,1,outdoor_scenes,body_parts,0
31,85508,0,1,2,32,recombined,0,0,,F,1200,11,26,Stimuli/Experimental_stims/outdoor_scenes/stephen-leonardi-gyIRjKPXupE-unsplash.jpg,Stimuli/Experimental_stims/body_parts/engin-akyurt-x_3gyC42btc-unsplash.jpg,0,1,695,0,2,1,outdoor_scenes,body_parts,0
32,85508,0,1,2,33,intact,1,0,F,F,1800,22,26,Stimuli/Experimental_stims/faces/ravi-patel-VMGAbeeJTKo-unsplash.jpg,Stimuli/Experimental_stims/body_parts/engin-akyurt-x_3gyC42btc-unsplash.jpg,1,1,609,0,2,1,faces,body_parts,0
33,85508,0,1,2,34,recombined,0,1,,K,2100,45,18,Stimuli/Experimental_stims/objects/leohoho-rngTKHXumy0-unsplash.jpg,Stimuli/Experimental_stims/faces/jessica-radanavong-mrYkTuAesKE-unsplash.jpg,1,0,717,0,2,1,objects,faces,0
34,85508,0,1,2,35,recombined,0,1,,L,2800,29,7,Stimuli/Experimental_stims/body_parts/manuel-schinner-ZwjFuJ7ebpk-unsplash.jpg,Stimuli/Experimental_stims/outdoor_scenes/petr-vysohlid-9fqwGqGLUxc-unsplash.jpg,0,1,107,0,2,1,body_parts,outdoor_scenes,0
35,85508,0,1,2,36,intact,1,0,K,K,2800,33,45,Stimuli/Experimental_stims/body_parts/tucker-good-36skLT5jZcc-unsplash.jpg,Stimuli/Experimental_stims/objects/leohoho-rngTKHXumy0-unsplash.jpg,1,1,627,0,2,1,body_parts,objects,0
36,85508,0,1,2,37,intact,1,1,D,D,1600,38,18,Stimuli/Experimental_stims/objects/art-lasovsky-8XddFc6NkBY-unsplash.jpg,Stimuli/Experimental_stims/faces/jessica-radanavong-mrYkTuAesKE-unsplash.jpg,0,0,742,0,2,1,objects,faces,0
37,85508,0,1,2,38,recombined,0,0,,H,2900,47,16,Stimuli/Experimental_stims/objects/ronaldo-arthur-vidal-Cdz_lvnl37k-unsplash.jpg,Stimuli/Experimental_stims/faces/freddy-kearney-o-ioeoATbIM-unsplash.jpg,1,0,698,1,2,1,objects,faces,0
38,85508,0,1,2,39,recombined,0,0,,C,2400,1,30,Stimuli/Experimental_stims/outdoor_scenes/ashim-d-silva-S2Q5mdOrrVc-unsplash.jpg,Stimuli/Experimental_stims/body_parts/mika-korhonen-Xodzxosar18-unsplash.jpg,0,1,1460,0,2,1,outdoor_scenes,body_parts,0
39,85508,0,1,2,40,intact,1,1,L,L,1500,29,12,Stimuli/Experimental_stims/body_parts/manuel-schinner-ZwjFuJ7ebpk-unsplash.jpg,Stimuli/Experimental_stims/faces/aiony-haust-jmATI5Q_YgY-unsplash.jpg,1,1,781,0,2,1,body_parts,faces,0
40,85508,0,1,2,41,recombined,0,1,,D,2100,38,12,Stimuli/Experimental_stims/objects/art-lasovsky-8XddFc6NkBY-unsplash.jpg,Stimuli/Experimental_stims/faces/aiony-haust-jmATI5Q_YgY-unsplash.jpg,1,0,600,0,2,1,objects,faces,0
41,85508,0,1,2,42,intact,1,1,J,J,1000,19,44,Stimuli/Experimental_stims/faces/joel-mott-LaK153ghdig-unsplash.jpg,Stimuli/Experimental_stims/objects/kuiye-chen-NuOGFo4PudE-unsplash.jpg,0,0,522,0,2,1,faces,objects,0
42,85508,0,1,2,43,intact,1,0,B,B,1100,1,14,Stimuli/Experimental_stims/outdoor_scenes/ashim-d-silva-S2Q5mdOrrVc-unsplash.jpg,Stimuli/Experimental_stims/faces/david-siglin-UuW4psOb388-unsplash.jpg,1,1,666,0,2,1,outdoor_scenes,faces,0
43,85508,0,1,2,44,recombined,0,1,,J,2900,19,46,Stimuli/Experimental_stims/faces/joel-mott-LaK153ghdig-unsplash.jpg,Stimuli/Experimental_stims/objects/mockup-graphics-PNsj6RiHAF4-unsplash.jpg,0,1,148,1,2,1,faces,objects,0
44,85508,0,1,2,45,intact,1,1,A,A,2200,3,47,Stimuli/Experimental_stims/outdoor_scenes/henry-be-NLF6hTe4PAg-unsplash.jpg,Stimuli/Experimental_stims/objects/ronaldo-arthur-vidal-Cdz_lvnl37k-unsplash.jpg,1,1,1013,0,2,1,outdoor_scenes,objects,0
45,85508,0,1,2,46,intact,1,1,E,E,1100,42,34,Stimuli/Experimental_stims/objects/jess-bailey-nOeVi8DsN8U-unsplash.jpg,Stimuli/Experimental_stims/body_parts/wagner-santos-mBWMvIuVnso-unsplash.jpg,0,0,753,0,2,1,objects,body_parts,0
46,85508,0,1,2,47,recombined,0,1,,A,1700,3,34,Stimuli/Experimental_stims/outdoor_scenes/henry-be-NLF6hTe4PAg-unsplash.jpg,Stimuli/Experimental_stims/body_parts/wagner-santos-mBWMvIuVnso-unsplash.jpg,0,1,731,0,2,1,outdoor_scenes,body_parts,0
47,85508,0,1,2,48,intact,1,0,C,C,1200,4,30,Stimuli/Experimental_stims/outdoor_scenes/jarrett-kow-1ZOyYPOBn7I-unsplash.jpg,Stimuli/Experimental_stims/body_parts/mika-korhonen-Xodzxosar18-unsplash.jpg,NaN,0,,0,2,1,outdoor_scenes,body_parts,1
48,85508,0,1,2,49,recombined,0,0,,I,1700,4,28,Stimuli/Experimental_stims/outdoor_scenes/jarrett-kow-1ZOyYPOBn7I-unsplash.jpg,Stimuli/Experimental_stims/body_parts/ira-vishnevskaya-8DQAvdCby1I-unsplash.jpg,0,1,1329,0,2,1,outdoor_scenes,body_parts,0
49,85508,0,1,2,50,recombined,0,0,,E,1000,22,42,Stimuli/Experimental_stims/faces/ravi-patel-VMGAbeeJTKo-unsplash.jpg,Stimuli/Experimental_stims/objects/jess-bailey-nOeVi8DsN8U-unsplash.jpg,NaN,0,,0,2,1,faces,objects,1
50,85508,0,1,2,51,intact,1,1,H,H,4500,16,7,Stimuli/Experimental_stims/faces/freddy-kearney-o-ioeoATbIM-unsplash.jpg,Stimuli/Experimental_stims/outdoor_scenes/petr-vysohlid-9fqwGqGLUxc-unsplash.jpg,0,0,1149,1,2,1,faces,outdoor_scenes,0
51,85508,0,1,3,52,recombined,0,0,,F,1900,11,26,Stimuli/Experimental_stims/outdoor_scenes/stephen-leonardi-gyIRjKPXupE-unsplash.jpg,Stimuli/Experimental_stims/body_parts/engin-akyurt-x_3gyC42btc-unsplash.jpg,NaN,0,,0,31,1,outdoor_scenes,body_parts,1
52,85508,0,1,3,53,recombined,0,1,,B,1800,14,44,Stimuli/Experimental_stims/faces/david-siglin-UuW4psOb388-unsplash.jpg,Stimuli/Experimental_stims/objects/kuiye-chen-NuOGFo4PudE-unsplash.jpg,0,1,575,0,31,1,faces,objects,0
53,85508,0,1,3,54,intact,1,0,C,C,1300,4,30,Stimuli/Experimental_stims/outdoor_scenes/jarrett-kow-1ZOyYPOBn7I-unsplash.jpg,Stimuli/Experimental_stims/body_parts/mika-korhonen-Xodzxosar18-unsplash.jpg,1,1,855,0,31,1,outdoor_scenes,body_parts,0
54,85508,0,1,3,55,intact,1,1,L,L,2500,29,12,Stimuli/Experimental_stims/body_parts/manuel-schinner-ZwjFuJ7ebpk-unsplash.jpg,Stimuli/Experimental_stims/faces/aiony-haust-jmATI5Q_YgY-unsplash.jpg,0,0,974,0,31,1,body_parts,faces,0
55,85508,0,1,3,56,recombined,0,1,,H,2900,16,47,Stimuli/Experimental_stims/faces/freddy-kearney-o-ioeoATbIM-unsplash.jpg,Stimuli/Experimental_stims/objects/ronaldo-arthur-vidal-Cdz_lvnl37k-unsplash.jpg,0,1,1022,1,31,1,faces,objects,0
56,85508,0,1,3,57,intact,1,1,D,D,2200,38,18,Stimuli/Experimental_stims/objects/art-lasovsky-8XddFc6NkBY-unsplash.jpg,Stimuli/Experimental_stims/faces/jessica-radanavong-mrYkTuAesKE-unsplash.jpg,1,1,617,0,31,1,objects,faces,0
57,85508,0,1,3,58,recombined,0,1,,L,1300,29,7,Stimuli/Experimental_stims/body_parts/manuel-schinner-ZwjFuJ7ebpk-unsplash.jpg,Stimuli/Experimental_stims/outdoor_scenes/petr-vysohlid-9fqwGqGLUxc-unsplash.jpg,NaN,0,,0,31,1,body_parts,outdoor_scenes,1
58,85508,0,1,3,59,intact,1,1,H,H,2200,16,7,Stimuli/Experimental_stims/faces/freddy-kearney-o-ioeoATbIM-unsplash.jpg,Stimuli/Experimental_stims/outdoor_scenes/petr-vysohlid-9fqwGqGLUxc-unsplash.jpg,0,0,617,0,31,1,faces,outdoor_scenes,0
59,85508,0,1,3,60,recombined,0,1,,J,2500,19,46,Stimuli/Experimental_stims/faces/joel-mott-LaK153ghdig-unsplash.jpg,Stimuli/Experimental_stims/objects/mockup-graphics-PNsj6RiHAF4-unsplash.jpg,1,0,407,0,31,1,faces,objects,0
60,85508,0,1,3,61,intact,1,0,G,G,4500,46,2,Stimuli/Experimental_stims/objects/mockup-graphics-PNsj6RiHAF4-unsplash.jpg,Stimuli/Experimental_stims/outdoor_scenes/bruno-van-der-kraan-qez8mNJ3ilU-unsplash.jpg,0,0,1182,1,31,1,objects,outdoor_scenes,0
61,85508,0,1,3,62,recombined,0,0,,K,1900,18,45,Stimuli/Experimental_stims/faces/jessica-radanavong-mrYkTuAesKE-unsplash.jpg,Stimuli/Experimental_stims/objects/leohoho-rngTKHXumy0-unsplash.jpg,0,1,901,0,31,1,faces,objects,0
62,85508,0,1,3,63,intact,1,0,F,F,2200,22,26,Stimuli/Experimental_stims/faces/ravi-patel-VMGAbeeJTKo-unsplash.jpg,Stimuli/Experimental_stims/body_parts/engin-akyurt-x_3gyC42btc-unsplash.jpg,1,1,775,0,31,1,faces,body_parts,0
63,85508,0,1,3,64,intact,1,1,A,A,1200,3,47,Stimuli/Experimental_stims/outdoor_scenes/henry-be-NLF6hTe4PAg-unsplash.jpg,Stimuli/Experimental_stims/objects/ronaldo-arthur-vidal-Cdz_lvnl37k-unsplash.jpg,0,0,1151,0,31,1,outdoor_scenes,objects,0
64,85508,0,1,3,65,recombined,0,0,,A,1500,34,3,Stimuli/Experimental_stims/body_parts/wagner-santos-mBWMvIuVnso-unsplash.jpg,Stimuli/Experimental_stims/outdoor_scenes/henry-be-NLF6hTe4PAg-unsplash.jpg,0,1,933,0,31,1,body_parts,outdoor_scenes,0
65,85508,0,1,3,66,recombined,0,1,,I,1500,28,4,Stimuli/Experimental_stims/body_parts/ira-vishnevskaya-8DQAvdCby1I-unsplash.jpg,Stimuli/Experimental_stims/outdoor_scenes/jarrett-kow-1ZOyYPOBn7I-unsplash.jpg,NaN,0,,0,31,1,body_parts,outdoor_scenes,1
66,85508,0,1,3,67,intact,1,1,E,E,4300,42,34,Stimuli/Experimental_stims/objects/jess-bailey-nOeVi8DsN8U-unsplash.jpg,Stimuli/Experimental_stims/body_parts/wagner-santos-mBWMvIuVnso-unsplash.jpg,0,0,527,1,31,1,objects,body_parts,0
67,85508,0,1,3,68,intact,1,1,J,J,1000,19,44,Stimuli/Experimental_stims/faces/joel-mott-LaK153ghdig-unsplash.jpg,Stimuli/Experimental_stims/objects/kuiye-chen-NuOGFo4PudE-unsplash.jpg,NaN,0,,0,31,1,faces,objects,1
68,85508,0,1,3,69,recombined,0,0,,E,2300,22,42,Stimuli/Experimental_stims/faces/ravi-patel-VMGAbeeJTKo-unsplash.jpg,Stimuli/Experimental_stims/objects/jess-bailey-nOeVi8DsN8U-unsplash.jpg,NaN,0,,0,31,1,faces,objects,1
69,85508,0,1,3,70,intact,1,0,B,B,1500,1,14,Stimuli/Experimental_stims/outdoor_scenes/ashim-d-silva-S2Q5mdOrrVc-unsplash.jpg,Stimuli/Experimental_stims/faces/david-siglin-UuW4psOb388-unsplash.jpg,0,0,754,0,31,1,outdoor_scenes,faces,0
70,85508,0,1,3,71,recombined,0,1,,D,1700,38,12,Stimuli/Experimental_stims/objects/art-lasovsky-8XddFc6NkBY-unsplash.jpg,Stimuli/Experimental_stims/faces/aiony-haust-jmATI5Q_YgY-unsplash.jpg,1,0,765,0,31,1,objects,faces,0
71,85508,0,1,3,72,recombined,0,0,,G,4800,33,2,Stimuli/Experimental_stims/body_parts/tucker-good-36skLT5jZcc-unsplash.jpg,Stimuli/Experimental_stims/outdoor_scenes/bruno-van-der-kraan-qez8mNJ3ilU-unsplash.jpg,0,1,684,1,31,1,body_parts,outdoor_scenes,0
72,85508,0,1,3,73,intact,1,1,I,I,2100,28,11,Stimuli/Experimental_stims/body_parts/ira-vishnevskaya-8DQAvdCby1I-unsplash.jpg,Stimuli/Experimental_stims/outdoor_scenes/stephen-leonardi-gyIRjKPXupE-unsplash.jpg,1,1,30,0,31,1,body_parts,outdoor_scenes,0
73,85508,0,1,3,74,recombined,0,0,,C,1800,1,30,Stimuli/Experimental_stims/outdoor_scenes/ashim-d-silva-S2Q5mdOrrVc-unsplash.jpg,Stimuli/Experimental_stims/body_parts/mika-korhonen-Xodzxosar18-unsplash.jpg,0,1,1337,0,31,1,outdoor_scenes,body_parts,0
74,85508,0,1,3,75,intact,1,0,K,K,2300,33,45,Stimuli/Experimental_stims/body_parts/tucker-good-36skLT5jZcc-unsplash.jpg,Stimuli/Experimental_stims/objects/leohoho-rngTKHXumy0-unsplash.jpg,1,1,844,0,31,1,body_parts,objects,0
75,85508,0,1,4,76,recombined,0,0,,I,1900,4,28,Stimuli/Experimental_stims/outdoor_scenes/jarrett-kow-1ZOyYPOBn7I-unsplash.jpg,Stimuli/Experimental_stims/body_parts/ira-vishnevskaya-8DQAvdCby1I-unsplash.jpg,0,1,53,0,31,1,outdoor_scenes,body_parts,0
76,85508,0,1,4,77,recombined,0,0,,F,1400,11,26,Stimuli/Experimental_stims/outdoor_scenes/stephen-leonardi-gyIRjKPXupE-unsplash.jpg,Stimuli/Experimental_stims/body_parts/engin-akyurt-x_3gyC42btc-unsplash.jpg,0,1,282,0,31,1,outdoor_scenes,body_parts,0
77,85508,0,1,4,78,intact,1,1,E,E,2500,42,34,Stimuli/Experimental_stims/objects/jess-bailey-nOeVi8DsN8U-unsplash.jpg,Stimuli/Experimental_stims/body_parts/wagner-santos-mBWMvIuVnso-unsplash.jpg,1,1,692,0,31,1,objects,body_parts,0
78,85508,0,1,4,79,intact,1,0,G,G,1300,46,2,Stimuli/Experimental_stims/objects/mockup-graphics-PNsj6RiHAF4-unsplash.jpg,Stimuli/Experimental_stims/outdoor_scenes/bruno-van-der-kraan-qez8mNJ3ilU-unsplash.jpg,1,1,32,0,31,1,objects,outdoor_scenes,0
79,85508,0,1,4,80,recombined,0,1,,J,1100,19,46,Stimuli/Experimental_stims/faces/joel-mott-LaK153ghdig-unsplash.jpg,Stimuli/Experimental_stims/objects/mockup-graphics-PNsj6RiHAF4-unsplash.jpg,NaN,0,,0,31,1,faces,objects,1
80,85508,0,1,4,81,intact,1,0,B,B,1100,1,14,Stimuli/Experimental_stims/outdoor_scenes/ashim-d-silva-S2Q5mdOrrVc-unsplash.jpg,Stimuli/Experimental_stims/faces/david-siglin-UuW4psOb388-unsplash.jpg,0,0,1013,0,31,1,outdoor_scenes,faces,0
81,85508,0,1,4,82,recombined,0,0,,K,2200,18,45,Stimuli/Experimental_stims/faces/jessica-radanavong-mrYkTuAesKE-unsplash.jpg,Stimuli/Experimental_stims/objects/leohoho-rngTKHXumy0-unsplash.jpg,1,0,961,0,31,1,faces,objects,0
82,85508,0,1,4,83,intact,1,0,C,C,1300,4,30,Stimuli/Experimental_stims/outdoor_scenes/jarrett-kow-1ZOyYPOBn7I-unsplash.jpg,Stimuli/Experimental_stims/body_parts/mika-korhonen-Xodzxosar18-unsplash.jpg,0,0,666,0,31,1,outdoor_scenes,body_parts,0
83,85508,0,1,4,84,recombined,0,0,,L,2300,7,29,Stimuli/Experimental_stims/outdoor_scenes/petr-vysohlid-9fqwGqGLUxc-unsplash.jpg,Stimuli/Experimental_stims/body_parts/manuel-schinner-ZwjFuJ7ebpk-unsplash.jpg,1,0,688,0,31,1,outdoor_scenes,body_parts,0
84,85508,0,1,4,85,intact,1,0,F,F,1700,22,26,Stimuli/Experimental_stims/faces/ravi-patel-VMGAbeeJTKo-unsplash.jpg,Stimuli/Experimental_stims/body_parts/engin-akyurt-x_3gyC42btc-unsplash.jpg,0,0,694,0,31,1,faces,body_parts,0
85,85508,0,1,4,86,recombined,0,0,,C,2800,1,30,Stimuli/Experimental_stims/outdoor_scenes/ashim-d-silva-S2Q5mdOrrVc-unsplash.jpg,Stimuli/Experimental_stims/body_parts/mika-korhonen-Xodzxosar18-unsplash.jpg,1,0,646,1,31,1,outdoor_scenes,body_parts,0
86,85508,0,1,4,87,intact,1,1,D,D,2200,38,18,Stimuli/Experimental_stims/objects/art-lasovsky-8XddFc6NkBY-unsplash.jpg,Stimuli/Experimental_stims/faces/jessica-radanavong-mrYkTuAesKE-unsplash.jpg,0,0,956,0,31,1,objects,faces,0
87,85508,0,1,4,88,recombined,0,1,,B,1200,14,44,Stimuli/Experimental_stims/faces/david-siglin-UuW4psOb388-unsplash.jpg,Stimuli/Experimental_stims/objects/kuiye-chen-NuOGFo4PudE-unsplash.jpg,1,0,404,0,31,1,faces,objects,0
88,85508,0,1,4,89,intact,1,0,K,K,1200,33,45,Stimuli/Experimental_stims/body_parts/tucker-good-36skLT5jZcc-unsplash.jpg,Stimuli/Experimental_stims/objects/leohoho-rngTKHXumy0-unsplash.jpg,0,0,978,0,31,1,body_parts,objects,0
89,85508,0,1,4,90,intact,1,1,A,A,2200,3,47,Stimuli/Experimental_stims/outdoor_scenes/henry-be-NLF6hTe4PAg-unsplash.jpg,Stimuli/Experimental_stims/objects/ronaldo-arthur-vidal-Cdz_lvnl37k-unsplash.jpg,1,1,850,0,31,1,outdoor_scenes,objects,0
90,85508,0,1,4,91,recombined,0,1,,H,1900,16,47,Stimuli/Experimental_stims/faces/freddy-kearney-o-ioeoATbIM-unsplash.jpg,Stimuli/Experimental_stims/objects/ronaldo-arthur-vidal-Cdz_lvnl37k-unsplash.jpg,0,1,889,0,31,1,faces,objects,0
91,85508,0,1,4,92,recombined,0,1,,E,2900,42,22,Stimuli/Experimental_stims/objects/jess-bailey-nOeVi8DsN8U-unsplash.jpg,Stimuli/Experimental_stims/faces/ravi-patel-VMGAbeeJTKo-unsplash.jpg,1,0,100,1,31,1,objects,faces,0
92,85508,0,1,4,93,intact,1,1,H,H,1200,16,7,Stimuli/Experimental_stims/faces/freddy-kearney-o-ioeoATbIM-unsplash.jpg,Stimuli/Experimental_stims/outdoor_scenes/petr-vysohlid-9fqwGqGLUxc-unsplash.jpg,0,0,744,0,31,1,faces,outdoor_scenes,0
93,85508,0,1,4,94,intact,1,1,J,J,1600,19,44,Stimuli/Experimental_stims/faces/joel-mott-LaK153ghdig-unsplash.jpg,Stimuli/Experimental_stims/objects/kuiye-chen-NuOGFo4PudE-unsplash.jpg,1,1,549,0,31,1,faces,objects,0
94,85508,0,1,4,95,recombined,0,0,,A,1600,34,3,Stimuli/Experimental_stims/body_parts/wagner-santos-mBWMvIuVnso-unsplash.jpg,Stimuli/Experimental_stims/outdoor_scenes/henry-be-NLF6hTe4PAg-unsplash.jpg,0,1,690,0,31,1,body_parts,outdoor_scenes,0
95,85508,0,1,4,96,recombined,0,1,,G,1100,2,33,Stimuli/Experimental_stims/outdoor_scenes/bruno-van-der-kraan-qez8mNJ3ilU-unsplash.jpg,Stimuli/Experimental_stims/body_parts/tucker-good-36skLT5jZcc-unsplash.jpg,1,0,785,0,31,1,outdoor_scenes,body_parts,0
96,85508,0,1,4,97,intact,1,1,L,L,1200,29,12,Stimuli/Experimental_stims/body_parts/manuel-schinner-ZwjFuJ7ebpk-unsplash.jpg,Stimuli/Experimental_stims/faces/aiony-haust-jmATI5Q_YgY-unsplash.jpg,0,0,741,0,31,1,body_parts,faces,0
97,85508,0,1,4,98,recombined,0,1,,D,1500,38,12,Stimuli/Experimental_stims/objects/art-lasovsky-8XddFc6NkBY-unsplash.jpg,Stimuli/Experimental_stims/faces/aiony-haust-jmATI5Q_YgY-unsplash.jpg,1,0,668,0,31,1,objects,faces,0
98,85508,0,1,4,99,intact,1,1,I,I,3400,28,11,Stimuli/Experimental_stims/body_parts/ira-vishnevskaya-8DQAvdCby1I-unsplash.jpg,Stimuli/Experimental_stims/outdoor_scenes/stephen-leonardi-gyIRjKPXupE-unsplash.jpg,0,0,848,1,31,1,body_parts,outdoor_scenes,0