,PID,practice,run,block,trial,pair_type,old_pair,chosen_left,pair_id,chosen_id,iti,left_stimulus,right_stimulus,left_path,right_path,old_response,pair_acc,pair_rt,long_iti,simulation,version,left_category,right_category,pairs_rt,no_response
0,91886,1,0,0,1,,0,0,,,1500,,,Stimuli/Practice_stims/Memory/annie-spratt-g9KFpAfQ5bc-unsplash.jpg,Stimuli/Practice_stims/Memory/charl-durand-bsfXvI25iNg-unsplash.jpg,NaN,0,NaN,0,20,3,NaN,NaN,,1
1,91886,1,0,0,2,,0,0,,,1000,,,Stimuli/Practice_stims/Memory/charl-durand-bsfXvI25iNg-unsplash.jpg,Stimuli/Practice_stims/Memory/jimmy-dean-Yn0l7uwBrpw-unsplash.jpg,NaN,0,NaN,0,20,3,NaN,NaN,,1
2,91886,1,0,0,3,,0,0,,,3000,,,Stimuli/Practice_stims/Memory/jimmy-dean-Yn0l7uwBrpw-unsplash.jpg,Stimuli/Practice_stims/Memory/annie-spratt-g9KFpAfQ5bc-unsplash.jpg,NaN,0,NaN,0,20,3,NaN,NaN,,1
3,91886,0,1,1,4,recombined,0,1,,A,1600,7,29,Stimuli/Experimental_stims/outdoor_scenes/petr-vysohlid-9fqwGqGLUxc-unsplash.jpg,Stimuli/Experimental_stims/body_parts/manuel-schinner-ZwjFuJ7ebpk-unsplash.jpg,NaN,0,NaN,0,20,3,outdoor_scenes,body_parts,,1
4,91886,0,1,1,5,intact,1,1,J,J,2500,19,41,Stimuli/Experimental_stims/faces/joel-mott-LaK153ghdig-unsplash.jpg,Stimuli/Experimental_stims/objects/insung-yoon-w2JtIQQXoRU-unsplash.jpg,NaN,0,NaN,0,20,3,faces,objects,,1
5,91886,0,1,1,6,intact,1,1,H,H,2600,12,8,Stimuli/Experimental_stims/faces/aiony-haust-jmATI5Q_YgY-unsplash.jpg,Stimuli/Experimental_stims/outdoor_scenes/samsommer-vddccTqwal8-unsplash.jpg,NaN,0,NaN,0,20,3,faces,outdoor_scenes,,1
6,91886,0,1,1,7,recombined,0,1,,F,1600,20,41,Stimuli/Experimental_stims/faces/justin-chen-J7Cf1Gch49E-unsplash.jpg,Stimuli/Experimental_stims/objects/insung-yoon-w2JtIQQXoRU-unsplash.jpg,NaN,0,NaN,0,20,3,faces,objects,,1
7,91886,0,1,1,8,recombined,0,0,,B,3100,28,6,Stimuli/Experimental_stims/body_parts/ira-vishnevskaya-8DQAvdCby1I-unsplash.jpg,Stimuli/Experimental_stims/outdoor_scenes/meng-ji-8BH_M-53CyA-unsplash.jpg,NaN,0,NaN,1,20,3,body_parts,outdoor_scenes,,1
8,91886,0,1,1,9,intact,1,1,E,E,2200,47,32,Stimuli/Experimental_stims/objects/ronaldo-arthur-vidal-Cdz_lvnl37k-unsplash.jpg,Stimuli/Experimental_stims/body_parts/towfiqu-barbhuiya-3AsiVDsZnHg-unsplash.jpg,NaN,0,NaN,0,20,3,objects,body_parts,,1
9,91886,0,1,1,10,intact,1,1,I,I,2800,24,10,Stimuli/Experimental_stims/body_parts/clay-banks-LjqARJaJotc-unsplash.jpg,Stimuli/Experimental_stims/outdoor_scenes/shannon-kunkle-dM8INmkyDas-unsplash.jpg,NaN,0,NaN,0,20,3,body_parts,outdoor_scenes,,1
10,91886,0,1,1,11,recombined,0,1,,J,1300,19,44,Stimuli/Experimental_stims/faces/joel-mott-LaK153ghdig-unsplash.jpg,Stimuli/Experimental_stims/objects/kuiye-chen-NuOGFo4PudE-unsplash.jpg,NaN,0,NaN,0,20,3,faces,objects,,1
11,91886,0,1,1,12,intact,1,1,C,C,1300,1,28,Stimuli/Experimental_stims/outdoor_scenes/ashim-d-silva-S2Q5mdOrrVc-unsplash.jpg,Stimuli/Experimental_stims/body_parts/ira-vishnevskaya-8DQAvdCby1I-unsplash.jpg,NaN,0,NaN,0,20,3,outdoor_scenes,body_parts,,1
12,91886,0,1,1,13,recombined,0,1,,K,3100,33,9,Stimuli/Experimental_stims/body_parts/tucker-good-36skLT5jZcc-unsplash.jpg,Stimuli/Experimental_stims/outdoor_scenes/sergey-pesterev-y-b_FOmJXdg-unsplash.jpg,NaN,0,NaN,1,20,3,body_parts,outdoor_scenes,,1
13,91886,0,1,1,14,intact,1,1,D,D,1300,38,14,Stimuli/Experimental_stims/objects/art-lasovsky-8XddFc6NkBY-unsplash.jpg,Stimuli/Experimental_stims/faces/david-siglin-UuW4psOb388-unsplash.jpg,NaN,0,NaN,0,20,3,objects,faces,,1
14,91886,0,1,1,15,recombined,0,0,,G,1700,15,36,Stimuli/Experimental_stims/faces/erik-lucatero-d2MSDujJl2g-unsplash.jpg,Stimuli/Experimental_stims/objects/alexander-andrews-JYGnB9gTCls-unsplash.jpg,NaN,0,NaN,0,20,3,faces,objects,,1
15,91886,0,1,1,16,intact,1,1,F,F,1400,20,29,Stimuli/Experimental_stims/faces/justin-chen-J7Cf1Gch49E-unsplash.jpg,Stimuli/Experimental_stims/body_parts/manuel-schinner-ZwjFuJ7ebpk-unsplash.jpg,NaN,0,NaN,0,20,3,faces,body_parts,,1
16,91886,0,1,1,17,recombined,0,0,,E,2600,14,47,Stimuli/Experimental_stims/faces/david-siglin-UuW4psOb388-unsplash.jpg,Stimuli/Experimental_stims/objects/ronaldo-arthur-vidal-Cdz_lvnl37k-unsplash.jpg,NaN,0,NaN,0,20,3,faces,objects,,1
17,91886,0,1,1,18,intact,1,1,L,L,1800,30,15,Stimuli/Experimental_stims/body_parts/mika-korhonen-Xodzxosar18-unsplash.jpg,Stimuli/Experimental_stims/faces/erik-lucatero-d2MSDujJl2g-unsplash.jpg,NaN,0,NaN,0,20,3,body_parts,faces,,1
18,91886,0,1,1,19,intact,1,1,K,K,1100,33,46,Stimuli/Experimental_stims/body_parts/tucker-good-36skLT5jZcc-unsplash.jpg,Stimuli/Experimental_stims/objects/mockup-graphics-PNsj6RiHAF4-unsplash.jpg,NaN,0,NaN,0,20,3,body_parts,objects,,1
19,91886,0,1,1,20,recombined,0,1,,L,3100,30,10,Stimuli/Experimental_stims/body_parts/mika-korhonen-Xodzxosar18-unsplash.jpg,Stimuli/Experimental_stims/outdoor_scenes/shannon-kunkle-dM8INmkyDas-unsplash.jpg,NaN,0,NaN,1,20,3,body_parts,outdoor_scenes,,1
20,91886,0,1,1,21,recombined,0,0,,I,2700,8,24,Stimuli/Experimental_stims/outdoor_scenes/samsommer-vddccTqwal8-unsplash.jpg,Stimuli/Experimental_stims/body_parts/clay-banks-LjqARJaJotc-unsplash.jpg,NaN,0,NaN,0,20,3,outdoor_scenes,body_parts,,1
21,91886,0,1,1,22,intact,1,1,B,B,1400,6,23,Stimuli/Experimental_stims/outdoor_scenes/meng-ji-8BH_M-53CyA-unsplash.jpg,Stimuli/Experimental_stims/faces/rikonavt-HQjfrvdTfak-unsplash.jpg,NaN,0,NaN,0,20,3,outdoor_scenes,faces,,1
22,91886,0,1,1,23,recombined,0,0,,C,1000,32,1,Stimuli/Experimental_stims/body_parts/towfiqu-barbhuiya-3AsiVDsZnHg-unsplash.jpg,Stimuli/Experimental_stims/outdoor_scenes/ashim-d-silva-S2Q5mdOrrVc-unsplash.jpg,NaN,0,NaN,0,20,3,body_parts,outdoor_scenes,,1
23,91886,0,1,1,24,recombined,0,0,,H,1000,46,12,Stimuli/Experimental_stims/objects/mockup-graphics-PNsj6RiHAF4-unsplash.jpg,Stimuli/Experimental_stims/faces/aiony-haust-jmATI5Q_YgY-unsplash.jpg,NaN,0,NaN,0,20,3,objects,faces,,1
24,91886,0,1,1,25,intact,1,1,A,A,1600,7,44,Stimuli/Experimental_stims/outdoor_scenes/petr-vysohlid-9fqwGqGLUxc-unsplash.jpg,Stimuli/Experimental_stims/objects/kuiye-chen-NuOGFo4PudE-unsplash.jpg,NaN,0,NaN,0,20,3,outdoor_scenes,objects,,1
25,91886,0,1,1,26,recombined,0,1,,D,3300,38,23,Stimuli/Experimental_stims/objects/art-lasovsky-8XddFc6NkBY-unsplash.jpg,Stimuli/Experimental_stims/faces/rikonavt-HQjfrvdTfak-unsplash.jpg,NaN,0,NaN,1,20,3,objects,faces,,1
26,91886,0,1,1,27,intact,1,1,G,G,1000,36,9,Stimuli/Experimental_stims/objects/alexander-andrews-JYGnB9gTCls-unsplash.jpg,Stimuli/Experimental_stims/outdoor_scenes/sergey-pesterev-y-b_FOmJXdg-unsplash.jpg,NaN,0,NaN,0,20,3,objects,outdoor_scenes,,1
27,91886,0,1,2,28,intact,1,1,B,B,2700,6,23,Stimuli/Experimental_stims/outdoor_scenes/meng-ji-8BH_M-53CyA-unsplash.jpg,Stimuli/Experimental_stims/faces/rikonavt-HQjfrvdTfak-unsplash.jpg,NaN,0,NaN,0,20,3,outdoor_scenes,faces,,1
28,91886,0,1,2,29,recombined,0,0,,H,1300,46,12,Stimuli/Experimental_stims/objects/mockup-graphics-PNsj6RiHAF4-unsplash.jpg,Stimuli/Experimental_stims/faces/aiony-haust-jmATI5Q_YgY-unsplash.jpg,NaN,0,NaN,0,20,3,objects,faces,,1
29,91886,0,1,2,30,recombined,0,1,,J,1100,19,44,Stimuli/Experimental_stims/faces/joel-mott-LaK153ghdig-unsplash.jpg,Stimuli/Experimental_stims/objects/kuiye-chen-NuOGFo4PudE-unsplash.jpg,NaN,0,NaN,0,20,3,faces,objects,,1
30,91886,0,1,2,31,intact,1,1,K,K,4100,33,46,Stimuli/Experimental_stims/body_parts/tucker-good-36skLT5jZcc-unsplash.jpg,Stimuli/Experimental_stims/objects/mockup-graphics-PNsj6RiHAF4-unsplash.jpg,NaN,0,NaN,1,20,3,body_parts,objects,,1
31,91886,0,1,2,32,recombined,0,0,,I,1100,8,24,Stimuli/Experimental_stims/outdoor_scenes/samsommer-vddccTqwal8-unsplash.jpg,Stimuli/Experimental_stims/body_parts/clay-banks-LjqARJaJotc-unsplash.jpg,NaN,0,NaN,0,20,3,outdoor_scenes,body_parts,,1
32,91886,0,1,2,33,intact,1,1,I,I,1000,24,10,Stimuli/Experimental_stims/body_parts/clay-banks-LjqARJaJotc-unsplash.jpg,Stimuli/Experimental_stims/outdoor_scenes/shannon-kunkle-dM8INmkyDas-unsplash.jpg,NaN,0,NaN,0,20,3,body_parts,outdoor_scenes,,1
33,91886,0,1,2,34,intact,1,1,H,H,1500,12,8,Stimuli/Experimental_stims/faces/aiony-haust-jmATI5Q_YgY-unsplash.jpg,Stimuli/Experimental_stims/outdoor_scenes/samsommer-vddccTqwal8-unsplash.jpg,NaN,0,NaN,0,20,3,faces,outdoor_scenes,,1
34,91886,0,1,2,35,recombined,0,1,,G,1300,36,15,Stimuli/Experimental_stims/objects/alexander-andrews-JYGnB9gTCls-unsplash.jpg,Stimuli/Experimental_stims/faces/erik-lucatero-d2MSDujJl2g-unsplash.jpg,NaN,0,NaN,0,20,3,objects,faces,,1
35,91886,0,1,2,36,intact,1,1,D,D,1300,38,14,Stimuli/Experimental_stims/objects/art-lasovsky-8XddFc6NkBY-unsplash.jpg,Stimuli/Experimental_stims/faces/david-siglin-UuW4psOb388-unsplash.jpg,NaN,0,NaN,0,20,3,objects,faces,,1
36,91886,0,1,2,37,recombined,0,0,,B,2300,28,6,Stimuli/Experimental_stims/body_parts/ira-vishnevskaya-8DQAvdCby1I-unsplash.jpg,Stimuli/Experimental_stims/outdoor_scenes/meng-ji-8BH_M-53CyA-unsplash.jpg,NaN,0,NaN,0,20,3,body_parts,outdoor_scenes,,1
37,91886,0,1,2,38,recombined,0,1,,L,4000,30,10,Stimuli/Experimental_stims/body_parts/mika-korhonen-Xodzxosar18-unsplash.jpg,Stimuli/Experimental_stims/outdoor_scenes/shannon-kunkle-dM8INmkyDas-unsplash.jpg,NaN,0,NaN,1,20,3,body_parts,outdoor_scenes,,1
38,91886,0,1,2,39,intact,1,1,A,A,1700,7,44,Stimuli/Experimental_stims/outdoor_scenes/petr-vysohlid-9fqwGqGLUxc-unsplash.jpg,Stimuli/Experimental_stims/objects/kuiye-chen-NuOGFo4PudE-unsplash.jpg,NaN,0,NaN,0,20,3,outdoor_scenes,objects,,1
39,91886,0,1,2,40,recombined,0,1,,K,1700,33,9,Stimuli/Experimental_stims/body_parts/tucker-good-36skLT5jZcc-unsplash.jpg,Stimuli/Experimental_stims/outdoor_scenes/sergey-pesterev-y-b_FOmJXdg-unsplash.jpg,NaN,0,NaN,0,20,3,body_parts,outdoor_scenes,,1
40,91886,0,1,2,41,intact,1,1,L,L,1200,30,15,Stimuli/Experimental_stims/body_parts/mika-korhonen-Xodzxosar18-unsplash.jpg,Stimuli/Experimental_stims/faces/erik-lucatero-d2MSDujJl2g-unsplash.jpg,NaN,0,NaN,0,20,3,body_parts,faces,,1
41,91886,0,1,2,42,recombined,0,1,,A,2200,7,29,Stimuli/Experimental_stims/outdoor_scenes/petr-vysohlid-9fqwGqGLUxc-unsplash.jpg,Stimuli/Experimental_stims/body_parts/manuel-schinner-ZwjFuJ7ebpk-unsplash.jpg,NaN,0,NaN,0,20,3,outdoor_scenes,body_parts,,1
42,91886,0,1,2,43,recombined,0,0,,F,1400,41,20,Stimuli/Experimental_stims/objects/insung-yoon-w2JtIQQXoRU-unsplash.jpg,Stimuli/Experimental_stims/faces/justin-chen-J7Cf1Gch49E-unsplash.jpg,NaN,0,NaN,0,20,3,objects,faces,,1
43,91886,0,1,2,44,intact,1,1,F,F,2200,20,29,Stimuli/Experimental_stims/faces/justin-chen-J7Cf1Gch49E-unsplash.jpg,Stimuli/Experimental_stims/body_parts/manuel-schinner-ZwjFuJ7ebpk-unsplash.jpg,NaN,0,NaN,0,20,3,faces,body_parts,,1
44,91886,0,1,2,45,intact,1,1,E,E,1100,47,32,Stimuli/Experimental_stims/objects/ronaldo-arthur-vidal-Cdz_lvnl37k-unsplash.jpg,Stimuli/Experimental_stims/body_parts/towfiqu-barbhuiya-3AsiVDsZnHg-unsplash.jpg,NaN,0,NaN,0,20,3,objects,body_parts,,1
45,91886,0,1,2,46,recombined,0,0,,C,3000,32,1,Stimuli/Experimental_stims/body_parts/towfiqu-barbhuiya-3AsiVDsZnHg-unsplash.jpg,Stimuli/Experimental_stims/outdoor_scenes/ashim-d-silva-S2Q5mdOrrVc-unsplash.jpg,NaN,0,NaN,1,20,3,body_parts,outdoor_scenes,,1
46,91886,0,1,2,47,intact,1,1,G,G,2700,36,9,Stimuli/Experimental_stims/objects/alexander-andrews-JYGnB9gTCls-unsplash.jpg,Stimuli/Experimental_stims/outdoor_scenes/sergey-pesterev-y-b_FOmJXdg-unsplash.jpg,NaN,0,NaN,0,20,3,objects,outdoor_scenes,,1
47,91886,0,1,2,48,intact,1,1,J,J,1300,19,41,Stimuli/Experimental_stims/faces/joel-mott-LaK153ghdig-unsplash.jpg,Stimuli/Experimental_stims/objects/insung-yoon-w2JtIQQXoRU-unsplash.jpg,NaN,0,NaN,0,20,3,faces,objects,,1
48,91886,0,1,2,49,recombined,0,0,,E,2600,14,47,Stimuli/Experimental_stims/faces/david-siglin-UuW4psOb388-unsplash.jpg,Stimuli/Experimental_stims/objects/ronaldo-arthur-vidal-Cdz_lvnl37k-unsplash.jpg,NaN,0,NaN,0,20,3,faces,objects,,1
49,91886,0,1,2,50,intact,1,1,C,C,1200,1,28,Stimuli/Experimental_stims/outdoor_scenes/ashim-d-silva-S2Q5mdOrrVc-unsplash.jpg,Stimuli/Experimental_stims/body_parts/ira-vishnevskaya-8DQAvdCby1I-unsplash.jpg,NaN,0,NaN,0,20,3,outdoor_scenes,body_parts,,1
50,91886,0,1,2,51,recombined,0,1,,D,4900,38,23,Stimuli/Experimental_stims/objects/art-lasovsky-8XddFc6NkBY-unsplash.jpg,Stimuli/Experimental_stims/faces/rikonavt-HQjfrvdTfak-unsplash.jpg,NaN,0,NaN,1,20,3,objects,faces,,1
51,91886,0,1,3,52,intact,1,1,C,C,1500,1,28,Stimuli/Experimental_stims/outdoor_scenes/ashim-d-silva-S2Q5mdOrrVc-unsplash.jpg,Stimuli/Experimental_stims/body_parts/ira-vishnevskaya-8DQAvdCby1I-unsplash.jpg,NaN,0,NaN,0,19,3,outdoor_scenes,body_parts,,1
52,91886,0,1,3,53,recombined,0,0,,A,2500,29,7,Stimuli/Experimental_stims/body_parts/manuel-schinner-ZwjFuJ7ebpk-unsplash.jpg,Stimuli/Experimental_stims/outdoor_scenes/petr-vysohlid-9fqwGqGLUxc-unsplash.jpg,NaN,0,NaN,0,19,3,body_parts,outdoor_scenes,,1
53,91886,0,1,3,54,intact,1,1,J,J,2400,19,41,Stimuli/Experimental_stims/faces/joel-mott-LaK153ghdig-unsplash.jpg,Stimuli/Experimental_stims/objects/insung-yoon-w2JtIQQXoRU-unsplash.jpg,NaN,0,NaN,0,19,3,faces,objects,,1
54,91886,0,1,3,55,recombined,0,1,,L,2100,30,10,Stimuli/Experimental_stims/body_parts/mika-korhonen-Xodzxosar18-unsplash.jpg,Stimuli/Experimental_stims/outdoor_scenes/shannon-kunkle-dM8INmkyDas-unsplash.jpg,NaN,0,NaN,0,19,3,body_parts,outdoor_scenes,,1
55,91886,0,1,3,56,recombined,0,0,,F,4400,41,20,Stimuli/Experimental_stims/objects/insung-yoon-w2JtIQQXoRU-unsplash.jpg,Stimuli/Experimental_stims/faces/justin-chen-J7Cf1Gch49E-unsplash.jpg,NaN,0,NaN,1,19,3,objects,faces,,1
56,91886,0,1,3,57,intact,1,1,H,H,1000,12,8,Stimuli/Experimental_stims/faces/aiony-haust-jmATI5Q_YgY-unsplash.jpg,Stimuli/Experimental_stims/outdoor_scenes/samsommer-vddccTqwal8-unsplash.jpg,NaN,0,NaN,0,19,3,faces,outdoor_scenes,,1
57,91886,0,1,3,58,recombined,0,0,,E,2400,14,47,Stimuli/Experimental_stims/faces/david-siglin-UuW4psOb388-unsplash.jpg,Stimuli/Experimental_stims/objects/ronaldo-arthur-vidal-Cdz_lvnl37k-unsplash.jpg,NaN,0,NaN,0,19,3,faces,objects,,1
58,91886,0,1,3,59,intact,1,1,A,A,2700,7,44,Stimuli/Experimental_stims/outdoor_scenes/petr-vysohlid-9fqwGqGLUxc-unsplash.jpg,Stimuli/Experimental_stims/objects/kuiye-chen-NuOGFo4PudE-unsplash.jpg,NaN,0,NaN,0,19,3,outdoor_scenes,objects,,1
59,91886,0,1,3,60,intact,1,1,B,B,1300,6,23,Stimuli/Experimental_stims/outdoor_scenes/meng-ji-8BH_M-53CyA-unsplash.jpg,Stimuli/Experimental_stims/faces/rikonavt-HQjfrvdTfak-unsplash.jpg,NaN,0,NaN,0,19,3,outdoor_scenes,faces,,1
60,91886,0,1,3,61,recombined,0,1,,I,4400,24,8,Stimuli/Experimental_stims/body_parts/clay-banks-LjqARJaJotc-unsplash.jpg,Stimuli/Experimental_stims/outdoor_scenes/samsommer-vddccTqwal8-unsplash.jpg,NaN,0,NaN,1,19,3,body_parts,outdoor_scenes,,1
61,91886,0,1,3,62,recombined,0,1,,H,1100,12,46,Stimuli/Experimental_stims/faces/aiony-haust-jmATI5Q_YgY-unsplash.jpg,Stimuli/Experimental_stims/objects/mockup-graphics-PNsj6RiHAF4-unsplash.jpg,NaN,0,NaN,0,19,3,faces,objects,,1
62,91886,0,1,3,63,intact,1,1,L,L,2100,30,15,Stimuli/Experimental_stims/body_parts/mika-korhonen-Xodzxosar18-unsplash.jpg,Stimuli/Experimental_stims/faces/erik-lucatero-d2MSDujJl2g-unsplash.jpg,NaN,0,NaN,0,19,3,body_parts,faces,,1
63,91886,0,1,3,64,recombined,0,1,,B,1600,6,28,Stimuli/Experimental_stims/outdoor_scenes/meng-ji-8BH_M-53CyA-unsplash.jpg,Stimuli/Experimental_stims/body_parts/ira-vishnevskaya-8DQAvdCby1I-unsplash.jpg,NaN,0,NaN,0,19,3,outdoor_scenes,body_parts,,1
64,91886,0,1,3,65,intact,1,1,D,D,2000,38,14,Stimuli/Experimental_stims/objects/art-lasovsky-8XddFc6NkBY-unsplash.jpg,Stimuli/Experimental_stims/faces/david-siglin-UuW4psOb388-unsplash.jpg,NaN,0,NaN,0,19,3,objects,faces,,1
65,91886,0,1,3,66,intact,1,1,F,F,4200,20,29,Stimuli/Experimental_stims/faces/justin-chen-J7Cf1Gch49E-unsplash.jpg,Stimuli/Experimental_stims/body_parts/manuel-schinner-ZwjFuJ7ebpk-unsplash.jpg,NaN,0,NaN,1,19,3,faces,body_parts,,1
66,91886,0,1,3,67,recombined,0,0,,K,1500,9,33,Stimuli/Experimental_stims/outdoor_scenes/sergey-pesterev-y-b_FOmJXdg-unsplash.jpg,Stimuli/Experimental_stims/body_parts/tucker-good-36skLT5jZcc-unsplash.jpg,NaN,0,NaN,0,19,3,outdoor_scenes,body_parts,,1
67,91886,0,1,3,68,intact,1,1,I,I,2500,24,10,Stimuli/Experimental_stims/body_parts/clay-banks-LjqARJaJotc-unsplash.jpg,Stimuli/Experimental_stims/outdoor_scenes/shannon-kunkle-dM8INmkyDas-unsplash.jpg,NaN,0,NaN,0,19,3,body_parts,outdoor_scenes,,1
68,91886,0,1,3,69,recombined,0,1,,D,2600,38,23,Stimuli/Experimental_stims/objects/art-lasovsky-8XddFc6NkBY-unsplash.jpg,Stimuli/Experimental_stims/faces/rikonavt-HQjfrvdTfak-unsplash.jpg,NaN,0,NaN,0,19,3,objects,faces,,1
69,91886,0,1,3,70,intact,1,1,K,K,1500,33,46,Stimuli/Experimental_stims/body_parts/tucker-good-36skLT5jZcc-unsplash.jpg,Stimuli/Experimental_stims/objects/mockup-graphics-PNsj6RiHAF4-unsplash.jpg,NaN,0,NaN,0,19,3,body_parts,objects,,1
70,91886,0,1,3,71,recombined,0,1,,J,1900,19,44,Stimuli/Experimental_stims/faces/joel-mott-LaK153ghdig-unsplash.jpg,Stimuli/Experimental_stims/objects/kuiye-chen-NuOGFo4PudE-unsplash.jpg,NaN,0,NaN,0,19,3,faces,objects,,1
71,91886,0,1,3,72,recombined,0,0,,C,2900,32,1,Stimuli/Experimental_stims/body_parts/towfiqu-barbhuiya-3AsiVDsZnHg-unsplash.jpg,Stimuli/Experimental_stims/outdoor_scenes/ashim-d-silva-S2Q5mdOrrVc-unsplash.jpg,NaN,0,NaN,1,19,3,body_parts,outdoor_scenes,,1
72,91886,0,1,3,73,intact,1,1,E,E,1000,47,32,Stimuli/Experimental_stims/objects/ronaldo-arthur-vidal-Cdz_lvnl37k-unsplash.jpg,Stimuli/Experimental_stims/body_parts/towfiqu-barbhuiya-3AsiVDsZnHg-unsplash.jpg,NaN,0,NaN,0,19,3,objects,body_parts,,1
73,91886,0,1,3,74,intact,1,1,G,G,2600,36,9,Stimuli/Experimental_stims/objects/alexander-andrews-JYGnB9gTCls-unsplash.jpg,Stimuli/Experimental_stims/outdoor_scenes/sergey-pesterev-y-b_FOmJXdg-unsplash.jpg,NaN,0,NaN,0,19,3,objects,outdoor_scenes,,1
74,91886,0,1,3,75,recombined,0,0,,G,1600,15,36,Stimuli/Experimental_stims/faces/erik-lucatero-d2MSDujJl2g-unsplash.jpg,Stimuli/Experimental_stims/objects/alexander-andrews-JYGnB9gTCls-unsplash.jpg,NaN,0,NaN,0,19,3,faces,objects,,1
75,91886,0,1,4,76,recombined,0,1,,D,1500,38,23,Stimuli/Experimental_stims/objects/art-lasovsky-8XddFc6NkBY-unsplash.jpg,Stimuli/Experimental_stims/faces/rikonavt-HQjfrvdTfak-unsplash.jpg,NaN,0,NaN,0,19,3,objects,faces,,1
76,91886,0,1,4,77,intact,1,1,I,I,3300,24,10,Stimuli/Experimental_stims/body_parts/clay-banks-LjqARJaJotc-unsplash.jpg,Stimuli/Experimental_stims/outdoor_scenes/shannon-kunkle-dM8INmkyDas-unsplash.jpg,NaN,0,NaN,1,19,3,body_parts,outdoor_scenes,,1
77,91886,0,1,4,78,recombined,0,0,,L,1200,10,30,Stimuli/Experimental_stims/outdoor_scenes/shannon-kunkle-dM8INmkyDas-unsplash.jpg,Stimuli/Experimental_stims/body_parts/mika-korhonen-Xodzxosar18-unsplash.jpg,NaN,0,NaN,0,19,3,outdoor_scenes,body_parts,,1
78,91886,0,1,4,79,recombined,0,1,,G,1700,36,15,Stimuli/Experimental_stims/objects/alexander-andrews-JYGnB9gTCls-unsplash.jpg,Stimuli/Experimental_stims/faces/erik-lucatero-d2MSDujJl2g-unsplash.jpg,NaN,0,NaN,0,19,3,objects,faces,,1
79,91886,0,1,4,80,intact,1,1,H,H,1300,12,8,Stimuli/Experimental_stims/faces/aiony-haust-jmATI5Q_YgY-unsplash.jpg,Stimuli/Experimental_stims/outdoor_scenes/samsommer-vddccTqwal8-unsplash.jpg,NaN,0,NaN,0,19,3,faces,outdoor_scenes,,1
80,91886,0,1,4,81,recombined,0,1,,E,1000,47,14,Stimuli/Experimental_stims/objects/ronaldo-arthur-vidal-Cdz_lvnl37k-unsplash.jpg,Stimuli/Experimental_stims/faces/david-siglin-UuW4psOb388-unsplash.jpg,NaN,0,NaN,0,19,3,objects,faces,,1
81,91886,0,1,4,82,intact,1,1,F,F,1200,20,29,Stimuli/Experimental_stims/faces/justin-chen-J7Cf1Gch49E-unsplash.jpg,Stimuli/Experimental_stims/body_parts/manuel-schinner-ZwjFuJ7ebpk-unsplash.jpg,NaN,0,NaN,0,19,3,faces,body_parts,,1
82,91886,0,1,4,83,recombined,0,0,,F,1200,41,20,Stimuli/Experimental_stims/objects/insung-yoon-w2JtIQQXoRU-unsplash.jpg,Stimuli/Experimental_stims/faces/justin-chen-J7Cf1Gch49E-unsplash.jpg,NaN,0,NaN,0,19,3,objects,faces,,1
83,91886,0,1,4,84,recombined,0,1,,B,1600,6,28,Stimuli/Experimental_stims/outdoor_scenes/meng-ji-8BH_M-53CyA-unsplash.jpg,Stimuli/Experimental_stims/body_parts/ira-vishnevskaya-8DQAvdCby1I-unsplash.jpg,NaN,0,NaN,0,19,3,outdoor_scenes,body_parts,,1
84,91886,0,1,4,85,intact,1,1,B,B,1000,6,23,Stimuli/Experimental_stims/outdoor_scenes/meng-ji-8BH_M-53CyA-unsplash.jpg,Stimuli/Experimental_stims/faces/rikonavt-HQjfrvdTfak-unsplash.jpg,NaN,0,NaN,0,19,3,outdoor_scenes,faces,,1
85,91886,0,1,4,86,intact,1,1,L,L,2300,30,15,Stimuli/Experimental_stims/body_parts/mika-korhonen-Xodzxosar18-unsplash.jpg,Stimuli/Experimental_stims/faces/erik-lucatero-d2MSDujJl2g-unsplash.jpg,NaN,0,NaN,0,19,3,body_parts,faces,,1
86,91886,0,1,4,87,recombined,0,0,,A,1400,29,7,Stimuli/Experimental_stims/body_parts/manuel-schinner-ZwjFuJ7ebpk-unsplash.jpg,Stimuli/Experimental_stims/outdoor_scenes/petr-vysohlid-9fqwGqGLUxc-unsplash.jpg,NaN,0,NaN,0,19,3,body_parts,outdoor_scenes,,1
87,91886,0,1,4,88,intact,1,1,K,K,1100,33,46,Stimuli/Experimental_stims/body_parts/tucker-good-36skLT5jZcc-unsplash.jpg,Stimuli/Experimental_stims/objects/mockup-graphics-PNsj6RiHAF4-unsplash.jpg,NaN,0,NaN,0,19,3,body_parts,objects,,1
88,91886,0,1,4,89,intact,1,1,A,A,1600,7,44,Stimuli/Experimental_stims/outdoor_scenes/petr-vysohlid-9fqwGqGLUxc-unsplash.jpg,Stimuli/Experimental_stims/objects/kuiye-chen-NuOGFo4PudE-unsplash.jpg,NaN,0,NaN,0,19,3,outdoor_scenes,objects,,1
89,91886,0,1,4,90,recombined,0,0,,K,2600,9,33,Stimuli/Experimental_stims/outdoor_scenes/sergey-pesterev-y-b_FOmJXdg-unsplash.jpg,Stimuli/Experimental_stims/body_parts/tucker-good-36skLT5jZcc-unsplash.jpg,NaN,0,NaN,0,19,3,outdoor_scenes,body_parts,,1
90,91886,0,1,4,91,intact,1,1,D,D,1700,38,14,Stimuli/Experimental_stims/objects/art-lasovsky-8XddFc6NkBY-unsplash.jpg,Stimuli/Experimental_stims/faces/david-siglin-UuW4psOb388-unsplash.jpg,NaN,0,NaN,0,19,3,objects,faces,,1
91,91886,0,1,4,92,recombined,0,0,,I,2900,8,24,Stimuli/Experimental_stims/outdoor_scenes/samsommer-vddccTqwal8-unsplash.jpg,Stimuli/Experimental_stims/body_parts/clay-banks-LjqARJaJotc-unsplash.jpg,NaN,0,NaN,1,19,3,outdoor_scenes,body_parts,,1
92,91886,0,1,4,93,intact,1,1,C,C,1600,1,28,Stimuli/Experimental_stims/outdoor_scenes/ashim-d-silva-S2Q5mdOrrVc-unsplash.jpg,Stimuli/Experimental_stims/body_parts/ira-vishnevskaya-8DQAvdCby1I-unsplash.jpg,NaN,0,NaN,0,19,3,outdoor_scenes,body_parts,,1
93,91886,0,1,4,94,recombined,0,1,,J,1300,19,44,Stimuli/Experimental_stims/faces/joel-mott-LaK153ghdig-unsplash.jpg,Stimuli/Experimental_stims/objects/kuiye-chen-NuOGFo4PudE-unsplash.jpg,NaN,0,NaN,0,19,3,faces,objects,,1
94,91886,0,1,4,95,intact,1,1,E,E,1200,47,32,Stimuli/Experimental_stims/objects/ronaldo-arthur-vidal-Cdz_lvnl37k-unsplash.jpg,Stimuli/Experimental_stims/body_parts/towfiqu-barbhuiya-3AsiVDsZnHg-unsplash.jpg,NaN,0,NaN,0,19,3,objects,body_parts,,1
95,91886,0,1,4,96,recombined,0,1,,H,1400,12,46,Stimuli/Experimental_stims/faces/aiony-haust-jmATI5Q_YgY-unsplash.jpg,Stimuli/Experimental_stims/objects/mockup-graphics-PNsj6RiHAF4-unsplash.jpg,NaN,0,NaN,0,19,3,faces,objects,,1
96,91886,0,1,4,97,recombined,0,0,,C,1400,32,1,Stimuli/Experimental_stims/body_parts/towfiqu-barbhuiya-3AsiVDsZnHg-unsplash.jpg,Stimuli/Experimental_stims/outdoor_scenes/ashim-d-silva-S2Q5mdOrrVc-unsplash.jpg,NaN,0,NaN,0,19,3,body_parts,outdoor_scenes,,1
97,91886,0,1,4,98,intact,1,1,J,J,2700,19,41,Stimuli/Experimental_stims/faces/joel-mott-LaK153ghdig-unsplash.jpg,Stimuli/Experimental_stims/objects/insung-yoon-w2JtIQQXoRU-unsplash.jpg,NaN,0,NaN,0,19,3,faces,objects,,1
98,91886,0,1,4,99,intact,1,1,G,G,4000,36,9,Stimuli/Experimental_stims/objects/alexander-andrews-JYGnB9gTCls-unsplash.jpg,Stimuli/Experimental_stims/outdoor_scenes/sergey-pesterev-y-b_FOmJXdg-unsplash.jpg,NaN,0,NaN,1,19,3,objects,outdoor_scenes,,1