,PID,practice,run,block,trial,pair_type,old_pair,chosen_left,pair_id,chosen_id,iti,left_stimulus,right_stimulus,left_path,right_path,old_response,pair_acc,pair_rt,long_iti,simulation,version,left_category,right_category,pairs_rt,no_response
0,47210,1,0,0,1,,0,0,,,1500,,,Stimuli/Practice_stims/Memory/annie-spratt-g9KFpAfQ5bc-unsplash.jpg,Stimuli/Practice_stims/Memory/charl-durand-bsfXvI25iNg-unsplash.jpg,0,1,NaN,0,20,3,NaN,NaN,943,0
1,47210,1,0,0,2,,0,0,,,1000,,,Stimuli/Practice_stims/Memory/charl-durand-bsfXvI25iNg-unsplash.jpg,Stimuli/Practice_stims/Memory/jimmy-dean-Yn0l7uwBrpw-unsplash.jpg,1,0,NaN,0,20,3,NaN,NaN,831,0
2,47210,1,0,0,3,,0,0,,,3000,,,Stimuli/Practice_stims/Memory/jimmy-dean-Yn0l7uwBrpw-unsplash.jpg,Stimuli/Practice_stims/Memory/annie-spratt-g9KFpAfQ5bc-unsplash.jpg,0,1,NaN,0,20,3,NaN,NaN,742,0
3,47210,0,1,1,4,recombined,0,1,,A,1600,41,23,Stimuli/Experimental_stims/objects/insung-yoon-w2JtIQQXoRU-unsplash.jpg,Stimuli/Experimental_stims/faces/rikonavt-HQjfrvdTfak-unsplash.jpg,0,1,NaN,0,20,3,objects,faces,1035,0
4,47210,0,1,1,5,intact,1,1,J,J,2500,19,45,Stimuli/Experimental_stims/faces/joel-mott-LaK153ghdig-unsplash.jpg,Stimuli/Experimental_stims/objects/leohoho-rngTKHXumy0-unsplash.jpg,0,0,NaN,0,20,3,faces,objects,958,0
5,47210,0,1,1,6,intact,1,0,H,H,2600,17,0,Stimuli/Experimental_stims/faces/good-faces-xmSWVeGEnJw-unsplash.jpg,Stimuli/Experimental_stims/outdoor_scenes/aleksandra-boguslawska-MS7KD9Ti7FQ-unsplash.jpg,1,1,NaN,0,20,3,faces,outdoor_scenes,686,0
6,47210,0,1,1,7,recombined,0,1,,F,1600,28,6,Stimuli/Experimental_stims/body_parts/ira-vishnevskaya-8DQAvdCby1I-unsplash.jpg,Stimuli/Experimental_stims/outdoor_scenes/meng-ji-8BH_M-53CyA-unsplash.jpg,1,0,NaN,0,20,3,body_parts,outdoor_scenes,837,0
7,47210,0,1,1,8,recombined,0,0,,B,3100,14,11,Stimuli/Experimental_stims/faces/david-siglin-UuW4psOb388-unsplash.jpg,Stimuli/Experimental_stims/outdoor_scenes/stephen-leonardi-gyIRjKPXupE-unsplash.jpg,1,0,NaN,1,20,3,faces,outdoor_scenes,972,0
8,47210,0,1,1,9,intact,1,0,E,E,2200,38,31,Stimuli/Experimental_stims/objects/art-lasovsky-8XddFc6NkBY-unsplash.jpg,Stimuli/Experimental_stims/body_parts/sincerely-media-VN6DbKajo5s-unsplash.jpg,0,0,NaN,0,20,3,objects,body_parts,691,0
9,47210,0,1,1,10,intact,1,1,I,I,2800,24,8,Stimuli/Experimental_stims/body_parts/clay-banks-LjqARJaJotc-unsplash.jpg,Stimuli/Experimental_stims/outdoor_scenes/samsommer-vddccTqwal8-unsplash.jpg,1,1,NaN,0,20,3,body_parts,outdoor_scenes,664,0
10,47210,0,1,1,11,recombined,0,1,,J,1300,19,38,Stimuli/Experimental_stims/faces/joel-mott-LaK153ghdig-unsplash.jpg,Stimuli/Experimental_stims/objects/art-lasovsky-8XddFc6NkBY-unsplash.jpg,0,1,NaN,0,20,3,faces,objects,865,0
11,47210,0,1,1,12,intact,1,0,C,C,1300,5,30,Stimuli/Experimental_stims/outdoor_scenes/jeff-king-bJHWJeiHfHc-unsplash.jpg,Stimuli/Experimental_stims/body_parts/mika-korhonen-Xodzxosar18-unsplash.jpg,1,1,NaN,0,20,3,outdoor_scenes,body_parts,1452,0
12,47210,0,1,1,13,recombined,0,1,,K,3100,25,45,Stimuli/Experimental_stims/body_parts/engin-akyurt-Q2rfH3GW39c-unsplash.jpg,Stimuli/Experimental_stims/objects/leohoho-rngTKHXumy0-unsplash.jpg,NaN,0,NaN,1,20,3,body_parts,objects,,1
13,47210,0,1,1,14,intact,1,1,D,D,1300,36,14,Stimuli/Experimental_stims/objects/alexander-andrews-JYGnB9gTCls-unsplash.jpg,Stimuli/Experimental_stims/faces/david-siglin-UuW4psOb388-unsplash.jpg,1,1,NaN,0,20,3,objects,faces,1441,0
14,47210,0,1,1,15,recombined,0,0,,G,1700,17,44,Stimuli/Experimental_stims/faces/good-faces-xmSWVeGEnJw-unsplash.jpg,Stimuli/Experimental_stims/objects/kuiye-chen-NuOGFo4PudE-unsplash.jpg,1,0,NaN,0,20,3,faces,objects,1462,0
15,47210,0,1,1,16,intact,1,0,F,F,1400,13,28,Stimuli/Experimental_stims/faces/daniel-rigdon-dXmXKPP2L4E-unsplash.jpg,Stimuli/Experimental_stims/body_parts/ira-vishnevskaya-8DQAvdCby1I-unsplash.jpg,0,0,NaN,0,20,3,faces,body_parts,1362,0
16,47210,0,1,1,17,recombined,0,0,,E,2600,8,31,Stimuli/Experimental_stims/outdoor_scenes/samsommer-vddccTqwal8-unsplash.jpg,Stimuli/Experimental_stims/body_parts/sincerely-media-VN6DbKajo5s-unsplash.jpg,0,1,NaN,0,20,3,outdoor_scenes,body_parts,960,0
17,47210,0,1,1,18,intact,1,1,L,L,1800,35,16,Stimuli/Experimental_stims/body_parts/wc-so-KH4AAPjb-tI-unsplash.jpg,Stimuli/Experimental_stims/faces/freddy-kearney-o-ioeoATbIM-unsplash.jpg,NaN,0,NaN,0,20,3,body_parts,faces,,1
18,47210,0,1,1,19,intact,1,1,K,K,1100,25,46,Stimuli/Experimental_stims/body_parts/engin-akyurt-Q2rfH3GW39c-unsplash.jpg,Stimuli/Experimental_stims/objects/mockup-graphics-PNsj6RiHAF4-unsplash.jpg,1,1,NaN,0,20,3,body_parts,objects,1372,0
19,47210,0,1,1,20,recombined,0,1,,L,3100,35,5,Stimuli/Experimental_stims/body_parts/wc-so-KH4AAPjb-tI-unsplash.jpg,Stimuli/Experimental_stims/outdoor_scenes/jeff-king-bJHWJeiHfHc-unsplash.jpg,1,0,NaN,1,20,3,body_parts,outdoor_scenes,1111,0
20,47210,0,1,1,21,recombined,0,0,,I,2700,46,24,Stimuli/Experimental_stims/objects/mockup-graphics-PNsj6RiHAF4-unsplash.jpg,Stimuli/Experimental_stims/body_parts/clay-banks-LjqARJaJotc-unsplash.jpg,0,1,NaN,0,20,3,objects,body_parts,1269,0
21,47210,0,1,1,22,intact,1,1,B,B,1400,11,23,Stimuli/Experimental_stims/outdoor_scenes/stephen-leonardi-gyIRjKPXupE-unsplash.jpg,Stimuli/Experimental_stims/faces/rikonavt-HQjfrvdTfak-unsplash.jpg,1,1,NaN,0,20,3,outdoor_scenes,faces,1071,0
22,47210,0,1,1,23,recombined,0,0,,C,1000,1,30,Stimuli/Experimental_stims/outdoor_scenes/ashim-d-silva-S2Q5mdOrrVc-unsplash.jpg,Stimuli/Experimental_stims/body_parts/mika-korhonen-Xodzxosar18-unsplash.jpg,1,0,NaN,0,20,3,outdoor_scenes,body_parts,935,0
23,47210,0,1,1,24,recombined,0,0,,H,1000,13,0,Stimuli/Experimental_stims/faces/daniel-rigdon-dXmXKPP2L4E-unsplash.jpg,Stimuli/Experimental_stims/outdoor_scenes/aleksandra-boguslawska-MS7KD9Ti7FQ-unsplash.jpg,1,0,NaN,0,20,3,faces,outdoor_scenes,1195,0
24,47210,0,1,1,25,intact,1,0,A,A,1600,1,41,Stimuli/Experimental_stims/outdoor_scenes/ashim-d-silva-S2Q5mdOrrVc-unsplash.jpg,Stimuli/Experimental_stims/objects/insung-yoon-w2JtIQQXoRU-unsplash.jpg,0,0,NaN,0,20,3,outdoor_scenes,objects,1174,0
25,47210,0,1,1,26,recombined,0,1,,D,3300,36,16,Stimuli/Experimental_stims/objects/alexander-andrews-JYGnB9gTCls-unsplash.jpg,Stimuli/Experimental_stims/faces/freddy-kearney-o-ioeoATbIM-unsplash.jpg,1,0,NaN,1,20,3,objects,faces,1322,0
26,47210,0,1,1,27,intact,1,1,G,G,1000,44,6,Stimuli/Experimental_stims/objects/kuiye-chen-NuOGFo4PudE-unsplash.jpg,Stimuli/Experimental_stims/outdoor_scenes/meng-ji-8BH_M-53CyA-unsplash.jpg,1,1,NaN,0,20,3,objects,outdoor_scenes,954,0
27,47210,0,1,2,28,intact,1,1,B,B,2700,11,23,Stimuli/Experimental_stims/outdoor_scenes/stephen-leonardi-gyIRjKPXupE-unsplash.jpg,Stimuli/Experimental_stims/faces/rikonavt-HQjfrvdTfak-unsplash.jpg,0,0,NaN,0,20,3,outdoor_scenes,faces,1220,0
28,47210,0,1,2,29,recombined,0,0,,H,1300,13,0,Stimuli/Experimental_stims/faces/daniel-rigdon-dXmXKPP2L4E-unsplash.jpg,Stimuli/Experimental_stims/outdoor_scenes/aleksandra-boguslawska-MS7KD9Ti7FQ-unsplash.jpg,0,1,NaN,0,20,3,faces,outdoor_scenes,1375,0
29,47210,0,1,2,30,recombined,0,1,,J,1100,19,38,Stimuli/Experimental_stims/faces/joel-mott-LaK153ghdig-unsplash.jpg,Stimuli/Experimental_stims/objects/art-lasovsky-8XddFc6NkBY-unsplash.jpg,1,0,NaN,0,20,3,faces,objects,1496,0
30,47210,0,1,2,31,intact,1,1,K,K,4100,25,46,Stimuli/Experimental_stims/body_parts/engin-akyurt-Q2rfH3GW39c-unsplash.jpg,Stimuli/Experimental_stims/objects/mockup-graphics-PNsj6RiHAF4-unsplash.jpg,1,1,NaN,1,20,3,body_parts,objects,1240,0
31,47210,0,1,2,32,recombined,0,0,,I,1100,46,24,Stimuli/Experimental_stims/objects/mockup-graphics-PNsj6RiHAF4-unsplash.jpg,Stimuli/Experimental_stims/body_parts/clay-banks-LjqARJaJotc-unsplash.jpg,1,0,NaN,0,20,3,objects,body_parts,707,0
32,47210,0,1,2,33,intact,1,1,I,I,1000,24,8,Stimuli/Experimental_stims/body_parts/clay-banks-LjqARJaJotc-unsplash.jpg,Stimuli/Experimental_stims/outdoor_scenes/samsommer-vddccTqwal8-unsplash.jpg,1,1,NaN,0,20,3,body_parts,outdoor_scenes,868,0
33,47210,0,1,2,34,intact,1,0,H,H,1500,17,0,Stimuli/Experimental_stims/faces/good-faces-xmSWVeGEnJw-unsplash.jpg,Stimuli/Experimental_stims/outdoor_scenes/aleksandra-boguslawska-MS7KD9Ti7FQ-unsplash.jpg,0,0,NaN,0,20,3,faces,outdoor_scenes,1105,0
34,47210,0,1,2,35,recombined,0,1,,G,1300,44,17,Stimuli/Experimental_stims/objects/kuiye-chen-NuOGFo4PudE-unsplash.jpg,Stimuli/Experimental_stims/faces/good-faces-xmSWVeGEnJw-unsplash.jpg,1,0,NaN,0,20,3,objects,faces,915,0
35,47210,0,1,2,36,intact,1,1,D,D,1300,36,14,Stimuli/Experimental_stims/objects/alexander-andrews-JYGnB9gTCls-unsplash.jpg,Stimuli/Experimental_stims/faces/david-siglin-UuW4psOb388-unsplash.jpg,1,1,NaN,0,20,3,objects,faces,1046,0
36,47210,0,1,2,37,recombined,0,0,,B,2300,14,11,Stimuli/Experimental_stims/faces/david-siglin-UuW4psOb388-unsplash.jpg,Stimuli/Experimental_stims/outdoor_scenes/stephen-leonardi-gyIRjKPXupE-unsplash.jpg,1,0,NaN,0,20,3,faces,outdoor_scenes,1281,0
37,47210,0,1,2,38,recombined,0,1,,L,4000,35,5,Stimuli/Experimental_stims/body_parts/wc-so-KH4AAPjb-tI-unsplash.jpg,Stimuli/Experimental_stims/outdoor_scenes/jeff-king-bJHWJeiHfHc-unsplash.jpg,0,1,NaN,1,20,3,body_parts,outdoor_scenes,1013,0
38,47210,0,1,2,39,intact,1,0,A,A,1700,1,41,Stimuli/Experimental_stims/outdoor_scenes/ashim-d-silva-S2Q5mdOrrVc-unsplash.jpg,Stimuli/Experimental_stims/objects/insung-yoon-w2JtIQQXoRU-unsplash.jpg,0,0,NaN,0,20,3,outdoor_scenes,objects,1026,0
39,47210,0,1,2,40,recombined,0,1,,K,1700,25,45,Stimuli/Experimental_stims/body_parts/engin-akyurt-Q2rfH3GW39c-unsplash.jpg,Stimuli/Experimental_stims/objects/leohoho-rngTKHXumy0-unsplash.jpg,1,0,NaN,0,20,3,body_parts,objects,608,0
40,47210,0,1,2,41,intact,1,1,L,L,1200,35,16,Stimuli/Experimental_stims/body_parts/wc-so-KH4AAPjb-tI-unsplash.jpg,Stimuli/Experimental_stims/faces/freddy-kearney-o-ioeoATbIM-unsplash.jpg,1,1,NaN,0,20,3,body_parts,faces,582,0
41,47210,0,1,2,42,recombined,0,1,,A,2200,41,23,Stimuli/Experimental_stims/objects/insung-yoon-w2JtIQQXoRU-unsplash.jpg,Stimuli/Experimental_stims/faces/rikonavt-HQjfrvdTfak-unsplash.jpg,1,0,NaN,0,20,3,objects,faces,754,0
42,47210,0,1,2,43,recombined,0,0,,F,1400,6,28,Stimuli/Experimental_stims/outdoor_scenes/meng-ji-8BH_M-53CyA-unsplash.jpg,Stimuli/Experimental_stims/body_parts/ira-vishnevskaya-8DQAvdCby1I-unsplash.jpg,0,1,NaN,0,20,3,outdoor_scenes,body_parts,794,0
43,47210,0,1,2,44,intact,1,0,F,F,2200,13,28,Stimuli/Experimental_stims/faces/daniel-rigdon-dXmXKPP2L4E-unsplash.jpg,Stimuli/Experimental_stims/body_parts/ira-vishnevskaya-8DQAvdCby1I-unsplash.jpg,0,0,NaN,0,20,3,faces,body_parts,952,0
44,47210,0,1,2,45,intact,1,0,E,E,1100,38,31,Stimuli/Experimental_stims/objects/art-lasovsky-8XddFc6NkBY-unsplash.jpg,Stimuli/Experimental_stims/body_parts/sincerely-media-VN6DbKajo5s-unsplash.jpg,1,1,NaN,0,20,3,objects,body_parts,624,0
45,47210,0,1,2,46,recombined,0,0,,C,3000,1,30,Stimuli/Experimental_stims/outdoor_scenes/ashim-d-silva-S2Q5mdOrrVc-unsplash.jpg,Stimuli/Experimental_stims/body_parts/mika-korhonen-Xodzxosar18-unsplash.jpg,1,0,NaN,1,20,3,outdoor_scenes,body_parts,587,0
46,47210,0,1,2,47,intact,1,1,G,G,2700,44,6,Stimuli/Experimental_stims/objects/kuiye-chen-NuOGFo4PudE-unsplash.jpg,Stimuli/Experimental_stims/outdoor_scenes/meng-ji-8BH_M-53CyA-unsplash.jpg,1,1,NaN,0,20,3,objects,outdoor_scenes,818,0
47,47210,0,1,2,48,intact,1,1,J,J,1300,19,45,Stimuli/Experimental_stims/faces/joel-mott-LaK153ghdig-unsplash.jpg,Stimuli/Experimental_stims/objects/leohoho-rngTKHXumy0-unsplash.jpg,0,0,NaN,0,20,3,faces,objects,115,0
48,47210,0,1,2,49,recombined,0,0,,E,2600,8,31,Stimuli/Experimental_stims/outdoor_scenes/samsommer-vddccTqwal8-unsplash.jpg,Stimuli/Experimental_stims/body_parts/sincerely-media-VN6DbKajo5s-unsplash.jpg,1,0,NaN,0,20,3,outdoor_scenes,body_parts,711,0
49,47210,0,1,2,50,intact,1,0,C,C,1200,5,30,Stimuli/Experimental_stims/outdoor_scenes/jeff-king-bJHWJeiHfHc-unsplash.jpg,Stimuli/Experimental_stims/body_parts/mika-korhonen-Xodzxosar18-unsplash.jpg,1,1,NaN,0,20,3,outdoor_scenes,body_parts,1084,0
50,47210,0,1,2,51,recombined,0,1,,D,4900,36,16,Stimuli/Experimental_stims/objects/alexander-andrews-JYGnB9gTCls-unsplash.jpg,Stimuli/Experimental_stims/faces/freddy-kearney-o-ioeoATbIM-unsplash.jpg,0,1,NaN,1,20,3,objects,faces,879,0
51,47210,0,1,3,52,intact,1,0,C,C,1500,5,30,Stimuli/Experimental_stims/outdoor_scenes/jeff-king-bJHWJeiHfHc-unsplash.jpg,Stimuli/Experimental_stims/body_parts/mika-korhonen-Xodzxosar18-unsplash.jpg,1,1,NaN,0,19,3,outdoor_scenes,body_parts,688,0
52,47210,0,1,3,53,recombined,0,0,,A,2500,23,41,Stimuli/Experimental_stims/faces/rikonavt-HQjfrvdTfak-unsplash.jpg,Stimuli/Experimental_stims/objects/insung-yoon-w2JtIQQXoRU-unsplash.jpg,1,0,NaN,0,19,3,faces,objects,855,0
53,47210,0,1,3,54,intact,1,1,J,J,2400,19,45,Stimuli/Experimental_stims/faces/joel-mott-LaK153ghdig-unsplash.jpg,Stimuli/Experimental_stims/objects/leohoho-rngTKHXumy0-unsplash.jpg,0,0,NaN,0,19,3,faces,objects,650,0
54,47210,0,1,3,55,recombined,0,1,,L,2100,35,5,Stimuli/Experimental_stims/body_parts/wc-so-KH4AAPjb-tI-unsplash.jpg,Stimuli/Experimental_stims/outdoor_scenes/jeff-king-bJHWJeiHfHc-unsplash.jpg,0,1,NaN,0,19,3,body_parts,outdoor_scenes,560,0
55,47210,0,1,3,56,recombined,0,0,,F,4400,6,28,Stimuli/Experimental_stims/outdoor_scenes/meng-ji-8BH_M-53CyA-unsplash.jpg,Stimuli/Experimental_stims/body_parts/ira-vishnevskaya-8DQAvdCby1I-unsplash.jpg,1,0,NaN,1,19,3,outdoor_scenes,body_parts,869,0
56,47210,0,1,3,57,intact,1,0,H,H,1000,17,0,Stimuli/Experimental_stims/faces/good-faces-xmSWVeGEnJw-unsplash.jpg,Stimuli/Experimental_stims/outdoor_scenes/aleksandra-boguslawska-MS7KD9Ti7FQ-unsplash.jpg,1,1,NaN,0,19,3,faces,outdoor_scenes,425,0
57,47210,0,1,3,58,recombined,0,0,,E,2400,8,31,Stimuli/Experimental_stims/outdoor_scenes/samsommer-vddccTqwal8-unsplash.jpg,Stimuli/Experimental_stims/body_parts/sincerely-media-VN6DbKajo5s-unsplash.jpg,1,0,NaN,0,19,3,outdoor_scenes,body_parts,753,0
58,47210,0,1,3,59,intact,1,0,A,A,2700,1,41,Stimuli/Experimental_stims/outdoor_scenes/ashim-d-silva-S2Q5mdOrrVc-unsplash.jpg,Stimuli/Experimental_stims/objects/insung-yoon-w2JtIQQXoRU-unsplash.jpg,1,1,NaN,0,19,3,outdoor_scenes,objects,242,0
59,47210,0,1,3,60,intact,1,1,B,B,1300,11,23,Stimuli/Experimental_stims/outdoor_scenes/stephen-leonardi-gyIRjKPXupE-unsplash.jpg,Stimuli/Experimental_stims/faces/rikonavt-HQjfrvdTfak-unsplash.jpg,1,1,NaN,0,19,3,outdoor_scenes,faces,617,0
60,47210,0,1,3,61,recombined,0,1,,I,4400,24,46,Stimuli/Experimental_stims/body_parts/clay-banks-LjqARJaJotc-unsplash.jpg,Stimuli/Experimental_stims/objects/mockup-graphics-PNsj6RiHAF4-unsplash.jpg,0,1,NaN,1,19,3,body_parts,objects,768,0
61,47210,0,1,3,62,recombined,0,1,,H,1100,0,13,Stimuli/Experimental_stims/outdoor_scenes/aleksandra-boguslawska-MS7KD9Ti7FQ-unsplash.jpg,Stimuli/Experimental_stims/faces/daniel-rigdon-dXmXKPP2L4E-unsplash.jpg,1,0,NaN,0,19,3,outdoor_scenes,faces,725,0
62,47210,0,1,3,63,intact,1,1,L,L,2100,35,16,Stimuli/Experimental_stims/body_parts/wc-so-KH4AAPjb-tI-unsplash.jpg,Stimuli/Experimental_stims/faces/freddy-kearney-o-ioeoATbIM-unsplash.jpg,1,1,NaN,0,19,3,body_parts,faces,777,0
63,47210,0,1,3,64,recombined,0,1,,B,1600,11,14,Stimuli/Experimental_stims/outdoor_scenes/stephen-leonardi-gyIRjKPXupE-unsplash.jpg,Stimuli/Experimental_stims/faces/david-siglin-UuW4psOb388-unsplash.jpg,1,0,NaN,0,19,3,outdoor_scenes,faces,587,0
64,47210,0,1,3,65,intact,1,1,D,D,2000,36,14,Stimuli/Experimental_stims/objects/alexander-andrews-JYGnB9gTCls-unsplash.jpg,Stimuli/Experimental_stims/faces/david-siglin-UuW4psOb388-unsplash.jpg,1,1,NaN,0,19,3,objects,faces,585,0
65,47210,0,1,3,66,intact,1,0,F,F,4200,13,28,Stimuli/Experimental_stims/faces/daniel-rigdon-dXmXKPP2L4E-unsplash.jpg,Stimuli/Experimental_stims/body_parts/ira-vishnevskaya-8DQAvdCby1I-unsplash.jpg,1,1,NaN,1,19,3,faces,body_parts,559,0
66,47210,0,1,3,67,recombined,0,0,,K,1500,45,25,Stimuli/Experimental_stims/objects/leohoho-rngTKHXumy0-unsplash.jpg,Stimuli/Experimental_stims/body_parts/engin-akyurt-Q2rfH3GW39c-unsplash.jpg,0,1,NaN,0,19,3,objects,body_parts,1047,0
67,47210,0,1,3,68,intact,1,1,I,I,2500,24,8,Stimuli/Experimental_stims/body_parts/clay-banks-LjqARJaJotc-unsplash.jpg,Stimuli/Experimental_stims/outdoor_scenes/samsommer-vddccTqwal8-unsplash.jpg,0,0,NaN,0,19,3,body_parts,outdoor_scenes,924,0
68,47210,0,1,3,69,recombined,0,1,,D,2600,36,16,Stimuli/Experimental_stims/objects/alexander-andrews-JYGnB9gTCls-unsplash.jpg,Stimuli/Experimental_stims/faces/freddy-kearney-o-ioeoATbIM-unsplash.jpg,1,0,NaN,0,19,3,objects,faces,750,0
69,47210,0,1,3,70,intact,1,1,K,K,1500,25,46,Stimuli/Experimental_stims/body_parts/engin-akyurt-Q2rfH3GW39c-unsplash.jpg,Stimuli/Experimental_stims/objects/mockup-graphics-PNsj6RiHAF4-unsplash.jpg,0,0,NaN,0,19,3,body_parts,objects,907,0
70,47210,0,1,3,71,recombined,0,1,,J,1900,19,38,Stimuli/Experimental_stims/faces/joel-mott-LaK153ghdig-unsplash.jpg,Stimuli/Experimental_stims/objects/art-lasovsky-8XddFc6NkBY-unsplash.jpg,1,0,NaN,0,19,3,faces,objects,918,0
71,47210,0,1,3,72,recombined,0,0,,C,2900,1,30,Stimuli/Experimental_stims/outdoor_scenes/ashim-d-silva-S2Q5mdOrrVc-unsplash.jpg,Stimuli/Experimental_stims/body_parts/mika-korhonen-Xodzxosar18-unsplash.jpg,1,0,NaN,1,19,3,outdoor_scenes,body_parts,666,0
72,47210,0,1,3,73,intact,1,0,E,E,1000,38,31,Stimuli/Experimental_stims/objects/art-lasovsky-8XddFc6NkBY-unsplash.jpg,Stimuli/Experimental_stims/body_parts/sincerely-media-VN6DbKajo5s-unsplash.jpg,1,1,NaN,0,19,3,objects,body_parts,713,0
73,47210,0,1,3,74,intact,1,1,G,G,2600,44,6,Stimuli/Experimental_stims/objects/kuiye-chen-NuOGFo4PudE-unsplash.jpg,Stimuli/Experimental_stims/outdoor_scenes/meng-ji-8BH_M-53CyA-unsplash.jpg,0,0,NaN,0,19,3,objects,outdoor_scenes,797,0
74,47210,0,1,3,75,recombined,0,0,,G,1600,17,44,Stimuli/Experimental_stims/faces/good-faces-xmSWVeGEnJw-unsplash.jpg,Stimuli/Experimental_stims/objects/kuiye-chen-NuOGFo4PudE-unsplash.jpg,1,0,NaN,0,19,3,faces,objects,811,0
75,47210,0,1,4,76,recombined,0,1,,D,1500,36,16,Stimuli/Experimental_stims/objects/alexander-andrews-JYGnB9gTCls-unsplash.jpg,Stimuli/Experimental_stims/faces/freddy-kearney-o-ioeoATbIM-unsplash.jpg,0,1,NaN,0,19,3,objects,faces,593,0
76,47210,0,1,4,77,intact,1,1,I,I,3300,24,8,Stimuli/Experimental_stims/body_parts/clay-banks-LjqARJaJotc-unsplash.jpg,Stimuli/Experimental_stims/outdoor_scenes/samsommer-vddccTqwal8-unsplash.jpg,1,1,NaN,1,19,3,body_parts,outdoor_scenes,585,0
77,47210,0,1,4,78,recombined,0,0,,L,1200,5,35,Stimuli/Experimental_stims/outdoor_scenes/jeff-king-bJHWJeiHfHc-unsplash.jpg,Stimuli/Experimental_stims/body_parts/wc-so-KH4AAPjb-tI-unsplash.jpg,1,0,NaN,0,19,3,outdoor_scenes,body_parts,611,0
78,47210,0,1,4,79,recombined,0,1,,G,1700,44,17,Stimuli/Experimental_stims/objects/kuiye-chen-NuOGFo4PudE-unsplash.jpg,Stimuli/Experimental_stims/faces/good-faces-xmSWVeGEnJw-unsplash.jpg,1,0,NaN,0,19,3,objects,faces,710,0
79,47210,0,1,4,80,intact,1,0,H,H,1300,17,0,Stimuli/Experimental_stims/faces/good-faces-xmSWVeGEnJw-unsplash.jpg,Stimuli/Experimental_stims/outdoor_scenes/aleksandra-boguslawska-MS7KD9Ti7FQ-unsplash.jpg,1,1,NaN,0,19,3,faces,outdoor_scenes,642,0
80,47210,0,1,4,81,recombined,0,1,,E,1000,31,8,Stimuli/Experimental_stims/body_parts/sincerely-media-VN6DbKajo5s-unsplash.jpg,Stimuli/Experimental_stims/outdoor_scenes/samsommer-vddccTqwal8-unsplash.jpg,0,1,NaN,0,19,3,body_parts,outdoor_scenes,943,0
81,47210,0,1,4,82,intact,1,0,F,F,1200,13,28,Stimuli/Experimental_stims/faces/daniel-rigdon-dXmXKPP2L4E-unsplash.jpg,Stimuli/Experimental_stims/body_parts/ira-vishnevskaya-8DQAvdCby1I-unsplash.jpg,0,0,NaN,0,19,3,faces,body_parts,777,0
82,47210,0,1,4,83,recombined,0,0,,F,1200,6,28,Stimuli/Experimental_stims/outdoor_scenes/meng-ji-8BH_M-53CyA-unsplash.jpg,Stimuli/Experimental_stims/body_parts/ira-vishnevskaya-8DQAvdCby1I-unsplash.jpg,0,1,NaN,0,19,3,outdoor_scenes,body_parts,628,0
83,47210,0,1,4,84,recombined,0,1,,B,1600,11,14,Stimuli/Experimental_stims/outdoor_scenes/stephen-leonardi-gyIRjKPXupE-unsplash.jpg,Stimuli/Experimental_stims/faces/david-siglin-UuW4psOb388-unsplash.jpg,0,1,NaN,0,19,3,outdoor_scenes,faces,753,0
84,47210,0,1,4,85,intact,1,1,B,B,1000,11,23,Stimuli/Experimental_stims/outdoor_scenes/stephen-leonardi-gyIRjKPXupE-unsplash.jpg,Stimuli/Experimental_stims/faces/rikonavt-HQjfrvdTfak-unsplash.jpg,1,1,NaN,0,19,3,outdoor_scenes,faces,652,0
85,47210,0,1,4,86,intact,1,1,L,L,2300,35,16,Stimuli/Experimental_stims/body_parts/wc-so-KH4AAPjb-tI-unsplash.jpg,Stimuli/Experimental_stims/faces/freddy-kearney-o-ioeoATbIM-unsplash.jpg,1,1,NaN,0,19,3,body_parts,faces,908,0
86,47210,0,1,4,87,recombined,0,0,,A,1400,23,41,Stimuli/Experimental_stims/faces/rikonavt-HQjfrvdTfak-unsplash.jpg,Stimuli/Experimental_stims/objects/insung-yoon-w2JtIQQXoRU-unsplash.jpg,1,0,NaN,0,19,3,faces,objects,773,0
87,47210,0,1,4,88,intact,1,1,K,K,1100,25,46,Stimuli/Experimental_stims/body_parts/engin-akyurt-Q2rfH3GW39c-unsplash.jpg,Stimuli/Experimental_stims/objects/mockup-graphics-PNsj6RiHAF4-unsplash.jpg,1,1,NaN,0,19,3,body_parts,objects,720,0
88,47210,0,1,4,89,intact,1,0,A,A,1600,1,41,Stimuli/Experimental_stims/outdoor_scenes/ashim-d-silva-S2Q5mdOrrVc-unsplash.jpg,Stimuli/Experimental_stims/objects/insung-yoon-w2JtIQQXoRU-unsplash.jpg,0,0,NaN,0,19,3,outdoor_scenes,objects,764,0
89,47210,0,1,4,90,recombined,0,0,,K,2600,45,25,Stimuli/Experimental_stims/objects/leohoho-rngTKHXumy0-unsplash.jpg,Stimuli/Experimental_stims/body_parts/engin-akyurt-Q2rfH3GW39c-unsplash.jpg,1,0,NaN,0,19,3,objects,body_parts,573,0
90,47210,0,1,4,91,intact,1,1,D,D,1700,36,14,Stimuli/Experimental_stims/objects/alexander-andrews-JYGnB9gTCls-unsplash.jpg,Stimuli/Experimental_stims/faces/david-siglin-UuW4psOb388-unsplash.jpg,0,0,NaN,0,19,3,objects,faces,760,0
91,47210,0,1,4,92,recombined,0,0,,I,2900,46,24,Stimuli/Experimental_stims/objects/mockup-graphics-PNsj6RiHAF4-unsplash.jpg,Stimuli/Experimental_stims/body_parts/clay-banks-LjqARJaJotc-unsplash.jpg,1,0,NaN,1,19,3,objects,body_parts,608,0
92,47210,0,1,4,93,intact,1,0,C,C,1600,5,30,Stimuli/Experimental_stims/outdoor_scenes/jeff-king-bJHWJeiHfHc-unsplash.jpg,Stimuli/Experimental_stims/body_parts/mika-korhonen-Xodzxosar18-unsplash.jpg,1,1,NaN,0,19,3,outdoor_scenes,body_parts,662,0
93,47210,0,1,4,94,recombined,0,1,,J,1300,19,38,Stimuli/Experimental_stims/faces/joel-mott-LaK153ghdig-unsplash.jpg,Stimuli/Experimental_stims/objects/art-lasovsky-8XddFc6NkBY-unsplash.jpg,1,0,NaN,0,19,3,faces,objects,903,0
94,47210,0,1,4,95,intact,1,0,E,E,1200,38,31,Stimuli/Experimental_stims/objects/art-lasovsky-8XddFc6NkBY-unsplash.jpg,Stimuli/Experimental_stims/body_parts/sincerely-media-VN6DbKajo5s-unsplash.jpg,0,0,NaN,0,19,3,objects,body_parts,596,0
95,47210,0,1,4,96,recombined,0,1,,H,1400,0,13,Stimuli/Experimental_stims/outdoor_scenes/aleksandra-boguslawska-MS7KD9Ti7FQ-unsplash.jpg,Stimuli/Experimental_stims/faces/daniel-rigdon-dXmXKPP2L4E-unsplash.jpg,NaN,0,NaN,0,19,3,outdoor_scenes,faces,,1
96,47210,0,1,4,97,recombined,0,0,,C,1400,1,30,Stimuli/Experimental_stims/outdoor_scenes/ashim-d-silva-S2Q5mdOrrVc-unsplash.jpg,Stimuli/Experimental_stims/body_parts/mika-korhonen-Xodzxosar18-unsplash.jpg,1,0,NaN,0,19,3,outdoor_scenes,body_parts,935,0
97,47210,0,1,4,98,intact,1,1,J,J,2700,19,45,Stimuli/Experimental_stims/faces/joel-mott-LaK153ghdig-unsplash.jpg,Stimuli/Experimental_stims/objects/leohoho-rngTKHXumy0-unsplash.jpg,0,0,NaN,0,19,3,faces,objects,258,0
98,47210,0,1,4,99,intact,1,1,G,G,4000,44,6,Stimuli/Experimental_stims/objects/kuiye-chen-NuOGFo4PudE-unsplash.jpg,Stimuli/Experimental_stims/outdoor_scenes/meng-ji-8BH_M-53CyA-unsplash.jpg,1,1,NaN,1,19,3,objects,outdoor_scenes,587,0