,PID,practice,run,block,trial,pair_type,old_pair,chosen_left,pair_id,chosen_id,iti,left_stimulus,right_stimulus,left_path,right_path,pair_response,pair_acc,pair_rt,long_iti,simulation,version,left_category,right_category,pairs_rt,old_response,no_response
0,1,1,0,0,1,,0,0,,,1500,,,Stimuli/Practice_stims/Memory/annie-spratt-g9KFpAfQ5bc-unsplash.jpg,Stimuli/Practice_stims/Memory/charl-durand-bsfXvI25iNg-unsplash.jpg,NaN,0,NaN,0,12,2,NaN,NaN,1013,1,0
1,1,1,0,0,2,,0,0,,,1000,,,Stimuli/Practice_stims/Memory/charl-durand-bsfXvI25iNg-unsplash.jpg,Stimuli/Practice_stims/Memory/jimmy-dean-Yn0l7uwBrpw-unsplash.jpg,NaN,0,NaN,0,12,2,NaN,NaN,146,1,0
2,1,1,0,0,3,,0,0,,,3000,,,Stimuli/Practice_stims/Memory/jimmy-dean-Yn0l7uwBrpw-unsplash.jpg,Stimuli/Practice_stims/Memory/annie-spratt-g9KFpAfQ5bc-unsplash.jpg,NaN,1,NaN,0,12,2,NaN,NaN,289,0,0
3,1,0,1,1,4,recombined,0,1,,K,1200,43,19,Stimuli/Experimental_stims/objects/jiangxulei1990-eIzzzwtkBjU-unsplash.jpg,Stimuli/Experimental_stims/faces/jessica-radanavong-mrYkTuAesKE-unsplash.jpg,NaN,0,NaN,0,12,2,objects,faces,358,1,0
4,1,0,1,1,5,recombined,0,0,,C,2100,24,0,Stimuli/Experimental_stims/body_parts/callum-skelton-3KLMq7y46nA-unsplash.jpg,Stimuli/Experimental_stims/outdoor_scenes/aleksandra-boguslawska-MS7KD9Ti7FQ-unsplash.jpg,NaN,0,NaN,0,12,2,body_parts,outdoor_scenes,308,1,0
5,1,0,1,1,6,intact,1,0,K,K,2300,26,43,Stimuli/Experimental_stims/body_parts/engin-akyurt-x_3gyC42btc-unsplash.jpg,Stimuli/Experimental_stims/objects/jiangxulei1990-eIzzzwtkBjU-unsplash.jpg,NaN,1,NaN,0,12,2,body_parts,objects,333,1,0
6,1,0,1,1,7,recombined,0,1,,J,1800,17,44,Stimuli/Experimental_stims/faces/freddy-kearney-o-ioeoATbIM-unsplash.jpg,Stimuli/Experimental_stims/objects/jonathan-greenaway-Y4hGgeiFn3s-unsplash.jpg,NaN,0,NaN,0,12,2,faces,objects,462,1,0
7,1,0,1,1,8,recombined,0,0,,B,1600,30,7,Stimuli/Experimental_stims/body_parts/lucrezia-carnelos-kn6QrWtnAtY-unsplash.jpg,Stimuli/Experimental_stims/outdoor_scenes/petr-vysohlid-9fqwGqGLUxc-unsplash.jpg,NaN,0,NaN,0,12,2,body_parts,outdoor_scenes,42,1,0
8,1,0,1,1,9,intact,1,1,J,J,2100,17,36,Stimuli/Experimental_stims/faces/freddy-kearney-o-ioeoATbIM-unsplash.jpg,Stimuli/Experimental_stims/objects/alexander-andrews-JYGnB9gTCls-unsplash.jpg,NaN,1,NaN,0,12,2,faces,objects,541,1,0
9,1,0,1,1,10,intact,1,1,D,D,2600,37,18,Stimuli/Experimental_stims/objects/alexander-andrews-VLGWE_SumrA-unsplash.jpg,Stimuli/Experimental_stims/faces/good-faces-xmSWVeGEnJw-unsplash.jpg,NaN,0,NaN,0,12,2,objects,faces,,NaN,1
10,1,0,1,1,11,recombined,0,0,,E,1300,18,40,Stimuli/Experimental_stims/faces/good-faces-xmSWVeGEnJw-unsplash.jpg,Stimuli/Experimental_stims/objects/fabian-blank-pElSkGRA2NU-unsplash.jpg,NaN,0,NaN,0,12,2,faces,objects,,NaN,1
11,1,0,1,1,12,recombined,0,1,,F,4800,13,36,Stimuli/Experimental_stims/faces/aiony-haust-jmATI5Q_YgY-unsplash.jpg,Stimuli/Experimental_stims/objects/alexander-andrews-JYGnB9gTCls-unsplash.jpg,NaN,0,NaN,1,12,2,faces,objects,,NaN,1
12,1,0,1,1,13,intact,1,1,H,H,2000,15,6,Stimuli/Experimental_stims/faces/daniel-rigdon-dXmXKPP2L4E-unsplash.jpg,Stimuli/Experimental_stims/outdoor_scenes/meng-ji-8BH_M-53CyA-unsplash.jpg,NaN,0,NaN,0,12,2,faces,outdoor_scenes,,NaN,1
13,1,0,1,1,14,recombined,0,1,,L,1900,29,6,Stimuli/Experimental_stims/body_parts/lucaxx-freire-CacZwMexYdk-unsplash.jpg,Stimuli/Experimental_stims/outdoor_scenes/meng-ji-8BH_M-53CyA-unsplash.jpg,NaN,0,NaN,0,12,2,body_parts,outdoor_scenes,,NaN,1
14,1,0,1,1,15,intact,1,1,I,I,1600,27,5,Stimuli/Experimental_stims/body_parts/jonathan-borba-hTwH8QFkPMs-unsplash.jpg,Stimuli/Experimental_stims/outdoor_scenes/jeff-king-bJHWJeiHfHc-unsplash.jpg,NaN,0,NaN,0,12,2,body_parts,outdoor_scenes,,NaN,1
15,1,0,1,1,16,recombined,0,1,,A,1700,3,26,Stimuli/Experimental_stims/outdoor_scenes/henry-be-NLF6hTe4PAg-unsplash.jpg,Stimuli/Experimental_stims/body_parts/engin-akyurt-x_3gyC42btc-unsplash.jpg,NaN,0,NaN,0,12,2,outdoor_scenes,body_parts,,NaN,1
16,1,0,1,1,17,intact,1,1,B,B,1200,7,19,Stimuli/Experimental_stims/outdoor_scenes/petr-vysohlid-9fqwGqGLUxc-unsplash.jpg,Stimuli/Experimental_stims/faces/jessica-radanavong-mrYkTuAesKE-unsplash.jpg,NaN,0,NaN,0,12,2,outdoor_scenes,faces,,NaN,1
17,1,0,1,1,18,recombined,0,1,,D,4200,37,34,Stimuli/Experimental_stims/objects/alexander-andrews-VLGWE_SumrA-unsplash.jpg,Stimuli/Experimental_stims/body_parts/sincerely-media-VN6DbKajo5s-unsplash.jpg,NaN,0,NaN,1,12,2,objects,body_parts,,NaN,1
18,1,0,1,1,19,intact,1,1,A,A,1100,3,44,Stimuli/Experimental_stims/outdoor_scenes/henry-be-NLF6hTe4PAg-unsplash.jpg,Stimuli/Experimental_stims/objects/jonathan-greenaway-Y4hGgeiFn3s-unsplash.jpg,NaN,0,NaN,0,12,2,outdoor_scenes,objects,,NaN,1
19,1,0,1,1,20,intact,1,1,E,E,2900,40,24,Stimuli/Experimental_stims/objects/fabian-blank-pElSkGRA2NU-unsplash.jpg,Stimuli/Experimental_stims/body_parts/callum-skelton-3KLMq7y46nA-unsplash.jpg,NaN,0,NaN,0,12,2,objects,body_parts,,NaN,1
20,1,0,1,1,21,recombined,0,0,,G,1000,16,42,Stimuli/Experimental_stims/faces/erik-lucatero-d2MSDujJl2g-unsplash.jpg,Stimuli/Experimental_stims/objects/jess-bailey-nOeVi8DsN8U-unsplash.jpg,NaN,0,NaN,0,12,2,faces,objects,,NaN,1
21,1,0,1,1,22,intact,1,1,G,G,2900,42,9,Stimuli/Experimental_stims/objects/jess-bailey-nOeVi8DsN8U-unsplash.jpg,Stimuli/Experimental_stims/outdoor_scenes/sergey-pesterev-y-b_FOmJXdg-unsplash.jpg,NaN,0,NaN,0,12,2,objects,outdoor_scenes,,NaN,1
22,1,0,1,1,23,intact,1,1,L,L,1600,29,16,Stimuli/Experimental_stims/body_parts/lucaxx-freire-CacZwMexYdk-unsplash.jpg,Stimuli/Experimental_stims/faces/erik-lucatero-d2MSDujJl2g-unsplash.jpg,NaN,0,NaN,0,12,2,body_parts,faces,,NaN,1
23,1,0,1,1,24,recombined,0,0,,I,3000,9,27,Stimuli/Experimental_stims/outdoor_scenes/sergey-pesterev-y-b_FOmJXdg-unsplash.jpg,Stimuli/Experimental_stims/body_parts/jonathan-borba-hTwH8QFkPMs-unsplash.jpg,NaN,0,NaN,1,12,2,outdoor_scenes,body_parts,,NaN,1
24,1,0,1,1,25,intact,1,1,C,C,2100,0,34,Stimuli/Experimental_stims/outdoor_scenes/aleksandra-boguslawska-MS7KD9Ti7FQ-unsplash.jpg,Stimuli/Experimental_stims/body_parts/sincerely-media-VN6DbKajo5s-unsplash.jpg,NaN,0,NaN,0,12,2,outdoor_scenes,body_parts,,NaN,1
25,1,0,1,1,26,recombined,0,0,,H,1400,5,15,Stimuli/Experimental_stims/outdoor_scenes/jeff-king-bJHWJeiHfHc-unsplash.jpg,Stimuli/Experimental_stims/faces/daniel-rigdon-dXmXKPP2L4E-unsplash.jpg,NaN,0,NaN,0,12,2,outdoor_scenes,faces,,NaN,1
26,1,0,1,1,27,intact,1,1,F,F,1200,13,30,Stimuli/Experimental_stims/faces/aiony-haust-jmATI5Q_YgY-unsplash.jpg,Stimuli/Experimental_stims/body_parts/lucrezia-carnelos-kn6QrWtnAtY-unsplash.jpg,NaN,0,NaN,0,12,2,faces,body_parts,,NaN,1
27,1,0,1,2,28,recombined,0,1,,K,1300,43,19,Stimuli/Experimental_stims/objects/jiangxulei1990-eIzzzwtkBjU-unsplash.jpg,Stimuli/Experimental_stims/faces/jessica-radanavong-mrYkTuAesKE-unsplash.jpg,NaN,0,NaN,0,12,2,objects,faces,,NaN,1
28,1,0,1,2,29,intact,1,1,D,D,2600,37,18,Stimuli/Experimental_stims/objects/alexander-andrews-VLGWE_SumrA-unsplash.jpg,Stimuli/Experimental_stims/faces/good-faces-xmSWVeGEnJw-unsplash.jpg,NaN,0,NaN,0,12,2,objects,faces,,NaN,1
29,1,0,1,2,30,intact,1,1,E,E,1900,40,24,Stimuli/Experimental_stims/objects/fabian-blank-pElSkGRA2NU-unsplash.jpg,Stimuli/Experimental_stims/body_parts/callum-skelton-3KLMq7y46nA-unsplash.jpg,NaN,0,NaN,0,12,2,objects,body_parts,,NaN,1
30,1,0,1,2,31,recombined,0,1,,J,2600,17,44,Stimuli/Experimental_stims/faces/freddy-kearney-o-ioeoATbIM-unsplash.jpg,Stimuli/Experimental_stims/objects/jonathan-greenaway-Y4hGgeiFn3s-unsplash.jpg,NaN,0,NaN,0,12,2,faces,objects,,NaN,1
31,1,0,1,2,32,recombined,0,1,,A,3000,3,26,Stimuli/Experimental_stims/outdoor_scenes/henry-be-NLF6hTe4PAg-unsplash.jpg,Stimuli/Experimental_stims/body_parts/engin-akyurt-x_3gyC42btc-unsplash.jpg,NaN,0,NaN,1,12,2,outdoor_scenes,body_parts,,NaN,1
32,1,0,1,2,33,intact,1,1,I,I,1200,27,5,Stimuli/Experimental_stims/body_parts/jonathan-borba-hTwH8QFkPMs-unsplash.jpg,Stimuli/Experimental_stims/outdoor_scenes/jeff-king-bJHWJeiHfHc-unsplash.jpg,NaN,0,NaN,0,12,2,body_parts,outdoor_scenes,,NaN,1
33,1,0,1,2,34,recombined,0,0,,B,1400,30,7,Stimuli/Experimental_stims/body_parts/lucrezia-carnelos-kn6QrWtnAtY-unsplash.jpg,Stimuli/Experimental_stims/outdoor_scenes/petr-vysohlid-9fqwGqGLUxc-unsplash.jpg,NaN,0,NaN,0,12,2,body_parts,outdoor_scenes,,NaN,1
34,1,0,1,2,35,intact,1,1,J,J,1300,17,36,Stimuli/Experimental_stims/faces/freddy-kearney-o-ioeoATbIM-unsplash.jpg,Stimuli/Experimental_stims/objects/alexander-andrews-JYGnB9gTCls-unsplash.jpg,NaN,0,NaN,0,12,2,faces,objects,,NaN,1
35,1,0,1,2,36,recombined,0,0,,E,1400,18,40,Stimuli/Experimental_stims/faces/good-faces-xmSWVeGEnJw-unsplash.jpg,Stimuli/Experimental_stims/objects/fabian-blank-pElSkGRA2NU-unsplash.jpg,NaN,0,NaN,0,12,2,faces,objects,,NaN,1
36,1,0,1,2,37,recombined,0,0,,I,4500,9,27,Stimuli/Experimental_stims/outdoor_scenes/sergey-pesterev-y-b_FOmJXdg-unsplash.jpg,Stimuli/Experimental_stims/body_parts/jonathan-borba-hTwH8QFkPMs-unsplash.jpg,NaN,0,NaN,1,12,2,outdoor_scenes,body_parts,,NaN,1
37,1,0,1,2,38,intact,1,1,G,G,1800,42,9,Stimuli/Experimental_stims/objects/jess-bailey-nOeVi8DsN8U-unsplash.jpg,Stimuli/Experimental_stims/outdoor_scenes/sergey-pesterev-y-b_FOmJXdg-unsplash.jpg,NaN,0,NaN,0,12,2,objects,outdoor_scenes,,NaN,1
38,1,0,1,2,39,recombined,0,1,,L,1200,29,6,Stimuli/Experimental_stims/body_parts/lucaxx-freire-CacZwMexYdk-unsplash.jpg,Stimuli/Experimental_stims/outdoor_scenes/meng-ji-8BH_M-53CyA-unsplash.jpg,NaN,0,NaN,0,12,2,body_parts,outdoor_scenes,,NaN,1
39,1,0,1,2,40,intact,1,1,B,B,2500,7,19,Stimuli/Experimental_stims/outdoor_scenes/petr-vysohlid-9fqwGqGLUxc-unsplash.jpg,Stimuli/Experimental_stims/faces/jessica-radanavong-mrYkTuAesKE-unsplash.jpg,NaN,0,NaN,0,12,2,outdoor_scenes,faces,,NaN,1
40,1,0,1,2,41,intact,1,1,L,L,1300,29,16,Stimuli/Experimental_stims/body_parts/lucaxx-freire-CacZwMexYdk-unsplash.jpg,Stimuli/Experimental_stims/faces/erik-lucatero-d2MSDujJl2g-unsplash.jpg,NaN,0,NaN,0,12,2,body_parts,faces,,NaN,1
41,1,0,1,2,42,recombined,0,0,,F,3000,36,13,Stimuli/Experimental_stims/objects/alexander-andrews-JYGnB9gTCls-unsplash.jpg,Stimuli/Experimental_stims/faces/aiony-haust-jmATI5Q_YgY-unsplash.jpg,NaN,0,NaN,1,12,2,objects,faces,,NaN,1
42,1,0,1,2,43,recombined,0,0,,C,1800,24,0,Stimuli/Experimental_stims/body_parts/callum-skelton-3KLMq7y46nA-unsplash.jpg,Stimuli/Experimental_stims/outdoor_scenes/aleksandra-boguslawska-MS7KD9Ti7FQ-unsplash.jpg,NaN,0,NaN,0,12,2,body_parts,outdoor_scenes,,NaN,1
43,1,0,1,2,44,intact,1,0,K,K,1300,26,43,Stimuli/Experimental_stims/body_parts/engin-akyurt-x_3gyC42btc-unsplash.jpg,Stimuli/Experimental_stims/objects/jiangxulei1990-eIzzzwtkBjU-unsplash.jpg,NaN,0,NaN,0,12,2,body_parts,objects,,NaN,1
44,1,0,1,2,45,intact,1,1,A,A,1000,3,44,Stimuli/Experimental_stims/outdoor_scenes/henry-be-NLF6hTe4PAg-unsplash.jpg,Stimuli/Experimental_stims/objects/jonathan-greenaway-Y4hGgeiFn3s-unsplash.jpg,NaN,0,NaN,0,12,2,outdoor_scenes,objects,,NaN,1
45,1,0,1,2,46,recombined,0,1,,D,2000,37,34,Stimuli/Experimental_stims/objects/alexander-andrews-VLGWE_SumrA-unsplash.jpg,Stimuli/Experimental_stims/body_parts/sincerely-media-VN6DbKajo5s-unsplash.jpg,NaN,0,NaN,0,12,2,objects,body_parts,,NaN,1
46,1,0,1,2,47,intact,1,1,H,H,1700,15,6,Stimuli/Experimental_stims/faces/daniel-rigdon-dXmXKPP2L4E-unsplash.jpg,Stimuli/Experimental_stims/outdoor_scenes/meng-ji-8BH_M-53CyA-unsplash.jpg,NaN,0,NaN,0,12,2,faces,outdoor_scenes,,NaN,1
47,1,0,1,2,48,recombined,0,0,,H,1000,5,15,Stimuli/Experimental_stims/outdoor_scenes/jeff-king-bJHWJeiHfHc-unsplash.jpg,Stimuli/Experimental_stims/faces/daniel-rigdon-dXmXKPP2L4E-unsplash.jpg,NaN,0,NaN,0,12,2,outdoor_scenes,faces,,NaN,1
48,1,0,1,2,49,recombined,0,1,,G,1800,42,16,Stimuli/Experimental_stims/objects/jess-bailey-nOeVi8DsN8U-unsplash.jpg,Stimuli/Experimental_stims/faces/erik-lucatero-d2MSDujJl2g-unsplash.jpg,NaN,0,NaN,0,12,2,objects,faces,,NaN,1
49,1,0,1,2,50,intact,1,1,C,C,1300,0,34,Stimuli/Experimental_stims/outdoor_scenes/aleksandra-boguslawska-MS7KD9Ti7FQ-unsplash.jpg,Stimuli/Experimental_stims/body_parts/sincerely-media-VN6DbKajo5s-unsplash.jpg,NaN,0,NaN,0,12,2,outdoor_scenes,body_parts,,NaN,1
50,1,0,1,2,51,intact,1,1,F,F,3500,13,30,Stimuli/Experimental_stims/faces/aiony-haust-jmATI5Q_YgY-unsplash.jpg,Stimuli/Experimental_stims/body_parts/lucrezia-carnelos-kn6QrWtnAtY-unsplash.jpg,NaN,0,NaN,1,12,2,faces,body_parts,,NaN,1
51,1,0,2,3,52,recombined,0,1,,L,2800,29,6,Stimuli/Experimental_stims/body_parts/lucaxx-freire-CacZwMexYdk-unsplash.jpg,Stimuli/Experimental_stims/outdoor_scenes/meng-ji-8BH_M-53CyA-unsplash.jpg,NaN,0,NaN,1,37,2,body_parts,outdoor_scenes,712,1,0
52,1,0,2,3,53,intact,1,1,C,C,1100,0,34,Stimuli/Experimental_stims/outdoor_scenes/aleksandra-boguslawska-MS7KD9Ti7FQ-unsplash.jpg,Stimuli/Experimental_stims/body_parts/sincerely-media-VN6DbKajo5s-unsplash.jpg,NaN,1,NaN,0,37,2,outdoor_scenes,body_parts,473,1,0
53,1,0,2,3,54,recombined,0,1,,D,2400,37,34,Stimuli/Experimental_stims/objects/alexander-andrews-VLGWE_SumrA-unsplash.jpg,Stimuli/Experimental_stims/body_parts/sincerely-media-VN6DbKajo5s-unsplash.jpg,NaN,0,NaN,0,37,2,objects,body_parts,385,1,0
54,1,0,2,3,55,intact,1,1,G,G,1500,42,9,Stimuli/Experimental_stims/objects/jess-bailey-nOeVi8DsN8U-unsplash.jpg,Stimuli/Experimental_stims/outdoor_scenes/sergey-pesterev-y-b_FOmJXdg-unsplash.jpg,NaN,1,NaN,0,37,2,objects,outdoor_scenes,163,1,0
55,1,0,2,3,56,recombined,0,0,,F,1200,36,13,Stimuli/Experimental_stims/objects/alexander-andrews-JYGnB9gTCls-unsplash.jpg,Stimuli/Experimental_stims/faces/aiony-haust-jmATI5Q_YgY-unsplash.jpg,NaN,0,NaN,0,37,2,objects,faces,,NaN,1
56,1,0,2,3,57,recombined,0,0,,G,1900,16,42,Stimuli/Experimental_stims/faces/erik-lucatero-d2MSDujJl2g-unsplash.jpg,Stimuli/Experimental_stims/objects/jess-bailey-nOeVi8DsN8U-unsplash.jpg,NaN,0,NaN,0,37,2,faces,objects,,NaN,1
57,1,0,2,3,58,intact,1,1,H,H,2900,15,6,Stimuli/Experimental_stims/faces/daniel-rigdon-dXmXKPP2L4E-unsplash.jpg,Stimuli/Experimental_stims/outdoor_scenes/meng-ji-8BH_M-53CyA-unsplash.jpg,NaN,0,NaN,1,37,2,faces,outdoor_scenes,,NaN,1
58,1,0,2,3,59,intact,1,1,B,B,1500,7,19,Stimuli/Experimental_stims/outdoor_scenes/petr-vysohlid-9fqwGqGLUxc-unsplash.jpg,Stimuli/Experimental_stims/faces/jessica-radanavong-mrYkTuAesKE-unsplash.jpg,NaN,0,NaN,0,37,2,outdoor_scenes,faces,,NaN,1
59,1,0,2,3,60,recombined,0,1,,B,2200,7,30,Stimuli/Experimental_stims/outdoor_scenes/petr-vysohlid-9fqwGqGLUxc-unsplash.jpg,Stimuli/Experimental_stims/body_parts/lucrezia-carnelos-kn6QrWtnAtY-unsplash.jpg,NaN,0,NaN,0,37,2,outdoor_scenes,body_parts,,NaN,1
60,1,0,2,3,61,intact,1,1,F,F,2400,13,30,Stimuli/Experimental_stims/faces/aiony-haust-jmATI5Q_YgY-unsplash.jpg,Stimuli/Experimental_stims/body_parts/lucrezia-carnelos-kn6QrWtnAtY-unsplash.jpg,NaN,0,NaN,0,37,2,faces,body_parts,,NaN,1
61,1,0,2,3,62,recombined,0,1,,J,2500,17,44,Stimuli/Experimental_stims/faces/freddy-kearney-o-ioeoATbIM-unsplash.jpg,Stimuli/Experimental_stims/objects/jonathan-greenaway-Y4hGgeiFn3s-unsplash.jpg,NaN,0,NaN,0,37,2,faces,objects,,NaN,1
62,1,0,2,3,63,intact,1,0,K,K,1700,26,43,Stimuli/Experimental_stims/body_parts/engin-akyurt-x_3gyC42btc-unsplash.jpg,Stimuli/Experimental_stims/objects/jiangxulei1990-eIzzzwtkBjU-unsplash.jpg,NaN,0,NaN,0,37,2,body_parts,objects,,NaN,1
63,1,0,2,3,64,recombined,0,0,,A,1400,26,3,Stimuli/Experimental_stims/body_parts/engin-akyurt-x_3gyC42btc-unsplash.jpg,Stimuli/Experimental_stims/outdoor_scenes/henry-be-NLF6hTe4PAg-unsplash.jpg,NaN,0,NaN,0,37,2,body_parts,outdoor_scenes,,NaN,1
64,1,0,2,3,65,intact,1,1,L,L,3000,29,16,Stimuli/Experimental_stims/body_parts/lucaxx-freire-CacZwMexYdk-unsplash.jpg,Stimuli/Experimental_stims/faces/erik-lucatero-d2MSDujJl2g-unsplash.jpg,NaN,0,NaN,1,37,2,body_parts,faces,,NaN,1
65,1,0,2,3,66,recombined,0,0,,E,2500,18,40,Stimuli/Experimental_stims/faces/good-faces-xmSWVeGEnJw-unsplash.jpg,Stimuli/Experimental_stims/objects/fabian-blank-pElSkGRA2NU-unsplash.jpg,NaN,0,NaN,0,37,2,faces,objects,,NaN,1
66,1,0,2,3,67,recombined,0,1,,I,2400,27,9,Stimuli/Experimental_stims/body_parts/jonathan-borba-hTwH8QFkPMs-unsplash.jpg,Stimuli/Experimental_stims/outdoor_scenes/sergey-pesterev-y-b_FOmJXdg-unsplash.jpg,NaN,0,NaN,0,37,2,body_parts,outdoor_scenes,,NaN,1
67,1,0,2,3,68,intact,1,1,D,D,1600,37,18,Stimuli/Experimental_stims/objects/alexander-andrews-VLGWE_SumrA-unsplash.jpg,Stimuli/Experimental_stims/faces/good-faces-xmSWVeGEnJw-unsplash.jpg,NaN,0,NaN,0,37,2,objects,faces,,NaN,1
68,1,0,2,3,69,intact,1,1,J,J,2400,17,36,Stimuli/Experimental_stims/faces/freddy-kearney-o-ioeoATbIM-unsplash.jpg,Stimuli/Experimental_stims/objects/alexander-andrews-JYGnB9gTCls-unsplash.jpg,NaN,0,NaN,0,37,2,faces,objects,,NaN,1
69,1,0,2,3,70,recombined,0,1,,H,1700,15,5,Stimuli/Experimental_stims/faces/daniel-rigdon-dXmXKPP2L4E-unsplash.jpg,Stimuli/Experimental_stims/outdoor_scenes/jeff-king-bJHWJeiHfHc-unsplash.jpg,NaN,0,NaN,0,37,2,faces,outdoor_scenes,,NaN,1
70,1,0,2,3,71,intact,1,1,E,E,2200,40,24,Stimuli/Experimental_stims/objects/fabian-blank-pElSkGRA2NU-unsplash.jpg,Stimuli/Experimental_stims/body_parts/callum-skelton-3KLMq7y46nA-unsplash.jpg,NaN,0,NaN,0,37,2,objects,body_parts,,NaN,1
71,1,0,2,3,72,recombined,0,0,,K,2900,19,43,Stimuli/Experimental_stims/faces/jessica-radanavong-mrYkTuAesKE-unsplash.jpg,Stimuli/Experimental_stims/objects/jiangxulei1990-eIzzzwtkBjU-unsplash.jpg,NaN,0,NaN,1,37,2,faces,objects,,NaN,1
72,1,0,2,3,73,intact,1,1,I,I,1500,27,5,Stimuli/Experimental_stims/body_parts/jonathan-borba-hTwH8QFkPMs-unsplash.jpg,Stimuli/Experimental_stims/outdoor_scenes/jeff-king-bJHWJeiHfHc-unsplash.jpg,NaN,0,NaN,0,37,2,body_parts,outdoor_scenes,,NaN,1
73,1,0,2,3,74,intact,1,1,A,A,1800,3,44,Stimuli/Experimental_stims/outdoor_scenes/henry-be-NLF6hTe4PAg-unsplash.jpg,Stimuli/Experimental_stims/objects/jonathan-greenaway-Y4hGgeiFn3s-unsplash.jpg,NaN,0,NaN,0,37,2,outdoor_scenes,objects,,NaN,1
74,1,0,2,3,75,recombined,0,0,,C,1200,24,0,Stimuli/Experimental_stims/body_parts/callum-skelton-3KLMq7y46nA-unsplash.jpg,Stimuli/Experimental_stims/outdoor_scenes/aleksandra-boguslawska-MS7KD9Ti7FQ-unsplash.jpg,NaN,0,NaN,0,37,2,body_parts,outdoor_scenes,1763,1,0
75,1,0,2,4,76,intact,1,1,F,F,2200,13,30,Stimuli/Experimental_stims/faces/aiony-haust-jmATI5Q_YgY-unsplash.jpg,Stimuli/Experimental_stims/body_parts/lucrezia-carnelos-kn6QrWtnAtY-unsplash.jpg,NaN,1,NaN,0,37,2,faces,body_parts,681,1,0
76,1,0,2,4,77,intact,1,1,B,B,1200,7,19,Stimuli/Experimental_stims/outdoor_scenes/petr-vysohlid-9fqwGqGLUxc-unsplash.jpg,Stimuli/Experimental_stims/faces/jessica-radanavong-mrYkTuAesKE-unsplash.jpg,NaN,0,NaN,0,37,2,outdoor_scenes,faces,,NaN,1
77,1,0,2,4,78,recombined,0,1,,E,1000,40,18,Stimuli/Experimental_stims/objects/fabian-blank-pElSkGRA2NU-unsplash.jpg,Stimuli/Experimental_stims/faces/good-faces-xmSWVeGEnJw-unsplash.jpg,NaN,0,NaN,0,37,2,objects,faces,,NaN,1
78,1,0,2,4,79,recombined,0,0,,L,1000,6,29,Stimuli/Experimental_stims/outdoor_scenes/meng-ji-8BH_M-53CyA-unsplash.jpg,Stimuli/Experimental_stims/body_parts/lucaxx-freire-CacZwMexYdk-unsplash.jpg,NaN,0,NaN,0,37,2,outdoor_scenes,body_parts,,NaN,1
79,1,0,2,4,80,intact,1,1,E,E,1700,40,24,Stimuli/Experimental_stims/objects/fabian-blank-pElSkGRA2NU-unsplash.jpg,Stimuli/Experimental_stims/body_parts/callum-skelton-3KLMq7y46nA-unsplash.jpg,NaN,0,NaN,0,37,2,objects,body_parts,,NaN,1
80,1,0,2,4,81,recombined,0,1,,D,1800,37,34,Stimuli/Experimental_stims/objects/alexander-andrews-VLGWE_SumrA-unsplash.jpg,Stimuli/Experimental_stims/body_parts/sincerely-media-VN6DbKajo5s-unsplash.jpg,NaN,0,NaN,0,37,2,objects,body_parts,,NaN,1
81,1,0,2,4,82,intact,1,1,L,L,1200,29,16,Stimuli/Experimental_stims/body_parts/lucaxx-freire-CacZwMexYdk-unsplash.jpg,Stimuli/Experimental_stims/faces/erik-lucatero-d2MSDujJl2g-unsplash.jpg,NaN,0,NaN,0,37,2,body_parts,faces,,NaN,1
82,1,0,2,4,83,recombined,0,0,,K,2000,19,43,Stimuli/Experimental_stims/faces/jessica-radanavong-mrYkTuAesKE-unsplash.jpg,Stimuli/Experimental_stims/objects/jiangxulei1990-eIzzzwtkBjU-unsplash.jpg,NaN,0,NaN,0,37,2,faces,objects,,NaN,1
83,1,0,2,4,84,intact,1,1,I,I,1800,27,5,Stimuli/Experimental_stims/body_parts/jonathan-borba-hTwH8QFkPMs-unsplash.jpg,Stimuli/Experimental_stims/outdoor_scenes/jeff-king-bJHWJeiHfHc-unsplash.jpg,NaN,0,NaN,0,37,2,body_parts,outdoor_scenes,,NaN,1
84,1,0,2,4,85,intact,1,1,A,A,3700,3,44,Stimuli/Experimental_stims/outdoor_scenes/henry-be-NLF6hTe4PAg-unsplash.jpg,Stimuli/Experimental_stims/objects/jonathan-greenaway-Y4hGgeiFn3s-unsplash.jpg,NaN,0,NaN,1,37,2,outdoor_scenes,objects,,NaN,1
85,1,0,2,4,86,recombined,0,0,,A,2200,26,3,Stimuli/Experimental_stims/body_parts/engin-akyurt-x_3gyC42btc-unsplash.jpg,Stimuli/Experimental_stims/outdoor_scenes/henry-be-NLF6hTe4PAg-unsplash.jpg,NaN,0,NaN,0,37,2,body_parts,outdoor_scenes,,NaN,1
86,1,0,2,4,87,recombined,0,1,,G,1300,42,16,Stimuli/Experimental_stims/objects/jess-bailey-nOeVi8DsN8U-unsplash.jpg,Stimuli/Experimental_stims/faces/erik-lucatero-d2MSDujJl2g-unsplash.jpg,NaN,0,NaN,0,37,2,objects,faces,,NaN,1
87,1,0,2,4,88,intact,1,1,G,G,2000,42,9,Stimuli/Experimental_stims/objects/jess-bailey-nOeVi8DsN8U-unsplash.jpg,Stimuli/Experimental_stims/outdoor_scenes/sergey-pesterev-y-b_FOmJXdg-unsplash.jpg,NaN,0,NaN,0,37,2,objects,outdoor_scenes,,NaN,1
88,1,0,2,4,89,intact,1,1,C,C,2100,0,34,Stimuli/Experimental_stims/outdoor_scenes/aleksandra-boguslawska-MS7KD9Ti7FQ-unsplash.jpg,Stimuli/Experimental_stims/body_parts/sincerely-media-VN6DbKajo5s-unsplash.jpg,NaN,0,NaN,0,37,2,outdoor_scenes,body_parts,,NaN,1
89,1,0,2,4,90,recombined,0,0,,C,2100,24,0,Stimuli/Experimental_stims/body_parts/callum-skelton-3KLMq7y46nA-unsplash.jpg,Stimuli/Experimental_stims/outdoor_scenes/aleksandra-boguslawska-MS7KD9Ti7FQ-unsplash.jpg,NaN,0,NaN,0,37,2,body_parts,outdoor_scenes,,NaN,1
90,1,0,2,4,91,recombined,0,1,,H,2300,15,5,Stimuli/Experimental_stims/faces/daniel-rigdon-dXmXKPP2L4E-unsplash.jpg,Stimuli/Experimental_stims/outdoor_scenes/jeff-king-bJHWJeiHfHc-unsplash.jpg,NaN,0,NaN,0,37,2,faces,outdoor_scenes,,NaN,1
91,1,0,2,4,92,intact,1,1,D,D,4500,37,18,Stimuli/Experimental_stims/objects/alexander-andrews-VLGWE_SumrA-unsplash.jpg,Stimuli/Experimental_stims/faces/good-faces-xmSWVeGEnJw-unsplash.jpg,NaN,0,NaN,1,37,2,objects,faces,,NaN,1
92,1,0,2,4,93,intact,1,1,J,J,1200,17,36,Stimuli/Experimental_stims/faces/freddy-kearney-o-ioeoATbIM-unsplash.jpg,Stimuli/Experimental_stims/objects/alexander-andrews-JYGnB9gTCls-unsplash.jpg,NaN,0,NaN,0,37,2,faces,objects,,NaN,1
93,1,0,2,4,94,recombined,0,1,,J,2200,17,44,Stimuli/Experimental_stims/faces/freddy-kearney-o-ioeoATbIM-unsplash.jpg,Stimuli/Experimental_stims/objects/jonathan-greenaway-Y4hGgeiFn3s-unsplash.jpg,NaN,0,NaN,0,37,2,faces,objects,,NaN,1
94,1,0,2,4,95,recombined,0,0,,I,1300,9,27,Stimuli/Experimental_stims/outdoor_scenes/sergey-pesterev-y-b_FOmJXdg-unsplash.jpg,Stimuli/Experimental_stims/body_parts/jonathan-borba-hTwH8QFkPMs-unsplash.jpg,NaN,0,NaN,0,37,2,outdoor_scenes,body_parts,,NaN,1
95,1,0,2,4,96,intact,1,0,K,K,1400,26,43,Stimuli/Experimental_stims/body_parts/engin-akyurt-x_3gyC42btc-unsplash.jpg,Stimuli/Experimental_stims/objects/jiangxulei1990-eIzzzwtkBjU-unsplash.jpg,NaN,0,NaN,0,37,2,body_parts,objects,,NaN,1
96,1,0,2,4,97,recombined,0,0,,F,2000,36,13,Stimuli/Experimental_stims/objects/alexander-andrews-JYGnB9gTCls-unsplash.jpg,Stimuli/Experimental_stims/faces/aiony-haust-jmATI5Q_YgY-unsplash.jpg,NaN,0,NaN,0,37,2,objects,faces,,NaN,1
97,1,0,2,4,98,recombined,0,1,,B,1000,7,30,Stimuli/Experimental_stims/outdoor_scenes/petr-vysohlid-9fqwGqGLUxc-unsplash.jpg,Stimuli/Experimental_stims/body_parts/lucrezia-carnelos-kn6QrWtnAtY-unsplash.jpg,NaN,0,NaN,0,37,2,outdoor_scenes,body_parts,,NaN,1
98,1,0,2,4,99,intact,1,1,H,H,4100,15,6,Stimuli/Experimental_stims/faces/daniel-rigdon-dXmXKPP2L4E-unsplash.jpg,Stimuli/Experimental_stims/outdoor_scenes/meng-ji-8BH_M-53CyA-unsplash.jpg,NaN,0,NaN,1,37,2,faces,outdoor_scenes,,NaN,1