,PID,trial,pair_id,stim_type,practice,run,block,left_category,right_category,left_stimulus,right_stimulus,left_path,right_path,left_rating,right_rating,iti,scramble_screen_time,scramble_instructed_side,scramble_acc,no_response,rt,left_chosen,chosen_stimulus,unchosen_stimulus,chosen_category,unchosen_category,chosen_path,unchosen_path,long_iti,simulation,version,version
0,92380,1,prac1,original,1,0,0,,,,,Stimuli/Practice_stims/Deliberation/anthony-delanoix-Q0-fOL2nqZc-unsplash.jpg,Stimuli/Practice_stims/Deliberation/becca-tapert-sY5RjMB1KkE-unsplash.jpg,,,1500,0,,NaN,0,NaN,NaN,NaN,NaN,NaN,NaN,NaN,NaN,0,28,1,NaN
1,92380,2,prac2,scramble,1,0,0,,,,,Stimuli/Practice_stims/Deliberation/scramble/scrambled_clay-banks-1KPfcPdbWFM-unsplash.jpg,Stimuli/Practice_stims/Deliberation/scramble/scrambled_melissa-keizer-sV4Pd8wq5_o-unsplash.jpg,,,2500,1500,left,NaN,0,NaN,NaN,NaN,NaN,NaN,NaN,NaN,NaN,0,28,1,NaN
2,92380,3,prac3,scramble,1,0,0,,,,,Stimuli/Practice_stims/Deliberation/scramble/scrambled_anthony-delanoix-Q0-fOL2nqZc-unsplash.jpg,Stimuli/Practice_stims/Deliberation/scramble/scrambled_becca-tapert-sY5RjMB1KkE-unsplash.jpg,,,3000,1500,right,NaN,0,NaN,NaN,NaN,NaN,NaN,NaN,NaN,NaN,0,28,1,NaN
3,92380,4,prac4,original,1,0,0,,,,,Stimuli/Practice_stims/Deliberation/clay-banks-1KPfcPdbWFM-unsplash.jpg,Stimuli/Practice_stims/Deliberation/melissa-keizer-sV4Pd8wq5_o-unsplash.jpg,,,2000,0,,NaN,0,NaN,NaN,NaN,NaN,NaN,NaN,NaN,NaN,0,28,1,NaN
4,92380,5,H,scramble,0,1,1,faces,outdoor_scenes,16,7,Stimuli/Experimental_stims/scramble/faces/scrambled_freddy-kearney-o-ioeoATbIM-unsplash.jpg,Stimuli/Experimental_stims/scramble/outdoor_scenes/scrambled_petr-vysohlid-9fqwGqGLUxc-unsplash.jpg,NaN,NaN,3400,2000,right,NaN,0,NaN,NaN,NaN,NaN,NaN,NaN,NaN,NaN,1,28,1,NaN
5,92380,6,C,original,0,1,1,outdoor_scenes,body_parts,0,24,Stimuli/Experimental_stims/outdoor_scenes/aleksandra-boguslawska-MS7KD9Ti7FQ-unsplash.jpg,Stimuli/Experimental_stims/body_parts/clay-banks-LjqARJaJotc-unsplash.jpg,50,50,1900,0,,NaN,0,NaN,NaN,NaN,NaN,NaN,NaN,NaN,NaN,0,28,1,NaN
6,92380,7,J,original,0,1,1,faces,objects,12,42,Stimuli/Experimental_stims/faces/aiony-haust-jmATI5Q_YgY-unsplash.jpg,Stimuli/Experimental_stims/objects/jess-bailey-nOeVi8DsN8U-unsplash.jpg,50,50,1300,0,,NaN,0,NaN,NaN,NaN,NaN,NaN,NaN,NaN,NaN,0,28,1,NaN
7,92380,8,A,scramble,0,1,1,outdoor_scenes,objects,8,38,Stimuli/Experimental_stims/scramble/outdoor_scenes/scrambled_samsommer-vddccTqwal8-unsplash.jpg,Stimuli/Experimental_stims/scramble/objects/scrambled_art-lasovsky-8XddFc6NkBY-unsplash.jpg,NaN,NaN,2200,1900,left,NaN,0,NaN,NaN,NaN,NaN,NaN,NaN,NaN,NaN,0,28,1,NaN
8,92380,9,D,scramble,0,1,1,objects,faces,36,21,Stimuli/Experimental_stims/scramble/objects/scrambled_alexander-andrews-JYGnB9gTCls-unsplash.jpg,Stimuli/Experimental_stims/scramble/faces/scrambled_leilani-angel-K84vnnzxmTQ-unsplash.jpg,NaN,NaN,1600,1300,right,NaN,0,NaN,NaN,NaN,NaN,NaN,NaN,NaN,NaN,0,28,1,NaN
9,92380,10,B,original,0,1,1,outdoor_scenes,faces,11,23,Stimuli/Experimental_stims/outdoor_scenes/stephen-leonardi-gyIRjKPXupE-unsplash.jpg,Stimuli/Experimental_stims/faces/rikonavt-HQjfrvdTfak-unsplash.jpg,50,50,2300,0,,NaN,0,NaN,NaN,NaN,NaN,NaN,NaN,NaN,NaN,0,28,1,NaN
10,92380,11,K,scramble,0,1,1,body_parts,objects,33,40,Stimuli/Experimental_stims/scramble/body_parts/scrambled_tucker-good-36skLT5jZcc-unsplash.jpg,Stimuli/Experimental_stims/scramble/objects/scrambled_fabian-blank-pElSkGRA2NU-unsplash.jpg,NaN,NaN,3400,1800,left,NaN,0,NaN,NaN,NaN,NaN,NaN,NaN,NaN,NaN,1,28,1,NaN
11,92380,12,F,original,0,1,1,faces,body_parts,17,29,Stimuli/Experimental_stims/faces/good-faces-xmSWVeGEnJw-unsplash.jpg,Stimuli/Experimental_stims/body_parts/manuel-schinner-ZwjFuJ7ebpk-unsplash.jpg,50,50,2100,0,,NaN,0,NaN,NaN,NaN,NaN,NaN,NaN,NaN,NaN,0,28,1,NaN
12,92380,13,G,scramble,0,1,1,objects,outdoor_scenes,39,6,Stimuli/Experimental_stims/scramble/objects/scrambled_charlesdeluvio-1-nx1QR5dTE-unsplash.jpg,Stimuli/Experimental_stims/scramble/outdoor_scenes/scrambled_meng-ji-8BH_M-53CyA-unsplash.jpg,NaN,NaN,1700,1000,left,NaN,0,NaN,NaN,NaN,NaN,NaN,NaN,NaN,NaN,0,28,1,NaN
13,92380,14,C,scramble,0,1,1,outdoor_scenes,body_parts,0,24,Stimuli/Experimental_stims/scramble/outdoor_scenes/scrambled_aleksandra-boguslawska-MS7KD9Ti7FQ-unsplash.jpg,Stimuli/Experimental_stims/scramble/body_parts/scrambled_clay-banks-LjqARJaJotc-unsplash.jpg,NaN,NaN,1300,1500,right,NaN,0,NaN,NaN,NaN,NaN,NaN,NaN,NaN,NaN,0,28,1,NaN
14,92380,15,A,original,0,1,1,outdoor_scenes,objects,8,38,Stimuli/Experimental_stims/outdoor_scenes/samsommer-vddccTqwal8-unsplash.jpg,Stimuli/Experimental_stims/objects/art-lasovsky-8XddFc6NkBY-unsplash.jpg,50,50,1400,0,,NaN,0,NaN,NaN,NaN,NaN,NaN,NaN,NaN,NaN,0,28,1,NaN
15,92380,16,G,original,0,1,1,objects,outdoor_scenes,39,6,Stimuli/Experimental_stims/objects/charlesdeluvio-1-nx1QR5dTE-unsplash.jpg,Stimuli/Experimental_stims/outdoor_scenes/meng-ji-8BH_M-53CyA-unsplash.jpg,50,50,3000,0,,NaN,0,NaN,NaN,NaN,NaN,NaN,NaN,NaN,NaN,1,28,1,NaN
16,92380,17,B,scramble,0,1,1,outdoor_scenes,faces,11,23,Stimuli/Experimental_stims/scramble/outdoor_scenes/scrambled_stephen-leonardi-gyIRjKPXupE-unsplash.jpg,Stimuli/Experimental_stims/scramble/faces/scrambled_rikonavt-HQjfrvdTfak-unsplash.jpg,NaN,NaN,1300,1500,right,NaN,0,NaN,NaN,NaN,NaN,NaN,NaN,NaN,NaN,0,28,1,NaN
17,92380,18,L,original,0,1,1,body_parts,faces,28,19,Stimuli/Experimental_stims/body_parts/ira-vishnevskaya-8DQAvdCby1I-unsplash.jpg,Stimuli/Experimental_stims/faces/joel-mott-LaK153ghdig-unsplash.jpg,50,50,1400,0,,NaN,0,NaN,NaN,NaN,NaN,NaN,NaN,NaN,NaN,0,28,1,NaN
18,92380,19,J,scramble,0,1,1,faces,objects,12,42,Stimuli/Experimental_stims/scramble/faces/scrambled_aiony-haust-jmATI5Q_YgY-unsplash.jpg,Stimuli/Experimental_stims/scramble/objects/scrambled_jess-bailey-nOeVi8DsN8U-unsplash.jpg,NaN,NaN,1400,1300,right,NaN,0,NaN,NaN,NaN,NaN,NaN,NaN,NaN,NaN,0,28,1,NaN
19,92380,20,H,original,0,1,1,faces,outdoor_scenes,16,7,Stimuli/Experimental_stims/faces/freddy-kearney-o-ioeoATbIM-unsplash.jpg,Stimuli/Experimental_stims/outdoor_scenes/petr-vysohlid-9fqwGqGLUxc-unsplash.jpg,50,50,2200,0,,NaN,0,NaN,NaN,NaN,NaN,NaN,NaN,NaN,NaN,0,28,1,NaN
20,92380,21,K,original,0,1,1,body_parts,objects,33,40,Stimuli/Experimental_stims/body_parts/tucker-good-36skLT5jZcc-unsplash.jpg,Stimuli/Experimental_stims/objects/fabian-blank-pElSkGRA2NU-unsplash.jpg,50,50,1300,0,,NaN,0,NaN,NaN,NaN,NaN,NaN,NaN,NaN,NaN,0,28,1,NaN
21,92380,22,E,scramble,0,1,1,objects,body_parts,46,25,Stimuli/Experimental_stims/scramble/objects/scrambled_mockup-graphics-PNsj6RiHAF4-unsplash.jpg,Stimuli/Experimental_stims/scramble/body_parts/scrambled_engin-akyurt-Q2rfH3GW39c-unsplash.jpg,NaN,NaN,1100,1300,right,NaN,0,NaN,NaN,NaN,NaN,NaN,NaN,NaN,NaN,0,28,1,NaN
22,92380,23,I,original,0,1,1,body_parts,outdoor_scenes,27,5,Stimuli/Experimental_stims/body_parts/heike-mintel-i_Gns0ELnLw-unsplash.jpg,Stimuli/Experimental_stims/outdoor_scenes/jeff-king-bJHWJeiHfHc-unsplash.jpg,50,50,2700,0,,NaN,0,NaN,NaN,NaN,NaN,NaN,NaN,NaN,NaN,0,28,1,NaN
23,92380,24,I,scramble,0,1,1,body_parts,outdoor_scenes,27,5,Stimuli/Experimental_stims/scramble/body_parts/scrambled_heike-mintel-i_Gns0ELnLw-unsplash.jpg,Stimuli/Experimental_stims/scramble/outdoor_scenes/scrambled_jeff-king-bJHWJeiHfHc-unsplash.jpg,NaN,NaN,2100,1600,left,NaN,0,NaN,NaN,NaN,NaN,NaN,NaN,NaN,NaN,0,28,1,NaN
24,92380,25,E,original,0,1,1,objects,body_parts,46,25,Stimuli/Experimental_stims/objects/mockup-graphics-PNsj6RiHAF4-unsplash.jpg,Stimuli/Experimental_stims/body_parts/engin-akyurt-Q2rfH3GW39c-unsplash.jpg,50,50,2100,0,,NaN,0,NaN,NaN,NaN,NaN,NaN,NaN,NaN,NaN,0,28,1,NaN
25,92380,26,F,scramble,0,1,1,faces,body_parts,17,29,Stimuli/Experimental_stims/scramble/faces/scrambled_good-faces-xmSWVeGEnJw-unsplash.jpg,Stimuli/Experimental_stims/scramble/body_parts/scrambled_manuel-schinner-ZwjFuJ7ebpk-unsplash.jpg,NaN,NaN,3200,1100,left,NaN,0,NaN,NaN,NaN,NaN,NaN,NaN,NaN,NaN,1,28,1,NaN
26,92380,27,D,original,0,1,1,objects,faces,36,21,Stimuli/Experimental_stims/objects/alexander-andrews-JYGnB9gTCls-unsplash.jpg,Stimuli/Experimental_stims/faces/leilani-angel-K84vnnzxmTQ-unsplash.jpg,50,50,1100,0,,NaN,0,NaN,NaN,NaN,NaN,NaN,NaN,NaN,NaN,0,28,1,NaN
27,92380,28,L,scramble,0,1,1,body_parts,faces,28,19,Stimuli/Experimental_stims/scramble/body_parts/scrambled_ira-vishnevskaya-8DQAvdCby1I-unsplash.jpg,Stimuli/Experimental_stims/scramble/faces/scrambled_joel-mott-LaK153ghdig-unsplash.jpg,NaN,NaN,1700,700,left,NaN,0,NaN,NaN,NaN,NaN,NaN,NaN,NaN,NaN,0,28,1,NaN
28,92380,29,J,original,0,1,2,faces,objects,12,42,Stimuli/Experimental_stims/faces/aiony-haust-jmATI5Q_YgY-unsplash.jpg,Stimuli/Experimental_stims/objects/jess-bailey-nOeVi8DsN8U-unsplash.jpg,50,50,2200,0,,NaN,0,NaN,NaN,NaN,NaN,NaN,NaN,NaN,NaN,0,28,1,NaN
29,92380,30,A,scramble,0,1,2,outdoor_scenes,objects,8,38,Stimuli/Experimental_stims/scramble/outdoor_scenes/scrambled_samsommer-vddccTqwal8-unsplash.jpg,Stimuli/Experimental_stims/scramble/objects/scrambled_art-lasovsky-8XddFc6NkBY-unsplash.jpg,NaN,NaN,2100,1200,left,NaN,0,NaN,NaN,NaN,NaN,NaN,NaN,NaN,NaN,0,28,1,NaN
30,92380,31,L,original,0,1,2,body_parts,faces,28,19,Stimuli/Experimental_stims/body_parts/ira-vishnevskaya-8DQAvdCby1I-unsplash.jpg,Stimuli/Experimental_stims/faces/joel-mott-LaK153ghdig-unsplash.jpg,50,50,1700,0,,NaN,0,NaN,NaN,NaN,NaN,NaN,NaN,NaN,NaN,0,28,1,NaN
31,92380,32,E,scramble,0,1,2,objects,body_parts,46,25,Stimuli/Experimental_stims/scramble/objects/scrambled_mockup-graphics-PNsj6RiHAF4-unsplash.jpg,Stimuli/Experimental_stims/scramble/body_parts/scrambled_engin-akyurt-Q2rfH3GW39c-unsplash.jpg,NaN,NaN,1800,1000,left,NaN,0,NaN,NaN,NaN,NaN,NaN,NaN,NaN,NaN,0,28,1,NaN
32,92380,33,F,original,0,1,2,faces,body_parts,17,29,Stimuli/Experimental_stims/faces/good-faces-xmSWVeGEnJw-unsplash.jpg,Stimuli/Experimental_stims/body_parts/manuel-schinner-ZwjFuJ7ebpk-unsplash.jpg,50,50,2800,0,,NaN,0,NaN,NaN,NaN,NaN,NaN,NaN,NaN,NaN,1,28,1,NaN
33,92380,34,D,original,0,1,2,objects,faces,36,21,Stimuli/Experimental_stims/objects/alexander-andrews-JYGnB9gTCls-unsplash.jpg,Stimuli/Experimental_stims/faces/leilani-angel-K84vnnzxmTQ-unsplash.jpg,50,50,1700,0,,NaN,0,NaN,NaN,NaN,NaN,NaN,NaN,NaN,NaN,0,28,1,NaN
34,92380,35,F,scramble,0,1,2,faces,body_parts,17,29,Stimuli/Experimental_stims/scramble/faces/scrambled_good-faces-xmSWVeGEnJw-unsplash.jpg,Stimuli/Experimental_stims/scramble/body_parts/scrambled_manuel-schinner-ZwjFuJ7ebpk-unsplash.jpg,NaN,NaN,1000,1800,right,NaN,0,NaN,NaN,NaN,NaN,NaN,NaN,NaN,NaN,0,28,1,NaN
35,92380,36,C,scramble,0,1,2,outdoor_scenes,body_parts,0,24,Stimuli/Experimental_stims/scramble/outdoor_scenes/scrambled_aleksandra-boguslawska-MS7KD9Ti7FQ-unsplash.jpg,Stimuli/Experimental_stims/scramble/body_parts/scrambled_clay-banks-LjqARJaJotc-unsplash.jpg,NaN,NaN,1000,1600,right,NaN,0,NaN,NaN,NaN,NaN,NaN,NaN,NaN,NaN,0,28,1,NaN
36,92380,37,H,original,0,1,2,faces,outdoor_scenes,16,7,Stimuli/Experimental_stims/faces/freddy-kearney-o-ioeoATbIM-unsplash.jpg,Stimuli/Experimental_stims/outdoor_scenes/petr-vysohlid-9fqwGqGLUxc-unsplash.jpg,50,50,1100,0,,NaN,0,NaN,NaN,NaN,NaN,NaN,NaN,NaN,NaN,0,28,1,NaN
37,92380,38,K,original,0,1,2,body_parts,objects,33,40,Stimuli/Experimental_stims/body_parts/tucker-good-36skLT5jZcc-unsplash.jpg,Stimuli/Experimental_stims/objects/fabian-blank-pElSkGRA2NU-unsplash.jpg,50,50,1100,0,,NaN,0,NaN,NaN,NaN,NaN,NaN,NaN,NaN,NaN,0,28,1,NaN
38,92380,39,I,scramble,0,1,2,body_parts,outdoor_scenes,27,5,Stimuli/Experimental_stims/scramble/body_parts/scrambled_heike-mintel-i_Gns0ELnLw-unsplash.jpg,Stimuli/Experimental_stims/scramble/outdoor_scenes/scrambled_jeff-king-bJHWJeiHfHc-unsplash.jpg,NaN,NaN,1100,1300,right,NaN,0,NaN,NaN,NaN,NaN,NaN,NaN,NaN,NaN,0,28,1,NaN
39,92380,40,G,original,0,1,2,objects,outdoor_scenes,39,6,Stimuli/Experimental_stims/objects/charlesdeluvio-1-nx1QR5dTE-unsplash.jpg,Stimuli/Experimental_stims/outdoor_scenes/meng-ji-8BH_M-53CyA-unsplash.jpg,50,50,3300,0,,NaN,0,NaN,NaN,NaN,NaN,NaN,NaN,NaN,NaN,1,28,1,NaN
40,92380,41,E,original,0,1,2,objects,body_parts,46,25,Stimuli/Experimental_stims/objects/mockup-graphics-PNsj6RiHAF4-unsplash.jpg,Stimuli/Experimental_stims/body_parts/engin-akyurt-Q2rfH3GW39c-unsplash.jpg,50,50,1300,0,,NaN,0,NaN,NaN,NaN,NaN,NaN,NaN,NaN,NaN,0,28,1,NaN
41,92380,42,G,scramble,0,1,2,objects,outdoor_scenes,39,6,Stimuli/Experimental_stims/scramble/objects/scrambled_charlesdeluvio-1-nx1QR5dTE-unsplash.jpg,Stimuli/Experimental_stims/scramble/outdoor_scenes/scrambled_meng-ji-8BH_M-53CyA-unsplash.jpg,NaN,NaN,2200,1800,right,NaN,0,NaN,NaN,NaN,NaN,NaN,NaN,NaN,NaN,0,28,1,NaN
42,92380,43,C,original,0,1,2,outdoor_scenes,body_parts,0,24,Stimuli/Experimental_stims/outdoor_scenes/aleksandra-boguslawska-MS7KD9Ti7FQ-unsplash.jpg,Stimuli/Experimental_stims/body_parts/clay-banks-LjqARJaJotc-unsplash.jpg,50,50,1500,0,,NaN,0,NaN,NaN,NaN,NaN,NaN,NaN,NaN,NaN,0,28,1,NaN
43,92380,44,J,scramble,0,1,2,faces,objects,12,42,Stimuli/Experimental_stims/scramble/faces/scrambled_aiony-haust-jmATI5Q_YgY-unsplash.jpg,Stimuli/Experimental_stims/scramble/objects/scrambled_jess-bailey-nOeVi8DsN8U-unsplash.jpg,NaN,NaN,2700,1800,left,NaN,0,NaN,NaN,NaN,NaN,NaN,NaN,NaN,NaN,0,28,1,NaN
44,92380,45,L,scramble,0,1,2,body_parts,faces,28,19,Stimuli/Experimental_stims/scramble/body_parts/scrambled_ira-vishnevskaya-8DQAvdCby1I-unsplash.jpg,Stimuli/Experimental_stims/scramble/faces/scrambled_joel-mott-LaK153ghdig-unsplash.jpg,NaN,NaN,2400,1300,left,NaN,0,NaN,NaN,NaN,NaN,NaN,NaN,NaN,NaN,0,28,1,NaN
45,92380,46,A,original,0,1,2,outdoor_scenes,objects,8,38,Stimuli/Experimental_stims/outdoor_scenes/samsommer-vddccTqwal8-unsplash.jpg,Stimuli/Experimental_stims/objects/art-lasovsky-8XddFc6NkBY-unsplash.jpg,50,50,2600,0,,NaN,0,NaN,NaN,NaN,NaN,NaN,NaN,NaN,NaN,0,28,1,NaN
46,92380,47,B,scramble,0,1,2,outdoor_scenes,faces,11,23,Stimuli/Experimental_stims/scramble/outdoor_scenes/scrambled_stephen-leonardi-gyIRjKPXupE-unsplash.jpg,Stimuli/Experimental_stims/scramble/faces/scrambled_rikonavt-HQjfrvdTfak-unsplash.jpg,NaN,NaN,2800,1700,right,NaN,0,NaN,NaN,NaN,NaN,NaN,NaN,NaN,NaN,1,28,1,NaN
47,92380,48,I,original,0,1,2,body_parts,outdoor_scenes,27,5,Stimuli/Experimental_stims/body_parts/heike-mintel-i_Gns0ELnLw-unsplash.jpg,Stimuli/Experimental_stims/outdoor_scenes/jeff-king-bJHWJeiHfHc-unsplash.jpg,50,50,1400,0,,NaN,0,NaN,NaN,NaN,NaN,NaN,NaN,NaN,NaN,0,28,1,NaN
48,92380,49,K,scramble,0,1,2,body_parts,objects,33,40,Stimuli/Experimental_stims/scramble/body_parts/scrambled_tucker-good-36skLT5jZcc-unsplash.jpg,Stimuli/Experimental_stims/scramble/objects/scrambled_fabian-blank-pElSkGRA2NU-unsplash.jpg,NaN,NaN,2700,1400,right,NaN,0,NaN,NaN,NaN,NaN,NaN,NaN,NaN,NaN,0,28,1,NaN
49,92380,50,D,scramble,0,1,2,objects,faces,36,21,Stimuli/Experimental_stims/scramble/objects/scrambled_alexander-andrews-JYGnB9gTCls-unsplash.jpg,Stimuli/Experimental_stims/scramble/faces/scrambled_leilani-angel-K84vnnzxmTQ-unsplash.jpg,NaN,NaN,1200,1900,left,NaN,0,NaN,NaN,NaN,NaN,NaN,NaN,NaN,NaN,0,28,1,NaN
50,92380,51,B,original,0,1,2,outdoor_scenes,faces,11,23,Stimuli/Experimental_stims/outdoor_scenes/stephen-leonardi-gyIRjKPXupE-unsplash.jpg,Stimuli/Experimental_stims/faces/rikonavt-HQjfrvdTfak-unsplash.jpg,50,50,2400,0,,NaN,0,NaN,NaN,NaN,NaN,NaN,NaN,NaN,NaN,0,28,1,NaN
51,92380,52,H,scramble,0,1,2,faces,outdoor_scenes,16,7,Stimuli/Experimental_stims/scramble/faces/scrambled_freddy-kearney-o-ioeoATbIM-unsplash.jpg,Stimuli/Experimental_stims/scramble/outdoor_scenes/scrambled_petr-vysohlid-9fqwGqGLUxc-unsplash.jpg,NaN,NaN,4700,700,left,NaN,0,NaN,NaN,NaN,NaN,NaN,NaN,NaN,NaN,1,28,1,NaN
52,92380,53,G,scramble,0,2,3,objects,outdoor_scenes,39,6,Stimuli/Experimental_stims/scramble/objects/scrambled_charlesdeluvio-1-nx1QR5dTE-unsplash.jpg,Stimuli/Experimental_stims/scramble/outdoor_scenes/scrambled_meng-ji-8BH_M-53CyA-unsplash.jpg,NaN,NaN,4100,1300,right,NaN,0,NaN,NaN,NaN,NaN,NaN,NaN,NaN,NaN,1,25,1,NaN
53,92380,54,J,scramble,0,2,3,faces,objects,12,42,Stimuli/Experimental_stims/scramble/faces/scrambled_aiony-haust-jmATI5Q_YgY-unsplash.jpg,Stimuli/Experimental_stims/scramble/objects/scrambled_jess-bailey-nOeVi8DsN8U-unsplash.jpg,NaN,NaN,2200,700,right,NaN,0,NaN,NaN,NaN,NaN,NaN,NaN,NaN,NaN,0,25,1,NaN
54,92380,55,C,original,0,2,3,outdoor_scenes,body_parts,0,24,Stimuli/Experimental_stims/outdoor_scenes/aleksandra-boguslawska-MS7KD9Ti7FQ-unsplash.jpg,Stimuli/Experimental_stims/body_parts/clay-banks-LjqARJaJotc-unsplash.jpg,50,50,2000,0,,NaN,0,NaN,NaN,NaN,NaN,NaN,NaN,NaN,NaN,0,25,1,NaN
55,92380,56,K,original,0,2,3,body_parts,objects,33,40,Stimuli/Experimental_stims/body_parts/tucker-good-36skLT5jZcc-unsplash.jpg,Stimuli/Experimental_stims/objects/fabian-blank-pElSkGRA2NU-unsplash.jpg,50,50,1100,0,,NaN,0,NaN,NaN,NaN,NaN,NaN,NaN,NaN,NaN,0,25,1,NaN
56,92380,57,I,scramble,0,2,3,body_parts,outdoor_scenes,27,5,Stimuli/Experimental_stims/scramble/body_parts/scrambled_heike-mintel-i_Gns0ELnLw-unsplash.jpg,Stimuli/Experimental_stims/scramble/outdoor_scenes/scrambled_jeff-king-bJHWJeiHfHc-unsplash.jpg,NaN,NaN,1300,1100,right,NaN,0,NaN,NaN,NaN,NaN,NaN,NaN,NaN,NaN,0,25,1,NaN
57,92380,58,H,scramble,0,2,3,faces,outdoor_scenes,16,7,Stimuli/Experimental_stims/scramble/faces/scrambled_freddy-kearney-o-ioeoATbIM-unsplash.jpg,Stimuli/Experimental_stims/scramble/outdoor_scenes/scrambled_petr-vysohlid-9fqwGqGLUxc-unsplash.jpg,NaN,NaN,1600,1100,left,NaN,0,NaN,NaN,NaN,NaN,NaN,NaN,NaN,NaN,0,25,1,NaN
58,92380,59,J,original,0,2,3,faces,objects,12,42,Stimuli/Experimental_stims/faces/aiony-haust-jmATI5Q_YgY-unsplash.jpg,Stimuli/Experimental_stims/objects/jess-bailey-nOeVi8DsN8U-unsplash.jpg,50,50,3100,0,,NaN,0,NaN,NaN,NaN,NaN,NaN,NaN,NaN,NaN,1,25,1,NaN
59,92380,60,B,original,0,2,3,outdoor_scenes,faces,11,23,Stimuli/Experimental_stims/outdoor_scenes/stephen-leonardi-gyIRjKPXupE-unsplash.jpg,Stimuli/Experimental_stims/faces/rikonavt-HQjfrvdTfak-unsplash.jpg,50,50,2500,0,,NaN,0,NaN,NaN,NaN,NaN,NaN,NaN,NaN,NaN,0,25,1,NaN
60,92380,61,E,scramble,0,2,3,objects,body_parts,46,25,Stimuli/Experimental_stims/scramble/objects/scrambled_mockup-graphics-PNsj6RiHAF4-unsplash.jpg,Stimuli/Experimental_stims/scramble/body_parts/scrambled_engin-akyurt-Q2rfH3GW39c-unsplash.jpg,NaN,NaN,2200,900,right,NaN,0,NaN,NaN,NaN,NaN,NaN,NaN,NaN,NaN,0,25,1,NaN
61,92380,62,H,original,0,2,3,faces,outdoor_scenes,16,7,Stimuli/Experimental_stims/faces/freddy-kearney-o-ioeoATbIM-unsplash.jpg,Stimuli/Experimental_stims/outdoor_scenes/petr-vysohlid-9fqwGqGLUxc-unsplash.jpg,50,50,1300,0,,NaN,0,NaN,NaN,NaN,NaN,NaN,NaN,NaN,NaN,0,25,1,NaN
62,92380,63,A,original,0,2,3,outdoor_scenes,objects,8,38,Stimuli/Experimental_stims/outdoor_scenes/samsommer-vddccTqwal8-unsplash.jpg,Stimuli/Experimental_stims/objects/art-lasovsky-8XddFc6NkBY-unsplash.jpg,50,50,1100,0,,NaN,0,NaN,NaN,NaN,NaN,NaN,NaN,NaN,NaN,0,25,1,NaN
63,92380,64,D,scramble,0,2,3,objects,faces,36,21,Stimuli/Experimental_stims/scramble/objects/scrambled_alexander-andrews-JYGnB9gTCls-unsplash.jpg,Stimuli/Experimental_stims/scramble/faces/scrambled_leilani-angel-K84vnnzxmTQ-unsplash.jpg,NaN,NaN,1300,1500,right,NaN,0,NaN,NaN,NaN,NaN,NaN,NaN,NaN,NaN,0,25,1,NaN
64,92380,65,L,scramble,0,2,3,body_parts,faces,28,19,Stimuli/Experimental_stims/scramble/body_parts/scrambled_ira-vishnevskaya-8DQAvdCby1I-unsplash.jpg,Stimuli/Experimental_stims/scramble/faces/scrambled_joel-mott-LaK153ghdig-unsplash.jpg,NaN,NaN,1600,1200,left,NaN,0,NaN,NaN,NaN,NaN,NaN,NaN,NaN,NaN,0,25,1,NaN
65,92380,66,L,original,0,2,3,body_parts,faces,28,19,Stimuli/Experimental_stims/body_parts/ira-vishnevskaya-8DQAvdCby1I-unsplash.jpg,Stimuli/Experimental_stims/faces/joel-mott-LaK153ghdig-unsplash.jpg,50,50,1900,0,,NaN,0,NaN,NaN,NaN,NaN,NaN,NaN,NaN,NaN,0,25,1,NaN
66,92380,67,K,scramble,0,2,3,body_parts,objects,33,40,Stimuli/Experimental_stims/scramble/body_parts/scrambled_tucker-good-36skLT5jZcc-unsplash.jpg,Stimuli/Experimental_stims/scramble/objects/scrambled_fabian-blank-pElSkGRA2NU-unsplash.jpg,NaN,NaN,2100,900,left,NaN,0,NaN,NaN,NaN,NaN,NaN,NaN,NaN,NaN,0,25,1,NaN
67,92380,68,F,original,0,2,3,faces,body_parts,17,29,Stimuli/Experimental_stims/faces/good-faces-xmSWVeGEnJw-unsplash.jpg,Stimuli/Experimental_stims/body_parts/manuel-schinner-ZwjFuJ7ebpk-unsplash.jpg,50,50,1700,0,,NaN,0,NaN,NaN,NaN,NaN,NaN,NaN,NaN,NaN,0,25,1,NaN
68,92380,69,F,scramble,0,2,3,faces,body_parts,17,29,Stimuli/Experimental_stims/scramble/faces/scrambled_good-faces-xmSWVeGEnJw-unsplash.jpg,Stimuli/Experimental_stims/scramble/body_parts/scrambled_manuel-schinner-ZwjFuJ7ebpk-unsplash.jpg,NaN,NaN,4200,1100,left,NaN,0,NaN,NaN,NaN,NaN,NaN,NaN,NaN,NaN,1,25,1,NaN
69,92380,70,I,original,0,2,3,body_parts,outdoor_scenes,27,5,Stimuli/Experimental_stims/body_parts/heike-mintel-i_Gns0ELnLw-unsplash.jpg,Stimuli/Experimental_stims/outdoor_scenes/jeff-king-bJHWJeiHfHc-unsplash.jpg,50,50,2100,0,,NaN,0,NaN,NaN,NaN,NaN,NaN,NaN,NaN,NaN,0,25,1,NaN
70,92380,71,E,original,0,2,3,objects,body_parts,46,25,Stimuli/Experimental_stims/objects/mockup-graphics-PNsj6RiHAF4-unsplash.jpg,Stimuli/Experimental_stims/body_parts/engin-akyurt-Q2rfH3GW39c-unsplash.jpg,50,50,1800,0,,NaN,0,NaN,NaN,NaN,NaN,NaN,NaN,NaN,NaN,0,25,1,NaN
71,92380,72,C,scramble,0,2,3,outdoor_scenes,body_parts,0,24,Stimuli/Experimental_stims/scramble/outdoor_scenes/scrambled_aleksandra-boguslawska-MS7KD9Ti7FQ-unsplash.jpg,Stimuli/Experimental_stims/scramble/body_parts/scrambled_clay-banks-LjqARJaJotc-unsplash.jpg,NaN,NaN,1700,1000,left,NaN,0,NaN,NaN,NaN,NaN,NaN,NaN,NaN,NaN,0,25,1,NaN
72,92380,73,A,scramble,0,2,3,outdoor_scenes,objects,8,38,Stimuli/Experimental_stims/scramble/outdoor_scenes/scrambled_samsommer-vddccTqwal8-unsplash.jpg,Stimuli/Experimental_stims/scramble/objects/scrambled_art-lasovsky-8XddFc6NkBY-unsplash.jpg,NaN,NaN,1600,1400,left,NaN,0,NaN,NaN,NaN,NaN,NaN,NaN,NaN,NaN,0,25,1,NaN
73,92380,74,D,original,0,2,3,objects,faces,36,21,Stimuli/Experimental_stims/objects/alexander-andrews-JYGnB9gTCls-unsplash.jpg,Stimuli/Experimental_stims/faces/leilani-angel-K84vnnzxmTQ-unsplash.jpg,50,50,4100,0,,NaN,0,NaN,NaN,NaN,NaN,NaN,NaN,NaN,NaN,1,25,1,NaN
74,92380,75,B,scramble,0,2,3,outdoor_scenes,faces,11,23,Stimuli/Experimental_stims/scramble/outdoor_scenes/scrambled_stephen-leonardi-gyIRjKPXupE-unsplash.jpg,Stimuli/Experimental_stims/scramble/faces/scrambled_rikonavt-HQjfrvdTfak-unsplash.jpg,NaN,NaN,2600,1400,right,NaN,0,NaN,NaN,NaN,NaN,NaN,NaN,NaN,NaN,0,25,1,NaN
75,92380,76,G,original,0,2,3,objects,outdoor_scenes,39,6,Stimuli/Experimental_stims/objects/charlesdeluvio-1-nx1QR5dTE-unsplash.jpg,Stimuli/Experimental_stims/outdoor_scenes/meng-ji-8BH_M-53CyA-unsplash.jpg,50,50,2100,0,,NaN,0,NaN,NaN,NaN,NaN,NaN,NaN,NaN,NaN,0,25,1,NaN
76,92380,77,F,scramble,0,2,4,faces,body_parts,17,29,Stimuli/Experimental_stims/scramble/faces/scrambled_good-faces-xmSWVeGEnJw-unsplash.jpg,Stimuli/Experimental_stims/scramble/body_parts/scrambled_manuel-schinner-ZwjFuJ7ebpk-unsplash.jpg,NaN,NaN,1400,200,left,NaN,0,NaN,NaN,NaN,NaN,NaN,NaN,NaN,NaN,0,25,1,NaN
77,92380,78,H,original,0,2,4,faces,outdoor_scenes,16,7,Stimuli/Experimental_stims/faces/freddy-kearney-o-ioeoATbIM-unsplash.jpg,Stimuli/Experimental_stims/outdoor_scenes/petr-vysohlid-9fqwGqGLUxc-unsplash.jpg,50,50,1000,0,,NaN,0,NaN,NaN,NaN,NaN,NaN,NaN,NaN,NaN,0,25,1,NaN
78,92380,79,D,original,0,2,4,objects,faces,36,21,Stimuli/Experimental_stims/objects/alexander-andrews-JYGnB9gTCls-unsplash.jpg,Stimuli/Experimental_stims/faces/leilani-angel-K84vnnzxmTQ-unsplash.jpg,50,50,3100,0,,NaN,0,NaN,NaN,NaN,NaN,NaN,NaN,NaN,NaN,1,25,1,NaN
79,92380,80,I,scramble,0,2,4,body_parts,outdoor_scenes,27,5,Stimuli/Experimental_stims/scramble/body_parts/scrambled_heike-mintel-i_Gns0ELnLw-unsplash.jpg,Stimuli/Experimental_stims/scramble/outdoor_scenes/scrambled_jeff-king-bJHWJeiHfHc-unsplash.jpg,NaN,NaN,2100,700,left,NaN,0,NaN,NaN,NaN,NaN,NaN,NaN,NaN,NaN,0,25,1,NaN
80,92380,81,E,scramble,0,2,4,objects,body_parts,46,25,Stimuli/Experimental_stims/scramble/objects/scrambled_mockup-graphics-PNsj6RiHAF4-unsplash.jpg,Stimuli/Experimental_stims/scramble/body_parts/scrambled_engin-akyurt-Q2rfH3GW39c-unsplash.jpg,NaN,NaN,1600,1800,right,NaN,0,NaN,NaN,NaN,NaN,NaN,NaN,NaN,NaN,0,25,1,NaN
81,92380,82,K,original,0,2,4,body_parts,objects,33,40,Stimuli/Experimental_stims/body_parts/tucker-good-36skLT5jZcc-unsplash.jpg,Stimuli/Experimental_stims/objects/fabian-blank-pElSkGRA2NU-unsplash.jpg,50,50,1500,0,,NaN,0,NaN,NaN,NaN,NaN,NaN,NaN,NaN,NaN,0,25,1,NaN
82,92380,83,D,scramble,0,2,4,objects,faces,36,21,Stimuli/Experimental_stims/scramble/objects/scrambled_alexander-andrews-JYGnB9gTCls-unsplash.jpg,Stimuli/Experimental_stims/scramble/faces/scrambled_leilani-angel-K84vnnzxmTQ-unsplash.jpg,NaN,NaN,2000,1500,right,NaN,0,NaN,NaN,NaN,NaN,NaN,NaN,NaN,NaN,0,25,1,NaN
83,92380,84,L,original,0,2,4,body_parts,faces,28,19,Stimuli/Experimental_stims/body_parts/ira-vishnevskaya-8DQAvdCby1I-unsplash.jpg,Stimuli/Experimental_stims/faces/joel-mott-LaK153ghdig-unsplash.jpg,50,50,3600,0,,NaN,0,NaN,NaN,NaN,NaN,NaN,NaN,NaN,NaN,1,25,1,NaN
84,92380,85,G,original,0,2,4,objects,outdoor_scenes,39,6,Stimuli/Experimental_stims/objects/charlesdeluvio-1-nx1QR5dTE-unsplash.jpg,Stimuli/Experimental_stims/outdoor_scenes/meng-ji-8BH_M-53CyA-unsplash.jpg,50,50,1700,0,,NaN,0,NaN,NaN,NaN,NaN,NaN,NaN,NaN,NaN,0,25,1,NaN
85,92380,86,B,scramble,0,2,4,outdoor_scenes,faces,11,23,Stimuli/Experimental_stims/scramble/outdoor_scenes/scrambled_stephen-leonardi-gyIRjKPXupE-unsplash.jpg,Stimuli/Experimental_stims/scramble/faces/scrambled_rikonavt-HQjfrvdTfak-unsplash.jpg,NaN,NaN,1600,1000,left,NaN,0,NaN,NaN,NaN,NaN,NaN,NaN,NaN,NaN,0,25,1,NaN
86,92380,87,E,original,0,2,4,objects,body_parts,46,25,Stimuli/Experimental_stims/objects/mockup-graphics-PNsj6RiHAF4-unsplash.jpg,Stimuli/Experimental_stims/body_parts/engin-akyurt-Q2rfH3GW39c-unsplash.jpg,50,50,1100,0,,NaN,0,NaN,NaN,NaN,NaN,NaN,NaN,NaN,NaN,0,25,1,NaN
87,92380,88,J,scramble,0,2,4,faces,objects,12,42,Stimuli/Experimental_stims/scramble/faces/scrambled_aiony-haust-jmATI5Q_YgY-unsplash.jpg,Stimuli/Experimental_stims/scramble/objects/scrambled_jess-bailey-nOeVi8DsN8U-unsplash.jpg,NaN,NaN,1700,1300,right,NaN,0,NaN,NaN,NaN,NaN,NaN,NaN,NaN,NaN,0,25,1,NaN
88,92380,89,H,scramble,0,2,4,faces,outdoor_scenes,16,7,Stimuli/Experimental_stims/scramble/faces/scrambled_freddy-kearney-o-ioeoATbIM-unsplash.jpg,Stimuli/Experimental_stims/scramble/outdoor_scenes/scrambled_petr-vysohlid-9fqwGqGLUxc-unsplash.jpg,NaN,NaN,1900,1500,left,NaN,0,NaN,NaN,NaN,NaN,NaN,NaN,NaN,NaN,0,25,1,NaN
89,92380,90,I,original,0,2,4,body_parts,outdoor_scenes,27,5,Stimuli/Experimental_stims/body_parts/heike-mintel-i_Gns0ELnLw-unsplash.jpg,Stimuli/Experimental_stims/outdoor_scenes/jeff-king-bJHWJeiHfHc-unsplash.jpg,50,50,1900,0,,NaN,0,NaN,NaN,NaN,NaN,NaN,NaN,NaN,NaN,0,25,1,NaN
90,92380,91,G,scramble,0,2,4,objects,outdoor_scenes,39,6,Stimuli/Experimental_stims/scramble/objects/scrambled_charlesdeluvio-1-nx1QR5dTE-unsplash.jpg,Stimuli/Experimental_stims/scramble/outdoor_scenes/scrambled_meng-ji-8BH_M-53CyA-unsplash.jpg,NaN,NaN,2700,1100,left,NaN,0,NaN,NaN,NaN,NaN,NaN,NaN,NaN,NaN,1,25,1,NaN
91,92380,92,F,original,0,2,4,faces,body_parts,17,29,Stimuli/Experimental_stims/faces/good-faces-xmSWVeGEnJw-unsplash.jpg,Stimuli/Experimental_stims/body_parts/manuel-schinner-ZwjFuJ7ebpk-unsplash.jpg,50,50,1500,0,,NaN,0,NaN,NaN,NaN,NaN,NaN,NaN,NaN,NaN,0,25,1,NaN
92,92380,93,C,scramble,0,2,4,outdoor_scenes,body_parts,0,24,Stimuli/Experimental_stims/scramble/outdoor_scenes/scrambled_aleksandra-boguslawska-MS7KD9Ti7FQ-unsplash.jpg,Stimuli/Experimental_stims/scramble/body_parts/scrambled_clay-banks-LjqARJaJotc-unsplash.jpg,NaN,NaN,2000,1000,right,NaN,0,NaN,NaN,NaN,NaN,NaN,NaN,NaN,NaN,0,25,1,NaN
93,92380,94,C,original,0,2,4,outdoor_scenes,body_parts,0,24,Stimuli/Experimental_stims/outdoor_scenes/aleksandra-boguslawska-MS7KD9Ti7FQ-unsplash.jpg,Stimuli/Experimental_stims/body_parts/clay-banks-LjqARJaJotc-unsplash.jpg,50,50,1000,0,,NaN,0,NaN,NaN,NaN,NaN,NaN,NaN,NaN,NaN,0,25,1,NaN
94,92380,95,K,scramble,0,2,4,body_parts,objects,33,40,Stimuli/Experimental_stims/scramble/body_parts/scrambled_tucker-good-36skLT5jZcc-unsplash.jpg,Stimuli/Experimental_stims/scramble/objects/scrambled_fabian-blank-pElSkGRA2NU-unsplash.jpg,NaN,NaN,2000,100,right,NaN,0,NaN,NaN,NaN,NaN,NaN,NaN,NaN,NaN,0,25,1,NaN
95,92380,96,J,original,0,2,4,faces,objects,12,42,Stimuli/Experimental_stims/faces/aiony-haust-jmATI5Q_YgY-unsplash.jpg,Stimuli/Experimental_stims/objects/jess-bailey-nOeVi8DsN8U-unsplash.jpg,50,50,3900,0,,NaN,0,NaN,NaN,NaN,NaN,NaN,NaN,NaN,NaN,1,25,1,NaN
96,92380,97,A,scramble,0,2,4,outdoor_scenes,objects,8,38,Stimuli/Experimental_stims/scramble/outdoor_scenes/scrambled_samsommer-vddccTqwal8-unsplash.jpg,Stimuli/Experimental_stims/scramble/objects/scrambled_art-lasovsky-8XddFc6NkBY-unsplash.jpg,NaN,NaN,1700,500,left,NaN,0,NaN,NaN,NaN,NaN,NaN,NaN,NaN,NaN,0,25,1,NaN
97,92380,98,L,scramble,0,2,4,body_parts,faces,28,19,Stimuli/Experimental_stims/scramble/body_parts/scrambled_ira-vishnevskaya-8DQAvdCby1I-unsplash.jpg,Stimuli/Experimental_stims/scramble/faces/scrambled_joel-mott-LaK153ghdig-unsplash.jpg,NaN,NaN,1100,500,right,NaN,0,NaN,NaN,NaN,NaN,NaN,NaN,NaN,NaN,0,25,1,NaN
98,92380,99,A,original,0,2,4,outdoor_scenes,objects,8,38,Stimuli/Experimental_stims/outdoor_scenes/samsommer-vddccTqwal8-unsplash.jpg,Stimuli/Experimental_stims/objects/art-lasovsky-8XddFc6NkBY-unsplash.jpg,50,50,1200,0,,NaN,0,NaN,NaN,NaN,NaN,NaN,NaN,NaN,NaN,0,25,1,NaN