,PID,trial,pair_id,stim_type,practice,run,block,left_category,right_category,left_stimulus,right_stimulus,left_path,right_path,left_rating,right_rating,iti,scramble_screen_time,scramble_instructed_side,scramble_acc,no_response,rt,left_chosen,chosen_stimulus,unchosen_stimulus,chosen_category,unchosen_category,chosen_path,unchosen_path,long_iti,simulation,version,version
0,98260,1,prac1,original,1,0,0,,,,,Stimuli/Practice_stims/Deliberation/anthony-delanoix-Q0-fOL2nqZc-unsplash.jpg,Stimuli/Practice_stims/Deliberation/becca-tapert-sY5RjMB1KkE-unsplash.jpg,,,1500,0,,NaN,0,NaN,NaN,NaN,NaN,NaN,NaN,NaN,NaN,0,28,1,NaN
1,98260,2,prac2,scramble,1,0,0,,,,,Stimuli/Practice_stims/Deliberation/scramble/scrambled_clay-banks-1KPfcPdbWFM-unsplash.jpg,Stimuli/Practice_stims/Deliberation/scramble/scrambled_melissa-keizer-sV4Pd8wq5_o-unsplash.jpg,,,2500,1500,left,NaN,0,NaN,NaN,NaN,NaN,NaN,NaN,NaN,NaN,0,28,1,NaN
2,98260,3,prac3,scramble,1,0,0,,,,,Stimuli/Practice_stims/Deliberation/scramble/scrambled_anthony-delanoix-Q0-fOL2nqZc-unsplash.jpg,Stimuli/Practice_stims/Deliberation/scramble/scrambled_becca-tapert-sY5RjMB1KkE-unsplash.jpg,,,3000,1500,right,NaN,0,NaN,NaN,NaN,NaN,NaN,NaN,NaN,NaN,0,28,1,NaN
3,98260,4,prac4,original,1,0,0,,,,,Stimuli/Practice_stims/Deliberation/clay-banks-1KPfcPdbWFM-unsplash.jpg,Stimuli/Practice_stims/Deliberation/melissa-keizer-sV4Pd8wq5_o-unsplash.jpg,,,2000,0,,NaN,0,NaN,NaN,NaN,NaN,NaN,NaN,NaN,NaN,0,28,1,NaN
4,98260,5,H,scramble,0,1,1,faces,outdoor_scenes,21,2,Stimuli/Experimental_stims/scramble/faces/scrambled_leilani-angel-K84vnnzxmTQ-unsplash.jpg,Stimuli/Experimental_stims/scramble/outdoor_scenes/scrambled_bruno-van-der-kraan-qez8mNJ3ilU-unsplash.jpg,NaN,NaN,3400,2000,right,NaN,0,NaN,NaN,NaN,NaN,NaN,NaN,NaN,NaN,1,28,1,NaN
5,98260,6,C,original,0,1,1,outdoor_scenes,body_parts,0,27,Stimuli/Experimental_stims/outdoor_scenes/aleksandra-boguslawska-MS7KD9Ti7FQ-unsplash.jpg,Stimuli/Experimental_stims/body_parts/heike-mintel-i_Gns0ELnLw-unsplash.jpg,50,50,1900,0,,NaN,0,NaN,NaN,NaN,NaN,NaN,NaN,NaN,NaN,0,28,1,NaN
6,98260,7,J,original,0,1,1,faces,objects,23,41,Stimuli/Experimental_stims/faces/rikonavt-HQjfrvdTfak-unsplash.jpg,Stimuli/Experimental_stims/objects/insung-yoon-w2JtIQQXoRU-unsplash.jpg,50,50,1300,0,,NaN,0,NaN,NaN,NaN,NaN,NaN,NaN,NaN,NaN,0,28,1,NaN
7,98260,8,A,scramble,0,1,1,outdoor_scenes,objects,11,40,Stimuli/Experimental_stims/scramble/outdoor_scenes/scrambled_stephen-leonardi-gyIRjKPXupE-unsplash.jpg,Stimuli/Experimental_stims/scramble/objects/scrambled_fabian-blank-pElSkGRA2NU-unsplash.jpg,NaN,NaN,2200,1900,left,NaN,0,NaN,NaN,NaN,NaN,NaN,NaN,NaN,NaN,0,28,1,NaN
8,98260,9,D,scramble,0,1,1,objects,faces,46,13,Stimuli/Experimental_stims/scramble/objects/scrambled_mockup-graphics-PNsj6RiHAF4-unsplash.jpg,Stimuli/Experimental_stims/scramble/faces/scrambled_daniel-rigdon-dXmXKPP2L4E-unsplash.jpg,NaN,NaN,1600,1300,right,NaN,0,NaN,NaN,NaN,NaN,NaN,NaN,NaN,NaN,0,28,1,NaN
9,98260,10,B,original,0,1,1,outdoor_scenes,faces,5,18,Stimuli/Experimental_stims/outdoor_scenes/jeff-king-bJHWJeiHfHc-unsplash.jpg,Stimuli/Experimental_stims/faces/jessica-radanavong-mrYkTuAesKE-unsplash.jpg,50,50,2300,0,,NaN,0,NaN,NaN,NaN,NaN,NaN,NaN,NaN,NaN,0,28,1,NaN
10,98260,11,K,scramble,0,1,1,body_parts,objects,28,42,Stimuli/Experimental_stims/scramble/body_parts/scrambled_ira-vishnevskaya-8DQAvdCby1I-unsplash.jpg,Stimuli/Experimental_stims/scramble/objects/scrambled_jess-bailey-nOeVi8DsN8U-unsplash.jpg,NaN,NaN,3400,1800,left,NaN,0,NaN,NaN,NaN,NaN,NaN,NaN,NaN,NaN,1,28,1,NaN
11,98260,12,F,original,0,1,1,faces,body_parts,14,26,Stimuli/Experimental_stims/faces/david-siglin-UuW4psOb388-unsplash.jpg,Stimuli/Experimental_stims/body_parts/engin-akyurt-x_3gyC42btc-unsplash.jpg,50,50,2100,0,,NaN,0,NaN,NaN,NaN,NaN,NaN,NaN,NaN,NaN,0,28,1,NaN
12,98260,13,G,scramble,0,1,1,objects,outdoor_scenes,39,6,Stimuli/Experimental_stims/scramble/objects/scrambled_charlesdeluvio-1-nx1QR5dTE-unsplash.jpg,Stimuli/Experimental_stims/scramble/outdoor_scenes/scrambled_meng-ji-8BH_M-53CyA-unsplash.jpg,NaN,NaN,1700,1000,left,NaN,0,NaN,NaN,NaN,NaN,NaN,NaN,NaN,NaN,0,28,1,NaN
13,98260,14,C,scramble,0,1,1,outdoor_scenes,body_parts,0,27,Stimuli/Experimental_stims/scramble/outdoor_scenes/scrambled_aleksandra-boguslawska-MS7KD9Ti7FQ-unsplash.jpg,Stimuli/Experimental_stims/scramble/body_parts/scrambled_heike-mintel-i_Gns0ELnLw-unsplash.jpg,NaN,NaN,1300,1500,right,NaN,0,NaN,NaN,NaN,NaN,NaN,NaN,NaN,NaN,0,28,1,NaN
14,98260,15,A,original,0,1,1,outdoor_scenes,objects,11,40,Stimuli/Experimental_stims/outdoor_scenes/stephen-leonardi-gyIRjKPXupE-unsplash.jpg,Stimuli/Experimental_stims/objects/fabian-blank-pElSkGRA2NU-unsplash.jpg,50,50,1400,0,,NaN,0,NaN,NaN,NaN,NaN,NaN,NaN,NaN,NaN,0,28,1,NaN
15,98260,16,G,original,0,1,1,objects,outdoor_scenes,39,6,Stimuli/Experimental_stims/objects/charlesdeluvio-1-nx1QR5dTE-unsplash.jpg,Stimuli/Experimental_stims/outdoor_scenes/meng-ji-8BH_M-53CyA-unsplash.jpg,50,50,3000,0,,NaN,0,NaN,NaN,NaN,NaN,NaN,NaN,NaN,NaN,1,28,1,NaN
16,98260,17,B,scramble,0,1,1,outdoor_scenes,faces,5,18,Stimuli/Experimental_stims/scramble/outdoor_scenes/scrambled_jeff-king-bJHWJeiHfHc-unsplash.jpg,Stimuli/Experimental_stims/scramble/faces/scrambled_jessica-radanavong-mrYkTuAesKE-unsplash.jpg,NaN,NaN,1300,1500,right,NaN,0,NaN,NaN,NaN,NaN,NaN,NaN,NaN,NaN,0,28,1,NaN
17,98260,18,L,original,0,1,1,body_parts,faces,33,12,Stimuli/Experimental_stims/body_parts/tucker-good-36skLT5jZcc-unsplash.jpg,Stimuli/Experimental_stims/faces/aiony-haust-jmATI5Q_YgY-unsplash.jpg,50,50,1400,0,,NaN,0,NaN,NaN,NaN,NaN,NaN,NaN,NaN,NaN,0,28,1,NaN
18,98260,19,J,scramble,0,1,1,faces,objects,23,41,Stimuli/Experimental_stims/scramble/faces/scrambled_rikonavt-HQjfrvdTfak-unsplash.jpg,Stimuli/Experimental_stims/scramble/objects/scrambled_insung-yoon-w2JtIQQXoRU-unsplash.jpg,NaN,NaN,1400,1300,right,NaN,0,NaN,NaN,NaN,NaN,NaN,NaN,NaN,NaN,0,28,1,NaN
19,98260,20,H,original,0,1,1,faces,outdoor_scenes,21,2,Stimuli/Experimental_stims/faces/leilani-angel-K84vnnzxmTQ-unsplash.jpg,Stimuli/Experimental_stims/outdoor_scenes/bruno-van-der-kraan-qez8mNJ3ilU-unsplash.jpg,50,50,2200,0,,NaN,0,NaN,NaN,NaN,NaN,NaN,NaN,NaN,NaN,0,28,1,NaN
20,98260,21,K,original,0,1,1,body_parts,objects,28,42,Stimuli/Experimental_stims/body_parts/ira-vishnevskaya-8DQAvdCby1I-unsplash.jpg,Stimuli/Experimental_stims/objects/jess-bailey-nOeVi8DsN8U-unsplash.jpg,50,50,1300,0,,NaN,0,NaN,NaN,NaN,NaN,NaN,NaN,NaN,NaN,0,28,1,NaN
21,98260,22,E,scramble,0,1,1,objects,body_parts,43,30,Stimuli/Experimental_stims/scramble/objects/scrambled_jonathan-greenaway-Y4hGgeiFn3s-unsplash.jpg,Stimuli/Experimental_stims/scramble/body_parts/scrambled_mika-korhonen-Xodzxosar18-unsplash.jpg,NaN,NaN,1100,1300,right,NaN,0,NaN,NaN,NaN,NaN,NaN,NaN,NaN,NaN,0,28,1,NaN
22,98260,23,I,original,0,1,1,body_parts,outdoor_scenes,25,3,Stimuli/Experimental_stims/body_parts/engin-akyurt-Q2rfH3GW39c-unsplash.jpg,Stimuli/Experimental_stims/outdoor_scenes/henry-be-NLF6hTe4PAg-unsplash.jpg,50,50,2700,0,,NaN,0,NaN,NaN,NaN,NaN,NaN,NaN,NaN,NaN,0,28,1,NaN
23,98260,24,I,scramble,0,1,1,body_parts,outdoor_scenes,25,3,Stimuli/Experimental_stims/scramble/body_parts/scrambled_engin-akyurt-Q2rfH3GW39c-unsplash.jpg,Stimuli/Experimental_stims/scramble/outdoor_scenes/scrambled_henry-be-NLF6hTe4PAg-unsplash.jpg,NaN,NaN,2100,1600,left,NaN,0,NaN,NaN,NaN,NaN,NaN,NaN,NaN,NaN,0,28,1,NaN
24,98260,25,E,original,0,1,1,objects,body_parts,43,30,Stimuli/Experimental_stims/objects/jonathan-greenaway-Y4hGgeiFn3s-unsplash.jpg,Stimuli/Experimental_stims/body_parts/mika-korhonen-Xodzxosar18-unsplash.jpg,50,50,2100,0,,NaN,0,NaN,NaN,NaN,NaN,NaN,NaN,NaN,NaN,0,28,1,NaN
25,98260,26,F,scramble,0,1,1,faces,body_parts,14,26,Stimuli/Experimental_stims/scramble/faces/scrambled_david-siglin-UuW4psOb388-unsplash.jpg,Stimuli/Experimental_stims/scramble/body_parts/scrambled_engin-akyurt-x_3gyC42btc-unsplash.jpg,NaN,NaN,3200,1100,left,NaN,0,NaN,NaN,NaN,NaN,NaN,NaN,NaN,NaN,1,28,1,NaN
26,98260,27,D,original,0,1,1,objects,faces,46,13,Stimuli/Experimental_stims/objects/mockup-graphics-PNsj6RiHAF4-unsplash.jpg,Stimuli/Experimental_stims/faces/daniel-rigdon-dXmXKPP2L4E-unsplash.jpg,50,50,1100,0,,NaN,0,NaN,NaN,NaN,NaN,NaN,NaN,NaN,NaN,0,28,1,NaN
27,98260,28,L,scramble,0,1,1,body_parts,faces,33,12,Stimuli/Experimental_stims/scramble/body_parts/scrambled_tucker-good-36skLT5jZcc-unsplash.jpg,Stimuli/Experimental_stims/scramble/faces/scrambled_aiony-haust-jmATI5Q_YgY-unsplash.jpg,NaN,NaN,1700,700,left,NaN,0,NaN,NaN,NaN,NaN,NaN,NaN,NaN,NaN,0,28,1,NaN
28,98260,29,J,original,0,1,2,faces,objects,23,41,Stimuli/Experimental_stims/faces/rikonavt-HQjfrvdTfak-unsplash.jpg,Stimuli/Experimental_stims/objects/insung-yoon-w2JtIQQXoRU-unsplash.jpg,50,50,2200,0,,NaN,0,NaN,NaN,NaN,NaN,NaN,NaN,NaN,NaN,0,28,1,NaN
29,98260,30,A,scramble,0,1,2,outdoor_scenes,objects,11,40,Stimuli/Experimental_stims/scramble/outdoor_scenes/scrambled_stephen-leonardi-gyIRjKPXupE-unsplash.jpg,Stimuli/Experimental_stims/scramble/objects/scrambled_fabian-blank-pElSkGRA2NU-unsplash.jpg,NaN,NaN,2100,1200,left,NaN,0,NaN,NaN,NaN,NaN,NaN,NaN,NaN,NaN,0,28,1,NaN
30,98260,31,L,original,0,1,2,body_parts,faces,33,12,Stimuli/Experimental_stims/body_parts/tucker-good-36skLT5jZcc-unsplash.jpg,Stimuli/Experimental_stims/faces/aiony-haust-jmATI5Q_YgY-unsplash.jpg,50,50,1700,0,,NaN,0,NaN,NaN,NaN,NaN,NaN,NaN,NaN,NaN,0,28,1,NaN
31,98260,32,E,scramble,0,1,2,objects,body_parts,43,30,Stimuli/Experimental_stims/scramble/objects/scrambled_jonathan-greenaway-Y4hGgeiFn3s-unsplash.jpg,Stimuli/Experimental_stims/scramble/body_parts/scrambled_mika-korhonen-Xodzxosar18-unsplash.jpg,NaN,NaN,1800,1000,left,NaN,0,NaN,NaN,NaN,NaN,NaN,NaN,NaN,NaN,0,28,1,NaN
32,98260,33,F,original,0,1,2,faces,body_parts,14,26,Stimuli/Experimental_stims/faces/david-siglin-UuW4psOb388-unsplash.jpg,Stimuli/Experimental_stims/body_parts/engin-akyurt-x_3gyC42btc-unsplash.jpg,50,50,2800,0,,NaN,0,NaN,NaN,NaN,NaN,NaN,NaN,NaN,NaN,1,28,1,NaN
33,98260,34,D,original,0,1,2,objects,faces,46,13,Stimuli/Experimental_stims/objects/mockup-graphics-PNsj6RiHAF4-unsplash.jpg,Stimuli/Experimental_stims/faces/daniel-rigdon-dXmXKPP2L4E-unsplash.jpg,50,50,1700,0,,NaN,0,NaN,NaN,NaN,NaN,NaN,NaN,NaN,NaN,0,28,1,NaN
34,98260,35,F,scramble,0,1,2,faces,body_parts,14,26,Stimuli/Experimental_stims/scramble/faces/scrambled_david-siglin-UuW4psOb388-unsplash.jpg,Stimuli/Experimental_stims/scramble/body_parts/scrambled_engin-akyurt-x_3gyC42btc-unsplash.jpg,NaN,NaN,1000,1800,right,NaN,0,NaN,NaN,NaN,NaN,NaN,NaN,NaN,NaN,0,28,1,NaN
35,98260,36,C,scramble,0,1,2,outdoor_scenes,body_parts,0,27,Stimuli/Experimental_stims/scramble/outdoor_scenes/scrambled_aleksandra-boguslawska-MS7KD9Ti7FQ-unsplash.jpg,Stimuli/Experimental_stims/scramble/body_parts/scrambled_heike-mintel-i_Gns0ELnLw-unsplash.jpg,NaN,NaN,1000,1600,right,NaN,0,NaN,NaN,NaN,NaN,NaN,NaN,NaN,NaN,0,28,1,NaN
36,98260,37,H,original,0,1,2,faces,outdoor_scenes,21,2,Stimuli/Experimental_stims/faces/leilani-angel-K84vnnzxmTQ-unsplash.jpg,Stimuli/Experimental_stims/outdoor_scenes/bruno-van-der-kraan-qez8mNJ3ilU-unsplash.jpg,50,50,1100,0,,NaN,0,NaN,NaN,NaN,NaN,NaN,NaN,NaN,NaN,0,28,1,NaN
37,98260,38,K,original,0,1,2,body_parts,objects,28,42,Stimuli/Experimental_stims/body_parts/ira-vishnevskaya-8DQAvdCby1I-unsplash.jpg,Stimuli/Experimental_stims/objects/jess-bailey-nOeVi8DsN8U-unsplash.jpg,50,50,1100,0,,NaN,0,NaN,NaN,NaN,NaN,NaN,NaN,NaN,NaN,0,28,1,NaN
38,98260,39,I,scramble,0,1,2,body_parts,outdoor_scenes,25,3,Stimuli/Experimental_stims/scramble/body_parts/scrambled_engin-akyurt-Q2rfH3GW39c-unsplash.jpg,Stimuli/Experimental_stims/scramble/outdoor_scenes/scrambled_henry-be-NLF6hTe4PAg-unsplash.jpg,NaN,NaN,1100,1300,right,NaN,0,NaN,NaN,NaN,NaN,NaN,NaN,NaN,NaN,0,28,1,NaN
39,98260,40,G,original,0,1,2,objects,outdoor_scenes,39,6,Stimuli/Experimental_stims/objects/charlesdeluvio-1-nx1QR5dTE-unsplash.jpg,Stimuli/Experimental_stims/outdoor_scenes/meng-ji-8BH_M-53CyA-unsplash.jpg,50,50,3300,0,,NaN,0,NaN,NaN,NaN,NaN,NaN,NaN,NaN,NaN,1,28,1,NaN
40,98260,41,E,original,0,1,2,objects,body_parts,43,30,Stimuli/Experimental_stims/objects/jonathan-greenaway-Y4hGgeiFn3s-unsplash.jpg,Stimuli/Experimental_stims/body_parts/mika-korhonen-Xodzxosar18-unsplash.jpg,50,50,1300,0,,NaN,0,NaN,NaN,NaN,NaN,NaN,NaN,NaN,NaN,0,28,1,NaN
41,98260,42,G,scramble,0,1,2,objects,outdoor_scenes,39,6,Stimuli/Experimental_stims/scramble/objects/scrambled_charlesdeluvio-1-nx1QR5dTE-unsplash.jpg,Stimuli/Experimental_stims/scramble/outdoor_scenes/scrambled_meng-ji-8BH_M-53CyA-unsplash.jpg,NaN,NaN,2200,1800,right,NaN,0,NaN,NaN,NaN,NaN,NaN,NaN,NaN,NaN,0,28,1,NaN
42,98260,43,C,original,0,1,2,outdoor_scenes,body_parts,0,27,Stimuli/Experimental_stims/outdoor_scenes/aleksandra-boguslawska-MS7KD9Ti7FQ-unsplash.jpg,Stimuli/Experimental_stims/body_parts/heike-mintel-i_Gns0ELnLw-unsplash.jpg,50,50,1500,0,,NaN,0,NaN,NaN,NaN,NaN,NaN,NaN,NaN,NaN,0,28,1,NaN
43,98260,44,J,scramble,0,1,2,faces,objects,23,41,Stimuli/Experimental_stims/scramble/faces/scrambled_rikonavt-HQjfrvdTfak-unsplash.jpg,Stimuli/Experimental_stims/scramble/objects/scrambled_insung-yoon-w2JtIQQXoRU-unsplash.jpg,NaN,NaN,2700,1800,left,NaN,0,NaN,NaN,NaN,NaN,NaN,NaN,NaN,NaN,0,28,1,NaN
44,98260,45,L,scramble,0,1,2,body_parts,faces,33,12,Stimuli/Experimental_stims/scramble/body_parts/scrambled_tucker-good-36skLT5jZcc-unsplash.jpg,Stimuli/Experimental_stims/scramble/faces/scrambled_aiony-haust-jmATI5Q_YgY-unsplash.jpg,NaN,NaN,2400,1300,left,NaN,0,NaN,NaN,NaN,NaN,NaN,NaN,NaN,NaN,0,28,1,NaN
45,98260,46,A,original,0,1,2,outdoor_scenes,objects,11,40,Stimuli/Experimental_stims/outdoor_scenes/stephen-leonardi-gyIRjKPXupE-unsplash.jpg,Stimuli/Experimental_stims/objects/fabian-blank-pElSkGRA2NU-unsplash.jpg,50,50,2600,0,,NaN,0,NaN,NaN,NaN,NaN,NaN,NaN,NaN,NaN,0,28,1,NaN
46,98260,47,B,scramble,0,1,2,outdoor_scenes,faces,5,18,Stimuli/Experimental_stims/scramble/outdoor_scenes/scrambled_jeff-king-bJHWJeiHfHc-unsplash.jpg,Stimuli/Experimental_stims/scramble/faces/scrambled_jessica-radanavong-mrYkTuAesKE-unsplash.jpg,NaN,NaN,2800,1700,right,NaN,0,NaN,NaN,NaN,NaN,NaN,NaN,NaN,NaN,1,28,1,NaN
47,98260,48,I,original,0,1,2,body_parts,outdoor_scenes,25,3,Stimuli/Experimental_stims/body_parts/engin-akyurt-Q2rfH3GW39c-unsplash.jpg,Stimuli/Experimental_stims/outdoor_scenes/henry-be-NLF6hTe4PAg-unsplash.jpg,50,50,1400,0,,NaN,0,NaN,NaN,NaN,NaN,NaN,NaN,NaN,NaN,0,28,1,NaN
48,98260,49,K,scramble,0,1,2,body_parts,objects,28,42,Stimuli/Experimental_stims/scramble/body_parts/scrambled_ira-vishnevskaya-8DQAvdCby1I-unsplash.jpg,Stimuli/Experimental_stims/scramble/objects/scrambled_jess-bailey-nOeVi8DsN8U-unsplash.jpg,NaN,NaN,2700,1400,right,NaN,0,NaN,NaN,NaN,NaN,NaN,NaN,NaN,NaN,0,28,1,NaN
49,98260,50,D,scramble,0,1,2,objects,faces,46,13,Stimuli/Experimental_stims/scramble/objects/scrambled_mockup-graphics-PNsj6RiHAF4-unsplash.jpg,Stimuli/Experimental_stims/scramble/faces/scrambled_daniel-rigdon-dXmXKPP2L4E-unsplash.jpg,NaN,NaN,1200,1900,left,NaN,0,NaN,NaN,NaN,NaN,NaN,NaN,NaN,NaN,0,28,1,NaN
50,98260,51,B,original,0,1,2,outdoor_scenes,faces,5,18,Stimuli/Experimental_stims/outdoor_scenes/jeff-king-bJHWJeiHfHc-unsplash.jpg,Stimuli/Experimental_stims/faces/jessica-radanavong-mrYkTuAesKE-unsplash.jpg,50,50,2400,0,,NaN,0,NaN,NaN,NaN,NaN,NaN,NaN,NaN,NaN,0,28,1,NaN
51,98260,52,H,scramble,0,1,2,faces,outdoor_scenes,21,2,Stimuli/Experimental_stims/scramble/faces/scrambled_leilani-angel-K84vnnzxmTQ-unsplash.jpg,Stimuli/Experimental_stims/scramble/outdoor_scenes/scrambled_bruno-van-der-kraan-qez8mNJ3ilU-unsplash.jpg,NaN,NaN,4700,700,left,NaN,0,NaN,NaN,NaN,NaN,NaN,NaN,NaN,NaN,1,28,1,NaN
52,98260,53,G,scramble,0,2,3,objects,outdoor_scenes,39,6,Stimuli/Experimental_stims/scramble/objects/scrambled_charlesdeluvio-1-nx1QR5dTE-unsplash.jpg,Stimuli/Experimental_stims/scramble/outdoor_scenes/scrambled_meng-ji-8BH_M-53CyA-unsplash.jpg,NaN,NaN,4100,1300,right,NaN,0,NaN,NaN,NaN,NaN,NaN,NaN,NaN,NaN,1,25,1,NaN
53,98260,54,J,scramble,0,2,3,faces,objects,23,41,Stimuli/Experimental_stims/scramble/faces/scrambled_rikonavt-HQjfrvdTfak-unsplash.jpg,Stimuli/Experimental_stims/scramble/objects/scrambled_insung-yoon-w2JtIQQXoRU-unsplash.jpg,NaN,NaN,2200,700,right,NaN,0,NaN,NaN,NaN,NaN,NaN,NaN,NaN,NaN,0,25,1,NaN
54,98260,55,C,original,0,2,3,outdoor_scenes,body_parts,0,27,Stimuli/Experimental_stims/outdoor_scenes/aleksandra-boguslawska-MS7KD9Ti7FQ-unsplash.jpg,Stimuli/Experimental_stims/body_parts/heike-mintel-i_Gns0ELnLw-unsplash.jpg,50,50,2000,0,,NaN,0,NaN,NaN,NaN,NaN,NaN,NaN,NaN,NaN,0,25,1,NaN
55,98260,56,K,original,0,2,3,body_parts,objects,28,42,Stimuli/Experimental_stims/body_parts/ira-vishnevskaya-8DQAvdCby1I-unsplash.jpg,Stimuli/Experimental_stims/objects/jess-bailey-nOeVi8DsN8U-unsplash.jpg,50,50,1100,0,,NaN,0,NaN,NaN,NaN,NaN,NaN,NaN,NaN,NaN,0,25,1,NaN
56,98260,57,I,scramble,0,2,3,body_parts,outdoor_scenes,25,3,Stimuli/Experimental_stims/scramble/body_parts/scrambled_engin-akyurt-Q2rfH3GW39c-unsplash.jpg,Stimuli/Experimental_stims/scramble/outdoor_scenes/scrambled_henry-be-NLF6hTe4PAg-unsplash.jpg,NaN,NaN,1300,1100,right,NaN,0,NaN,NaN,NaN,NaN,NaN,NaN,NaN,NaN,0,25,1,NaN
57,98260,58,H,scramble,0,2,3,faces,outdoor_scenes,21,2,Stimuli/Experimental_stims/scramble/faces/scrambled_leilani-angel-K84vnnzxmTQ-unsplash.jpg,Stimuli/Experimental_stims/scramble/outdoor_scenes/scrambled_bruno-van-der-kraan-qez8mNJ3ilU-unsplash.jpg,NaN,NaN,1600,1100,left,NaN,0,NaN,NaN,NaN,NaN,NaN,NaN,NaN,NaN,0,25,1,NaN
58,98260,59,J,original,0,2,3,faces,objects,23,41,Stimuli/Experimental_stims/faces/rikonavt-HQjfrvdTfak-unsplash.jpg,Stimuli/Experimental_stims/objects/insung-yoon-w2JtIQQXoRU-unsplash.jpg,50,50,3100,0,,NaN,0,NaN,NaN,NaN,NaN,NaN,NaN,NaN,NaN,1,25,1,NaN
59,98260,60,B,original,0,2,3,outdoor_scenes,faces,5,18,Stimuli/Experimental_stims/outdoor_scenes/jeff-king-bJHWJeiHfHc-unsplash.jpg,Stimuli/Experimental_stims/faces/jessica-radanavong-mrYkTuAesKE-unsplash.jpg,50,50,2500,0,,NaN,0,NaN,NaN,NaN,NaN,NaN,NaN,NaN,NaN,0,25,1,NaN
60,98260,61,E,scramble,0,2,3,objects,body_parts,43,30,Stimuli/Experimental_stims/scramble/objects/scrambled_jonathan-greenaway-Y4hGgeiFn3s-unsplash.jpg,Stimuli/Experimental_stims/scramble/body_parts/scrambled_mika-korhonen-Xodzxosar18-unsplash.jpg,NaN,NaN,2200,900,right,NaN,0,NaN,NaN,NaN,NaN,NaN,NaN,NaN,NaN,0,25,1,NaN
61,98260,62,H,original,0,2,3,faces,outdoor_scenes,21,2,Stimuli/Experimental_stims/faces/leilani-angel-K84vnnzxmTQ-unsplash.jpg,Stimuli/Experimental_stims/outdoor_scenes/bruno-van-der-kraan-qez8mNJ3ilU-unsplash.jpg,50,50,1300,0,,NaN,0,NaN,NaN,NaN,NaN,NaN,NaN,NaN,NaN,0,25,1,NaN
62,98260,63,A,original,0,2,3,outdoor_scenes,objects,11,40,Stimuli/Experimental_stims/outdoor_scenes/stephen-leonardi-gyIRjKPXupE-unsplash.jpg,Stimuli/Experimental_stims/objects/fabian-blank-pElSkGRA2NU-unsplash.jpg,50,50,1100,0,,NaN,0,NaN,NaN,NaN,NaN,NaN,NaN,NaN,NaN,0,25,1,NaN
63,98260,64,D,scramble,0,2,3,objects,faces,46,13,Stimuli/Experimental_stims/scramble/objects/scrambled_mockup-graphics-PNsj6RiHAF4-unsplash.jpg,Stimuli/Experimental_stims/scramble/faces/scrambled_daniel-rigdon-dXmXKPP2L4E-unsplash.jpg,NaN,NaN,1300,1500,right,NaN,0,NaN,NaN,NaN,NaN,NaN,NaN,NaN,NaN,0,25,1,NaN
64,98260,65,L,scramble,0,2,3,body_parts,faces,33,12,Stimuli/Experimental_stims/scramble/body_parts/scrambled_tucker-good-36skLT5jZcc-unsplash.jpg,Stimuli/Experimental_stims/scramble/faces/scrambled_aiony-haust-jmATI5Q_YgY-unsplash.jpg,NaN,NaN,1600,1200,left,NaN,0,NaN,NaN,NaN,NaN,NaN,NaN,NaN,NaN,0,25,1,NaN
65,98260,66,L,original,0,2,3,body_parts,faces,33,12,Stimuli/Experimental_stims/body_parts/tucker-good-36skLT5jZcc-unsplash.jpg,Stimuli/Experimental_stims/faces/aiony-haust-jmATI5Q_YgY-unsplash.jpg,50,50,1900,0,,NaN,0,NaN,NaN,NaN,NaN,NaN,NaN,NaN,NaN,0,25,1,NaN
66,98260,67,K,scramble,0,2,3,body_parts,objects,28,42,Stimuli/Experimental_stims/scramble/body_parts/scrambled_ira-vishnevskaya-8DQAvdCby1I-unsplash.jpg,Stimuli/Experimental_stims/scramble/objects/scrambled_jess-bailey-nOeVi8DsN8U-unsplash.jpg,NaN,NaN,2100,900,left,NaN,0,NaN,NaN,NaN,NaN,NaN,NaN,NaN,NaN,0,25,1,NaN
67,98260,68,F,original,0,2,3,faces,body_parts,14,26,Stimuli/Experimental_stims/faces/david-siglin-UuW4psOb388-unsplash.jpg,Stimuli/Experimental_stims/body_parts/engin-akyurt-x_3gyC42btc-unsplash.jpg,50,50,1700,0,,NaN,0,NaN,NaN,NaN,NaN,NaN,NaN,NaN,NaN,0,25,1,NaN
68,98260,69,F,scramble,0,2,3,faces,body_parts,14,26,Stimuli/Experimental_stims/scramble/faces/scrambled_david-siglin-UuW4psOb388-unsplash.jpg,Stimuli/Experimental_stims/scramble/body_parts/scrambled_engin-akyurt-x_3gyC42btc-unsplash.jpg,NaN,NaN,4200,1100,left,NaN,0,NaN,NaN,NaN,NaN,NaN,NaN,NaN,NaN,1,25,1,NaN
69,98260,70,I,original,0,2,3,body_parts,outdoor_scenes,25,3,Stimuli/Experimental_stims/body_parts/engin-akyurt-Q2rfH3GW39c-unsplash.jpg,Stimuli/Experimental_stims/outdoor_scenes/henry-be-NLF6hTe4PAg-unsplash.jpg,50,50,2100,0,,NaN,0,NaN,NaN,NaN,NaN,NaN,NaN,NaN,NaN,0,25,1,NaN
70,98260,71,E,original,0,2,3,objects,body_parts,43,30,Stimuli/Experimental_stims/objects/jonathan-greenaway-Y4hGgeiFn3s-unsplash.jpg,Stimuli/Experimental_stims/body_parts/mika-korhonen-Xodzxosar18-unsplash.jpg,50,50,1800,0,,NaN,0,NaN,NaN,NaN,NaN,NaN,NaN,NaN,NaN,0,25,1,NaN
71,98260,72,C,scramble,0,2,3,outdoor_scenes,body_parts,0,27,Stimuli/Experimental_stims/scramble/outdoor_scenes/scrambled_aleksandra-boguslawska-MS7KD9Ti7FQ-unsplash.jpg,Stimuli/Experimental_stims/scramble/body_parts/scrambled_heike-mintel-i_Gns0ELnLw-unsplash.jpg,NaN,NaN,1700,1000,left,NaN,0,NaN,NaN,NaN,NaN,NaN,NaN,NaN,NaN,0,25,1,NaN
72,98260,73,A,scramble,0,2,3,outdoor_scenes,objects,11,40,Stimuli/Experimental_stims/scramble/outdoor_scenes/scrambled_stephen-leonardi-gyIRjKPXupE-unsplash.jpg,Stimuli/Experimental_stims/scramble/objects/scrambled_fabian-blank-pElSkGRA2NU-unsplash.jpg,NaN,NaN,1600,1400,left,NaN,0,NaN,NaN,NaN,NaN,NaN,NaN,NaN,NaN,0,25,1,NaN
73,98260,74,D,original,0,2,3,objects,faces,46,13,Stimuli/Experimental_stims/objects/mockup-graphics-PNsj6RiHAF4-unsplash.jpg,Stimuli/Experimental_stims/faces/daniel-rigdon-dXmXKPP2L4E-unsplash.jpg,50,50,4100,0,,NaN,0,NaN,NaN,NaN,NaN,NaN,NaN,NaN,NaN,1,25,1,NaN
74,98260,75,B,scramble,0,2,3,outdoor_scenes,faces,5,18,Stimuli/Experimental_stims/scramble/outdoor_scenes/scrambled_jeff-king-bJHWJeiHfHc-unsplash.jpg,Stimuli/Experimental_stims/scramble/faces/scrambled_jessica-radanavong-mrYkTuAesKE-unsplash.jpg,NaN,NaN,2600,1400,right,NaN,0,NaN,NaN,NaN,NaN,NaN,NaN,NaN,NaN,0,25,1,NaN
75,98260,76,G,original,0,2,3,objects,outdoor_scenes,39,6,Stimuli/Experimental_stims/objects/charlesdeluvio-1-nx1QR5dTE-unsplash.jpg,Stimuli/Experimental_stims/outdoor_scenes/meng-ji-8BH_M-53CyA-unsplash.jpg,50,50,2100,0,,NaN,0,NaN,NaN,NaN,NaN,NaN,NaN,NaN,NaN,0,25,1,NaN
76,98260,77,F,scramble,0,2,4,faces,body_parts,14,26,Stimuli/Experimental_stims/scramble/faces/scrambled_david-siglin-UuW4psOb388-unsplash.jpg,Stimuli/Experimental_stims/scramble/body_parts/scrambled_engin-akyurt-x_3gyC42btc-unsplash.jpg,NaN,NaN,1400,200,left,NaN,0,NaN,NaN,NaN,NaN,NaN,NaN,NaN,NaN,0,25,1,NaN
77,98260,78,H,original,0,2,4,faces,outdoor_scenes,21,2,Stimuli/Experimental_stims/faces/leilani-angel-K84vnnzxmTQ-unsplash.jpg,Stimuli/Experimental_stims/outdoor_scenes/bruno-van-der-kraan-qez8mNJ3ilU-unsplash.jpg,50,50,1000,0,,NaN,0,NaN,NaN,NaN,NaN,NaN,NaN,NaN,NaN,0,25,1,NaN
78,98260,79,D,original,0,2,4,objects,faces,46,13,Stimuli/Experimental_stims/objects/mockup-graphics-PNsj6RiHAF4-unsplash.jpg,Stimuli/Experimental_stims/faces/daniel-rigdon-dXmXKPP2L4E-unsplash.jpg,50,50,3100,0,,NaN,0,NaN,NaN,NaN,NaN,NaN,NaN,NaN,NaN,1,25,1,NaN
79,98260,80,I,scramble,0,2,4,body_parts,outdoor_scenes,25,3,Stimuli/Experimental_stims/scramble/body_parts/scrambled_engin-akyurt-Q2rfH3GW39c-unsplash.jpg,Stimuli/Experimental_stims/scramble/outdoor_scenes/scrambled_henry-be-NLF6hTe4PAg-unsplash.jpg,NaN,NaN,2100,700,left,NaN,0,NaN,NaN,NaN,NaN,NaN,NaN,NaN,NaN,0,25,1,NaN
80,98260,81,E,scramble,0,2,4,objects,body_parts,43,30,Stimuli/Experimental_stims/scramble/objects/scrambled_jonathan-greenaway-Y4hGgeiFn3s-unsplash.jpg,Stimuli/Experimental_stims/scramble/body_parts/scrambled_mika-korhonen-Xodzxosar18-unsplash.jpg,NaN,NaN,1600,1800,right,NaN,0,NaN,NaN,NaN,NaN,NaN,NaN,NaN,NaN,0,25,1,NaN
81,98260,82,K,original,0,2,4,body_parts,objects,28,42,Stimuli/Experimental_stims/body_parts/ira-vishnevskaya-8DQAvdCby1I-unsplash.jpg,Stimuli/Experimental_stims/objects/jess-bailey-nOeVi8DsN8U-unsplash.jpg,50,50,1500,0,,NaN,0,NaN,NaN,NaN,NaN,NaN,NaN,NaN,NaN,0,25,1,NaN
82,98260,83,D,scramble,0,2,4,objects,faces,46,13,Stimuli/Experimental_stims/scramble/objects/scrambled_mockup-graphics-PNsj6RiHAF4-unsplash.jpg,Stimuli/Experimental_stims/scramble/faces/scrambled_daniel-rigdon-dXmXKPP2L4E-unsplash.jpg,NaN,NaN,2000,1500,right,NaN,0,NaN,NaN,NaN,NaN,NaN,NaN,NaN,NaN,0,25,1,NaN
83,98260,84,L,original,0,2,4,body_parts,faces,33,12,Stimuli/Experimental_stims/body_parts/tucker-good-36skLT5jZcc-unsplash.jpg,Stimuli/Experimental_stims/faces/aiony-haust-jmATI5Q_YgY-unsplash.jpg,50,50,3600,0,,NaN,0,NaN,NaN,NaN,NaN,NaN,NaN,NaN,NaN,1,25,1,NaN
84,98260,85,G,original,0,2,4,objects,outdoor_scenes,39,6,Stimuli/Experimental_stims/objects/charlesdeluvio-1-nx1QR5dTE-unsplash.jpg,Stimuli/Experimental_stims/outdoor_scenes/meng-ji-8BH_M-53CyA-unsplash.jpg,50,50,1700,0,,NaN,0,NaN,NaN,NaN,NaN,NaN,NaN,NaN,NaN,0,25,1,NaN
85,98260,86,B,scramble,0,2,4,outdoor_scenes,faces,5,18,Stimuli/Experimental_stims/scramble/outdoor_scenes/scrambled_jeff-king-bJHWJeiHfHc-unsplash.jpg,Stimuli/Experimental_stims/scramble/faces/scrambled_jessica-radanavong-mrYkTuAesKE-unsplash.jpg,NaN,NaN,1600,1000,left,NaN,0,NaN,NaN,NaN,NaN,NaN,NaN,NaN,NaN,0,25,1,NaN
86,98260,87,E,original,0,2,4,objects,body_parts,43,30,Stimuli/Experimental_stims/objects/jonathan-greenaway-Y4hGgeiFn3s-unsplash.jpg,Stimuli/Experimental_stims/body_parts/mika-korhonen-Xodzxosar18-unsplash.jpg,50,50,1100,0,,NaN,0,NaN,NaN,NaN,NaN,NaN,NaN,NaN,NaN,0,25,1,NaN
87,98260,88,J,scramble,0,2,4,faces,objects,23,41,Stimuli/Experimental_stims/scramble/faces/scrambled_rikonavt-HQjfrvdTfak-unsplash.jpg,Stimuli/Experimental_stims/scramble/objects/scrambled_insung-yoon-w2JtIQQXoRU-unsplash.jpg,NaN,NaN,1700,1300,right,NaN,0,NaN,NaN,NaN,NaN,NaN,NaN,NaN,NaN,0,25,1,NaN
88,98260,89,H,scramble,0,2,4,faces,outdoor_scenes,21,2,Stimuli/Experimental_stims/scramble/faces/scrambled_leilani-angel-K84vnnzxmTQ-unsplash.jpg,Stimuli/Experimental_stims/scramble/outdoor_scenes/scrambled_bruno-van-der-kraan-qez8mNJ3ilU-unsplash.jpg,NaN,NaN,1900,1500,left,NaN,0,NaN,NaN,NaN,NaN,NaN,NaN,NaN,NaN,0,25,1,NaN
89,98260,90,I,original,0,2,4,body_parts,outdoor_scenes,25,3,Stimuli/Experimental_stims/body_parts/engin-akyurt-Q2rfH3GW39c-unsplash.jpg,Stimuli/Experimental_stims/outdoor_scenes/henry-be-NLF6hTe4PAg-unsplash.jpg,50,50,1900,0,,NaN,0,NaN,NaN,NaN,NaN,NaN,NaN,NaN,NaN,0,25,1,NaN
90,98260,91,G,scramble,0,2,4,objects,outdoor_scenes,39,6,Stimuli/Experimental_stims/scramble/objects/scrambled_charlesdeluvio-1-nx1QR5dTE-unsplash.jpg,Stimuli/Experimental_stims/scramble/outdoor_scenes/scrambled_meng-ji-8BH_M-53CyA-unsplash.jpg,NaN,NaN,2700,1100,left,NaN,0,NaN,NaN,NaN,NaN,NaN,NaN,NaN,NaN,1,25,1,NaN
91,98260,92,F,original,0,2,4,faces,body_parts,14,26,Stimuli/Experimental_stims/faces/david-siglin-UuW4psOb388-unsplash.jpg,Stimuli/Experimental_stims/body_parts/engin-akyurt-x_3gyC42btc-unsplash.jpg,50,50,1500,0,,NaN,0,NaN,NaN,NaN,NaN,NaN,NaN,NaN,NaN,0,25,1,NaN
92,98260,93,C,scramble,0,2,4,outdoor_scenes,body_parts,0,27,Stimuli/Experimental_stims/scramble/outdoor_scenes/scrambled_aleksandra-boguslawska-MS7KD9Ti7FQ-unsplash.jpg,Stimuli/Experimental_stims/scramble/body_parts/scrambled_heike-mintel-i_Gns0ELnLw-unsplash.jpg,NaN,NaN,2000,1000,right,NaN,0,NaN,NaN,NaN,NaN,NaN,NaN,NaN,NaN,0,25,1,NaN
93,98260,94,C,original,0,2,4,outdoor_scenes,body_parts,0,27,Stimuli/Experimental_stims/outdoor_scenes/aleksandra-boguslawska-MS7KD9Ti7FQ-unsplash.jpg,Stimuli/Experimental_stims/body_parts/heike-mintel-i_Gns0ELnLw-unsplash.jpg,50,50,1000,0,,NaN,0,NaN,NaN,NaN,NaN,NaN,NaN,NaN,NaN,0,25,1,NaN
94,98260,95,K,scramble,0,2,4,body_parts,objects,28,42,Stimuli/Experimental_stims/scramble/body_parts/scrambled_ira-vishnevskaya-8DQAvdCby1I-unsplash.jpg,Stimuli/Experimental_stims/scramble/objects/scrambled_jess-bailey-nOeVi8DsN8U-unsplash.jpg,NaN,NaN,2000,100,right,NaN,0,NaN,NaN,NaN,NaN,NaN,NaN,NaN,NaN,0,25,1,NaN
95,98260,96,J,original,0,2,4,faces,objects,23,41,Stimuli/Experimental_stims/faces/rikonavt-HQjfrvdTfak-unsplash.jpg,Stimuli/Experimental_stims/objects/insung-yoon-w2JtIQQXoRU-unsplash.jpg,50,50,3900,0,,NaN,0,NaN,NaN,NaN,NaN,NaN,NaN,NaN,NaN,1,25,1,NaN
96,98260,97,A,scramble,0,2,4,outdoor_scenes,objects,11,40,Stimuli/Experimental_stims/scramble/outdoor_scenes/scrambled_stephen-leonardi-gyIRjKPXupE-unsplash.jpg,Stimuli/Experimental_stims/scramble/objects/scrambled_fabian-blank-pElSkGRA2NU-unsplash.jpg,NaN,NaN,1700,500,left,NaN,0,NaN,NaN,NaN,NaN,NaN,NaN,NaN,NaN,0,25,1,NaN
97,98260,98,L,scramble,0,2,4,body_parts,faces,33,12,Stimuli/Experimental_stims/scramble/body_parts/scrambled_tucker-good-36skLT5jZcc-unsplash.jpg,Stimuli/Experimental_stims/scramble/faces/scrambled_aiony-haust-jmATI5Q_YgY-unsplash.jpg,NaN,NaN,1100,500,right,NaN,0,NaN,NaN,NaN,NaN,NaN,NaN,NaN,NaN,0,25,1,NaN
98,98260,99,A,original,0,2,4,outdoor_scenes,objects,11,40,Stimuli/Experimental_stims/outdoor_scenes/stephen-leonardi-gyIRjKPXupE-unsplash.jpg,Stimuli/Experimental_stims/objects/fabian-blank-pElSkGRA2NU-unsplash.jpg,50,50,1200,0,,NaN,0,NaN,NaN,NaN,NaN,NaN,NaN,NaN,NaN,0,25,1,NaN