,PID,trial,pair_id,stim_type,practice,run,block,left_category,right_category,left_stimulus,right_stimulus,left_path,right_path,left_rating,right_rating,iti,scramble_screen_time,scramble_instructed_side,scramble_acc,no_response,rt,left_chosen,chosen_stimulus,unchosen_stimulus,chosen_category,unchosen_category,chosen_path,unchosen_path,long_iti,simulation,version,chosen_rating,unchosen_rating
0,71512,1,prac1,original,1,0,0,,,,,Stimuli/Practice_stims/Deliberation/anthony-delanoix-Q0-fOL2nqZc-unsplash.jpg,Stimuli/Practice_stims/Deliberation/becca-tapert-sY5RjMB1KkE-unsplash.jpg,,,1500,0,,NaN,1,,NaN,NaN,NaN,NaN,NaN,NaN,NaN,0,3,1,NaN,NaN
1,71512,2,prac2,scramble,1,0,0,,,,,Stimuli/Practice_stims/Deliberation/scramble/scrambled_clay-banks-1KPfcPdbWFM-unsplash.jpg,Stimuli/Practice_stims/Deliberation/scramble/scrambled_melissa-keizer-sV4Pd8wq5_o-unsplash.jpg,,,2500,2500,left,0,1,NaN,NaN,NaN,NaN,NaN,NaN,NaN,NaN,0,3,1
2,71512,3,prac3,scramble,1,0,0,,,,,Stimuli/Practice_stims/Deliberation/scramble/scrambled_anthony-delanoix-Q0-fOL2nqZc-unsplash.jpg,Stimuli/Practice_stims/Deliberation/scramble/scrambled_becca-tapert-sY5RjMB1KkE-unsplash.jpg,,,3000,1500,right,0,1,NaN,NaN,NaN,NaN,NaN,NaN,NaN,NaN,0,3,1
3,71512,4,prac4,original,1,0,0,,,,,Stimuli/Practice_stims/Deliberation/clay-banks-1KPfcPdbWFM-unsplash.jpg,Stimuli/Practice_stims/Deliberation/melissa-keizer-sV4Pd8wq5_o-unsplash.jpg,,,2000,0,,NaN,1,,NaN,NaN,NaN,NaN,NaN,NaN,NaN,0,3,1,NaN,NaN
4,71512,5,L,original,0,1,1,body_parts,faces,31,21,Stimuli/Experimental_stims/body_parts/sincerely-media-VN6DbKajo5s-unsplash.jpg,Stimuli/Experimental_stims/faces/leilani-angel-K84vnnzxmTQ-unsplash.jpg,50,50,2000,0,,NaN,0,465,1,31,21,body_parts,faces,Stimuli/Experimental_stims/body_parts/sincerely-media-VN6DbKajo5s-unsplash.jpg,Stimuli/Experimental_stims/faces/leilani-angel-K84vnnzxmTQ-unsplash.jpg,0,3,1,50,50
5,71512,6,K,scramble,0,1,1,body_parts,objects,26,39,Stimuli/Experimental_stims/scramble/body_parts/scrambled_engin-akyurt-x_3gyC42btc-unsplash.jpg,Stimuli/Experimental_stims/scramble/objects/scrambled_charlesdeluvio-1-nx1QR5dTE-unsplash.jpg,NaN,NaN,1400,1800,left,0,1,NaN,NaN,NaN,NaN,NaN,NaN,NaN,NaN,0,3,1
6,71512,7,K,original,0,1,1,body_parts,objects,26,39,Stimuli/Experimental_stims/body_parts/engin-akyurt-x_3gyC42btc-unsplash.jpg,Stimuli/Experimental_stims/objects/charlesdeluvio-1-nx1QR5dTE-unsplash.jpg,50,50,1700,0,,NaN,0,161,1,26,39,body_parts,objects,Stimuli/Experimental_stims/body_parts/engin-akyurt-x_3gyC42btc-unsplash.jpg,Stimuli/Experimental_stims/objects/charlesdeluvio-1-nx1QR5dTE-unsplash.jpg,0,3,1,50,50
7,71512,8,C,scramble,0,1,1,outdoor_scenes,body_parts,0,27,Stimuli/Experimental_stims/scramble/outdoor_scenes/scrambled_aleksandra-boguslawska-MS7KD9Ti7FQ-unsplash.jpg,Stimuli/Experimental_stims/scramble/body_parts/scrambled_heike-mintel-i_Gns0ELnLw-unsplash.jpg,NaN,NaN,2100,1500,right,0,1,NaN,NaN,NaN,NaN,NaN,NaN,NaN,NaN,0,3,1
8,71512,9,I,original,0,1,1,body_parts,outdoor_scenes,35,4,Stimuli/Experimental_stims/body_parts/wc-so-KH4AAPjb-tI-unsplash.jpg,Stimuli/Experimental_stims/outdoor_scenes/jarrett-kow-1ZOyYPOBn7I-unsplash.jpg,50,50,3600,0,,NaN,0,187,1,35,4,body_parts,outdoor_scenes,Stimuli/Experimental_stims/body_parts/wc-so-KH4AAPjb-tI-unsplash.jpg,Stimuli/Experimental_stims/outdoor_scenes/jarrett-kow-1ZOyYPOBn7I-unsplash.jpg,1,3,1,50,50
9,71512,10,F,original,0,1,1,faces,body_parts,23,29,Stimuli/Experimental_stims/faces/rikonavt-HQjfrvdTfak-unsplash.jpg,Stimuli/Experimental_stims/body_parts/manuel-schinner-ZwjFuJ7ebpk-unsplash.jpg,50,50,2500,0,,NaN,0,138,1,23,29,faces,body_parts,Stimuli/Experimental_stims/faces/rikonavt-HQjfrvdTfak-unsplash.jpg,Stimuli/Experimental_stims/body_parts/manuel-schinner-ZwjFuJ7ebpk-unsplash.jpg,0,3,1,50,50
10,71512,11,J,scramble,0,1,1,faces,objects,14,47,Stimuli/Experimental_stims/scramble/faces/scrambled_david-siglin-UuW4psOb388-unsplash.jpg,Stimuli/Experimental_stims/scramble/objects/scrambled_ronaldo-arthur-vidal-Cdz_lvnl37k-unsplash.jpg,NaN,NaN,1100,1300,right,0,1,NaN,NaN,NaN,NaN,NaN,NaN,NaN,NaN,0,3,1
11,71512,12,B,original,0,1,1,outdoor_scenes,faces,11,22,Stimuli/Experimental_stims/outdoor_scenes/stephen-leonardi-gyIRjKPXupE-unsplash.jpg,Stimuli/Experimental_stims/faces/ravi-patel-VMGAbeeJTKo-unsplash.jpg,50,50,1400,0,,NaN,0,168,1,11,22,outdoor_scenes,faces,Stimuli/Experimental_stims/outdoor_scenes/stephen-leonardi-gyIRjKPXupE-unsplash.jpg,Stimuli/Experimental_stims/faces/ravi-patel-VMGAbeeJTKo-unsplash.jpg,0,3,1,50,50
12,71512,13,B,scramble,0,1,1,outdoor_scenes,faces,11,22,Stimuli/Experimental_stims/scramble/outdoor_scenes/scrambled_stephen-leonardi-gyIRjKPXupE-unsplash.jpg,Stimuli/Experimental_stims/scramble/faces/scrambled_ravi-patel-VMGAbeeJTKo-unsplash.jpg,NaN,NaN,1400,1500,right,0,1,NaN,NaN,NaN,NaN,NaN,NaN,NaN,NaN,0,3,1
13,71512,14,H,original,0,1,1,faces,outdoor_scenes,15,8,Stimuli/Experimental_stims/faces/erik-lucatero-d2MSDujJl2g-unsplash.jpg,Stimuli/Experimental_stims/outdoor_scenes/samsommer-vddccTqwal8-unsplash.jpg,50,50,1800,0,,NaN,0,1,1,15,8,faces,outdoor_scenes,Stimuli/Experimental_stims/faces/erik-lucatero-d2MSDujJl2g-unsplash.jpg,Stimuli/Experimental_stims/outdoor_scenes/samsommer-vddccTqwal8-unsplash.jpg,0,3,1,50,50
14,71512,15,G,scramble,0,1,1,objects,outdoor_scenes,40,9,Stimuli/Experimental_stims/scramble/objects/scrambled_fabian-blank-pElSkGRA2NU-unsplash.jpg,Stimuli/Experimental_stims/scramble/outdoor_scenes/scrambled_sergey-pesterev-y-b_FOmJXdg-unsplash.jpg,NaN,NaN,4000,1000,left,0,1,NaN,NaN,NaN,NaN,NaN,NaN,NaN,NaN,1,3,1
15,71512,16,J,original,0,1,1,faces,objects,14,47,Stimuli/Experimental_stims/faces/david-siglin-UuW4psOb388-unsplash.jpg,Stimuli/Experimental_stims/objects/ronaldo-arthur-vidal-Cdz_lvnl37k-unsplash.jpg,50,50,1100,0,,NaN,0,202,1,14,47,faces,objects,Stimuli/Experimental_stims/faces/david-siglin-UuW4psOb388-unsplash.jpg,Stimuli/Experimental_stims/objects/ronaldo-arthur-vidal-Cdz_lvnl37k-unsplash.jpg,0,3,1,50,50
16,71512,17,G,original,0,1,1,objects,outdoor_scenes,40,9,Stimuli/Experimental_stims/objects/fabian-blank-pElSkGRA2NU-unsplash.jpg,Stimuli/Experimental_stims/outdoor_scenes/sergey-pesterev-y-b_FOmJXdg-unsplash.jpg,50,50,1400,0,,NaN,0,1,1,40,9,objects,outdoor_scenes,Stimuli/Experimental_stims/objects/fabian-blank-pElSkGRA2NU-unsplash.jpg,Stimuli/Experimental_stims/outdoor_scenes/sergey-pesterev-y-b_FOmJXdg-unsplash.jpg,0,3,1,50,50
17,71512,18,F,scramble,0,1,1,faces,body_parts,23,29,Stimuli/Experimental_stims/scramble/faces/scrambled_rikonavt-HQjfrvdTfak-unsplash.jpg,Stimuli/Experimental_stims/scramble/body_parts/scrambled_manuel-schinner-ZwjFuJ7ebpk-unsplash.jpg,NaN,NaN,1300,1100,left,0,1,NaN,NaN,NaN,NaN,NaN,NaN,NaN,NaN,0,3,1
18,71512,19,E,original,0,1,1,objects,body_parts,42,24,Stimuli/Experimental_stims/objects/jess-bailey-nOeVi8DsN8U-unsplash.jpg,Stimuli/Experimental_stims/body_parts/clay-banks-LjqARJaJotc-unsplash.jpg,50,50,1600,0,,NaN,0,0,1,42,24,objects,body_parts,Stimuli/Experimental_stims/objects/jess-bailey-nOeVi8DsN8U-unsplash.jpg,Stimuli/Experimental_stims/body_parts/clay-banks-LjqARJaJotc-unsplash.jpg,0,3,1,50,50
19,71512,20,I,scramble,0,1,1,body_parts,outdoor_scenes,35,4,Stimuli/Experimental_stims/scramble/body_parts/scrambled_wc-so-KH4AAPjb-tI-unsplash.jpg,Stimuli/Experimental_stims/scramble/outdoor_scenes/scrambled_jarrett-kow-1ZOyYPOBn7I-unsplash.jpg,NaN,NaN,4000,1600,left,0,1,NaN,NaN,NaN,NaN,NaN,NaN,NaN,NaN,1,3,1
20,71512,21,H,scramble,0,1,1,faces,outdoor_scenes,15,8,Stimuli/Experimental_stims/scramble/faces/scrambled_erik-lucatero-d2MSDujJl2g-unsplash.jpg,Stimuli/Experimental_stims/scramble/outdoor_scenes/scrambled_samsommer-vddccTqwal8-unsplash.jpg,NaN,NaN,2400,2000,right,0,1,NaN,NaN,NaN,NaN,NaN,NaN,NaN,NaN,0,3,1
21,71512,22,C,original,0,1,1,outdoor_scenes,body_parts,0,27,Stimuli/Experimental_stims/outdoor_scenes/aleksandra-boguslawska-MS7KD9Ti7FQ-unsplash.jpg,Stimuli/Experimental_stims/body_parts/heike-mintel-i_Gns0ELnLw-unsplash.jpg,50,50,1800,0,,NaN,0,217,1,0,27,outdoor_scenes,body_parts,Stimuli/Experimental_stims/outdoor_scenes/aleksandra-boguslawska-MS7KD9Ti7FQ-unsplash.jpg,Stimuli/Experimental_stims/body_parts/heike-mintel-i_Gns0ELnLw-unsplash.jpg,0,3,1,50,50
22,71512,23,L,scramble,0,1,1,body_parts,faces,31,21,Stimuli/Experimental_stims/scramble/body_parts/scrambled_sincerely-media-VN6DbKajo5s-unsplash.jpg,Stimuli/Experimental_stims/scramble/faces/scrambled_leilani-angel-K84vnnzxmTQ-unsplash.jpg,NaN,NaN,1600,700,left,1,0,220,1,31,21,body_parts,faces,Stimuli/Experimental_stims/scramble/body_parts/scrambled_sincerely-media-VN6DbKajo5s-unsplash.jpg,Stimuli/Experimental_stims/scramble/faces/scrambled_leilani-angel-K84vnnzxmTQ-unsplash.jpg,0,3,1
23,71512,24,D,original,0,1,1,objects,faces,45,16,Stimuli/Experimental_stims/objects/leohoho-rngTKHXumy0-unsplash.jpg,Stimuli/Experimental_stims/faces/freddy-kearney-o-ioeoATbIM-unsplash.jpg,50,50,1500,0,,NaN,0,28,1,45,16,objects,faces,Stimuli/Experimental_stims/objects/leohoho-rngTKHXumy0-unsplash.jpg,Stimuli/Experimental_stims/faces/freddy-kearney-o-ioeoATbIM-unsplash.jpg,0,3,1,50,50
24,71512,25,E,scramble,0,1,1,objects,body_parts,42,24,Stimuli/Experimental_stims/scramble/objects/scrambled_jess-bailey-nOeVi8DsN8U-unsplash.jpg,Stimuli/Experimental_stims/scramble/body_parts/scrambled_clay-banks-LjqARJaJotc-unsplash.jpg,NaN,NaN,2400,1300,right,0,1,NaN,NaN,NaN,NaN,NaN,NaN,NaN,NaN,0,3,1
25,71512,26,A,original,0,1,1,outdoor_scenes,objects,1,44,Stimuli/Experimental_stims/outdoor_scenes/ashim-d-silva-S2Q5mdOrrVc-unsplash.jpg,Stimuli/Experimental_stims/objects/kuiye-chen-NuOGFo4PudE-unsplash.jpg,50,50,1000,0,,NaN,0,4,1,1,44,outdoor_scenes,objects,Stimuli/Experimental_stims/outdoor_scenes/ashim-d-silva-S2Q5mdOrrVc-unsplash.jpg,Stimuli/Experimental_stims/objects/kuiye-chen-NuOGFo4PudE-unsplash.jpg,0,3,1,50,50
26,71512,27,A,scramble,0,1,1,outdoor_scenes,objects,1,44,Stimuli/Experimental_stims/scramble/outdoor_scenes/scrambled_ashim-d-silva-S2Q5mdOrrVc-unsplash.jpg,Stimuli/Experimental_stims/scramble/objects/scrambled_kuiye-chen-NuOGFo4PudE-unsplash.jpg,NaN,NaN,4400,1900,left,0,1,NaN,NaN,NaN,NaN,NaN,NaN,NaN,NaN,1,3,1
27,71512,28,D,scramble,0,1,1,objects,faces,45,16,Stimuli/Experimental_stims/scramble/objects/scrambled_leohoho-rngTKHXumy0-unsplash.jpg,Stimuli/Experimental_stims/scramble/faces/scrambled_freddy-kearney-o-ioeoATbIM-unsplash.jpg,NaN,NaN,1100,1300,right,0,1,NaN,NaN,NaN,NaN,NaN,NaN,NaN,NaN,0,3,1
28,71512,29,H,original,0,1,2,faces,outdoor_scenes,15,8,Stimuli/Experimental_stims/faces/erik-lucatero-d2MSDujJl2g-unsplash.jpg,Stimuli/Experimental_stims/outdoor_scenes/samsommer-vddccTqwal8-unsplash.jpg,50,50,2700,0,,NaN,1,31,1,15,8,faces,outdoor_scenes,Stimuli/Experimental_stims/faces/erik-lucatero-d2MSDujJl2g-unsplash.jpg,Stimuli/Experimental_stims/outdoor_scenes/samsommer-vddccTqwal8-unsplash.jpg,0,3,1,50,50
29,71512,30,L,scramble,0,1,2,body_parts,faces,31,21,Stimuli/Experimental_stims/scramble/body_parts/scrambled_sincerely-media-VN6DbKajo5s-unsplash.jpg,Stimuli/Experimental_stims/scramble/faces/scrambled_leilani-angel-K84vnnzxmTQ-unsplash.jpg,NaN,NaN,1100,1300,left,0,1,NaN,NaN,NaN,NaN,NaN,NaN,NaN,NaN,0,3,1
30,71512,31,E,scramble,0,1,2,objects,body_parts,42,24,Stimuli/Experimental_stims/scramble/objects/scrambled_jess-bailey-nOeVi8DsN8U-unsplash.jpg,Stimuli/Experimental_stims/scramble/body_parts/scrambled_clay-banks-LjqARJaJotc-unsplash.jpg,NaN,NaN,1000,1000,left,0,1,NaN,NaN,NaN,NaN,NaN,NaN,NaN,NaN,0,3,1
31,71512,32,D,original,0,1,2,objects,faces,45,16,Stimuli/Experimental_stims/objects/leohoho-rngTKHXumy0-unsplash.jpg,Stimuli/Experimental_stims/faces/freddy-kearney-o-ioeoATbIM-unsplash.jpg,50,50,3700,0,,NaN,1,13,1,45,16,objects,faces,Stimuli/Experimental_stims/objects/leohoho-rngTKHXumy0-unsplash.jpg,Stimuli/Experimental_stims/faces/freddy-kearney-o-ioeoATbIM-unsplash.jpg,1,3,1,50,50
32,71512,33,H,scramble,0,1,2,faces,outdoor_scenes,15,8,Stimuli/Experimental_stims/scramble/faces/scrambled_erik-lucatero-d2MSDujJl2g-unsplash.jpg,Stimuli/Experimental_stims/scramble/outdoor_scenes/scrambled_samsommer-vddccTqwal8-unsplash.jpg,NaN,NaN,1400,700,left,1,0,229,1,15,8,faces,outdoor_scenes,Stimuli/Experimental_stims/scramble/faces/scrambled_erik-lucatero-d2MSDujJl2g-unsplash.jpg,Stimuli/Experimental_stims/scramble/outdoor_scenes/scrambled_samsommer-vddccTqwal8-unsplash.jpg,0,3,1
33,71512,34,G,original,0,1,2,objects,outdoor_scenes,40,9,Stimuli/Experimental_stims/objects/fabian-blank-pElSkGRA2NU-unsplash.jpg,Stimuli/Experimental_stims/outdoor_scenes/sergey-pesterev-y-b_FOmJXdg-unsplash.jpg,50,50,2800,0,,NaN,1,63,1,40,9,objects,outdoor_scenes,Stimuli/Experimental_stims/objects/fabian-blank-pElSkGRA2NU-unsplash.jpg,Stimuli/Experimental_stims/outdoor_scenes/sergey-pesterev-y-b_FOmJXdg-unsplash.jpg,0,3,1,50,50
34,71512,35,K,original,0,1,2,body_parts,objects,26,39,Stimuli/Experimental_stims/body_parts/engin-akyurt-x_3gyC42btc-unsplash.jpg,Stimuli/Experimental_stims/objects/charlesdeluvio-1-nx1QR5dTE-unsplash.jpg,50,50,1000,0,,NaN,1,0,1,26,39,body_parts,objects,Stimuli/Experimental_stims/body_parts/engin-akyurt-x_3gyC42btc-unsplash.jpg,Stimuli/Experimental_stims/objects/charlesdeluvio-1-nx1QR5dTE-unsplash.jpg,0,3,1,50,50
35,71512,36,A,scramble,0,1,2,outdoor_scenes,objects,1,44,Stimuli/Experimental_stims/scramble/outdoor_scenes/scrambled_ashim-d-silva-S2Q5mdOrrVc-unsplash.jpg,Stimuli/Experimental_stims/scramble/objects/scrambled_kuiye-chen-NuOGFo4PudE-unsplash.jpg,NaN,NaN,1000,1200,left,0,1,NaN,NaN,NaN,NaN,NaN,NaN,NaN,NaN,0,3,1
36,71512,37,A,original,0,1,2,outdoor_scenes,objects,1,44,Stimuli/Experimental_stims/outdoor_scenes/ashim-d-silva-S2Q5mdOrrVc-unsplash.jpg,Stimuli/Experimental_stims/objects/kuiye-chen-NuOGFo4PudE-unsplash.jpg,50,50,1700,0,,NaN,1,66,1,1,44,outdoor_scenes,objects,Stimuli/Experimental_stims/outdoor_scenes/ashim-d-silva-S2Q5mdOrrVc-unsplash.jpg,Stimuli/Experimental_stims/objects/kuiye-chen-NuOGFo4PudE-unsplash.jpg,0,3,1,50,50
37,71512,38,L,original,0,1,2,body_parts,faces,31,21,Stimuli/Experimental_stims/body_parts/sincerely-media-VN6DbKajo5s-unsplash.jpg,Stimuli/Experimental_stims/faces/leilani-angel-K84vnnzxmTQ-unsplash.jpg,50,50,1400,0,,NaN,1,109,1,31,21,body_parts,faces,Stimuli/Experimental_stims/body_parts/sincerely-media-VN6DbKajo5s-unsplash.jpg,Stimuli/Experimental_stims/faces/leilani-angel-K84vnnzxmTQ-unsplash.jpg,0,3,1,50,50
38,71512,39,C,scramble,0,1,2,outdoor_scenes,body_parts,0,27,Stimuli/Experimental_stims/scramble/outdoor_scenes/scrambled_aleksandra-boguslawska-MS7KD9Ti7FQ-unsplash.jpg,Stimuli/Experimental_stims/scramble/body_parts/scrambled_heike-mintel-i_Gns0ELnLw-unsplash.jpg,NaN,NaN,1500,1600,right,0,1,NaN,NaN,NaN,NaN,NaN,NaN,NaN,NaN,0,3,1
39,71512,40,B,scramble,0,1,2,outdoor_scenes,faces,11,22,Stimuli/Experimental_stims/scramble/outdoor_scenes/scrambled_stephen-leonardi-gyIRjKPXupE-unsplash.jpg,Stimuli/Experimental_stims/scramble/faces/scrambled_ravi-patel-VMGAbeeJTKo-unsplash.jpg,NaN,NaN,3400,1700,right,0,1,NaN,NaN,NaN,NaN,NaN,NaN,NaN,NaN,1,3,1
40,71512,41,I,original,0,1,2,body_parts,outdoor_scenes,35,4,Stimuli/Experimental_stims/body_parts/wc-so-KH4AAPjb-tI-unsplash.jpg,Stimuli/Experimental_stims/outdoor_scenes/jarrett-kow-1ZOyYPOBn7I-unsplash.jpg,50,50,2400,0,,NaN,1,64,1,35,4,body_parts,outdoor_scenes,Stimuli/Experimental_stims/body_parts/wc-so-KH4AAPjb-tI-unsplash.jpg,Stimuli/Experimental_stims/outdoor_scenes/jarrett-kow-1ZOyYPOBn7I-unsplash.jpg,0,3,1,50,50
41,71512,42,G,scramble,0,1,2,objects,outdoor_scenes,40,9,Stimuli/Experimental_stims/scramble/objects/scrambled_fabian-blank-pElSkGRA2NU-unsplash.jpg,Stimuli/Experimental_stims/scramble/outdoor_scenes/scrambled_sergey-pesterev-y-b_FOmJXdg-unsplash.jpg,NaN,NaN,1900,1800,right,0,1,NaN,NaN,NaN,NaN,NaN,NaN,NaN,NaN,0,3,1
42,71512,43,I,scramble,0,1,2,body_parts,outdoor_scenes,35,4,Stimuli/Experimental_stims/scramble/body_parts/scrambled_wc-so-KH4AAPjb-tI-unsplash.jpg,Stimuli/Experimental_stims/scramble/outdoor_scenes/scrambled_jarrett-kow-1ZOyYPOBn7I-unsplash.jpg,NaN,NaN,2700,1300,right,0,1,NaN,NaN,NaN,NaN,NaN,NaN,NaN,NaN,0,3,1
43,71512,44,C,original,0,1,2,outdoor_scenes,body_parts,0,27,Stimuli/Experimental_stims/outdoor_scenes/aleksandra-boguslawska-MS7KD9Ti7FQ-unsplash.jpg,Stimuli/Experimental_stims/body_parts/heike-mintel-i_Gns0ELnLw-unsplash.jpg,50,50,2700,0,,NaN,1,46,1,0,27,outdoor_scenes,body_parts,Stimuli/Experimental_stims/outdoor_scenes/aleksandra-boguslawska-MS7KD9Ti7FQ-unsplash.jpg,Stimuli/Experimental_stims/body_parts/heike-mintel-i_Gns0ELnLw-unsplash.jpg,0,3,1,50,50
44,71512,45,F,scramble,0,1,2,faces,body_parts,23,29,Stimuli/Experimental_stims/scramble/faces/scrambled_rikonavt-HQjfrvdTfak-unsplash.jpg,Stimuli/Experimental_stims/scramble/body_parts/scrambled_manuel-schinner-ZwjFuJ7ebpk-unsplash.jpg,NaN,NaN,1800,1800,right,0,1,NaN,NaN,NaN,NaN,NaN,NaN,NaN,NaN,0,3,1
45,71512,46,F,original,0,1,2,faces,body_parts,23,29,Stimuli/Experimental_stims/faces/rikonavt-HQjfrvdTfak-unsplash.jpg,Stimuli/Experimental_stims/body_parts/manuel-schinner-ZwjFuJ7ebpk-unsplash.jpg,50,50,1500,0,,NaN,1,7,1,23,29,faces,body_parts,Stimuli/Experimental_stims/faces/rikonavt-HQjfrvdTfak-unsplash.jpg,Stimuli/Experimental_stims/body_parts/manuel-schinner-ZwjFuJ7ebpk-unsplash.jpg,0,3,1,50,50
46,71512,47,K,scramble,0,1,2,body_parts,objects,26,39,Stimuli/Experimental_stims/scramble/body_parts/scrambled_engin-akyurt-x_3gyC42btc-unsplash.jpg,Stimuli/Experimental_stims/scramble/objects/scrambled_charlesdeluvio-1-nx1QR5dTE-unsplash.jpg,NaN,NaN,3100,1400,right,0,1,NaN,NaN,NaN,NaN,NaN,NaN,NaN,NaN,1,3,1
47,71512,48,E,original,0,1,2,objects,body_parts,42,24,Stimuli/Experimental_stims/objects/jess-bailey-nOeVi8DsN8U-unsplash.jpg,Stimuli/Experimental_stims/body_parts/clay-banks-LjqARJaJotc-unsplash.jpg,50,50,1300,0,,NaN,1,26,1,42,24,objects,body_parts,Stimuli/Experimental_stims/objects/jess-bailey-nOeVi8DsN8U-unsplash.jpg,Stimuli/Experimental_stims/body_parts/clay-banks-LjqARJaJotc-unsplash.jpg,0,3,1,50,50
48,71512,49,J,scramble,0,1,2,faces,objects,14,47,Stimuli/Experimental_stims/scramble/faces/scrambled_david-siglin-UuW4psOb388-unsplash.jpg,Stimuli/Experimental_stims/scramble/objects/scrambled_ronaldo-arthur-vidal-Cdz_lvnl37k-unsplash.jpg,NaN,NaN,1100,1800,left,0,1,NaN,NaN,NaN,NaN,NaN,NaN,NaN,NaN,0,3,1
49,71512,50,D,scramble,0,1,2,objects,faces,45,16,Stimuli/Experimental_stims/scramble/objects/scrambled_leohoho-rngTKHXumy0-unsplash.jpg,Stimuli/Experimental_stims/scramble/faces/scrambled_freddy-kearney-o-ioeoATbIM-unsplash.jpg,NaN,NaN,2200,1900,left,0,1,NaN,NaN,NaN,NaN,NaN,NaN,NaN,NaN,0,3,1
50,71512,51,J,original,0,1,2,faces,objects,14,47,Stimuli/Experimental_stims/faces/david-siglin-UuW4psOb388-unsplash.jpg,Stimuli/Experimental_stims/objects/ronaldo-arthur-vidal-Cdz_lvnl37k-unsplash.jpg,50,50,1100,0,,NaN,1,14,1,14,47,faces,objects,Stimuli/Experimental_stims/faces/david-siglin-UuW4psOb388-unsplash.jpg,Stimuli/Experimental_stims/objects/ronaldo-arthur-vidal-Cdz_lvnl37k-unsplash.jpg,0,3,1,50,50
51,71512,52,B,original,0,1,2,outdoor_scenes,faces,11,22,Stimuli/Experimental_stims/outdoor_scenes/stephen-leonardi-gyIRjKPXupE-unsplash.jpg,Stimuli/Experimental_stims/faces/ravi-patel-VMGAbeeJTKo-unsplash.jpg,50,50,2900,0,,NaN,1,215,1,11,22,outdoor_scenes,faces,Stimuli/Experimental_stims/outdoor_scenes/stephen-leonardi-gyIRjKPXupE-unsplash.jpg,Stimuli/Experimental_stims/faces/ravi-patel-VMGAbeeJTKo-unsplash.jpg,1,3,1,50,50
52,71512,53,B,original,0,2,3,outdoor_scenes,faces,11,22,Stimuli/Experimental_stims/outdoor_scenes/stephen-leonardi-gyIRjKPXupE-unsplash.jpg,Stimuli/Experimental_stims/faces/ravi-patel-VMGAbeeJTKo-unsplash.jpg,50,50,4200,0,,NaN,1,,NaN,NaN,NaN,NaN,NaN,NaN,NaN,1,8,1,NaN,NaN
53,71512,54,K,scramble,0,2,3,body_parts,objects,26,39,Stimuli/Experimental_stims/scramble/body_parts/scrambled_engin-akyurt-x_3gyC42btc-unsplash.jpg,Stimuli/Experimental_stims/scramble/objects/scrambled_charlesdeluvio-1-nx1QR5dTE-unsplash.jpg,NaN,NaN,1800,900,left,0,1,NaN,NaN,NaN,NaN,NaN,NaN,NaN,NaN,0,8,1
54,71512,55,A,original,0,2,3,outdoor_scenes,objects,1,44,Stimuli/Experimental_stims/outdoor_scenes/ashim-d-silva-S2Q5mdOrrVc-unsplash.jpg,Stimuli/Experimental_stims/objects/kuiye-chen-NuOGFo4PudE-unsplash.jpg,50,50,2600,0,,NaN,1,,NaN,NaN,NaN,NaN,NaN,NaN,NaN,0,8,1,NaN,NaN
55,71512,56,G,scramble,0,2,3,objects,outdoor_scenes,40,9,Stimuli/Experimental_stims/scramble/objects/scrambled_fabian-blank-pElSkGRA2NU-unsplash.jpg,Stimuli/Experimental_stims/scramble/outdoor_scenes/scrambled_sergey-pesterev-y-b_FOmJXdg-unsplash.jpg,NaN,NaN,1800,1300,right,0,1,NaN,NaN,NaN,NaN,NaN,NaN,NaN,NaN,0,8,1
56,71512,57,I,original,0,2,3,body_parts,outdoor_scenes,35,4,Stimuli/Experimental_stims/body_parts/wc-so-KH4AAPjb-tI-unsplash.jpg,Stimuli/Experimental_stims/outdoor_scenes/jarrett-kow-1ZOyYPOBn7I-unsplash.jpg,50,50,1200,0,,NaN,1,,NaN,NaN,NaN,NaN,NaN,NaN,NaN,0,8,1,NaN,NaN
57,71512,58,E,scramble,0,2,3,objects,body_parts,42,24,Stimuli/Experimental_stims/scramble/objects/scrambled_jess-bailey-nOeVi8DsN8U-unsplash.jpg,Stimuli/Experimental_stims/scramble/body_parts/scrambled_clay-banks-LjqARJaJotc-unsplash.jpg,NaN,NaN,2600,900,right,0,1,NaN,NaN,NaN,NaN,NaN,NaN,NaN,NaN,0,8,1
58,71512,59,D,original,0,2,3,objects,faces,45,16,Stimuli/Experimental_stims/objects/leohoho-rngTKHXumy0-unsplash.jpg,Stimuli/Experimental_stims/faces/freddy-kearney-o-ioeoATbIM-unsplash.jpg,50,50,3200,0,,NaN,1,,NaN,NaN,NaN,NaN,NaN,NaN,NaN,1,8,1,NaN,NaN
59,71512,60,D,scramble,0,2,3,objects,faces,45,16,Stimuli/Experimental_stims/scramble/objects/scrambled_leohoho-rngTKHXumy0-unsplash.jpg,Stimuli/Experimental_stims/scramble/faces/scrambled_freddy-kearney-o-ioeoATbIM-unsplash.jpg,NaN,NaN,2500,1500,right,0,1,NaN,NaN,NaN,NaN,NaN,NaN,NaN,NaN,0,8,1
60,71512,61,C,scramble,0,2,3,outdoor_scenes,body_parts,0,27,Stimuli/Experimental_stims/scramble/outdoor_scenes/scrambled_aleksandra-boguslawska-MS7KD9Ti7FQ-unsplash.jpg,Stimuli/Experimental_stims/scramble/body_parts/scrambled_heike-mintel-i_Gns0ELnLw-unsplash.jpg,NaN,NaN,1500,1000,left,0,1,NaN,NaN,NaN,NaN,NaN,NaN,NaN,NaN,0,8,1
61,71512,62,C,original,0,2,3,outdoor_scenes,body_parts,0,27,Stimuli/Experimental_stims/outdoor_scenes/aleksandra-boguslawska-MS7KD9Ti7FQ-unsplash.jpg,Stimuli/Experimental_stims/body_parts/heike-mintel-i_Gns0ELnLw-unsplash.jpg,50,50,1500,0,,NaN,1,,NaN,NaN,NaN,NaN,NaN,NaN,NaN,0,8,1,NaN,NaN
62,71512,63,L,scramble,0,2,3,body_parts,faces,31,21,Stimuli/Experimental_stims/scramble/body_parts/scrambled_sincerely-media-VN6DbKajo5s-unsplash.jpg,Stimuli/Experimental_stims/scramble/faces/scrambled_leilani-angel-K84vnnzxmTQ-unsplash.jpg,NaN,NaN,2300,1200,left,0,1,NaN,NaN,NaN,NaN,NaN,NaN,NaN,NaN,0,8,1
63,71512,64,E,original,0,2,3,objects,body_parts,42,24,Stimuli/Experimental_stims/objects/jess-bailey-nOeVi8DsN8U-unsplash.jpg,Stimuli/Experimental_stims/body_parts/clay-banks-LjqARJaJotc-unsplash.jpg,50,50,1000,0,,NaN,1,,NaN,NaN,NaN,NaN,NaN,NaN,NaN,0,8,1,NaN,NaN
64,71512,65,F,scramble,0,2,3,faces,body_parts,23,29,Stimuli/Experimental_stims/scramble/faces/scrambled_rikonavt-HQjfrvdTfak-unsplash.jpg,Stimuli/Experimental_stims/scramble/body_parts/scrambled_manuel-schinner-ZwjFuJ7ebpk-unsplash.jpg,NaN,NaN,1800,1100,left,0,1,NaN,NaN,NaN,NaN,NaN,NaN,NaN,NaN,0,8,1
65,71512,66,K,original,0,2,3,body_parts,objects,26,39,Stimuli/Experimental_stims/body_parts/engin-akyurt-x_3gyC42btc-unsplash.jpg,Stimuli/Experimental_stims/objects/charlesdeluvio-1-nx1QR5dTE-unsplash.jpg,50,50,1300,0,,NaN,1,,NaN,NaN,NaN,NaN,NaN,NaN,NaN,0,8,1,NaN,NaN
66,71512,67,H,scramble,0,2,3,faces,outdoor_scenes,15,8,Stimuli/Experimental_stims/scramble/faces/scrambled_erik-lucatero-d2MSDujJl2g-unsplash.jpg,Stimuli/Experimental_stims/scramble/outdoor_scenes/scrambled_samsommer-vddccTqwal8-unsplash.jpg,NaN,NaN,1200,1100,left,0,1,NaN,NaN,NaN,NaN,NaN,NaN,NaN,NaN,0,8,1
67,71512,68,H,original,0,2,3,faces,outdoor_scenes,15,8,Stimuli/Experimental_stims/faces/erik-lucatero-d2MSDujJl2g-unsplash.jpg,Stimuli/Experimental_stims/outdoor_scenes/samsommer-vddccTqwal8-unsplash.jpg,50,50,1300,0,,NaN,1,,NaN,NaN,NaN,NaN,NaN,NaN,NaN,0,8,1,NaN,NaN
68,71512,69,J,scramble,0,2,3,faces,objects,14,47,Stimuli/Experimental_stims/scramble/faces/scrambled_david-siglin-UuW4psOb388-unsplash.jpg,Stimuli/Experimental_stims/scramble/objects/scrambled_ronaldo-arthur-vidal-Cdz_lvnl37k-unsplash.jpg,NaN,NaN,3300,700,right,0,1,NaN,NaN,NaN,NaN,NaN,NaN,NaN,NaN,1,8,1
69,71512,70,A,scramble,0,2,3,outdoor_scenes,objects,1,44,Stimuli/Experimental_stims/scramble/outdoor_scenes/scrambled_ashim-d-silva-S2Q5mdOrrVc-unsplash.jpg,Stimuli/Experimental_stims/scramble/objects/scrambled_kuiye-chen-NuOGFo4PudE-unsplash.jpg,NaN,NaN,1100,1400,left,0,1,NaN,NaN,NaN,NaN,NaN,NaN,NaN,NaN,0,8,1
70,71512,71,J,original,0,2,3,faces,objects,14,47,Stimuli/Experimental_stims/faces/david-siglin-UuW4psOb388-unsplash.jpg,Stimuli/Experimental_stims/objects/ronaldo-arthur-vidal-Cdz_lvnl37k-unsplash.jpg,50,50,1700,0,,NaN,1,,NaN,NaN,NaN,NaN,NaN,NaN,NaN,0,8,1,NaN,NaN
71,71512,72,L,original,0,2,3,body_parts,faces,31,21,Stimuli/Experimental_stims/body_parts/sincerely-media-VN6DbKajo5s-unsplash.jpg,Stimuli/Experimental_stims/faces/leilani-angel-K84vnnzxmTQ-unsplash.jpg,50,50,2500,0,,NaN,1,,NaN,NaN,NaN,NaN,NaN,NaN,NaN,0,8,1,NaN,NaN
72,71512,73,B,scramble,0,2,3,outdoor_scenes,faces,11,22,Stimuli/Experimental_stims/scramble/outdoor_scenes/scrambled_stephen-leonardi-gyIRjKPXupE-unsplash.jpg,Stimuli/Experimental_stims/scramble/faces/scrambled_ravi-patel-VMGAbeeJTKo-unsplash.jpg,NaN,NaN,2200,1400,right,0,1,NaN,NaN,NaN,NaN,NaN,NaN,NaN,NaN,0,8,1
73,71512,74,I,scramble,0,2,3,body_parts,outdoor_scenes,35,4,Stimuli/Experimental_stims/scramble/body_parts/scrambled_wc-so-KH4AAPjb-tI-unsplash.jpg,Stimuli/Experimental_stims/scramble/outdoor_scenes/scrambled_jarrett-kow-1ZOyYPOBn7I-unsplash.jpg,NaN,NaN,1400,1100,right,0,1,NaN,NaN,NaN,NaN,NaN,NaN,NaN,NaN,0,8,1
74,71512,75,F,original,0,2,3,faces,body_parts,23,29,Stimuli/Experimental_stims/faces/rikonavt-HQjfrvdTfak-unsplash.jpg,Stimuli/Experimental_stims/body_parts/manuel-schinner-ZwjFuJ7ebpk-unsplash.jpg,50,50,2800,0,,NaN,1,,NaN,NaN,NaN,NaN,NaN,NaN,NaN,1,8,1,NaN,NaN
75,71512,76,G,original,0,2,3,objects,outdoor_scenes,40,9,Stimuli/Experimental_stims/objects/fabian-blank-pElSkGRA2NU-unsplash.jpg,Stimuli/Experimental_stims/outdoor_scenes/sergey-pesterev-y-b_FOmJXdg-unsplash.jpg,50,50,1600,0,,NaN,1,,NaN,NaN,NaN,NaN,NaN,NaN,NaN,0,8,1,NaN,NaN
76,71512,77,I,scramble,0,2,4,body_parts,outdoor_scenes,35,4,Stimuli/Experimental_stims/scramble/body_parts/scrambled_wc-so-KH4AAPjb-tI-unsplash.jpg,Stimuli/Experimental_stims/scramble/outdoor_scenes/scrambled_jarrett-kow-1ZOyYPOBn7I-unsplash.jpg,NaN,NaN,1700,700,left,0,1,NaN,NaN,NaN,NaN,NaN,NaN,NaN,NaN,0,8,1
77,71512,78,A,original,0,2,4,outdoor_scenes,objects,1,44,Stimuli/Experimental_stims/outdoor_scenes/ashim-d-silva-S2Q5mdOrrVc-unsplash.jpg,Stimuli/Experimental_stims/objects/kuiye-chen-NuOGFo4PudE-unsplash.jpg,50,50,1700,0,,NaN,1,,NaN,NaN,NaN,NaN,NaN,NaN,NaN,0,8,1,NaN,NaN
78,71512,79,K,original,0,2,4,body_parts,objects,26,39,Stimuli/Experimental_stims/body_parts/engin-akyurt-x_3gyC42btc-unsplash.jpg,Stimuli/Experimental_stims/objects/charlesdeluvio-1-nx1QR5dTE-unsplash.jpg,50,50,2000,0,,NaN,1,,NaN,NaN,NaN,NaN,NaN,NaN,NaN,0,8,1,NaN,NaN
79,71512,80,H,scramble,0,2,4,faces,outdoor_scenes,15,8,Stimuli/Experimental_stims/scramble/faces/scrambled_erik-lucatero-d2MSDujJl2g-unsplash.jpg,Stimuli/Experimental_stims/scramble/outdoor_scenes/scrambled_samsommer-vddccTqwal8-unsplash.jpg,NaN,NaN,1500,1500,left,0,1,NaN,NaN,NaN,NaN,NaN,NaN,NaN,NaN,0,8,1
80,71512,81,L,scramble,0,2,4,body_parts,faces,31,21,Stimuli/Experimental_stims/scramble/body_parts/scrambled_sincerely-media-VN6DbKajo5s-unsplash.jpg,Stimuli/Experimental_stims/scramble/faces/scrambled_leilani-angel-K84vnnzxmTQ-unsplash.jpg,NaN,NaN,3200,500,right,0,1,NaN,NaN,NaN,NaN,NaN,NaN,NaN,NaN,1,8,1
81,71512,82,I,original,0,2,4,body_parts,outdoor_scenes,35,4,Stimuli/Experimental_stims/body_parts/wc-so-KH4AAPjb-tI-unsplash.jpg,Stimuli/Experimental_stims/outdoor_scenes/jarrett-kow-1ZOyYPOBn7I-unsplash.jpg,50,50,1700,0,,NaN,1,,NaN,NaN,NaN,NaN,NaN,NaN,NaN,0,8,1,NaN,NaN
82,71512,83,G,original,0,2,4,objects,outdoor_scenes,40,9,Stimuli/Experimental_stims/objects/fabian-blank-pElSkGRA2NU-unsplash.jpg,Stimuli/Experimental_stims/outdoor_scenes/sergey-pesterev-y-b_FOmJXdg-unsplash.jpg,50,50,1900,0,,NaN,1,,NaN,NaN,NaN,NaN,NaN,NaN,NaN,0,8,1,NaN,NaN
83,71512,84,E,scramble,0,2,4,objects,body_parts,42,24,Stimuli/Experimental_stims/scramble/objects/scrambled_jess-bailey-nOeVi8DsN8U-unsplash.jpg,Stimuli/Experimental_stims/scramble/body_parts/scrambled_clay-banks-LjqARJaJotc-unsplash.jpg,NaN,NaN,1600,1800,right,0,1,NaN,NaN,NaN,NaN,NaN,NaN,NaN,NaN,0,8,1
84,71512,85,G,scramble,0,2,4,objects,outdoor_scenes,40,9,Stimuli/Experimental_stims/scramble/objects/scrambled_fabian-blank-pElSkGRA2NU-unsplash.jpg,Stimuli/Experimental_stims/scramble/outdoor_scenes/scrambled_sergey-pesterev-y-b_FOmJXdg-unsplash.jpg,NaN,NaN,2100,1100,left,0,1,NaN,NaN,NaN,NaN,NaN,NaN,NaN,NaN,0,8,1
85,71512,86,B,original,0,2,4,outdoor_scenes,faces,11,22,Stimuli/Experimental_stims/outdoor_scenes/stephen-leonardi-gyIRjKPXupE-unsplash.jpg,Stimuli/Experimental_stims/faces/ravi-patel-VMGAbeeJTKo-unsplash.jpg,50,50,1900,0,,NaN,1,,NaN,NaN,NaN,NaN,NaN,NaN,NaN,0,8,1,NaN,NaN
86,71512,87,J,original,0,2,4,faces,objects,14,47,Stimuli/Experimental_stims/faces/david-siglin-UuW4psOb388-unsplash.jpg,Stimuli/Experimental_stims/objects/ronaldo-arthur-vidal-Cdz_lvnl37k-unsplash.jpg,50,50,1100,0,,NaN,1,,NaN,NaN,NaN,NaN,NaN,NaN,NaN,0,8,1,NaN,NaN
87,71512,88,C,scramble,0,2,4,outdoor_scenes,body_parts,0,27,Stimuli/Experimental_stims/scramble/outdoor_scenes/scrambled_aleksandra-boguslawska-MS7KD9Ti7FQ-unsplash.jpg,Stimuli/Experimental_stims/scramble/body_parts/scrambled_heike-mintel-i_Gns0ELnLw-unsplash.jpg,NaN,NaN,1900,1000,right,0,1,NaN,NaN,NaN,NaN,NaN,NaN,NaN,NaN,0,8,1
88,71512,89,D,original,0,2,4,objects,faces,45,16,Stimuli/Experimental_stims/objects/leohoho-rngTKHXumy0-unsplash.jpg,Stimuli/Experimental_stims/faces/freddy-kearney-o-ioeoATbIM-unsplash.jpg,50,50,4500,0,,NaN,1,,NaN,NaN,NaN,NaN,NaN,NaN,NaN,1,8,1,NaN,NaN
89,71512,90,A,scramble,0,2,4,outdoor_scenes,objects,1,44,Stimuli/Experimental_stims/scramble/outdoor_scenes/scrambled_ashim-d-silva-S2Q5mdOrrVc-unsplash.jpg,Stimuli/Experimental_stims/scramble/objects/scrambled_kuiye-chen-NuOGFo4PudE-unsplash.jpg,NaN,NaN,1800,500,left,0,1,NaN,NaN,NaN,NaN,NaN,NaN,NaN,NaN,0,8,1
90,71512,91,F,original,0,2,4,faces,body_parts,23,29,Stimuli/Experimental_stims/faces/rikonavt-HQjfrvdTfak-unsplash.jpg,Stimuli/Experimental_stims/body_parts/manuel-schinner-ZwjFuJ7ebpk-unsplash.jpg,50,50,1800,0,,NaN,1,,NaN,NaN,NaN,NaN,NaN,NaN,NaN,0,8,1,NaN,NaN
91,71512,92,F,scramble,0,2,4,faces,body_parts,23,29,Stimuli/Experimental_stims/scramble/faces/scrambled_rikonavt-HQjfrvdTfak-unsplash.jpg,Stimuli/Experimental_stims/scramble/body_parts/scrambled_manuel-schinner-ZwjFuJ7ebpk-unsplash.jpg,NaN,NaN,1300,200,left,0,1,NaN,NaN,NaN,NaN,NaN,NaN,NaN,NaN,0,8,1
92,71512,93,J,scramble,0,2,4,faces,objects,14,47,Stimuli/Experimental_stims/scramble/faces/scrambled_david-siglin-UuW4psOb388-unsplash.jpg,Stimuli/Experimental_stims/scramble/objects/scrambled_ronaldo-arthur-vidal-Cdz_lvnl37k-unsplash.jpg,NaN,NaN,1200,1300,right,0,1,NaN,NaN,NaN,NaN,NaN,NaN,NaN,NaN,0,8,1
93,71512,94,L,original,0,2,4,body_parts,faces,31,21,Stimuli/Experimental_stims/body_parts/sincerely-media-VN6DbKajo5s-unsplash.jpg,Stimuli/Experimental_stims/faces/leilani-angel-K84vnnzxmTQ-unsplash.jpg,50,50,3200,0,,NaN,1,,NaN,NaN,NaN,NaN,NaN,NaN,NaN,1,8,1,NaN,NaN
94,71512,95,B,scramble,0,2,4,outdoor_scenes,faces,11,22,Stimuli/Experimental_stims/scramble/outdoor_scenes/scrambled_stephen-leonardi-gyIRjKPXupE-unsplash.jpg,Stimuli/Experimental_stims/scramble/faces/scrambled_ravi-patel-VMGAbeeJTKo-unsplash.jpg,NaN,NaN,1300,1000,left,0,1,NaN,NaN,NaN,NaN,NaN,NaN,NaN,NaN,0,8,1
95,71512,96,K,scramble,0,2,4,body_parts,objects,26,39,Stimuli/Experimental_stims/scramble/body_parts/scrambled_engin-akyurt-x_3gyC42btc-unsplash.jpg,Stimuli/Experimental_stims/scramble/objects/scrambled_charlesdeluvio-1-nx1QR5dTE-unsplash.jpg,NaN,NaN,2400,100,right,0,1,NaN,NaN,NaN,NaN,NaN,NaN,NaN,NaN,0,8,1
96,71512,97,E,original,0,2,4,objects,body_parts,42,24,Stimuli/Experimental_stims/objects/jess-bailey-nOeVi8DsN8U-unsplash.jpg,Stimuli/Experimental_stims/body_parts/clay-banks-LjqARJaJotc-unsplash.jpg,50,50,1700,0,,NaN,1,,NaN,NaN,NaN,NaN,NaN,NaN,NaN,0,8,1,NaN,NaN
97,71512,98,D,scramble,0,2,4,objects,faces,45,16,Stimuli/Experimental_stims/scramble/objects/scrambled_leohoho-rngTKHXumy0-unsplash.jpg,Stimuli/Experimental_stims/scramble/faces/scrambled_freddy-kearney-o-ioeoATbIM-unsplash.jpg,NaN,NaN,1000,1500,right,0,1,NaN,NaN,NaN,NaN,NaN,NaN,NaN,NaN,0,8,1
98,71512,99,C,original,0,2,4,outdoor_scenes,body_parts,0,27,Stimuli/Experimental_stims/outdoor_scenes/aleksandra-boguslawska-MS7KD9Ti7FQ-unsplash.jpg,Stimuli/Experimental_stims/body_parts/heike-mintel-i_Gns0ELnLw-unsplash.jpg,50,50,1900,0,,NaN,1,,NaN,NaN,NaN,NaN,NaN,NaN,NaN,0,8,1,NaN,NaN
99,71512,100,H,original,0,2,4,faces,outdoor_scenes,15,8,Stimuli/Experimental_stims/faces/erik-lucatero-d2MSDujJl2g-unsplash.jpg,Stimuli/Experimental_stims/outdoor_scenes/samsommer-vddccTqwal8-unsplash.jpg,50,50,3200,0,,NaN,1,,NaN,NaN,NaN,NaN,NaN,NaN,NaN,1,8,1,NaN,NaN