,PID,trial,pair_id,stim_type,practice,run,block,left_category,right_category,left_stimulus,right_stimulus,left_path,right_path,left_rating,right_rating,iti,scramble_screen_time,scramble_instructed_side,scramble_acc,no_response,rt,left_chosen,chosen_stimulus,unchosen_stimulus,chosen_category,unchosen_category,chosen_path,unchosen_path,long_iti,simulation,version,chosen_rating,unchosen_rating
0,1,1,prac1,original,1,0,0,,,,,Stimuli/Practice_stims/Deliberation/anthony-delanoix-Q0-fOL2nqZc-unsplash.jpg,Stimuli/Practice_stims/Deliberation/becca-tapert-sY5RjMB1KkE-unsplash.jpg,,,1500,0,,NaN,0,1472,1,,,,,Stimuli/Practice_stims/Deliberation/anthony-delanoix-Q0-fOL2nqZc-unsplash.jpg,Stimuli/Practice_stims/Deliberation/becca-tapert-sY5RjMB1KkE-unsplash.jpg,0,28,2,,
1,1,2,prac2,scramble,1,0,0,,,,,Stimuli/Practice_stims/Deliberation/scramble/scrambled_clay-banks-1KPfcPdbWFM-unsplash.jpg,Stimuli/Practice_stims/Deliberation/scramble/scrambled_melissa-keizer-sV4Pd8wq5_o-unsplash.jpg,,,2500,2500,left,1,0,453,1,,,,,Stimuli/Practice_stims/Deliberation/scramble/scrambled_clay-banks-1KPfcPdbWFM-unsplash.jpg,Stimuli/Practice_stims/Deliberation/scramble/scrambled_melissa-keizer-sV4Pd8wq5_o-unsplash.jpg,0,28,2
2,1,3,prac3,scramble,1,0,0,,,,,Stimuli/Practice_stims/Deliberation/scramble/scrambled_anthony-delanoix-Q0-fOL2nqZc-unsplash.jpg,Stimuli/Practice_stims/Deliberation/scramble/scrambled_becca-tapert-sY5RjMB1KkE-unsplash.jpg,,,3000,1500,right,1,0,394,0,,,,,Stimuli/Practice_stims/Deliberation/scramble/scrambled_becca-tapert-sY5RjMB1KkE-unsplash.jpg,Stimuli/Practice_stims/Deliberation/scramble/scrambled_anthony-delanoix-Q0-fOL2nqZc-unsplash.jpg,0,28,2
3,1,4,prac4,original,1,0,0,,,,,Stimuli/Practice_stims/Deliberation/clay-banks-1KPfcPdbWFM-unsplash.jpg,Stimuli/Practice_stims/Deliberation/melissa-keizer-sV4Pd8wq5_o-unsplash.jpg,,,2000,0,,NaN,0,787,1,,,,,Stimuli/Practice_stims/Deliberation/clay-banks-1KPfcPdbWFM-unsplash.jpg,Stimuli/Practice_stims/Deliberation/melissa-keizer-sV4Pd8wq5_o-unsplash.jpg,0,28,2,,
4,1,5,J,original,0,1,1,faces,objects,17,36,Stimuli/Experimental_stims/faces/freddy-kearney-o-ioeoATbIM-unsplash.jpg,Stimuli/Experimental_stims/objects/alexander-andrews-JYGnB9gTCls-unsplash.jpg,50,50,4600,0,,NaN,0,463,1,17,36,faces,objects,Stimuli/Experimental_stims/faces/freddy-kearney-o-ioeoATbIM-unsplash.jpg,Stimuli/Experimental_stims/objects/alexander-andrews-JYGnB9gTCls-unsplash.jpg,1,28,2,50,50
5,1,6,A,scramble,0,1,1,outdoor_scenes,objects,3,44,Stimuli/Experimental_stims/scramble/outdoor_scenes/scrambled_henry-be-NLF6hTe4PAg-unsplash.jpg,Stimuli/Experimental_stims/scramble/objects/scrambled_jonathan-greenaway-Y4hGgeiFn3s-unsplash.jpg,NaN,NaN,1500,1900,left,1,0,748,1,3,44,outdoor_scenes,objects,Stimuli/Experimental_stims/scramble/outdoor_scenes/scrambled_henry-be-NLF6hTe4PAg-unsplash.jpg,Stimuli/Experimental_stims/scramble/objects/scrambled_jonathan-greenaway-Y4hGgeiFn3s-unsplash.jpg,0,28,2
6,1,7,A,original,0,1,1,outdoor_scenes,objects,3,44,Stimuli/Experimental_stims/outdoor_scenes/henry-be-NLF6hTe4PAg-unsplash.jpg,Stimuli/Experimental_stims/objects/jonathan-greenaway-Y4hGgeiFn3s-unsplash.jpg,50,50,2100,0,,NaN,1,,,,,,,,,0,28,2,,
7,1,8,B,original,0,1,1,outdoor_scenes,faces,7,19,Stimuli/Experimental_stims/outdoor_scenes/petr-vysohlid-9fqwGqGLUxc-unsplash.jpg,Stimuli/Experimental_stims/faces/jessica-radanavong-mrYkTuAesKE-unsplash.jpg,50,50,1800,0,,NaN,0,515,1,7,19,outdoor_scenes,faces,Stimuli/Experimental_stims/outdoor_scenes/petr-vysohlid-9fqwGqGLUxc-unsplash.jpg,Stimuli/Experimental_stims/faces/jessica-radanavong-mrYkTuAesKE-unsplash.jpg,0,28,2,50,50
8,1,9,K,scramble,0,1,1,body_parts,objects,26,43,Stimuli/Experimental_stims/scramble/body_parts/scrambled_engin-akyurt-x_3gyC42btc-unsplash.jpg,Stimuli/Experimental_stims/scramble/objects/scrambled_jiangxulei1990-eIzzzwtkBjU-unsplash.jpg,NaN,NaN,1800,1800,left,1,0,458,1,26,43,body_parts,objects,Stimuli/Experimental_stims/scramble/body_parts/scrambled_engin-akyurt-x_3gyC42btc-unsplash.jpg,Stimuli/Experimental_stims/scramble/objects/scrambled_jiangxulei1990-eIzzzwtkBjU-unsplash.jpg,0,28,2
9,1,10,C,original,0,1,1,outdoor_scenes,body_parts,0,34,Stimuli/Experimental_stims/outdoor_scenes/aleksandra-boguslawska-MS7KD9Ti7FQ-unsplash.jpg,Stimuli/Experimental_stims/body_parts/sincerely-media-VN6DbKajo5s-unsplash.jpg,50,50,1300,0,,NaN,0,507,1,0,34,outdoor_scenes,body_parts,Stimuli/Experimental_stims/outdoor_scenes/aleksandra-boguslawska-MS7KD9Ti7FQ-unsplash.jpg,Stimuli/Experimental_stims/body_parts/sincerely-media-VN6DbKajo5s-unsplash.jpg,0,28,2,50,50
10,1,11,I,original,0,1,1,body_parts,outdoor_scenes,27,5,Stimuli/Experimental_stims/body_parts/jonathan-borba-hTwH8QFkPMs-unsplash.jpg,Stimuli/Experimental_stims/outdoor_scenes/jeff-king-bJHWJeiHfHc-unsplash.jpg,50,50,1100,0,,NaN,1,,,,,,,,,0,28,2,,
11,1,12,D,scramble,0,1,1,objects,faces,37,18,Stimuli/Experimental_stims/scramble/objects/scrambled_alexander-andrews-VLGWE_SumrA-unsplash.jpg,Stimuli/Experimental_stims/scramble/faces/scrambled_good-faces-xmSWVeGEnJw-unsplash.jpg,NaN,NaN,2500,1300,right,0,1,NaN,NaN,NaN,NaN,NaN,NaN,NaN,NaN,0,28,2
12,1,13,D,original,0,1,1,objects,faces,37,18,Stimuli/Experimental_stims/objects/alexander-andrews-VLGWE_SumrA-unsplash.jpg,Stimuli/Experimental_stims/faces/good-faces-xmSWVeGEnJw-unsplash.jpg,50,50,1600,0,,NaN,1,,,,,,,,,0,28,2,,
13,1,14,C,scramble,0,1,1,outdoor_scenes,body_parts,0,34,Stimuli/Experimental_stims/scramble/outdoor_scenes/scrambled_aleksandra-boguslawska-MS7KD9Ti7FQ-unsplash.jpg,Stimuli/Experimental_stims/scramble/body_parts/scrambled_sincerely-media-VN6DbKajo5s-unsplash.jpg,NaN,NaN,4100,1500,right,0,1,NaN,NaN,NaN,NaN,NaN,NaN,NaN,NaN,1,28,2
14,1,15,K,original,0,1,1,body_parts,objects,26,43,Stimuli/Experimental_stims/body_parts/engin-akyurt-x_3gyC42btc-unsplash.jpg,Stimuli/Experimental_stims/objects/jiangxulei1990-eIzzzwtkBjU-unsplash.jpg,50,50,2000,0,,NaN,0,2781,1,26,43,body_parts,objects,Stimuli/Experimental_stims/body_parts/engin-akyurt-x_3gyC42btc-unsplash.jpg,Stimuli/Experimental_stims/objects/jiangxulei1990-eIzzzwtkBjU-unsplash.jpg,0,28,2,50,50
15,1,16,E,scramble,0,1,1,objects,body_parts,40,24,Stimuli/Experimental_stims/scramble/objects/scrambled_fabian-blank-pElSkGRA2NU-unsplash.jpg,Stimuli/Experimental_stims/scramble/body_parts/scrambled_callum-skelton-3KLMq7y46nA-unsplash.jpg,NaN,NaN,3100,1300,right,1,0,1241,0,24,40,body_parts,objects,Stimuli/Experimental_stims/scramble/body_parts/scrambled_callum-skelton-3KLMq7y46nA-unsplash.jpg,Stimuli/Experimental_stims/scramble/objects/scrambled_fabian-blank-pElSkGRA2NU-unsplash.jpg,0,28,2
16,1,17,L,scramble,0,1,1,body_parts,faces,29,16,Stimuli/Experimental_stims/scramble/body_parts/scrambled_lucaxx-freire-CacZwMexYdk-unsplash.jpg,Stimuli/Experimental_stims/scramble/faces/scrambled_erik-lucatero-d2MSDujJl2g-unsplash.jpg,NaN,NaN,1000,700,left,1,0,480,1,29,16,body_parts,faces,Stimuli/Experimental_stims/scramble/body_parts/scrambled_lucaxx-freire-CacZwMexYdk-unsplash.jpg,Stimuli/Experimental_stims/scramble/faces/scrambled_erik-lucatero-d2MSDujJl2g-unsplash.jpg,0,28,2
17,1,18,E,original,0,1,1,objects,body_parts,40,24,Stimuli/Experimental_stims/objects/fabian-blank-pElSkGRA2NU-unsplash.jpg,Stimuli/Experimental_stims/body_parts/callum-skelton-3KLMq7y46nA-unsplash.jpg,50,50,1900,0,,NaN,0,676,1,40,24,objects,body_parts,Stimuli/Experimental_stims/objects/fabian-blank-pElSkGRA2NU-unsplash.jpg,Stimuli/Experimental_stims/body_parts/callum-skelton-3KLMq7y46nA-unsplash.jpg,0,28,2,50,50
18,1,19,B,scramble,0,1,1,outdoor_scenes,faces,7,19,Stimuli/Experimental_stims/scramble/outdoor_scenes/scrambled_petr-vysohlid-9fqwGqGLUxc-unsplash.jpg,Stimuli/Experimental_stims/scramble/faces/scrambled_jessica-radanavong-mrYkTuAesKE-unsplash.jpg,NaN,NaN,1200,1500,right,1,0,451,0,19,7,faces,outdoor_scenes,Stimuli/Experimental_stims/scramble/faces/scrambled_jessica-radanavong-mrYkTuAesKE-unsplash.jpg,Stimuli/Experimental_stims/scramble/outdoor_scenes/scrambled_petr-vysohlid-9fqwGqGLUxc-unsplash.jpg,0,28,2
19,1,20,G,original,0,1,1,objects,outdoor_scenes,42,9,Stimuli/Experimental_stims/objects/jess-bailey-nOeVi8DsN8U-unsplash.jpg,Stimuli/Experimental_stims/outdoor_scenes/sergey-pesterev-y-b_FOmJXdg-unsplash.jpg,50,50,1400,0,,NaN,0,646,1,42,9,objects,outdoor_scenes,Stimuli/Experimental_stims/objects/jess-bailey-nOeVi8DsN8U-unsplash.jpg,Stimuli/Experimental_stims/outdoor_scenes/sergey-pesterev-y-b_FOmJXdg-unsplash.jpg,0,28,2,50,50
20,1,21,H,scramble,0,1,1,faces,outdoor_scenes,15,6,Stimuli/Experimental_stims/scramble/faces/scrambled_daniel-rigdon-dXmXKPP2L4E-unsplash.jpg,Stimuli/Experimental_stims/scramble/outdoor_scenes/scrambled_meng-ji-8BH_M-53CyA-unsplash.jpg,NaN,NaN,3200,2000,right,1,0,456,0,6,15,outdoor_scenes,faces,Stimuli/Experimental_stims/scramble/outdoor_scenes/scrambled_meng-ji-8BH_M-53CyA-unsplash.jpg,Stimuli/Experimental_stims/scramble/faces/scrambled_daniel-rigdon-dXmXKPP2L4E-unsplash.jpg,1,28,2
21,1,22,H,original,0,1,1,faces,outdoor_scenes,15,6,Stimuli/Experimental_stims/faces/daniel-rigdon-dXmXKPP2L4E-unsplash.jpg,Stimuli/Experimental_stims/outdoor_scenes/meng-ji-8BH_M-53CyA-unsplash.jpg,50,50,1900,0,,NaN,0,479,1,15,6,faces,outdoor_scenes,Stimuli/Experimental_stims/faces/daniel-rigdon-dXmXKPP2L4E-unsplash.jpg,Stimuli/Experimental_stims/outdoor_scenes/meng-ji-8BH_M-53CyA-unsplash.jpg,0,28,2,50,50
22,1,23,G,scramble,0,1,1,objects,outdoor_scenes,42,9,Stimuli/Experimental_stims/scramble/objects/scrambled_jess-bailey-nOeVi8DsN8U-unsplash.jpg,Stimuli/Experimental_stims/scramble/outdoor_scenes/scrambled_sergey-pesterev-y-b_FOmJXdg-unsplash.jpg,NaN,NaN,1400,1000,left,1,0,443,1,42,9,objects,outdoor_scenes,Stimuli/Experimental_stims/scramble/objects/scrambled_jess-bailey-nOeVi8DsN8U-unsplash.jpg,Stimuli/Experimental_stims/scramble/outdoor_scenes/scrambled_sergey-pesterev-y-b_FOmJXdg-unsplash.jpg,0,28,2
23,1,24,F,original,0,1,1,faces,body_parts,13,30,Stimuli/Experimental_stims/faces/aiony-haust-jmATI5Q_YgY-unsplash.jpg,Stimuli/Experimental_stims/body_parts/lucrezia-carnelos-kn6QrWtnAtY-unsplash.jpg,50,50,2700,0,,NaN,1,,,,,,,,,0,28,2,,
24,1,25,I,scramble,0,1,1,body_parts,outdoor_scenes,27,5,Stimuli/Experimental_stims/scramble/body_parts/scrambled_jonathan-borba-hTwH8QFkPMs-unsplash.jpg,Stimuli/Experimental_stims/scramble/outdoor_scenes/scrambled_jeff-king-bJHWJeiHfHc-unsplash.jpg,NaN,NaN,1600,1600,left,0,1,NaN,NaN,NaN,NaN,NaN,NaN,NaN,NaN,0,28,2
25,1,26,F,scramble,0,1,1,faces,body_parts,13,30,Stimuli/Experimental_stims/scramble/faces/scrambled_aiony-haust-jmATI5Q_YgY-unsplash.jpg,Stimuli/Experimental_stims/scramble/body_parts/scrambled_lucrezia-carnelos-kn6QrWtnAtY-unsplash.jpg,NaN,NaN,3400,1100,left,0,1,NaN,NaN,NaN,NaN,NaN,NaN,NaN,NaN,1,28,2
26,1,27,L,original,0,1,1,body_parts,faces,29,16,Stimuli/Experimental_stims/body_parts/lucaxx-freire-CacZwMexYdk-unsplash.jpg,Stimuli/Experimental_stims/faces/erik-lucatero-d2MSDujJl2g-unsplash.jpg,50,50,1600,0,,NaN,1,,,,,,,,,0,28,2,,
27,1,28,J,scramble,0,1,1,faces,objects,17,36,Stimuli/Experimental_stims/scramble/faces/scrambled_freddy-kearney-o-ioeoATbIM-unsplash.jpg,Stimuli/Experimental_stims/scramble/objects/scrambled_alexander-andrews-JYGnB9gTCls-unsplash.jpg,NaN,NaN,2200,1300,right,0,1,NaN,NaN,NaN,NaN,NaN,NaN,NaN,NaN,0,28,2
28,1,29,K,original,0,1,2,body_parts,objects,26,43,Stimuli/Experimental_stims/body_parts/engin-akyurt-x_3gyC42btc-unsplash.jpg,Stimuli/Experimental_stims/objects/jiangxulei1990-eIzzzwtkBjU-unsplash.jpg,50,50,2400,0,,NaN,0,367,1,26,43,body_parts,objects,Stimuli/Experimental_stims/body_parts/engin-akyurt-x_3gyC42btc-unsplash.jpg,Stimuli/Experimental_stims/objects/jiangxulei1990-eIzzzwtkBjU-unsplash.jpg,0,28,2,50,50
29,1,30,H,scramble,0,1,2,faces,outdoor_scenes,15,6,Stimuli/Experimental_stims/scramble/faces/scrambled_daniel-rigdon-dXmXKPP2L4E-unsplash.jpg,Stimuli/Experimental_stims/scramble/outdoor_scenes/scrambled_meng-ji-8BH_M-53CyA-unsplash.jpg,NaN,NaN,1900,700,left,1,0,425,1,15,6,faces,outdoor_scenes,Stimuli/Experimental_stims/scramble/faces/scrambled_daniel-rigdon-dXmXKPP2L4E-unsplash.jpg,Stimuli/Experimental_stims/scramble/outdoor_scenes/scrambled_meng-ji-8BH_M-53CyA-unsplash.jpg,0,28,2
30,1,31,A,original,0,1,2,outdoor_scenes,objects,3,44,Stimuli/Experimental_stims/outdoor_scenes/henry-be-NLF6hTe4PAg-unsplash.jpg,Stimuli/Experimental_stims/objects/jonathan-greenaway-Y4hGgeiFn3s-unsplash.jpg,50,50,3300,0,,NaN,0,363,1,3,44,outdoor_scenes,objects,Stimuli/Experimental_stims/outdoor_scenes/henry-be-NLF6hTe4PAg-unsplash.jpg,Stimuli/Experimental_stims/objects/jonathan-greenaway-Y4hGgeiFn3s-unsplash.jpg,1,28,2,50,50
31,1,32,L,scramble,0,1,2,body_parts,faces,29,16,Stimuli/Experimental_stims/scramble/body_parts/scrambled_lucaxx-freire-CacZwMexYdk-unsplash.jpg,Stimuli/Experimental_stims/scramble/faces/scrambled_erik-lucatero-d2MSDujJl2g-unsplash.jpg,NaN,NaN,1200,1300,left,1,0,482,1,29,16,body_parts,faces,Stimuli/Experimental_stims/scramble/body_parts/scrambled_lucaxx-freire-CacZwMexYdk-unsplash.jpg,Stimuli/Experimental_stims/scramble/faces/scrambled_erik-lucatero-d2MSDujJl2g-unsplash.jpg,0,28,2
32,1,33,B,original,0,1,2,outdoor_scenes,faces,7,19,Stimuli/Experimental_stims/outdoor_scenes/petr-vysohlid-9fqwGqGLUxc-unsplash.jpg,Stimuli/Experimental_stims/faces/jessica-radanavong-mrYkTuAesKE-unsplash.jpg,50,50,1300,0,,NaN,0,2656,1,7,19,outdoor_scenes,faces,Stimuli/Experimental_stims/outdoor_scenes/petr-vysohlid-9fqwGqGLUxc-unsplash.jpg,Stimuli/Experimental_stims/faces/jessica-radanavong-mrYkTuAesKE-unsplash.jpg,0,28,2,50,50
33,1,34,I,scramble,0,1,2,body_parts,outdoor_scenes,27,5,Stimuli/Experimental_stims/scramble/body_parts/scrambled_jonathan-borba-hTwH8QFkPMs-unsplash.jpg,Stimuli/Experimental_stims/scramble/outdoor_scenes/scrambled_jeff-king-bJHWJeiHfHc-unsplash.jpg,NaN,NaN,1300,1300,right,0,0,252,1,27,5,body_parts,outdoor_scenes,Stimuli/Experimental_stims/scramble/body_parts/scrambled_jonathan-borba-hTwH8QFkPMs-unsplash.jpg,Stimuli/Experimental_stims/scramble/outdoor_scenes/scrambled_jeff-king-bJHWJeiHfHc-unsplash.jpg,0,28,2
34,1,35,C,original,0,1,2,outdoor_scenes,body_parts,0,34,Stimuli/Experimental_stims/outdoor_scenes/aleksandra-boguslawska-MS7KD9Ti7FQ-unsplash.jpg,Stimuli/Experimental_stims/body_parts/sincerely-media-VN6DbKajo5s-unsplash.jpg,50,50,1100,0,,NaN,0,1978,1,0,34,outdoor_scenes,body_parts,Stimuli/Experimental_stims/outdoor_scenes/aleksandra-boguslawska-MS7KD9Ti7FQ-unsplash.jpg,Stimuli/Experimental_stims/body_parts/sincerely-media-VN6DbKajo5s-unsplash.jpg,0,28,2,50,50
35,1,36,A,scramble,0,1,2,outdoor_scenes,objects,3,44,Stimuli/Experimental_stims/scramble/outdoor_scenes/scrambled_henry-be-NLF6hTe4PAg-unsplash.jpg,Stimuli/Experimental_stims/scramble/objects/scrambled_jonathan-greenaway-Y4hGgeiFn3s-unsplash.jpg,NaN,NaN,4200,1200,left,1,0,550,1,3,44,outdoor_scenes,objects,Stimuli/Experimental_stims/scramble/outdoor_scenes/scrambled_henry-be-NLF6hTe4PAg-unsplash.jpg,Stimuli/Experimental_stims/scramble/objects/scrambled_jonathan-greenaway-Y4hGgeiFn3s-unsplash.jpg,1,28,2
36,1,37,H,original,0,1,2,faces,outdoor_scenes,15,6,Stimuli/Experimental_stims/faces/daniel-rigdon-dXmXKPP2L4E-unsplash.jpg,Stimuli/Experimental_stims/outdoor_scenes/meng-ji-8BH_M-53CyA-unsplash.jpg,50,50,1200,0,,NaN,0,326,1,15,6,faces,outdoor_scenes,Stimuli/Experimental_stims/faces/daniel-rigdon-dXmXKPP2L4E-unsplash.jpg,Stimuli/Experimental_stims/outdoor_scenes/meng-ji-8BH_M-53CyA-unsplash.jpg,0,28,2,50,50
37,1,38,G,scramble,0,1,2,objects,outdoor_scenes,42,9,Stimuli/Experimental_stims/scramble/objects/scrambled_jess-bailey-nOeVi8DsN8U-unsplash.jpg,Stimuli/Experimental_stims/scramble/outdoor_scenes/scrambled_sergey-pesterev-y-b_FOmJXdg-unsplash.jpg,NaN,NaN,1300,1800,right,0,0,291,1,42,9,objects,outdoor_scenes,Stimuli/Experimental_stims/scramble/objects/scrambled_jess-bailey-nOeVi8DsN8U-unsplash.jpg,Stimuli/Experimental_stims/scramble/outdoor_scenes/scrambled_sergey-pesterev-y-b_FOmJXdg-unsplash.jpg,0,28,2
38,1,39,D,scramble,0,1,2,objects,faces,37,18,Stimuli/Experimental_stims/scramble/objects/scrambled_alexander-andrews-VLGWE_SumrA-unsplash.jpg,Stimuli/Experimental_stims/scramble/faces/scrambled_good-faces-xmSWVeGEnJw-unsplash.jpg,NaN,NaN,2000,1900,left,1,0,475,1,37,18,objects,faces,Stimuli/Experimental_stims/scramble/objects/scrambled_alexander-andrews-VLGWE_SumrA-unsplash.jpg,Stimuli/Experimental_stims/scramble/faces/scrambled_good-faces-xmSWVeGEnJw-unsplash.jpg,0,28,2
39,1,40,I,original,0,1,2,body_parts,outdoor_scenes,27,5,Stimuli/Experimental_stims/body_parts/jonathan-borba-hTwH8QFkPMs-unsplash.jpg,Stimuli/Experimental_stims/outdoor_scenes/jeff-king-bJHWJeiHfHc-unsplash.jpg,50,50,1600,0,,NaN,0,751,1,27,5,body_parts,outdoor_scenes,Stimuli/Experimental_stims/body_parts/jonathan-borba-hTwH8QFkPMs-unsplash.jpg,Stimuli/Experimental_stims/outdoor_scenes/jeff-king-bJHWJeiHfHc-unsplash.jpg,0,28,2,50,50
40,1,41,C,scramble,0,1,2,outdoor_scenes,body_parts,0,34,Stimuli/Experimental_stims/scramble/outdoor_scenes/scrambled_aleksandra-boguslawska-MS7KD9Ti7FQ-unsplash.jpg,Stimuli/Experimental_stims/scramble/body_parts/scrambled_sincerely-media-VN6DbKajo5s-unsplash.jpg,NaN,NaN,3700,1600,right,0,0,435,1,0,34,outdoor_scenes,body_parts,Stimuli/Experimental_stims/scramble/outdoor_scenes/scrambled_aleksandra-boguslawska-MS7KD9Ti7FQ-unsplash.jpg,Stimuli/Experimental_stims/scramble/body_parts/scrambled_sincerely-media-VN6DbKajo5s-unsplash.jpg,1,28,2
41,1,42,B,scramble,0,1,2,outdoor_scenes,faces,7,19,Stimuli/Experimental_stims/scramble/outdoor_scenes/scrambled_petr-vysohlid-9fqwGqGLUxc-unsplash.jpg,Stimuli/Experimental_stims/scramble/faces/scrambled_jessica-radanavong-mrYkTuAesKE-unsplash.jpg,NaN,NaN,2800,1700,right,0,0,670,1,7,19,outdoor_scenes,faces,Stimuli/Experimental_stims/scramble/outdoor_scenes/scrambled_petr-vysohlid-9fqwGqGLUxc-unsplash.jpg,Stimuli/Experimental_stims/scramble/faces/scrambled_jessica-radanavong-mrYkTuAesKE-unsplash.jpg,0,28,2
42,1,43,J,original,0,1,2,faces,objects,17,36,Stimuli/Experimental_stims/faces/freddy-kearney-o-ioeoATbIM-unsplash.jpg,Stimuli/Experimental_stims/objects/alexander-andrews-JYGnB9gTCls-unsplash.jpg,50,50,1000,0,,NaN,0,93,1,17,36,faces,objects,Stimuli/Experimental_stims/faces/freddy-kearney-o-ioeoATbIM-unsplash.jpg,Stimuli/Experimental_stims/objects/alexander-andrews-JYGnB9gTCls-unsplash.jpg,0,28,2,50,50
43,1,44,D,original,0,1,2,objects,faces,37,18,Stimuli/Experimental_stims/objects/alexander-andrews-VLGWE_SumrA-unsplash.jpg,Stimuli/Experimental_stims/faces/good-faces-xmSWVeGEnJw-unsplash.jpg,50,50,2400,0,,NaN,1,,,,,,,,,0,28,2,,
44,1,45,F,scramble,0,1,2,faces,body_parts,13,30,Stimuli/Experimental_stims/scramble/faces/scrambled_aiony-haust-jmATI5Q_YgY-unsplash.jpg,Stimuli/Experimental_stims/scramble/body_parts/scrambled_lucrezia-carnelos-kn6QrWtnAtY-unsplash.jpg,NaN,NaN,1300,1800,right,0,1,NaN,NaN,NaN,NaN,NaN,NaN,NaN,NaN,0,28,2
45,1,46,K,scramble,0,1,2,body_parts,objects,26,43,Stimuli/Experimental_stims/scramble/body_parts/scrambled_engin-akyurt-x_3gyC42btc-unsplash.jpg,Stimuli/Experimental_stims/scramble/objects/scrambled_jiangxulei1990-eIzzzwtkBjU-unsplash.jpg,NaN,NaN,1100,1400,right,0,1,NaN,NaN,NaN,NaN,NaN,NaN,NaN,NaN,0,28,2
46,1,47,F,original,0,1,2,faces,body_parts,13,30,Stimuli/Experimental_stims/faces/aiony-haust-jmATI5Q_YgY-unsplash.jpg,Stimuli/Experimental_stims/body_parts/lucrezia-carnelos-kn6QrWtnAtY-unsplash.jpg,50,50,1200,0,,NaN,1,,,,,,,,,0,28,2,,
47,1,48,J,scramble,0,1,2,faces,objects,17,36,Stimuli/Experimental_stims/scramble/faces/scrambled_freddy-kearney-o-ioeoATbIM-unsplash.jpg,Stimuli/Experimental_stims/scramble/objects/scrambled_alexander-andrews-JYGnB9gTCls-unsplash.jpg,NaN,NaN,3500,1800,left,0,1,NaN,NaN,NaN,NaN,NaN,NaN,NaN,NaN,1,28,2
48,1,49,E,original,0,1,2,objects,body_parts,40,24,Stimuli/Experimental_stims/objects/fabian-blank-pElSkGRA2NU-unsplash.jpg,Stimuli/Experimental_stims/body_parts/callum-skelton-3KLMq7y46nA-unsplash.jpg,50,50,1300,0,,NaN,1,,,,,,,,,0,28,2,,
49,1,50,L,original,0,1,2,body_parts,faces,29,16,Stimuli/Experimental_stims/body_parts/lucaxx-freire-CacZwMexYdk-unsplash.jpg,Stimuli/Experimental_stims/faces/erik-lucatero-d2MSDujJl2g-unsplash.jpg,50,50,1100,0,,NaN,1,,,,,,,,,0,28,2,,
50,1,51,E,scramble,0,1,2,objects,body_parts,40,24,Stimuli/Experimental_stims/scramble/objects/scrambled_fabian-blank-pElSkGRA2NU-unsplash.jpg,Stimuli/Experimental_stims/scramble/body_parts/scrambled_callum-skelton-3KLMq7y46nA-unsplash.jpg,NaN,NaN,1300,1000,left,1,0,388,1,40,24,objects,body_parts,Stimuli/Experimental_stims/scramble/objects/scrambled_fabian-blank-pElSkGRA2NU-unsplash.jpg,Stimuli/Experimental_stims/scramble/body_parts/scrambled_callum-skelton-3KLMq7y46nA-unsplash.jpg,0,28,2
51,1,52,G,original,0,1,2,objects,outdoor_scenes,42,9,Stimuli/Experimental_stims/objects/jess-bailey-nOeVi8DsN8U-unsplash.jpg,Stimuli/Experimental_stims/outdoor_scenes/sergey-pesterev-y-b_FOmJXdg-unsplash.jpg,50,50,1500,0,,NaN,0,1251,1,42,9,objects,outdoor_scenes,Stimuli/Experimental_stims/objects/jess-bailey-nOeVi8DsN8U-unsplash.jpg,Stimuli/Experimental_stims/outdoor_scenes/sergey-pesterev-y-b_FOmJXdg-unsplash.jpg,0,28,2,50,50
52,1,53,G,original,0,2,3,objects,outdoor_scenes,42,9,Stimuli/Experimental_stims/objects/jess-bailey-nOeVi8DsN8U-unsplash.jpg,Stimuli/Experimental_stims/outdoor_scenes/sergey-pesterev-y-b_FOmJXdg-unsplash.jpg,50,50,4300,0,,NaN,0,394,1,42,9,objects,outdoor_scenes,Stimuli/Experimental_stims/objects/jess-bailey-nOeVi8DsN8U-unsplash.jpg,Stimuli/Experimental_stims/outdoor_scenes/sergey-pesterev-y-b_FOmJXdg-unsplash.jpg,1,38,2,50,50
53,1,54,B,scramble,0,2,3,outdoor_scenes,faces,7,19,Stimuli/Experimental_stims/scramble/outdoor_scenes/scrambled_petr-vysohlid-9fqwGqGLUxc-unsplash.jpg,Stimuli/Experimental_stims/scramble/faces/scrambled_jessica-radanavong-mrYkTuAesKE-unsplash.jpg,NaN,NaN,1600,1400,right,0,0,374,1,7,19,outdoor_scenes,faces,Stimuli/Experimental_stims/scramble/outdoor_scenes/scrambled_petr-vysohlid-9fqwGqGLUxc-unsplash.jpg,Stimuli/Experimental_stims/scramble/faces/scrambled_jessica-radanavong-mrYkTuAesKE-unsplash.jpg,0,38,2
54,1,55,L,original,0,2,3,body_parts,faces,29,16,Stimuli/Experimental_stims/body_parts/lucaxx-freire-CacZwMexYdk-unsplash.jpg,Stimuli/Experimental_stims/faces/erik-lucatero-d2MSDujJl2g-unsplash.jpg,50,50,1400,0,,NaN,0,619,1,29,16,body_parts,faces,Stimuli/Experimental_stims/body_parts/lucaxx-freire-CacZwMexYdk-unsplash.jpg,Stimuli/Experimental_stims/faces/erik-lucatero-d2MSDujJl2g-unsplash.jpg,0,38,2,50,50
55,1,56,C,original,0,2,3,outdoor_scenes,body_parts,0,34,Stimuli/Experimental_stims/outdoor_scenes/aleksandra-boguslawska-MS7KD9Ti7FQ-unsplash.jpg,Stimuli/Experimental_stims/body_parts/sincerely-media-VN6DbKajo5s-unsplash.jpg,50,50,2600,0,,NaN,0,122,1,0,34,outdoor_scenes,body_parts,Stimuli/Experimental_stims/outdoor_scenes/aleksandra-boguslawska-MS7KD9Ti7FQ-unsplash.jpg,Stimuli/Experimental_stims/body_parts/sincerely-media-VN6DbKajo5s-unsplash.jpg,0,38,2,50,50
56,1,57,I,scramble,0,2,3,body_parts,outdoor_scenes,27,5,Stimuli/Experimental_stims/scramble/body_parts/scrambled_jonathan-borba-hTwH8QFkPMs-unsplash.jpg,Stimuli/Experimental_stims/scramble/outdoor_scenes/scrambled_jeff-king-bJHWJeiHfHc-unsplash.jpg,NaN,NaN,1400,1100,right,0,0,397,1,27,5,body_parts,outdoor_scenes,Stimuli/Experimental_stims/scramble/body_parts/scrambled_jonathan-borba-hTwH8QFkPMs-unsplash.jpg,Stimuli/Experimental_stims/scramble/outdoor_scenes/scrambled_jeff-king-bJHWJeiHfHc-unsplash.jpg,0,38,2
57,1,58,I,original,0,2,3,body_parts,outdoor_scenes,27,5,Stimuli/Experimental_stims/body_parts/jonathan-borba-hTwH8QFkPMs-unsplash.jpg,Stimuli/Experimental_stims/outdoor_scenes/jeff-king-bJHWJeiHfHc-unsplash.jpg,50,50,1900,0,,NaN,0,452,1,27,5,body_parts,outdoor_scenes,Stimuli/Experimental_stims/body_parts/jonathan-borba-hTwH8QFkPMs-unsplash.jpg,Stimuli/Experimental_stims/outdoor_scenes/jeff-king-bJHWJeiHfHc-unsplash.jpg,0,38,2,50,50
58,1,59,A,scramble,0,2,3,outdoor_scenes,objects,3,44,Stimuli/Experimental_stims/scramble/outdoor_scenes/scrambled_henry-be-NLF6hTe4PAg-unsplash.jpg,Stimuli/Experimental_stims/scramble/objects/scrambled_jonathan-greenaway-Y4hGgeiFn3s-unsplash.jpg,NaN,NaN,1100,1400,left,1,0,455,1,3,44,outdoor_scenes,objects,Stimuli/Experimental_stims/scramble/outdoor_scenes/scrambled_henry-be-NLF6hTe4PAg-unsplash.jpg,Stimuli/Experimental_stims/scramble/objects/scrambled_jonathan-greenaway-Y4hGgeiFn3s-unsplash.jpg,0,38,2
59,1,60,H,original,0,2,3,faces,outdoor_scenes,15,6,Stimuli/Experimental_stims/faces/daniel-rigdon-dXmXKPP2L4E-unsplash.jpg,Stimuli/Experimental_stims/outdoor_scenes/meng-ji-8BH_M-53CyA-unsplash.jpg,50,50,3000,0,,NaN,0,1382,1,15,6,faces,outdoor_scenes,Stimuli/Experimental_stims/faces/daniel-rigdon-dXmXKPP2L4E-unsplash.jpg,Stimuli/Experimental_stims/outdoor_scenes/meng-ji-8BH_M-53CyA-unsplash.jpg,1,38,2,50,50
60,1,61,F,scramble,0,2,3,faces,body_parts,13,30,Stimuli/Experimental_stims/scramble/faces/scrambled_aiony-haust-jmATI5Q_YgY-unsplash.jpg,Stimuli/Experimental_stims/scramble/body_parts/scrambled_lucrezia-carnelos-kn6QrWtnAtY-unsplash.jpg,NaN,NaN,1900,1100,left,1,0,1142,1,13,30,faces,body_parts,Stimuli/Experimental_stims/scramble/faces/scrambled_aiony-haust-jmATI5Q_YgY-unsplash.jpg,Stimuli/Experimental_stims/scramble/body_parts/scrambled_lucrezia-carnelos-kn6QrWtnAtY-unsplash.jpg,0,38,2
61,1,62,F,original,0,2,3,faces,body_parts,13,30,Stimuli/Experimental_stims/faces/aiony-haust-jmATI5Q_YgY-unsplash.jpg,Stimuli/Experimental_stims/body_parts/lucrezia-carnelos-kn6QrWtnAtY-unsplash.jpg,50,50,2200,0,,NaN,0,733,1,13,30,faces,body_parts,Stimuli/Experimental_stims/faces/aiony-haust-jmATI5Q_YgY-unsplash.jpg,Stimuli/Experimental_stims/body_parts/lucrezia-carnelos-kn6QrWtnAtY-unsplash.jpg,0,38,2,50,50
62,1,63,G,scramble,0,2,3,objects,outdoor_scenes,42,9,Stimuli/Experimental_stims/scramble/objects/scrambled_jess-bailey-nOeVi8DsN8U-unsplash.jpg,Stimuli/Experimental_stims/scramble/outdoor_scenes/scrambled_sergey-pesterev-y-b_FOmJXdg-unsplash.jpg,NaN,NaN,2600,1300,right,1,0,500,0,9,42,outdoor_scenes,objects,Stimuli/Experimental_stims/scramble/outdoor_scenes/scrambled_sergey-pesterev-y-b_FOmJXdg-unsplash.jpg,Stimuli/Experimental_stims/scramble/objects/scrambled_jess-bailey-nOeVi8DsN8U-unsplash.jpg,0,38,2
63,1,64,K,original,0,2,3,body_parts,objects,26,43,Stimuli/Experimental_stims/body_parts/engin-akyurt-x_3gyC42btc-unsplash.jpg,Stimuli/Experimental_stims/objects/jiangxulei1990-eIzzzwtkBjU-unsplash.jpg,50,50,1900,0,,NaN,0,736,1,26,43,body_parts,objects,Stimuli/Experimental_stims/body_parts/engin-akyurt-x_3gyC42btc-unsplash.jpg,Stimuli/Experimental_stims/objects/jiangxulei1990-eIzzzwtkBjU-unsplash.jpg,0,38,2,50,50
64,1,65,B,original,0,2,3,outdoor_scenes,faces,7,19,Stimuli/Experimental_stims/outdoor_scenes/petr-vysohlid-9fqwGqGLUxc-unsplash.jpg,Stimuli/Experimental_stims/faces/jessica-radanavong-mrYkTuAesKE-unsplash.jpg,50,50,2800,0,,NaN,0,609,1,7,19,outdoor_scenes,faces,Stimuli/Experimental_stims/outdoor_scenes/petr-vysohlid-9fqwGqGLUxc-unsplash.jpg,Stimuli/Experimental_stims/faces/jessica-radanavong-mrYkTuAesKE-unsplash.jpg,1,38,2,50,50
65,1,66,E,scramble,0,2,3,objects,body_parts,40,24,Stimuli/Experimental_stims/scramble/objects/scrambled_fabian-blank-pElSkGRA2NU-unsplash.jpg,Stimuli/Experimental_stims/scramble/body_parts/scrambled_callum-skelton-3KLMq7y46nA-unsplash.jpg,NaN,NaN,2700,900,right,1,0,737,0,24,40,body_parts,objects,Stimuli/Experimental_stims/scramble/body_parts/scrambled_callum-skelton-3KLMq7y46nA-unsplash.jpg,Stimuli/Experimental_stims/scramble/objects/scrambled_fabian-blank-pElSkGRA2NU-unsplash.jpg,0,38,2
66,1,67,C,scramble,0,2,3,outdoor_scenes,body_parts,0,34,Stimuli/Experimental_stims/scramble/outdoor_scenes/scrambled_aleksandra-boguslawska-MS7KD9Ti7FQ-unsplash.jpg,Stimuli/Experimental_stims/scramble/body_parts/scrambled_sincerely-media-VN6DbKajo5s-unsplash.jpg,NaN,NaN,2200,1000,left,1,0,479,1,0,34,outdoor_scenes,body_parts,Stimuli/Experimental_stims/scramble/outdoor_scenes/scrambled_aleksandra-boguslawska-MS7KD9Ti7FQ-unsplash.jpg,Stimuli/Experimental_stims/scramble/body_parts/scrambled_sincerely-media-VN6DbKajo5s-unsplash.jpg,0,38,2
67,1,68,D,original,0,2,3,objects,faces,37,18,Stimuli/Experimental_stims/objects/alexander-andrews-VLGWE_SumrA-unsplash.jpg,Stimuli/Experimental_stims/faces/good-faces-xmSWVeGEnJw-unsplash.jpg,50,50,2300,0,,NaN,0,1168,1,37,18,objects,faces,Stimuli/Experimental_stims/objects/alexander-andrews-VLGWE_SumrA-unsplash.jpg,Stimuli/Experimental_stims/faces/good-faces-xmSWVeGEnJw-unsplash.jpg,0,38,2,50,50
68,1,69,J,original,0,2,3,faces,objects,17,36,Stimuli/Experimental_stims/faces/freddy-kearney-o-ioeoATbIM-unsplash.jpg,Stimuli/Experimental_stims/objects/alexander-andrews-JYGnB9gTCls-unsplash.jpg,50,50,1000,0,,NaN,0,749,1,17,36,faces,objects,Stimuli/Experimental_stims/faces/freddy-kearney-o-ioeoATbIM-unsplash.jpg,Stimuli/Experimental_stims/objects/alexander-andrews-JYGnB9gTCls-unsplash.jpg,0,38,2,50,50
69,1,70,J,scramble,0,2,3,faces,objects,17,36,Stimuli/Experimental_stims/scramble/faces/scrambled_freddy-kearney-o-ioeoATbIM-unsplash.jpg,Stimuli/Experimental_stims/scramble/objects/scrambled_alexander-andrews-JYGnB9gTCls-unsplash.jpg,NaN,NaN,2100,700,right,1,0,751,0,36,17,objects,faces,Stimuli/Experimental_stims/scramble/objects/scrambled_alexander-andrews-JYGnB9gTCls-unsplash.jpg,Stimuli/Experimental_stims/scramble/faces/scrambled_freddy-kearney-o-ioeoATbIM-unsplash.jpg,0,38,2
70,1,71,K,scramble,0,2,3,body_parts,objects,26,43,Stimuli/Experimental_stims/scramble/body_parts/scrambled_engin-akyurt-x_3gyC42btc-unsplash.jpg,Stimuli/Experimental_stims/scramble/objects/scrambled_jiangxulei1990-eIzzzwtkBjU-unsplash.jpg,NaN,NaN,4200,900,left,1,0,483,1,26,43,body_parts,objects,Stimuli/Experimental_stims/scramble/body_parts/scrambled_engin-akyurt-x_3gyC42btc-unsplash.jpg,Stimuli/Experimental_stims/scramble/objects/scrambled_jiangxulei1990-eIzzzwtkBjU-unsplash.jpg,1,38,2
71,1,72,A,original,0,2,3,outdoor_scenes,objects,3,44,Stimuli/Experimental_stims/outdoor_scenes/henry-be-NLF6hTe4PAg-unsplash.jpg,Stimuli/Experimental_stims/objects/jonathan-greenaway-Y4hGgeiFn3s-unsplash.jpg,50,50,2500,0,,NaN,0,663,1,3,44,outdoor_scenes,objects,Stimuli/Experimental_stims/outdoor_scenes/henry-be-NLF6hTe4PAg-unsplash.jpg,Stimuli/Experimental_stims/objects/jonathan-greenaway-Y4hGgeiFn3s-unsplash.jpg,0,38,2,50,50
72,1,73,L,scramble,0,2,3,body_parts,faces,29,16,Stimuli/Experimental_stims/scramble/body_parts/scrambled_lucaxx-freire-CacZwMexYdk-unsplash.jpg,Stimuli/Experimental_stims/scramble/faces/scrambled_erik-lucatero-d2MSDujJl2g-unsplash.jpg,NaN,NaN,1200,1200,left,1,0,392,1,29,16,body_parts,faces,Stimuli/Experimental_stims/scramble/body_parts/scrambled_lucaxx-freire-CacZwMexYdk-unsplash.jpg,Stimuli/Experimental_stims/scramble/faces/scrambled_erik-lucatero-d2MSDujJl2g-unsplash.jpg,0,38,2
73,1,74,E,original,0,2,3,objects,body_parts,40,24,Stimuli/Experimental_stims/objects/fabian-blank-pElSkGRA2NU-unsplash.jpg,Stimuli/Experimental_stims/body_parts/callum-skelton-3KLMq7y46nA-unsplash.jpg,50,50,1600,0,,NaN,0,960,1,40,24,objects,body_parts,Stimuli/Experimental_stims/objects/fabian-blank-pElSkGRA2NU-unsplash.jpg,Stimuli/Experimental_stims/body_parts/callum-skelton-3KLMq7y46nA-unsplash.jpg,0,38,2,50,50
74,1,75,D,scramble,0,2,3,objects,faces,37,18,Stimuli/Experimental_stims/scramble/objects/scrambled_alexander-andrews-VLGWE_SumrA-unsplash.jpg,Stimuli/Experimental_stims/scramble/faces/scrambled_good-faces-xmSWVeGEnJw-unsplash.jpg,NaN,NaN,1300,1500,right,1,0,1041,0,18,37,faces,objects,Stimuli/Experimental_stims/scramble/faces/scrambled_good-faces-xmSWVeGEnJw-unsplash.jpg,Stimuli/Experimental_stims/scramble/objects/scrambled_alexander-andrews-VLGWE_SumrA-unsplash.jpg,0,38,2
75,1,76,H,scramble,0,2,3,faces,outdoor_scenes,15,6,Stimuli/Experimental_stims/scramble/faces/scrambled_daniel-rigdon-dXmXKPP2L4E-unsplash.jpg,Stimuli/Experimental_stims/scramble/outdoor_scenes/scrambled_meng-ji-8BH_M-53CyA-unsplash.jpg,NaN,NaN,1300,1100,left,1,0,491,1,15,6,faces,outdoor_scenes,Stimuli/Experimental_stims/scramble/faces/scrambled_daniel-rigdon-dXmXKPP2L4E-unsplash.jpg,Stimuli/Experimental_stims/scramble/outdoor_scenes/scrambled_meng-ji-8BH_M-53CyA-unsplash.jpg,0,38,2
76,1,77,C,original,0,2,4,outdoor_scenes,body_parts,0,34,Stimuli/Experimental_stims/outdoor_scenes/aleksandra-boguslawska-MS7KD9Ti7FQ-unsplash.jpg,Stimuli/Experimental_stims/body_parts/sincerely-media-VN6DbKajo5s-unsplash.jpg,50,50,1100,0,,NaN,0,560,1,0,34,outdoor_scenes,body_parts,Stimuli/Experimental_stims/outdoor_scenes/aleksandra-boguslawska-MS7KD9Ti7FQ-unsplash.jpg,Stimuli/Experimental_stims/body_parts/sincerely-media-VN6DbKajo5s-unsplash.jpg,0,38,2,50,50
77,1,78,D,original,0,2,4,objects,faces,37,18,Stimuli/Experimental_stims/objects/alexander-andrews-VLGWE_SumrA-unsplash.jpg,Stimuli/Experimental_stims/faces/good-faces-xmSWVeGEnJw-unsplash.jpg,50,50,1800,0,,NaN,0,539,1,37,18,objects,faces,Stimuli/Experimental_stims/objects/alexander-andrews-VLGWE_SumrA-unsplash.jpg,Stimuli/Experimental_stims/faces/good-faces-xmSWVeGEnJw-unsplash.jpg,0,38,2,50,50
78,1,79,K,scramble,0,2,4,body_parts,objects,26,43,Stimuli/Experimental_stims/scramble/body_parts/scrambled_engin-akyurt-x_3gyC42btc-unsplash.jpg,Stimuli/Experimental_stims/scramble/objects/scrambled_jiangxulei1990-eIzzzwtkBjU-unsplash.jpg,NaN,NaN,2200,100,right,1,0,785,0,43,26,objects,body_parts,Stimuli/Experimental_stims/scramble/objects/scrambled_jiangxulei1990-eIzzzwtkBjU-unsplash.jpg,Stimuli/Experimental_stims/scramble/body_parts/scrambled_engin-akyurt-x_3gyC42btc-unsplash.jpg,0,38,2
79,1,80,J,scramble,0,2,4,faces,objects,17,36,Stimuli/Experimental_stims/scramble/faces/scrambled_freddy-kearney-o-ioeoATbIM-unsplash.jpg,Stimuli/Experimental_stims/scramble/objects/scrambled_alexander-andrews-JYGnB9gTCls-unsplash.jpg,NaN,NaN,1500,1300,right,1,0,683,0,36,17,objects,faces,Stimuli/Experimental_stims/scramble/objects/scrambled_alexander-andrews-JYGnB9gTCls-unsplash.jpg,Stimuli/Experimental_stims/scramble/faces/scrambled_freddy-kearney-o-ioeoATbIM-unsplash.jpg,0,38,2
80,1,81,H,original,0,2,4,faces,outdoor_scenes,15,6,Stimuli/Experimental_stims/faces/daniel-rigdon-dXmXKPP2L4E-unsplash.jpg,Stimuli/Experimental_stims/outdoor_scenes/meng-ji-8BH_M-53CyA-unsplash.jpg,50,50,2900,0,,NaN,0,596,1,15,6,faces,outdoor_scenes,Stimuli/Experimental_stims/faces/daniel-rigdon-dXmXKPP2L4E-unsplash.jpg,Stimuli/Experimental_stims/outdoor_scenes/meng-ji-8BH_M-53CyA-unsplash.jpg,1,38,2,50,50
81,1,82,E,original,0,2,4,objects,body_parts,40,24,Stimuli/Experimental_stims/objects/fabian-blank-pElSkGRA2NU-unsplash.jpg,Stimuli/Experimental_stims/body_parts/callum-skelton-3KLMq7y46nA-unsplash.jpg,50,50,1800,0,,NaN,0,826,1,40,24,objects,body_parts,Stimuli/Experimental_stims/objects/fabian-blank-pElSkGRA2NU-unsplash.jpg,Stimuli/Experimental_stims/body_parts/callum-skelton-3KLMq7y46nA-unsplash.jpg,0,38,2,50,50
82,1,83,B,scramble,0,2,4,outdoor_scenes,faces,7,19,Stimuli/Experimental_stims/scramble/outdoor_scenes/scrambled_petr-vysohlid-9fqwGqGLUxc-unsplash.jpg,Stimuli/Experimental_stims/scramble/faces/scrambled_jessica-radanavong-mrYkTuAesKE-unsplash.jpg,NaN,NaN,1300,1000,left,1,0,477,1,7,19,outdoor_scenes,faces,Stimuli/Experimental_stims/scramble/outdoor_scenes/scrambled_petr-vysohlid-9fqwGqGLUxc-unsplash.jpg,Stimuli/Experimental_stims/scramble/faces/scrambled_jessica-radanavong-mrYkTuAesKE-unsplash.jpg,0,38,2
83,1,84,I,scramble,0,2,4,body_parts,outdoor_scenes,27,5,Stimuli/Experimental_stims/scramble/body_parts/scrambled_jonathan-borba-hTwH8QFkPMs-unsplash.jpg,Stimuli/Experimental_stims/scramble/outdoor_scenes/scrambled_jeff-king-bJHWJeiHfHc-unsplash.jpg,NaN,NaN,1300,700,left,1,0,407,1,27,5,body_parts,outdoor_scenes,Stimuli/Experimental_stims/scramble/body_parts/scrambled_jonathan-borba-hTwH8QFkPMs-unsplash.jpg,Stimuli/Experimental_stims/scramble/outdoor_scenes/scrambled_jeff-king-bJHWJeiHfHc-unsplash.jpg,0,38,2
84,1,85,I,original,0,2,4,body_parts,outdoor_scenes,27,5,Stimuli/Experimental_stims/body_parts/jonathan-borba-hTwH8QFkPMs-unsplash.jpg,Stimuli/Experimental_stims/outdoor_scenes/jeff-king-bJHWJeiHfHc-unsplash.jpg,50,50,1300,0,,NaN,0,870,1,27,5,body_parts,outdoor_scenes,Stimuli/Experimental_stims/body_parts/jonathan-borba-hTwH8QFkPMs-unsplash.jpg,Stimuli/Experimental_stims/outdoor_scenes/jeff-king-bJHWJeiHfHc-unsplash.jpg,0,38,2,50,50
85,1,86,K,original,0,2,4,body_parts,objects,26,43,Stimuli/Experimental_stims/body_parts/engin-akyurt-x_3gyC42btc-unsplash.jpg,Stimuli/Experimental_stims/objects/jiangxulei1990-eIzzzwtkBjU-unsplash.jpg,50,50,2400,0,,NaN,0,980,0,43,26,objects,body_parts,Stimuli/Experimental_stims/objects/jiangxulei1990-eIzzzwtkBjU-unsplash.jpg,Stimuli/Experimental_stims/body_parts/engin-akyurt-x_3gyC42btc-unsplash.jpg,0,38,2,50,50
86,1,87,A,scramble,0,2,4,outdoor_scenes,objects,3,44,Stimuli/Experimental_stims/scramble/outdoor_scenes/scrambled_henry-be-NLF6hTe4PAg-unsplash.jpg,Stimuli/Experimental_stims/scramble/objects/scrambled_jonathan-greenaway-Y4hGgeiFn3s-unsplash.jpg,NaN,NaN,1700,500,left,1,0,666,1,3,44,outdoor_scenes,objects,Stimuli/Experimental_stims/scramble/outdoor_scenes/scrambled_henry-be-NLF6hTe4PAg-unsplash.jpg,Stimuli/Experimental_stims/scramble/objects/scrambled_jonathan-greenaway-Y4hGgeiFn3s-unsplash.jpg,0,38,2
87,1,88,C,scramble,0,2,4,outdoor_scenes,body_parts,0,34,Stimuli/Experimental_stims/scramble/outdoor_scenes/scrambled_aleksandra-boguslawska-MS7KD9Ti7FQ-unsplash.jpg,Stimuli/Experimental_stims/scramble/body_parts/scrambled_sincerely-media-VN6DbKajo5s-unsplash.jpg,NaN,NaN,3000,1000,right,1,0,714,0,34,0,body_parts,outdoor_scenes,Stimuli/Experimental_stims/scramble/body_parts/scrambled_sincerely-media-VN6DbKajo5s-unsplash.jpg,Stimuli/Experimental_stims/scramble/outdoor_scenes/scrambled_aleksandra-boguslawska-MS7KD9Ti7FQ-unsplash.jpg,1,38,2
88,1,89,L,original,0,2,4,body_parts,faces,29,16,Stimuli/Experimental_stims/body_parts/lucaxx-freire-CacZwMexYdk-unsplash.jpg,Stimuli/Experimental_stims/faces/erik-lucatero-d2MSDujJl2g-unsplash.jpg,50,50,1600,0,,NaN,0,809,1,29,16,body_parts,faces,Stimuli/Experimental_stims/body_parts/lucaxx-freire-CacZwMexYdk-unsplash.jpg,Stimuli/Experimental_stims/faces/erik-lucatero-d2MSDujJl2g-unsplash.jpg,0,38,2,50,50
89,1,90,G,original,0,2,4,objects,outdoor_scenes,42,9,Stimuli/Experimental_stims/objects/jess-bailey-nOeVi8DsN8U-unsplash.jpg,Stimuli/Experimental_stims/outdoor_scenes/sergey-pesterev-y-b_FOmJXdg-unsplash.jpg,50,50,2600,0,,NaN,0,1058,1,42,9,objects,outdoor_scenes,Stimuli/Experimental_stims/objects/jess-bailey-nOeVi8DsN8U-unsplash.jpg,Stimuli/Experimental_stims/outdoor_scenes/sergey-pesterev-y-b_FOmJXdg-unsplash.jpg,0,38,2,50,50
90,1,91,F,scramble,0,2,4,faces,body_parts,13,30,Stimuli/Experimental_stims/scramble/faces/scrambled_aiony-haust-jmATI5Q_YgY-unsplash.jpg,Stimuli/Experimental_stims/scramble/body_parts/scrambled_lucrezia-carnelos-kn6QrWtnAtY-unsplash.jpg,NaN,NaN,1500,200,left,1,0,513,1,13,30,faces,body_parts,Stimuli/Experimental_stims/scramble/faces/scrambled_aiony-haust-jmATI5Q_YgY-unsplash.jpg,Stimuli/Experimental_stims/scramble/body_parts/scrambled_lucrezia-carnelos-kn6QrWtnAtY-unsplash.jpg,0,38,2
91,1,92,B,original,0,2,4,outdoor_scenes,faces,7,19,Stimuli/Experimental_stims/outdoor_scenes/petr-vysohlid-9fqwGqGLUxc-unsplash.jpg,Stimuli/Experimental_stims/faces/jessica-radanavong-mrYkTuAesKE-unsplash.jpg,50,50,2600,0,,NaN,0,1350,1,7,19,outdoor_scenes,faces,Stimuli/Experimental_stims/outdoor_scenes/petr-vysohlid-9fqwGqGLUxc-unsplash.jpg,Stimuli/Experimental_stims/faces/jessica-radanavong-mrYkTuAesKE-unsplash.jpg,0,38,2,50,50
92,1,93,E,scramble,0,2,4,objects,body_parts,40,24,Stimuli/Experimental_stims/scramble/objects/scrambled_fabian-blank-pElSkGRA2NU-unsplash.jpg,Stimuli/Experimental_stims/scramble/body_parts/scrambled_callum-skelton-3KLMq7y46nA-unsplash.jpg,NaN,NaN,1400,1800,right,1,0,617,0,24,40,body_parts,objects,Stimuli/Experimental_stims/scramble/body_parts/scrambled_callum-skelton-3KLMq7y46nA-unsplash.jpg,Stimuli/Experimental_stims/scramble/objects/scrambled_fabian-blank-pElSkGRA2NU-unsplash.jpg,0,38,2
93,1,94,J,original,0,2,4,faces,objects,17,36,Stimuli/Experimental_stims/faces/freddy-kearney-o-ioeoATbIM-unsplash.jpg,Stimuli/Experimental_stims/objects/alexander-andrews-JYGnB9gTCls-unsplash.jpg,50,50,1400,0,,NaN,0,966,1,17,36,faces,objects,Stimuli/Experimental_stims/faces/freddy-kearney-o-ioeoATbIM-unsplash.jpg,Stimuli/Experimental_stims/objects/alexander-andrews-JYGnB9gTCls-unsplash.jpg,0,38,2,50,50
94,1,95,H,scramble,0,2,4,faces,outdoor_scenes,15,6,Stimuli/Experimental_stims/scramble/faces/scrambled_daniel-rigdon-dXmXKPP2L4E-unsplash.jpg,Stimuli/Experimental_stims/scramble/outdoor_scenes/scrambled_meng-ji-8BH_M-53CyA-unsplash.jpg,NaN,NaN,3400,1500,left,1,0,464,1,15,6,faces,outdoor_scenes,Stimuli/Experimental_stims/scramble/faces/scrambled_daniel-rigdon-dXmXKPP2L4E-unsplash.jpg,Stimuli/Experimental_stims/scramble/outdoor_scenes/scrambled_meng-ji-8BH_M-53CyA-unsplash.jpg,1,38,2
95,1,96,L,scramble,0,2,4,body_parts,faces,29,16,Stimuli/Experimental_stims/scramble/body_parts/scrambled_lucaxx-freire-CacZwMexYdk-unsplash.jpg,Stimuli/Experimental_stims/scramble/faces/scrambled_erik-lucatero-d2MSDujJl2g-unsplash.jpg,NaN,NaN,1600,500,right,1,0,666,0,16,29,faces,body_parts,Stimuli/Experimental_stims/scramble/faces/scrambled_erik-lucatero-d2MSDujJl2g-unsplash.jpg,Stimuli/Experimental_stims/scramble/body_parts/scrambled_lucaxx-freire-CacZwMexYdk-unsplash.jpg,0,38,2
96,1,97,A,original,0,2,4,outdoor_scenes,objects,3,44,Stimuli/Experimental_stims/outdoor_scenes/henry-be-NLF6hTe4PAg-unsplash.jpg,Stimuli/Experimental_stims/objects/jonathan-greenaway-Y4hGgeiFn3s-unsplash.jpg,50,50,1000,0,,NaN,0,984,1,3,44,outdoor_scenes,objects,Stimuli/Experimental_stims/outdoor_scenes/henry-be-NLF6hTe4PAg-unsplash.jpg,Stimuli/Experimental_stims/objects/jonathan-greenaway-Y4hGgeiFn3s-unsplash.jpg,0,38,2,50,50
97,1,98,D,scramble,0,2,4,objects,faces,37,18,Stimuli/Experimental_stims/scramble/objects/scrambled_alexander-andrews-VLGWE_SumrA-unsplash.jpg,Stimuli/Experimental_stims/scramble/faces/scrambled_good-faces-xmSWVeGEnJw-unsplash.jpg,NaN,NaN,1200,1500,right,1,0,648,0,18,37,faces,objects,Stimuli/Experimental_stims/scramble/faces/scrambled_good-faces-xmSWVeGEnJw-unsplash.jpg,Stimuli/Experimental_stims/scramble/objects/scrambled_alexander-andrews-VLGWE_SumrA-unsplash.jpg,0,38,2
98,1,99,G,scramble,0,2,4,objects,outdoor_scenes,42,9,Stimuli/Experimental_stims/scramble/objects/scrambled_jess-bailey-nOeVi8DsN8U-unsplash.jpg,Stimuli/Experimental_stims/scramble/outdoor_scenes/scrambled_sergey-pesterev-y-b_FOmJXdg-unsplash.jpg,NaN,NaN,2700,1100,left,1,0,436,1,42,9,objects,outdoor_scenes,Stimuli/Experimental_stims/scramble/objects/scrambled_jess-bailey-nOeVi8DsN8U-unsplash.jpg,Stimuli/Experimental_stims/scramble/outdoor_scenes/scrambled_sergey-pesterev-y-b_FOmJXdg-unsplash.jpg,0,38,2
99,1,100,F,original,0,2,4,faces,body_parts,13,30,Stimuli/Experimental_stims/faces/aiony-haust-jmATI5Q_YgY-unsplash.jpg,Stimuli/Experimental_stims/body_parts/lucrezia-carnelos-kn6QrWtnAtY-unsplash.jpg,50,50,1600,0,,NaN,0,759,1,13,30,faces,body_parts,Stimuli/Experimental_stims/faces/aiony-haust-jmATI5Q_YgY-unsplash.jpg,Stimuli/Experimental_stims/body_parts/lucrezia-carnelos-kn6QrWtnAtY-unsplash.jpg,0,38,2,50,50