,PID,trial,pair_id,stim_type,practice,run,block,left_category,right_category,left_stimulus,right_stimulus,left_path,right_path,left_rating,right_rating,iti,scramble_screen_time,scramble_instructed_side,scramble_acc,no_response,rt,left_chosen,chosen_stimulus,unchosen_stimulus,chosen_category,unchosen_category,chosen_rating,unchosen_rating,chosen_path,unchosen_path,long_iti,simulation,version
0,51659,1,prac1,original,1,0,0,,,,,Stimuli/Practice_stims/Deliberation/anthony-delanoix-Q0-fOL2nqZc-unsplash.jpg,Stimuli/Practice_stims/Deliberation/becca-tapert-sY5RjMB1KkE-unsplash.jpg,,,1500,0,,NaN,0,2046,0,,,,,,,Stimuli/Practice_stims/Deliberation/becca-tapert-sY5RjMB1KkE-unsplash.jpg,Stimuli/Practice_stims/Deliberation/anthony-delanoix-Q0-fOL2nqZc-unsplash.jpg,0,29,4
1,51659,2,prac2,scramble,1,0,0,,,,,Stimuli/Practice_stims/Deliberation/scramble/scrambled_clay-banks-1KPfcPdbWFM-unsplash.jpg,Stimuli/Practice_stims/Deliberation/scramble/scrambled_melissa-keizer-sV4Pd8wq5_o-unsplash.jpg,,,2500,2500,left,1,0,414,1,,,,,NaN,NaN,Stimuli/Practice_stims/Deliberation/scramble/scrambled_clay-banks-1KPfcPdbWFM-unsplash.jpg,Stimuli/Practice_stims/Deliberation/scramble/scrambled_melissa-keizer-sV4Pd8wq5_o-unsplash.jpg,0,29,4
2,51659,3,prac3,scramble,1,0,0,,,,,Stimuli/Practice_stims/Deliberation/scramble/scrambled_anthony-delanoix-Q0-fOL2nqZc-unsplash.jpg,Stimuli/Practice_stims/Deliberation/scramble/scrambled_becca-tapert-sY5RjMB1KkE-unsplash.jpg,,,3000,1500,right,1,0,316,0,,,,,NaN,NaN,Stimuli/Practice_stims/Deliberation/scramble/scrambled_becca-tapert-sY5RjMB1KkE-unsplash.jpg,Stimuli/Practice_stims/Deliberation/scramble/scrambled_anthony-delanoix-Q0-fOL2nqZc-unsplash.jpg,0,29,4
3,51659,4,prac4,original,1,0,0,,,,,Stimuli/Practice_stims/Deliberation/clay-banks-1KPfcPdbWFM-unsplash.jpg,Stimuli/Practice_stims/Deliberation/melissa-keizer-sV4Pd8wq5_o-unsplash.jpg,,,2000,0,,NaN,0,1950,0,,,,,,,Stimuli/Practice_stims/Deliberation/melissa-keizer-sV4Pd8wq5_o-unsplash.jpg,Stimuli/Practice_stims/Deliberation/clay-banks-1KPfcPdbWFM-unsplash.jpg,0,29,4
4,51659,5,D,scramble,0,1,1,objects,faces,36,13,Stimuli/Experimental_stims/scramble/objects/scrambled_alexander-andrews-JYGnB9gTCls-unsplash.jpg,Stimuli/Experimental_stims/scramble/faces/scrambled_daniel-rigdon-dXmXKPP2L4E-unsplash.jpg,NaN,NaN,3300,1300,right,1,0,369,0,13,36,faces,objects,NaN,NaN,Stimuli/Experimental_stims/scramble/faces/scrambled_daniel-rigdon-dXmXKPP2L4E-unsplash.jpg,Stimuli/Experimental_stims/scramble/objects/scrambled_alexander-andrews-JYGnB9gTCls-unsplash.jpg,1,29,4
5,51659,6,B,scramble,0,1,1,outdoor_scenes,faces,3,18,Stimuli/Experimental_stims/scramble/outdoor_scenes/scrambled_henry-be-NLF6hTe4PAg-unsplash.jpg,Stimuli/Experimental_stims/scramble/faces/scrambled_jessica-radanavong-mrYkTuAesKE-unsplash.jpg,NaN,NaN,1100,1500,right,1,0,359,0,18,3,faces,outdoor_scenes,NaN,NaN,Stimuli/Experimental_stims/scramble/faces/scrambled_jessica-radanavong-mrYkTuAesKE-unsplash.jpg,Stimuli/Experimental_stims/scramble/outdoor_scenes/scrambled_henry-be-NLF6hTe4PAg-unsplash.jpg,0,29,4
6,51659,7,A,original,0,1,1,outdoor_scenes,objects,2,42,Stimuli/Experimental_stims/outdoor_scenes/bruno-van-der-kraan-qez8mNJ3ilU-unsplash.jpg,Stimuli/Experimental_stims/objects/jess-bailey-nOeVi8DsN8U-unsplash.jpg,39,30,1800,0,,NaN,0,1792,0,42,2,objects,outdoor_scenes,30,39,Stimuli/Experimental_stims/objects/jess-bailey-nOeVi8DsN8U-unsplash.jpg,Stimuli/Experimental_stims/outdoor_scenes/bruno-van-der-kraan-qez8mNJ3ilU-unsplash.jpg,0,29,4
7,51659,8,E,original,0,1,1,objects,body_parts,37,31,Stimuli/Experimental_stims/objects/alexander-andrews-VLGWE_SumrA-unsplash.jpg,Stimuli/Experimental_stims/body_parts/sincerely-media-VN6DbKajo5s-unsplash.jpg,64,60,1500,0,,NaN,0,1996,0,31,37,body_parts,objects,60,64,Stimuli/Experimental_stims/body_parts/sincerely-media-VN6DbKajo5s-unsplash.jpg,Stimuli/Experimental_stims/objects/alexander-andrews-VLGWE_SumrA-unsplash.jpg,0,29,4
8,51659,9,K,scramble,0,1,1,body_parts,objects,32,44,Stimuli/Experimental_stims/scramble/body_parts/scrambled_towfiqu-barbhuiya-3AsiVDsZnHg-unsplash.jpg,Stimuli/Experimental_stims/scramble/objects/scrambled_kuiye-chen-NuOGFo4PudE-unsplash.jpg,NaN,NaN,2200,1800,left,1,0,392,1,32,44,body_parts,objects,NaN,NaN,Stimuli/Experimental_stims/scramble/body_parts/scrambled_towfiqu-barbhuiya-3AsiVDsZnHg-unsplash.jpg,Stimuli/Experimental_stims/scramble/objects/scrambled_kuiye-chen-NuOGFo4PudE-unsplash.jpg,0,29,4
9,51659,10,J,original,0,1,1,faces,objects,12,38,Stimuli/Experimental_stims/faces/aiony-haust-jmATI5Q_YgY-unsplash.jpg,Stimuli/Experimental_stims/objects/art-lasovsky-8XddFc6NkBY-unsplash.jpg,82,61,2400,0,,NaN,0,2414,0,38,12,objects,faces,61,82,Stimuli/Experimental_stims/objects/art-lasovsky-8XddFc6NkBY-unsplash.jpg,Stimuli/Experimental_stims/faces/aiony-haust-jmATI5Q_YgY-unsplash.jpg,0,29,4
10,51659,11,L,scramble,0,1,1,body_parts,faces,35,23,Stimuli/Experimental_stims/scramble/body_parts/scrambled_wc-so-KH4AAPjb-tI-unsplash.jpg,Stimuli/Experimental_stims/scramble/faces/scrambled_rikonavt-HQjfrvdTfak-unsplash.jpg,NaN,NaN,3000,700,left,1,0,443,1,35,23,body_parts,faces,NaN,NaN,Stimuli/Experimental_stims/scramble/body_parts/scrambled_wc-so-KH4AAPjb-tI-unsplash.jpg,Stimuli/Experimental_stims/scramble/faces/scrambled_rikonavt-HQjfrvdTfak-unsplash.jpg,1,29,4
11,51659,12,C,original,0,1,1,outdoor_scenes,body_parts,9,27,Stimuli/Experimental_stims/outdoor_scenes/sergey-pesterev-y-b_FOmJXdg-unsplash.jpg,Stimuli/Experimental_stims/body_parts/heike-mintel-i_Gns0ELnLw-unsplash.jpg,81,78,1100,0,,NaN,0,1689,1,9,27,outdoor_scenes,body_parts,81,78,Stimuli/Experimental_stims/outdoor_scenes/sergey-pesterev-y-b_FOmJXdg-unsplash.jpg,Stimuli/Experimental_stims/body_parts/heike-mintel-i_Gns0ELnLw-unsplash.jpg,0,29,4
12,51659,13,F,original,0,1,1,faces,body_parts,14,24,Stimuli/Experimental_stims/faces/david-siglin-UuW4psOb388-unsplash.jpg,Stimuli/Experimental_stims/body_parts/clay-banks-LjqARJaJotc-unsplash.jpg,77,68,2300,0,,NaN,0,1334,0,24,14,body_parts,faces,68,77,Stimuli/Experimental_stims/body_parts/clay-banks-LjqARJaJotc-unsplash.jpg,Stimuli/Experimental_stims/faces/david-siglin-UuW4psOb388-unsplash.jpg,0,29,4
13,51659,14,I,scramble,0,1,1,body_parts,outdoor_scenes,28,5,Stimuli/Experimental_stims/scramble/body_parts/scrambled_ira-vishnevskaya-8DQAvdCby1I-unsplash.jpg,Stimuli/Experimental_stims/scramble/outdoor_scenes/scrambled_jeff-king-bJHWJeiHfHc-unsplash.jpg,NaN,NaN,1400,1600,left,1,0,353,1,28,5,body_parts,outdoor_scenes,NaN,NaN,Stimuli/Experimental_stims/scramble/body_parts/scrambled_ira-vishnevskaya-8DQAvdCby1I-unsplash.jpg,Stimuli/Experimental_stims/scramble/outdoor_scenes/scrambled_jeff-king-bJHWJeiHfHc-unsplash.jpg,0,29,4
14,51659,15,H,original,0,1,1,faces,outdoor_scenes,21,4,Stimuli/Experimental_stims/faces/leilani-angel-K84vnnzxmTQ-unsplash.jpg,Stimuli/Experimental_stims/outdoor_scenes/jarrett-kow-1ZOyYPOBn7I-unsplash.jpg,80,78,2600,0,,NaN,0,1173,0,4,21,outdoor_scenes,faces,78,80,Stimuli/Experimental_stims/outdoor_scenes/jarrett-kow-1ZOyYPOBn7I-unsplash.jpg,Stimuli/Experimental_stims/faces/leilani-angel-K84vnnzxmTQ-unsplash.jpg,0,29,4
15,51659,16,C,scramble,0,1,1,outdoor_scenes,body_parts,9,27,Stimuli/Experimental_stims/scramble/outdoor_scenes/scrambled_sergey-pesterev-y-b_FOmJXdg-unsplash.jpg,Stimuli/Experimental_stims/scramble/body_parts/scrambled_heike-mintel-i_Gns0ELnLw-unsplash.jpg,NaN,NaN,4300,1500,right,1,0,342,0,27,9,body_parts,outdoor_scenes,NaN,NaN,Stimuli/Experimental_stims/scramble/body_parts/scrambled_heike-mintel-i_Gns0ELnLw-unsplash.jpg,Stimuli/Experimental_stims/scramble/outdoor_scenes/scrambled_sergey-pesterev-y-b_FOmJXdg-unsplash.jpg,1,29,4
16,51659,17,K,original,0,1,1,body_parts,objects,32,44,Stimuli/Experimental_stims/body_parts/towfiqu-barbhuiya-3AsiVDsZnHg-unsplash.jpg,Stimuli/Experimental_stims/objects/kuiye-chen-NuOGFo4PudE-unsplash.jpg,42,15,1900,0,,NaN,0,2185,1,32,44,body_parts,objects,42,15,Stimuli/Experimental_stims/body_parts/towfiqu-barbhuiya-3AsiVDsZnHg-unsplash.jpg,Stimuli/Experimental_stims/objects/kuiye-chen-NuOGFo4PudE-unsplash.jpg,0,29,4
17,51659,18,J,scramble,0,1,1,faces,objects,12,38,Stimuli/Experimental_stims/scramble/faces/scrambled_aiony-haust-jmATI5Q_YgY-unsplash.jpg,Stimuli/Experimental_stims/scramble/objects/scrambled_art-lasovsky-8XddFc6NkBY-unsplash.jpg,NaN,NaN,1100,1300,right,1,0,407,0,38,12,objects,faces,NaN,NaN,Stimuli/Experimental_stims/scramble/objects/scrambled_art-lasovsky-8XddFc6NkBY-unsplash.jpg,Stimuli/Experimental_stims/scramble/faces/scrambled_aiony-haust-jmATI5Q_YgY-unsplash.jpg,0,29,4
18,51659,19,G,original,0,1,1,objects,outdoor_scenes,41,6,Stimuli/Experimental_stims/objects/insung-yoon-w2JtIQQXoRU-unsplash.jpg,Stimuli/Experimental_stims/outdoor_scenes/meng-ji-8BH_M-53CyA-unsplash.jpg,41,71,1500,0,,NaN,0,1819,0,6,41,outdoor_scenes,objects,71,41,Stimuli/Experimental_stims/outdoor_scenes/meng-ji-8BH_M-53CyA-unsplash.jpg,Stimuli/Experimental_stims/objects/insung-yoon-w2JtIQQXoRU-unsplash.jpg,0,29,4
19,51659,20,H,scramble,0,1,1,faces,outdoor_scenes,21,4,Stimuli/Experimental_stims/scramble/faces/scrambled_leilani-angel-K84vnnzxmTQ-unsplash.jpg,Stimuli/Experimental_stims/scramble/outdoor_scenes/scrambled_jarrett-kow-1ZOyYPOBn7I-unsplash.jpg,NaN,NaN,1300,2000,right,1,0,345,0,4,21,outdoor_scenes,faces,NaN,NaN,Stimuli/Experimental_stims/scramble/outdoor_scenes/scrambled_jarrett-kow-1ZOyYPOBn7I-unsplash.jpg,Stimuli/Experimental_stims/scramble/faces/scrambled_leilani-angel-K84vnnzxmTQ-unsplash.jpg,0,29,4
20,51659,21,A,scramble,0,1,1,outdoor_scenes,objects,2,42,Stimuli/Experimental_stims/scramble/outdoor_scenes/scrambled_bruno-van-der-kraan-qez8mNJ3ilU-unsplash.jpg,Stimuli/Experimental_stims/scramble/objects/scrambled_jess-bailey-nOeVi8DsN8U-unsplash.jpg,NaN,NaN,3500,1900,left,1,0,410,1,2,42,outdoor_scenes,objects,NaN,NaN,Stimuli/Experimental_stims/scramble/outdoor_scenes/scrambled_bruno-van-der-kraan-qez8mNJ3ilU-unsplash.jpg,Stimuli/Experimental_stims/scramble/objects/scrambled_jess-bailey-nOeVi8DsN8U-unsplash.jpg,1,29,4
21,51659,22,L,original,0,1,1,body_parts,faces,35,23,Stimuli/Experimental_stims/body_parts/wc-so-KH4AAPjb-tI-unsplash.jpg,Stimuli/Experimental_stims/faces/rikonavt-HQjfrvdTfak-unsplash.jpg,26,90,1400,0,,NaN,0,1931,0,23,35,faces,body_parts,90,26,Stimuli/Experimental_stims/faces/rikonavt-HQjfrvdTfak-unsplash.jpg,Stimuli/Experimental_stims/body_parts/wc-so-KH4AAPjb-tI-unsplash.jpg,0,29,4
22,51659,23,I,original,0,1,1,body_parts,outdoor_scenes,28,5,Stimuli/Experimental_stims/body_parts/ira-vishnevskaya-8DQAvdCby1I-unsplash.jpg,Stimuli/Experimental_stims/outdoor_scenes/jeff-king-bJHWJeiHfHc-unsplash.jpg,69,64,1300,0,,NaN,0,1899,1,28,5,body_parts,outdoor_scenes,69,64,Stimuli/Experimental_stims/body_parts/ira-vishnevskaya-8DQAvdCby1I-unsplash.jpg,Stimuli/Experimental_stims/outdoor_scenes/jeff-king-bJHWJeiHfHc-unsplash.jpg,0,29,4
23,51659,24,G,scramble,0,1,1,objects,outdoor_scenes,41,6,Stimuli/Experimental_stims/scramble/objects/scrambled_insung-yoon-w2JtIQQXoRU-unsplash.jpg,Stimuli/Experimental_stims/scramble/outdoor_scenes/scrambled_meng-ji-8BH_M-53CyA-unsplash.jpg,NaN,NaN,1100,1000,left,1,0,557,1,41,6,objects,outdoor_scenes,NaN,NaN,Stimuli/Experimental_stims/scramble/objects/scrambled_insung-yoon-w2JtIQQXoRU-unsplash.jpg,Stimuli/Experimental_stims/scramble/outdoor_scenes/scrambled_meng-ji-8BH_M-53CyA-unsplash.jpg,0,29,4
24,51659,25,B,original,0,1,1,outdoor_scenes,faces,3,18,Stimuli/Experimental_stims/outdoor_scenes/henry-be-NLF6hTe4PAg-unsplash.jpg,Stimuli/Experimental_stims/faces/jessica-radanavong-mrYkTuAesKE-unsplash.jpg,77,77,1200,0,,NaN,0,2186,1,3,18,outdoor_scenes,faces,77,77,Stimuli/Experimental_stims/outdoor_scenes/henry-be-NLF6hTe4PAg-unsplash.jpg,Stimuli/Experimental_stims/faces/jessica-radanavong-mrYkTuAesKE-unsplash.jpg,0,29,4
25,51659,26,E,scramble,0,1,1,objects,body_parts,37,31,Stimuli/Experimental_stims/scramble/objects/scrambled_alexander-andrews-VLGWE_SumrA-unsplash.jpg,Stimuli/Experimental_stims/scramble/body_parts/scrambled_sincerely-media-VN6DbKajo5s-unsplash.jpg,NaN,NaN,1100,1300,right,1,0,496,0,31,37,body_parts,objects,NaN,NaN,Stimuli/Experimental_stims/scramble/body_parts/scrambled_sincerely-media-VN6DbKajo5s-unsplash.jpg,Stimuli/Experimental_stims/scramble/objects/scrambled_alexander-andrews-VLGWE_SumrA-unsplash.jpg,0,29,4
26,51659,27,D,original,0,1,1,objects,faces,36,13,Stimuli/Experimental_stims/objects/alexander-andrews-JYGnB9gTCls-unsplash.jpg,Stimuli/Experimental_stims/faces/daniel-rigdon-dXmXKPP2L4E-unsplash.jpg,44,61,1700,0,,NaN,0,1466,1,36,13,objects,faces,44,61,Stimuli/Experimental_stims/objects/alexander-andrews-JYGnB9gTCls-unsplash.jpg,Stimuli/Experimental_stims/faces/daniel-rigdon-dXmXKPP2L4E-unsplash.jpg,0,29,4
27,51659,28,F,scramble,0,1,1,faces,body_parts,14,24,Stimuli/Experimental_stims/scramble/faces/scrambled_david-siglin-UuW4psOb388-unsplash.jpg,Stimuli/Experimental_stims/scramble/body_parts/scrambled_clay-banks-LjqARJaJotc-unsplash.jpg,NaN,NaN,2200,1100,left,1,0,772,1,14,24,faces,body_parts,NaN,NaN,Stimuli/Experimental_stims/scramble/faces/scrambled_david-siglin-UuW4psOb388-unsplash.jpg,Stimuli/Experimental_stims/scramble/body_parts/scrambled_clay-banks-LjqARJaJotc-unsplash.jpg,0,29,4
28,51659,29,K,original,0,1,2,body_parts,objects,32,44,Stimuli/Experimental_stims/body_parts/towfiqu-barbhuiya-3AsiVDsZnHg-unsplash.jpg,Stimuli/Experimental_stims/objects/kuiye-chen-NuOGFo4PudE-unsplash.jpg,42,15,3200,0,,NaN,0,1041,0,44,32,objects,body_parts,15,42,Stimuli/Experimental_stims/objects/kuiye-chen-NuOGFo4PudE-unsplash.jpg,Stimuli/Experimental_stims/body_parts/towfiqu-barbhuiya-3AsiVDsZnHg-unsplash.jpg,1,29,4
29,51659,30,I,original,0,1,2,body_parts,outdoor_scenes,28,5,Stimuli/Experimental_stims/body_parts/ira-vishnevskaya-8DQAvdCby1I-unsplash.jpg,Stimuli/Experimental_stims/outdoor_scenes/jeff-king-bJHWJeiHfHc-unsplash.jpg,69,64,2900,0,,NaN,0,1915,0,5,28,outdoor_scenes,body_parts,64,69,Stimuli/Experimental_stims/outdoor_scenes/jeff-king-bJHWJeiHfHc-unsplash.jpg,Stimuli/Experimental_stims/body_parts/ira-vishnevskaya-8DQAvdCby1I-unsplash.jpg,0,29,4
30,51659,31,C,scramble,0,1,2,outdoor_scenes,body_parts,9,27,Stimuli/Experimental_stims/scramble/outdoor_scenes/scrambled_sergey-pesterev-y-b_FOmJXdg-unsplash.jpg,Stimuli/Experimental_stims/scramble/body_parts/scrambled_heike-mintel-i_Gns0ELnLw-unsplash.jpg,NaN,NaN,1300,1600,right,1,0,323,0,27,9,body_parts,outdoor_scenes,NaN,NaN,Stimuli/Experimental_stims/scramble/body_parts/scrambled_heike-mintel-i_Gns0ELnLw-unsplash.jpg,Stimuli/Experimental_stims/scramble/outdoor_scenes/scrambled_sergey-pesterev-y-b_FOmJXdg-unsplash.jpg,0,29,4
31,51659,32,H,scramble,0,1,2,faces,outdoor_scenes,21,4,Stimuli/Experimental_stims/scramble/faces/scrambled_leilani-angel-K84vnnzxmTQ-unsplash.jpg,Stimuli/Experimental_stims/scramble/outdoor_scenes/scrambled_jarrett-kow-1ZOyYPOBn7I-unsplash.jpg,NaN,NaN,1000,700,left,1,0,769,1,21,4,faces,outdoor_scenes,NaN,NaN,Stimuli/Experimental_stims/scramble/faces/scrambled_leilani-angel-K84vnnzxmTQ-unsplash.jpg,Stimuli/Experimental_stims/scramble/outdoor_scenes/scrambled_jarrett-kow-1ZOyYPOBn7I-unsplash.jpg,0,29,4
32,51659,33,E,original,0,1,2,objects,body_parts,37,31,Stimuli/Experimental_stims/objects/alexander-andrews-VLGWE_SumrA-unsplash.jpg,Stimuli/Experimental_stims/body_parts/sincerely-media-VN6DbKajo5s-unsplash.jpg,64,60,1000,0,,NaN,0,1422,1,37,31,objects,body_parts,64,60,Stimuli/Experimental_stims/objects/alexander-andrews-VLGWE_SumrA-unsplash.jpg,Stimuli/Experimental_stims/body_parts/sincerely-media-VN6DbKajo5s-unsplash.jpg,0,29,4
33,51659,34,F,scramble,0,1,2,faces,body_parts,14,24,Stimuli/Experimental_stims/scramble/faces/scrambled_david-siglin-UuW4psOb388-unsplash.jpg,Stimuli/Experimental_stims/scramble/body_parts/scrambled_clay-banks-LjqARJaJotc-unsplash.jpg,NaN,NaN,1300,1800,right,1,0,307,0,24,14,body_parts,faces,NaN,NaN,Stimuli/Experimental_stims/scramble/body_parts/scrambled_clay-banks-LjqARJaJotc-unsplash.jpg,Stimuli/Experimental_stims/scramble/faces/scrambled_david-siglin-UuW4psOb388-unsplash.jpg,0,29,4
34,51659,35,D,scramble,0,1,2,objects,faces,36,13,Stimuli/Experimental_stims/scramble/objects/scrambled_alexander-andrews-JYGnB9gTCls-unsplash.jpg,Stimuli/Experimental_stims/scramble/faces/scrambled_daniel-rigdon-dXmXKPP2L4E-unsplash.jpg,NaN,NaN,2500,1900,left,1,0,299,1,36,13,objects,faces,NaN,NaN,Stimuli/Experimental_stims/scramble/objects/scrambled_alexander-andrews-JYGnB9gTCls-unsplash.jpg,Stimuli/Experimental_stims/scramble/faces/scrambled_daniel-rigdon-dXmXKPP2L4E-unsplash.jpg,0,29,4
35,51659,36,C,original,0,1,2,outdoor_scenes,body_parts,9,27,Stimuli/Experimental_stims/outdoor_scenes/sergey-pesterev-y-b_FOmJXdg-unsplash.jpg,Stimuli/Experimental_stims/body_parts/heike-mintel-i_Gns0ELnLw-unsplash.jpg,81,78,1700,0,,NaN,0,1357,1,9,27,outdoor_scenes,body_parts,81,78,Stimuli/Experimental_stims/outdoor_scenes/sergey-pesterev-y-b_FOmJXdg-unsplash.jpg,Stimuli/Experimental_stims/body_parts/heike-mintel-i_Gns0ELnLw-unsplash.jpg,0,29,4
36,51659,37,B,scramble,0,1,2,outdoor_scenes,faces,3,18,Stimuli/Experimental_stims/scramble/outdoor_scenes/scrambled_henry-be-NLF6hTe4PAg-unsplash.jpg,Stimuli/Experimental_stims/scramble/faces/scrambled_jessica-radanavong-mrYkTuAesKE-unsplash.jpg,NaN,NaN,3800,1700,right,1,0,356,0,18,3,faces,outdoor_scenes,NaN,NaN,Stimuli/Experimental_stims/scramble/faces/scrambled_jessica-radanavong-mrYkTuAesKE-unsplash.jpg,Stimuli/Experimental_stims/scramble/outdoor_scenes/scrambled_henry-be-NLF6hTe4PAg-unsplash.jpg,1,29,4
37,51659,38,A,original,0,1,2,outdoor_scenes,objects,2,42,Stimuli/Experimental_stims/outdoor_scenes/bruno-van-der-kraan-qez8mNJ3ilU-unsplash.jpg,Stimuli/Experimental_stims/objects/jess-bailey-nOeVi8DsN8U-unsplash.jpg,39,30,2400,0,,NaN,0,1868,1,2,42,outdoor_scenes,objects,39,30,Stimuli/Experimental_stims/outdoor_scenes/bruno-van-der-kraan-qez8mNJ3ilU-unsplash.jpg,Stimuli/Experimental_stims/objects/jess-bailey-nOeVi8DsN8U-unsplash.jpg,0,29,4
38,51659,39,F,original,0,1,2,faces,body_parts,14,24,Stimuli/Experimental_stims/faces/david-siglin-UuW4psOb388-unsplash.jpg,Stimuli/Experimental_stims/body_parts/clay-banks-LjqARJaJotc-unsplash.jpg,77,68,2000,0,,NaN,0,1815,0,24,14,body_parts,faces,68,77,Stimuli/Experimental_stims/body_parts/clay-banks-LjqARJaJotc-unsplash.jpg,Stimuli/Experimental_stims/faces/david-siglin-UuW4psOb388-unsplash.jpg,0,29,4
39,51659,40,K,scramble,0,1,2,body_parts,objects,32,44,Stimuli/Experimental_stims/scramble/body_parts/scrambled_towfiqu-barbhuiya-3AsiVDsZnHg-unsplash.jpg,Stimuli/Experimental_stims/scramble/objects/scrambled_kuiye-chen-NuOGFo4PudE-unsplash.jpg,NaN,NaN,1800,1400,right,1,0,435,0,44,32,objects,body_parts,NaN,NaN,Stimuli/Experimental_stims/scramble/objects/scrambled_kuiye-chen-NuOGFo4PudE-unsplash.jpg,Stimuli/Experimental_stims/scramble/body_parts/scrambled_towfiqu-barbhuiya-3AsiVDsZnHg-unsplash.jpg,0,29,4
40,51659,41,L,original,0,1,2,body_parts,faces,35,23,Stimuli/Experimental_stims/body_parts/wc-so-KH4AAPjb-tI-unsplash.jpg,Stimuli/Experimental_stims/faces/rikonavt-HQjfrvdTfak-unsplash.jpg,26,90,1700,0,,NaN,0,1453,1,35,23,body_parts,faces,26,90,Stimuli/Experimental_stims/body_parts/wc-so-KH4AAPjb-tI-unsplash.jpg,Stimuli/Experimental_stims/faces/rikonavt-HQjfrvdTfak-unsplash.jpg,0,29,4
41,51659,42,D,original,0,1,2,objects,faces,36,13,Stimuli/Experimental_stims/objects/alexander-andrews-JYGnB9gTCls-unsplash.jpg,Stimuli/Experimental_stims/faces/daniel-rigdon-dXmXKPP2L4E-unsplash.jpg,44,61,1500,0,,NaN,0,923,1,36,13,objects,faces,44,61,Stimuli/Experimental_stims/objects/alexander-andrews-JYGnB9gTCls-unsplash.jpg,Stimuli/Experimental_stims/faces/daniel-rigdon-dXmXKPP2L4E-unsplash.jpg,0,29,4
42,51659,43,A,scramble,0,1,2,outdoor_scenes,objects,2,42,Stimuli/Experimental_stims/scramble/outdoor_scenes/scrambled_bruno-van-der-kraan-qez8mNJ3ilU-unsplash.jpg,Stimuli/Experimental_stims/scramble/objects/scrambled_jess-bailey-nOeVi8DsN8U-unsplash.jpg,NaN,NaN,2400,1200,left,1,0,417,1,2,42,outdoor_scenes,objects,NaN,NaN,Stimuli/Experimental_stims/scramble/outdoor_scenes/scrambled_bruno-van-der-kraan-qez8mNJ3ilU-unsplash.jpg,Stimuli/Experimental_stims/scramble/objects/scrambled_jess-bailey-nOeVi8DsN8U-unsplash.jpg,0,29,4
43,51659,44,G,original,0,1,2,objects,outdoor_scenes,41,6,Stimuli/Experimental_stims/objects/insung-yoon-w2JtIQQXoRU-unsplash.jpg,Stimuli/Experimental_stims/outdoor_scenes/meng-ji-8BH_M-53CyA-unsplash.jpg,41,71,3600,0,,NaN,0,1720,1,41,6,objects,outdoor_scenes,41,71,Stimuli/Experimental_stims/objects/insung-yoon-w2JtIQQXoRU-unsplash.jpg,Stimuli/Experimental_stims/outdoor_scenes/meng-ji-8BH_M-53CyA-unsplash.jpg,1,29,4
44,51659,45,G,scramble,0,1,2,objects,outdoor_scenes,41,6,Stimuli/Experimental_stims/scramble/objects/scrambled_insung-yoon-w2JtIQQXoRU-unsplash.jpg,Stimuli/Experimental_stims/scramble/outdoor_scenes/scrambled_meng-ji-8BH_M-53CyA-unsplash.jpg,NaN,NaN,1300,1800,right,1,0,337,0,6,41,outdoor_scenes,objects,NaN,NaN,Stimuli/Experimental_stims/scramble/outdoor_scenes/scrambled_meng-ji-8BH_M-53CyA-unsplash.jpg,Stimuli/Experimental_stims/scramble/objects/scrambled_insung-yoon-w2JtIQQXoRU-unsplash.jpg,0,29,4
45,51659,46,J,scramble,0,1,2,faces,objects,12,38,Stimuli/Experimental_stims/scramble/faces/scrambled_aiony-haust-jmATI5Q_YgY-unsplash.jpg,Stimuli/Experimental_stims/scramble/objects/scrambled_art-lasovsky-8XddFc6NkBY-unsplash.jpg,NaN,NaN,1000,1800,left,1,0,400,1,12,38,faces,objects,NaN,NaN,Stimuli/Experimental_stims/scramble/faces/scrambled_aiony-haust-jmATI5Q_YgY-unsplash.jpg,Stimuli/Experimental_stims/scramble/objects/scrambled_art-lasovsky-8XddFc6NkBY-unsplash.jpg,0,29,4
46,51659,47,B,original,0,1,2,outdoor_scenes,faces,3,18,Stimuli/Experimental_stims/outdoor_scenes/henry-be-NLF6hTe4PAg-unsplash.jpg,Stimuli/Experimental_stims/faces/jessica-radanavong-mrYkTuAesKE-unsplash.jpg,77,77,1700,0,,NaN,1,,NaN,NaN,NaN,NaN,NaN,NaN,NaN,NaN,NaN,0,29,4
47,51659,48,I,scramble,0,1,2,body_parts,outdoor_scenes,28,5,Stimuli/Experimental_stims/scramble/body_parts/scrambled_ira-vishnevskaya-8DQAvdCby1I-unsplash.jpg,Stimuli/Experimental_stims/scramble/outdoor_scenes/scrambled_jeff-king-bJHWJeiHfHc-unsplash.jpg,NaN,NaN,1200,1300,right,1,0,434,0,5,28,outdoor_scenes,body_parts,NaN,NaN,Stimuli/Experimental_stims/scramble/outdoor_scenes/scrambled_jeff-king-bJHWJeiHfHc-unsplash.jpg,Stimuli/Experimental_stims/scramble/body_parts/scrambled_ira-vishnevskaya-8DQAvdCby1I-unsplash.jpg,0,29,4
48,51659,49,H,original,0,1,2,faces,outdoor_scenes,21,4,Stimuli/Experimental_stims/faces/leilani-angel-K84vnnzxmTQ-unsplash.jpg,Stimuli/Experimental_stims/outdoor_scenes/jarrett-kow-1ZOyYPOBn7I-unsplash.jpg,80,78,2800,0,,NaN,0,1378,0,4,21,outdoor_scenes,faces,78,80,Stimuli/Experimental_stims/outdoor_scenes/jarrett-kow-1ZOyYPOBn7I-unsplash.jpg,Stimuli/Experimental_stims/faces/leilani-angel-K84vnnzxmTQ-unsplash.jpg,0,29,4
49,51659,50,L,scramble,0,1,2,body_parts,faces,35,23,Stimuli/Experimental_stims/scramble/body_parts/scrambled_wc-so-KH4AAPjb-tI-unsplash.jpg,Stimuli/Experimental_stims/scramble/faces/scrambled_rikonavt-HQjfrvdTfak-unsplash.jpg,NaN,NaN,1400,1300,left,1,0,343,1,35,23,body_parts,faces,NaN,NaN,Stimuli/Experimental_stims/scramble/body_parts/scrambled_wc-so-KH4AAPjb-tI-unsplash.jpg,Stimuli/Experimental_stims/scramble/faces/scrambled_rikonavt-HQjfrvdTfak-unsplash.jpg,0,29,4
50,51659,51,E,scramble,0,1,2,objects,body_parts,37,31,Stimuli/Experimental_stims/scramble/objects/scrambled_alexander-andrews-VLGWE_SumrA-unsplash.jpg,Stimuli/Experimental_stims/scramble/body_parts/scrambled_sincerely-media-VN6DbKajo5s-unsplash.jpg,NaN,NaN,1300,1000,left,1,0,447,1,37,31,objects,body_parts,NaN,NaN,Stimuli/Experimental_stims/scramble/objects/scrambled_alexander-andrews-VLGWE_SumrA-unsplash.jpg,Stimuli/Experimental_stims/scramble/body_parts/scrambled_sincerely-media-VN6DbKajo5s-unsplash.jpg,0,29,4
51,51659,52,J,original,0,1,2,faces,objects,12,38,Stimuli/Experimental_stims/faces/aiony-haust-jmATI5Q_YgY-unsplash.jpg,Stimuli/Experimental_stims/objects/art-lasovsky-8XddFc6NkBY-unsplash.jpg,82,61,4900,0,,NaN,0,1293,0,38,12,objects,faces,61,82,Stimuli/Experimental_stims/objects/art-lasovsky-8XddFc6NkBY-unsplash.jpg,Stimuli/Experimental_stims/faces/aiony-haust-jmATI5Q_YgY-unsplash.jpg,1,29,4
52,51659,53,E,scramble,0,2,3,objects,body_parts,37,31,Stimuli/Experimental_stims/scramble/objects/scrambled_alexander-andrews-VLGWE_SumrA-unsplash.jpg,Stimuli/Experimental_stims/scramble/body_parts/scrambled_sincerely-media-VN6DbKajo5s-unsplash.jpg,NaN,NaN,3800,900,right,1,0,583,0,31,37,body_parts,objects,NaN,NaN,Stimuli/Experimental_stims/scramble/body_parts/scrambled_sincerely-media-VN6DbKajo5s-unsplash.jpg,Stimuli/Experimental_stims/scramble/objects/scrambled_alexander-andrews-VLGWE_SumrA-unsplash.jpg,1,1,4
53,51659,54,J,original,0,2,3,faces,objects,12,38,Stimuli/Experimental_stims/faces/aiony-haust-jmATI5Q_YgY-unsplash.jpg,Stimuli/Experimental_stims/objects/art-lasovsky-8XddFc6NkBY-unsplash.jpg,82,61,2100,0,,NaN,0,1008,0,38,12,objects,faces,61,82,Stimuli/Experimental_stims/objects/art-lasovsky-8XddFc6NkBY-unsplash.jpg,Stimuli/Experimental_stims/faces/aiony-haust-jmATI5Q_YgY-unsplash.jpg,0,1,4
54,51659,55,K,original,0,2,3,body_parts,objects,32,44,Stimuli/Experimental_stims/body_parts/towfiqu-barbhuiya-3AsiVDsZnHg-unsplash.jpg,Stimuli/Experimental_stims/objects/kuiye-chen-NuOGFo4PudE-unsplash.jpg,42,15,1500,0,,NaN,0,915,0,44,32,objects,body_parts,15,42,Stimuli/Experimental_stims/objects/kuiye-chen-NuOGFo4PudE-unsplash.jpg,Stimuli/Experimental_stims/body_parts/towfiqu-barbhuiya-3AsiVDsZnHg-unsplash.jpg,0,1,4
55,51659,56,K,scramble,0,2,3,body_parts,objects,32,44,Stimuli/Experimental_stims/scramble/body_parts/scrambled_towfiqu-barbhuiya-3AsiVDsZnHg-unsplash.jpg,Stimuli/Experimental_stims/scramble/objects/scrambled_kuiye-chen-NuOGFo4PudE-unsplash.jpg,NaN,NaN,2100,900,left,1,0,370,1,32,44,body_parts,objects,NaN,NaN,Stimuli/Experimental_stims/scramble/body_parts/scrambled_towfiqu-barbhuiya-3AsiVDsZnHg-unsplash.jpg,Stimuli/Experimental_stims/scramble/objects/scrambled_kuiye-chen-NuOGFo4PudE-unsplash.jpg,0,1,4
56,51659,57,E,original,0,2,3,objects,body_parts,37,31,Stimuli/Experimental_stims/objects/alexander-andrews-VLGWE_SumrA-unsplash.jpg,Stimuli/Experimental_stims/body_parts/sincerely-media-VN6DbKajo5s-unsplash.jpg,64,60,1400,0,,NaN,0,940,1,37,31,objects,body_parts,64,60,Stimuli/Experimental_stims/objects/alexander-andrews-VLGWE_SumrA-unsplash.jpg,Stimuli/Experimental_stims/body_parts/sincerely-media-VN6DbKajo5s-unsplash.jpg,0,1,4
57,51659,58,L,scramble,0,2,3,body_parts,faces,35,23,Stimuli/Experimental_stims/scramble/body_parts/scrambled_wc-so-KH4AAPjb-tI-unsplash.jpg,Stimuli/Experimental_stims/scramble/faces/scrambled_rikonavt-HQjfrvdTfak-unsplash.jpg,NaN,NaN,2400,1200,left,1,0,446,1,35,23,body_parts,faces,NaN,NaN,Stimuli/Experimental_stims/scramble/body_parts/scrambled_wc-so-KH4AAPjb-tI-unsplash.jpg,Stimuli/Experimental_stims/scramble/faces/scrambled_rikonavt-HQjfrvdTfak-unsplash.jpg,0,1,4
58,51659,59,A,original,0,2,3,outdoor_scenes,objects,2,42,Stimuli/Experimental_stims/outdoor_scenes/bruno-van-der-kraan-qez8mNJ3ilU-unsplash.jpg,Stimuli/Experimental_stims/objects/jess-bailey-nOeVi8DsN8U-unsplash.jpg,39,30,1400,0,,NaN,0,933,0,42,2,objects,outdoor_scenes,30,39,Stimuli/Experimental_stims/objects/jess-bailey-nOeVi8DsN8U-unsplash.jpg,Stimuli/Experimental_stims/outdoor_scenes/bruno-van-der-kraan-qez8mNJ3ilU-unsplash.jpg,0,1,4
59,51659,60,H,original,0,2,3,faces,outdoor_scenes,21,4,Stimuli/Experimental_stims/faces/leilani-angel-K84vnnzxmTQ-unsplash.jpg,Stimuli/Experimental_stims/outdoor_scenes/jarrett-kow-1ZOyYPOBn7I-unsplash.jpg,80,78,1400,0,,NaN,0,917,0,4,21,outdoor_scenes,faces,78,80,Stimuli/Experimental_stims/outdoor_scenes/jarrett-kow-1ZOyYPOBn7I-unsplash.jpg,Stimuli/Experimental_stims/faces/leilani-angel-K84vnnzxmTQ-unsplash.jpg,0,1,4
60,51659,61,A,scramble,0,2,3,outdoor_scenes,objects,2,42,Stimuli/Experimental_stims/scramble/outdoor_scenes/scrambled_bruno-van-der-kraan-qez8mNJ3ilU-unsplash.jpg,Stimuli/Experimental_stims/scramble/objects/scrambled_jess-bailey-nOeVi8DsN8U-unsplash.jpg,NaN,NaN,1500,1400,left,1,0,395,1,2,42,outdoor_scenes,objects,NaN,NaN,Stimuli/Experimental_stims/scramble/outdoor_scenes/scrambled_bruno-van-der-kraan-qez8mNJ3ilU-unsplash.jpg,Stimuli/Experimental_stims/scramble/objects/scrambled_jess-bailey-nOeVi8DsN8U-unsplash.jpg,0,1,4
61,51659,62,C,scramble,0,2,3,outdoor_scenes,body_parts,9,27,Stimuli/Experimental_stims/scramble/outdoor_scenes/scrambled_sergey-pesterev-y-b_FOmJXdg-unsplash.jpg,Stimuli/Experimental_stims/scramble/body_parts/scrambled_heike-mintel-i_Gns0ELnLw-unsplash.jpg,NaN,NaN,2900,1000,left,1,0,417,1,9,27,outdoor_scenes,body_parts,NaN,NaN,Stimuli/Experimental_stims/scramble/outdoor_scenes/scrambled_sergey-pesterev-y-b_FOmJXdg-unsplash.jpg,Stimuli/Experimental_stims/scramble/body_parts/scrambled_heike-mintel-i_Gns0ELnLw-unsplash.jpg,1,1,4
62,51659,63,C,original,0,2,3,outdoor_scenes,body_parts,9,27,Stimuli/Experimental_stims/outdoor_scenes/sergey-pesterev-y-b_FOmJXdg-unsplash.jpg,Stimuli/Experimental_stims/body_parts/heike-mintel-i_Gns0ELnLw-unsplash.jpg,81,78,2000,0,,NaN,0,961,1,9,27,outdoor_scenes,body_parts,81,78,Stimuli/Experimental_stims/outdoor_scenes/sergey-pesterev-y-b_FOmJXdg-unsplash.jpg,Stimuli/Experimental_stims/body_parts/heike-mintel-i_Gns0ELnLw-unsplash.jpg,0,1,4
63,51659,64,G,original,0,2,3,objects,outdoor_scenes,41,6,Stimuli/Experimental_stims/objects/insung-yoon-w2JtIQQXoRU-unsplash.jpg,Stimuli/Experimental_stims/outdoor_scenes/meng-ji-8BH_M-53CyA-unsplash.jpg,41,71,2000,0,,NaN,0,1320,0,6,41,outdoor_scenes,objects,71,41,Stimuli/Experimental_stims/outdoor_scenes/meng-ji-8BH_M-53CyA-unsplash.jpg,Stimuli/Experimental_stims/objects/insung-yoon-w2JtIQQXoRU-unsplash.jpg,0,1,4
64,51659,65,G,scramble,0,2,3,objects,outdoor_scenes,41,6,Stimuli/Experimental_stims/scramble/objects/scrambled_insung-yoon-w2JtIQQXoRU-unsplash.jpg,Stimuli/Experimental_stims/scramble/outdoor_scenes/scrambled_meng-ji-8BH_M-53CyA-unsplash.jpg,NaN,NaN,2100,1300,right,1,0,342,0,6,41,outdoor_scenes,objects,NaN,NaN,Stimuli/Experimental_stims/scramble/outdoor_scenes/scrambled_meng-ji-8BH_M-53CyA-unsplash.jpg,Stimuli/Experimental_stims/scramble/objects/scrambled_insung-yoon-w2JtIQQXoRU-unsplash.jpg,0,1,4
65,51659,66,F,scramble,0,2,3,faces,body_parts,14,24,Stimuli/Experimental_stims/scramble/faces/scrambled_david-siglin-UuW4psOb388-unsplash.jpg,Stimuli/Experimental_stims/scramble/body_parts/scrambled_clay-banks-LjqARJaJotc-unsplash.jpg,NaN,NaN,2100,1100,left,1,0,687,1,14,24,faces,body_parts,NaN,NaN,Stimuli/Experimental_stims/scramble/faces/scrambled_david-siglin-UuW4psOb388-unsplash.jpg,Stimuli/Experimental_stims/scramble/body_parts/scrambled_clay-banks-LjqARJaJotc-unsplash.jpg,0,1,4
66,51659,67,L,original,0,2,3,body_parts,faces,35,23,Stimuli/Experimental_stims/body_parts/wc-so-KH4AAPjb-tI-unsplash.jpg,Stimuli/Experimental_stims/faces/rikonavt-HQjfrvdTfak-unsplash.jpg,26,90,4500,0,,NaN,0,1551,0,23,35,faces,body_parts,90,26,Stimuli/Experimental_stims/faces/rikonavt-HQjfrvdTfak-unsplash.jpg,Stimuli/Experimental_stims/body_parts/wc-so-KH4AAPjb-tI-unsplash.jpg,1,1,4
67,51659,68,B,scramble,0,2,3,outdoor_scenes,faces,3,18,Stimuli/Experimental_stims/scramble/outdoor_scenes/scrambled_henry-be-NLF6hTe4PAg-unsplash.jpg,Stimuli/Experimental_stims/scramble/faces/scrambled_jessica-radanavong-mrYkTuAesKE-unsplash.jpg,NaN,NaN,1500,1400,right,1,0,392,0,18,3,faces,outdoor_scenes,NaN,NaN,Stimuli/Experimental_stims/scramble/faces/scrambled_jessica-radanavong-mrYkTuAesKE-unsplash.jpg,Stimuli/Experimental_stims/scramble/outdoor_scenes/scrambled_henry-be-NLF6hTe4PAg-unsplash.jpg,0,1,4
68,51659,69,D,scramble,0,2,3,objects,faces,36,13,Stimuli/Experimental_stims/scramble/objects/scrambled_alexander-andrews-JYGnB9gTCls-unsplash.jpg,Stimuli/Experimental_stims/scramble/faces/scrambled_daniel-rigdon-dXmXKPP2L4E-unsplash.jpg,NaN,NaN,1500,1500,right,1,0,335,0,13,36,faces,objects,NaN,NaN,Stimuli/Experimental_stims/scramble/faces/scrambled_daniel-rigdon-dXmXKPP2L4E-unsplash.jpg,Stimuli/Experimental_stims/scramble/objects/scrambled_alexander-andrews-JYGnB9gTCls-unsplash.jpg,0,1,4
69,51659,70,I,original,0,2,3,body_parts,outdoor_scenes,28,5,Stimuli/Experimental_stims/body_parts/ira-vishnevskaya-8DQAvdCby1I-unsplash.jpg,Stimuli/Experimental_stims/outdoor_scenes/jeff-king-bJHWJeiHfHc-unsplash.jpg,69,64,1300,0,,NaN,0,1708,1,28,5,body_parts,outdoor_scenes,69,64,Stimuli/Experimental_stims/body_parts/ira-vishnevskaya-8DQAvdCby1I-unsplash.jpg,Stimuli/Experimental_stims/outdoor_scenes/jeff-king-bJHWJeiHfHc-unsplash.jpg,0,1,4
70,51659,71,F,original,0,2,3,faces,body_parts,14,24,Stimuli/Experimental_stims/faces/david-siglin-UuW4psOb388-unsplash.jpg,Stimuli/Experimental_stims/body_parts/clay-banks-LjqARJaJotc-unsplash.jpg,77,68,1200,0,,NaN,0,1550,0,24,14,body_parts,faces,68,77,Stimuli/Experimental_stims/body_parts/clay-banks-LjqARJaJotc-unsplash.jpg,Stimuli/Experimental_stims/faces/david-siglin-UuW4psOb388-unsplash.jpg,0,1,4
71,51659,72,J,scramble,0,2,3,faces,objects,12,38,Stimuli/Experimental_stims/scramble/faces/scrambled_aiony-haust-jmATI5Q_YgY-unsplash.jpg,Stimuli/Experimental_stims/scramble/objects/scrambled_art-lasovsky-8XddFc6NkBY-unsplash.jpg,NaN,NaN,2300,700,right,1,0,557,0,38,12,objects,faces,NaN,NaN,Stimuli/Experimental_stims/scramble/objects/scrambled_art-lasovsky-8XddFc6NkBY-unsplash.jpg,Stimuli/Experimental_stims/scramble/faces/scrambled_aiony-haust-jmATI5Q_YgY-unsplash.jpg,0,1,4
72,51659,73,D,original,0,2,3,objects,faces,36,13,Stimuli/Experimental_stims/objects/alexander-andrews-JYGnB9gTCls-unsplash.jpg,Stimuli/Experimental_stims/faces/daniel-rigdon-dXmXKPP2L4E-unsplash.jpg,44,61,1400,0,,NaN,0,908,1,36,13,objects,faces,44,61,Stimuli/Experimental_stims/objects/alexander-andrews-JYGnB9gTCls-unsplash.jpg,Stimuli/Experimental_stims/faces/daniel-rigdon-dXmXKPP2L4E-unsplash.jpg,0,1,4
73,51659,74,B,original,0,2,3,outdoor_scenes,faces,3,18,Stimuli/Experimental_stims/outdoor_scenes/henry-be-NLF6hTe4PAg-unsplash.jpg,Stimuli/Experimental_stims/faces/jessica-radanavong-mrYkTuAesKE-unsplash.jpg,77,77,2800,0,,NaN,0,1287,1,3,18,outdoor_scenes,faces,77,77,Stimuli/Experimental_stims/outdoor_scenes/henry-be-NLF6hTe4PAg-unsplash.jpg,Stimuli/Experimental_stims/faces/jessica-radanavong-mrYkTuAesKE-unsplash.jpg,1,1,4
74,51659,75,I,scramble,0,2,3,body_parts,outdoor_scenes,28,5,Stimuli/Experimental_stims/scramble/body_parts/scrambled_ira-vishnevskaya-8DQAvdCby1I-unsplash.jpg,Stimuli/Experimental_stims/scramble/outdoor_scenes/scrambled_jeff-king-bJHWJeiHfHc-unsplash.jpg,NaN,NaN,1300,1100,right,1,0,323,0,5,28,outdoor_scenes,body_parts,NaN,NaN,Stimuli/Experimental_stims/scramble/outdoor_scenes/scrambled_jeff-king-bJHWJeiHfHc-unsplash.jpg,Stimuli/Experimental_stims/scramble/body_parts/scrambled_ira-vishnevskaya-8DQAvdCby1I-unsplash.jpg,0,1,4
75,51659,76,H,scramble,0,2,3,faces,outdoor_scenes,21,4,Stimuli/Experimental_stims/scramble/faces/scrambled_leilani-angel-K84vnnzxmTQ-unsplash.jpg,Stimuli/Experimental_stims/scramble/outdoor_scenes/scrambled_jarrett-kow-1ZOyYPOBn7I-unsplash.jpg,NaN,NaN,2300,1100,left,1,0,1099,1,21,4,faces,outdoor_scenes,NaN,NaN,Stimuli/Experimental_stims/scramble/faces/scrambled_leilani-angel-K84vnnzxmTQ-unsplash.jpg,Stimuli/Experimental_stims/scramble/outdoor_scenes/scrambled_jarrett-kow-1ZOyYPOBn7I-unsplash.jpg,0,1,4
76,51659,77,E,original,0,2,4,objects,body_parts,37,31,Stimuli/Experimental_stims/objects/alexander-andrews-VLGWE_SumrA-unsplash.jpg,Stimuli/Experimental_stims/body_parts/sincerely-media-VN6DbKajo5s-unsplash.jpg,64,60,1900,0,,NaN,0,2107,0,31,37,body_parts,objects,60,64,Stimuli/Experimental_stims/body_parts/sincerely-media-VN6DbKajo5s-unsplash.jpg,Stimuli/Experimental_stims/objects/alexander-andrews-VLGWE_SumrA-unsplash.jpg,0,1,4
77,51659,78,A,scramble,0,2,4,outdoor_scenes,objects,2,42,Stimuli/Experimental_stims/scramble/outdoor_scenes/scrambled_bruno-van-der-kraan-qez8mNJ3ilU-unsplash.jpg,Stimuli/Experimental_stims/scramble/objects/scrambled_jess-bailey-nOeVi8DsN8U-unsplash.jpg,NaN,NaN,1300,500,left,1,0,520,1,2,42,outdoor_scenes,objects,NaN,NaN,Stimuli/Experimental_stims/scramble/outdoor_scenes/scrambled_bruno-van-der-kraan-qez8mNJ3ilU-unsplash.jpg,Stimuli/Experimental_stims/scramble/objects/scrambled_jess-bailey-nOeVi8DsN8U-unsplash.jpg,0,1,4
78,51659,79,C,original,0,2,4,outdoor_scenes,body_parts,9,27,Stimuli/Experimental_stims/outdoor_scenes/sergey-pesterev-y-b_FOmJXdg-unsplash.jpg,Stimuli/Experimental_stims/body_parts/heike-mintel-i_Gns0ELnLw-unsplash.jpg,81,78,3000,0,,NaN,0,1197,1,9,27,outdoor_scenes,body_parts,81,78,Stimuli/Experimental_stims/outdoor_scenes/sergey-pesterev-y-b_FOmJXdg-unsplash.jpg,Stimuli/Experimental_stims/body_parts/heike-mintel-i_Gns0ELnLw-unsplash.jpg,1,1,4
79,51659,80,H,scramble,0,2,4,faces,outdoor_scenes,21,4,Stimuli/Experimental_stims/scramble/faces/scrambled_leilani-angel-K84vnnzxmTQ-unsplash.jpg,Stimuli/Experimental_stims/scramble/outdoor_scenes/scrambled_jarrett-kow-1ZOyYPOBn7I-unsplash.jpg,NaN,NaN,1600,1500,left,1,0,439,1,21,4,faces,outdoor_scenes,NaN,NaN,Stimuli/Experimental_stims/scramble/faces/scrambled_leilani-angel-K84vnnzxmTQ-unsplash.jpg,Stimuli/Experimental_stims/scramble/outdoor_scenes/scrambled_jarrett-kow-1ZOyYPOBn7I-unsplash.jpg,0,1,4
80,51659,81,J,original,0,2,4,faces,objects,12,38,Stimuli/Experimental_stims/faces/aiony-haust-jmATI5Q_YgY-unsplash.jpg,Stimuli/Experimental_stims/objects/art-lasovsky-8XddFc6NkBY-unsplash.jpg,82,61,2100,0,,NaN,0,941,0,38,12,objects,faces,61,82,Stimuli/Experimental_stims/objects/art-lasovsky-8XddFc6NkBY-unsplash.jpg,Stimuli/Experimental_stims/faces/aiony-haust-jmATI5Q_YgY-unsplash.jpg,0,1,4
81,51659,82,B,original,0,2,4,outdoor_scenes,faces,3,18,Stimuli/Experimental_stims/outdoor_scenes/henry-be-NLF6hTe4PAg-unsplash.jpg,Stimuli/Experimental_stims/faces/jessica-radanavong-mrYkTuAesKE-unsplash.jpg,77,77,2400,0,,NaN,0,1287,1,3,18,outdoor_scenes,faces,77,77,Stimuli/Experimental_stims/outdoor_scenes/henry-be-NLF6hTe4PAg-unsplash.jpg,Stimuli/Experimental_stims/faces/jessica-radanavong-mrYkTuAesKE-unsplash.jpg,0,1,4
82,51659,83,F,scramble,0,2,4,faces,body_parts,14,24,Stimuli/Experimental_stims/scramble/faces/scrambled_david-siglin-UuW4psOb388-unsplash.jpg,Stimuli/Experimental_stims/scramble/body_parts/scrambled_clay-banks-LjqARJaJotc-unsplash.jpg,NaN,NaN,1200,200,left,1,0,640,1,14,24,faces,body_parts,NaN,NaN,Stimuli/Experimental_stims/scramble/faces/scrambled_david-siglin-UuW4psOb388-unsplash.jpg,Stimuli/Experimental_stims/scramble/body_parts/scrambled_clay-banks-LjqARJaJotc-unsplash.jpg,0,1,4
83,51659,84,L,scramble,0,2,4,body_parts,faces,35,23,Stimuli/Experimental_stims/scramble/body_parts/scrambled_wc-so-KH4AAPjb-tI-unsplash.jpg,Stimuli/Experimental_stims/scramble/faces/scrambled_rikonavt-HQjfrvdTfak-unsplash.jpg,NaN,NaN,1000,500,right,1,0,433,0,23,35,faces,body_parts,NaN,NaN,Stimuli/Experimental_stims/scramble/faces/scrambled_rikonavt-HQjfrvdTfak-unsplash.jpg,Stimuli/Experimental_stims/scramble/body_parts/scrambled_wc-so-KH4AAPjb-tI-unsplash.jpg,0,1,4
84,51659,85,L,original,0,2,4,body_parts,faces,35,23,Stimuli/Experimental_stims/body_parts/wc-so-KH4AAPjb-tI-unsplash.jpg,Stimuli/Experimental_stims/faces/rikonavt-HQjfrvdTfak-unsplash.jpg,26,90,2500,0,,NaN,0,2043,1,35,23,body_parts,faces,26,90,Stimuli/Experimental_stims/body_parts/wc-so-KH4AAPjb-tI-unsplash.jpg,Stimuli/Experimental_stims/faces/rikonavt-HQjfrvdTfak-unsplash.jpg,0,1,4
85,51659,86,A,original,0,2,4,outdoor_scenes,objects,2,42,Stimuli/Experimental_stims/outdoor_scenes/bruno-van-der-kraan-qez8mNJ3ilU-unsplash.jpg,Stimuli/Experimental_stims/objects/jess-bailey-nOeVi8DsN8U-unsplash.jpg,39,30,2800,0,,NaN,0,1246,0,42,2,objects,outdoor_scenes,30,39,Stimuli/Experimental_stims/objects/jess-bailey-nOeVi8DsN8U-unsplash.jpg,Stimuli/Experimental_stims/outdoor_scenes/bruno-van-der-kraan-qez8mNJ3ilU-unsplash.jpg,1,1,4
86,51659,87,B,scramble,0,2,4,outdoor_scenes,faces,3,18,Stimuli/Experimental_stims/scramble/outdoor_scenes/scrambled_henry-be-NLF6hTe4PAg-unsplash.jpg,Stimuli/Experimental_stims/scramble/faces/scrambled_jessica-radanavong-mrYkTuAesKE-unsplash.jpg,NaN,NaN,2000,1000,left,1,0,390,1,3,18,outdoor_scenes,faces,NaN,NaN,Stimuli/Experimental_stims/scramble/outdoor_scenes/scrambled_henry-be-NLF6hTe4PAg-unsplash.jpg,Stimuli/Experimental_stims/scramble/faces/scrambled_jessica-radanavong-mrYkTuAesKE-unsplash.jpg,0,1,4
87,51659,88,G,original,0,2,4,objects,outdoor_scenes,41,6,Stimuli/Experimental_stims/objects/insung-yoon-w2JtIQQXoRU-unsplash.jpg,Stimuli/Experimental_stims/outdoor_scenes/meng-ji-8BH_M-53CyA-unsplash.jpg,41,71,1100,0,,NaN,0,1135,0,6,41,outdoor_scenes,objects,71,41,Stimuli/Experimental_stims/outdoor_scenes/meng-ji-8BH_M-53CyA-unsplash.jpg,Stimuli/Experimental_stims/objects/insung-yoon-w2JtIQQXoRU-unsplash.jpg,0,1,4
88,51659,89,J,scramble,0,2,4,faces,objects,12,38,Stimuli/Experimental_stims/scramble/faces/scrambled_aiony-haust-jmATI5Q_YgY-unsplash.jpg,Stimuli/Experimental_stims/scramble/objects/scrambled_art-lasovsky-8XddFc6NkBY-unsplash.jpg,NaN,NaN,1800,1300,right,1,0,368,0,38,12,objects,faces,NaN,NaN,Stimuli/Experimental_stims/scramble/objects/scrambled_art-lasovsky-8XddFc6NkBY-unsplash.jpg,Stimuli/Experimental_stims/scramble/faces/scrambled_aiony-haust-jmATI5Q_YgY-unsplash.jpg,0,1,4
89,51659,90,K,scramble,0,2,4,body_parts,objects,32,44,Stimuli/Experimental_stims/scramble/body_parts/scrambled_towfiqu-barbhuiya-3AsiVDsZnHg-unsplash.jpg,Stimuli/Experimental_stims/scramble/objects/scrambled_kuiye-chen-NuOGFo4PudE-unsplash.jpg,NaN,NaN,1600,100,right,1,0,841,0,44,32,objects,body_parts,NaN,NaN,Stimuli/Experimental_stims/scramble/objects/scrambled_kuiye-chen-NuOGFo4PudE-unsplash.jpg,Stimuli/Experimental_stims/scramble/body_parts/scrambled_towfiqu-barbhuiya-3AsiVDsZnHg-unsplash.jpg,0,1,4
90,51659,91,D,original,0,2,4,objects,faces,36,13,Stimuli/Experimental_stims/objects/alexander-andrews-JYGnB9gTCls-unsplash.jpg,Stimuli/Experimental_stims/faces/daniel-rigdon-dXmXKPP2L4E-unsplash.jpg,44,61,1500,0,,NaN,0,1064,1,36,13,objects,faces,44,61,Stimuli/Experimental_stims/objects/alexander-andrews-JYGnB9gTCls-unsplash.jpg,Stimuli/Experimental_stims/faces/daniel-rigdon-dXmXKPP2L4E-unsplash.jpg,0,1,4
91,51659,92,K,original,0,2,4,body_parts,objects,32,44,Stimuli/Experimental_stims/body_parts/towfiqu-barbhuiya-3AsiVDsZnHg-unsplash.jpg,Stimuli/Experimental_stims/objects/kuiye-chen-NuOGFo4PudE-unsplash.jpg,42,15,1500,0,,NaN,0,1070,0,44,32,objects,body_parts,15,42,Stimuli/Experimental_stims/objects/kuiye-chen-NuOGFo4PudE-unsplash.jpg,Stimuli/Experimental_stims/body_parts/towfiqu-barbhuiya-3AsiVDsZnHg-unsplash.jpg,0,1,4
92,51659,93,D,scramble,0,2,4,objects,faces,36,13,Stimuli/Experimental_stims/scramble/objects/scrambled_alexander-andrews-JYGnB9gTCls-unsplash.jpg,Stimuli/Experimental_stims/scramble/faces/scrambled_daniel-rigdon-dXmXKPP2L4E-unsplash.jpg,NaN,NaN,4900,1500,right,1,0,753,0,13,36,faces,objects,NaN,NaN,Stimuli/Experimental_stims/scramble/faces/scrambled_daniel-rigdon-dXmXKPP2L4E-unsplash.jpg,Stimuli/Experimental_stims/scramble/objects/scrambled_alexander-andrews-JYGnB9gTCls-unsplash.jpg,1,1,4
93,51659,94,I,scramble,0,2,4,body_parts,outdoor_scenes,28,5,Stimuli/Experimental_stims/scramble/body_parts/scrambled_ira-vishnevskaya-8DQAvdCby1I-unsplash.jpg,Stimuli/Experimental_stims/scramble/outdoor_scenes/scrambled_jeff-king-bJHWJeiHfHc-unsplash.jpg,NaN,NaN,2500,700,left,1,0,482,1,28,5,body_parts,outdoor_scenes,NaN,NaN,Stimuli/Experimental_stims/scramble/body_parts/scrambled_ira-vishnevskaya-8DQAvdCby1I-unsplash.jpg,Stimuli/Experimental_stims/scramble/outdoor_scenes/scrambled_jeff-king-bJHWJeiHfHc-unsplash.jpg,0,1,4
94,51659,95,F,original,0,2,4,faces,body_parts,14,24,Stimuli/Experimental_stims/faces/david-siglin-UuW4psOb388-unsplash.jpg,Stimuli/Experimental_stims/body_parts/clay-banks-LjqARJaJotc-unsplash.jpg,77,68,1100,0,,NaN,0,776,0,24,14,body_parts,faces,68,77,Stimuli/Experimental_stims/body_parts/clay-banks-LjqARJaJotc-unsplash.jpg,Stimuli/Experimental_stims/faces/david-siglin-UuW4psOb388-unsplash.jpg,0,1,4
95,51659,96,E,scramble,0,2,4,objects,body_parts,37,31,Stimuli/Experimental_stims/scramble/objects/scrambled_alexander-andrews-VLGWE_SumrA-unsplash.jpg,Stimuli/Experimental_stims/scramble/body_parts/scrambled_sincerely-media-VN6DbKajo5s-unsplash.jpg,NaN,NaN,1100,1800,right,1,0,403,0,31,37,body_parts,objects,NaN,NaN,Stimuli/Experimental_stims/scramble/body_parts/scrambled_sincerely-media-VN6DbKajo5s-unsplash.jpg,Stimuli/Experimental_stims/scramble/objects/scrambled_alexander-andrews-VLGWE_SumrA-unsplash.jpg,0,1,4
96,51659,97,C,scramble,0,2,4,outdoor_scenes,body_parts,9,27,Stimuli/Experimental_stims/scramble/outdoor_scenes/scrambled_sergey-pesterev-y-b_FOmJXdg-unsplash.jpg,Stimuli/Experimental_stims/scramble/body_parts/scrambled_heike-mintel-i_Gns0ELnLw-unsplash.jpg,NaN,NaN,1300,1000,right,1,0,677,0,27,9,body_parts,outdoor_scenes,NaN,NaN,Stimuli/Experimental_stims/scramble/body_parts/scrambled_heike-mintel-i_Gns0ELnLw-unsplash.jpg,Stimuli/Experimental_stims/scramble/outdoor_scenes/scrambled_sergey-pesterev-y-b_FOmJXdg-unsplash.jpg,0,1,4
97,51659,98,I,original,0,2,4,body_parts,outdoor_scenes,28,5,Stimuli/Experimental_stims/body_parts/ira-vishnevskaya-8DQAvdCby1I-unsplash.jpg,Stimuli/Experimental_stims/outdoor_scenes/jeff-king-bJHWJeiHfHc-unsplash.jpg,69,64,2500,0,,NaN,0,1851,1,28,5,body_parts,outdoor_scenes,69,64,Stimuli/Experimental_stims/body_parts/ira-vishnevskaya-8DQAvdCby1I-unsplash.jpg,Stimuli/Experimental_stims/outdoor_scenes/jeff-king-bJHWJeiHfHc-unsplash.jpg,0,1,4
98,51659,99,H,original,0,2,4,faces,outdoor_scenes,21,4,Stimuli/Experimental_stims/faces/leilani-angel-K84vnnzxmTQ-unsplash.jpg,Stimuli/Experimental_stims/outdoor_scenes/jarrett-kow-1ZOyYPOBn7I-unsplash.jpg,80,78,1800,0,,NaN,0,929,0,4,21,outdoor_scenes,faces,78,80,Stimuli/Experimental_stims/outdoor_scenes/jarrett-kow-1ZOyYPOBn7I-unsplash.jpg,Stimuli/Experimental_stims/faces/leilani-angel-K84vnnzxmTQ-unsplash.jpg,0,1,4
99,51659,100,G,scramble,0,2,4,objects,outdoor_scenes,41,6,Stimuli/Experimental_stims/scramble/objects/scrambled_insung-yoon-w2JtIQQXoRU-unsplash.jpg,Stimuli/Experimental_stims/scramble/outdoor_scenes/scrambled_meng-ji-8BH_M-53CyA-unsplash.jpg,NaN,NaN,2700,1100,left,1,0,607,1,41,6,objects,outdoor_scenes,NaN,NaN,Stimuli/Experimental_stims/scramble/objects/scrambled_insung-yoon-w2JtIQQXoRU-unsplash.jpg,Stimuli/Experimental_stims/scramble/outdoor_scenes/scrambled_meng-ji-8BH_M-53CyA-unsplash.jpg,1,1,4