,PID,trial,pair_id,stim_type,practice,run,block,left_category,right_category,left_stimulus,right_stimulus,left_path,right_path,left_rating,right_rating,iti,scramble_screen_time,scramble_instructed_side,scramble_acc,no_response,rt,left_chosen,chosen_stimulus,unchosen_stimulus,chosen_category,unchosen_category,chosen_path,unchosen_path,long_iti,simulation,version,chosen_rating,unchosen_rating
0,83078,1,prac1,original,1,0,0,,,,,Stimuli/Practice_stims/Deliberation/anthony-delanoix-Q0-fOL2nqZc-unsplash.jpg,Stimuli/Practice_stims/Deliberation/becca-tapert-sY5RjMB1KkE-unsplash.jpg,,,1500,0,,NaN,0,650,1,,,,,Stimuli/Practice_stims/Deliberation/anthony-delanoix-Q0-fOL2nqZc-unsplash.jpg,Stimuli/Practice_stims/Deliberation/becca-tapert-sY5RjMB1KkE-unsplash.jpg,0,40,3,,
1,83078,2,prac2,scramble,1,0,0,,,,,Stimuli/Practice_stims/Deliberation/scramble/scrambled_clay-banks-1KPfcPdbWFM-unsplash.jpg,Stimuli/Practice_stims/Deliberation/scramble/scrambled_melissa-keizer-sV4Pd8wq5_o-unsplash.jpg,,,2500,2500,left,0,1,NaN,NaN,NaN,NaN,NaN,NaN,NaN,NaN,0,40,3
2,83078,3,prac3,scramble,1,0,0,,,,,Stimuli/Practice_stims/Deliberation/scramble/scrambled_anthony-delanoix-Q0-fOL2nqZc-unsplash.jpg,Stimuli/Practice_stims/Deliberation/scramble/scrambled_becca-tapert-sY5RjMB1KkE-unsplash.j50,50
40,83078,41,F,ori,NaN,NaN,NaN,NaN,NaN,NaN,NaN,NaN,0,40,3
3,83078,4,prac4,original,1,0,0,,,,,Stimuli/Practice_stims/Deliberation/clay-banks-1KPfcPdbWFM-unsplash.jpg,Stimuli/Practice_stims/Deliberation/melissa-keizer-sV4Pd8wq5_o-unsplash.jpg,,,2000,0,,NaN,1,,NaN,NaN,NaN,NaN,NaN,NaN,NaN,0,40,3,NaN,NaN
4,83078,5,G,scramble,0,1,1,objects,outdoor_scenes,44,7,Stimuli/Experimental_stims/scramble/objects/scrambled_kuiye-chen-NuOGFo4PudE-unsplash.jpg,Stimuli/Experimental_stims/scramble/outdoor_scenes/scrambled_petr-vysohlid-9fqwGqGLUxc-unsplash.jpg,NaN,NaN,2900,1000,left,0,1,NaN,NaN,NaN,NaN,NaN,NaN,NaN,NaN,1,40,3
5,83078,6,E,scramble,0,1,1,objects,body_parts,46,28,Stimuli/Experimental_stims/scramble/objects/scrambled_mockup-graphics-PNsj6RiHAF4-unsplash.jpg,Stimuli/Experimental_stims/scramble/body_parts/scrambled_ira-vishnevskaya-8DQAvdCby1I-unsplash.jpg,NaN,NaN,2500,1300,right,0,1,NaN,NaN,NaN,NaN,NaN,NaN,NaN,NaN,0,40,3
6,83078,7,C,original,0,1,1,outdoor_scenes,body_parts,1,25,Stimuli/Experimental_stims/outdoor_scenes/ashim-d-silva-S2Q5mdOrrVc-unsplash.jpg,Stimuli/Experimental_stims/body_parts/engin-akyurt-Q2rfH3GW39c-unsplash.jpg,50,50,2400,0,,NaN,0,203,1,1,25,outdoor_scenes,body_parts,Stimuli/Experimental_stims/outdoor_scenes/ashim-d-silva-S2Q5mdOrrVc-unsplash.jpg,Stimuli/Experimental_stims/body_parts/engin-akyurt-Q2rfH3GW39c-unsplash.jpg,0,40,3,50,50
7,83078,8,G,original,0,1,1,objects,outdoor_scenes,44,7,Stimuli/Experimental_stims/objects/kuiye-chen-NuOGFo4PudE-unsplash.jpg,Stimuli/Experimental_stims/outdoor_scenes/petr-vysohlid-9fqwGqGLUxc-unsplash.jpg,50,50,1300,0,,NaN,0,148,1,44,7,objects,outdoor_scenes,Stimuli/Experimental_stims/objects/kuiye-chen-NuOGFo4PudE-unsplash.jpg,Stimuli/Experimental_stims/outdoor_scenes/petr-vysohlid-9fqwGqGLUxc-unsplash.jpg,0,40,3,50,50
8,83078,9,J,scramble,0,1,1,faces,objects,12,43,Stimuli/Experimental_stims/scramble/faces/scrambled_aiony-haust-jmATI5Q_YgY-unsplash.jpg,Stimuli/Experimental_stims/scramble/objects/scrambled_jonathan-greenaway-Y4hGgeiFn3s-unsplash.jpg,NaN,NaN,1900,1300,right,0,1,NaN,NaN,NaN,NaN,NaN,NaN,NaN,NaN,0,40,3
9,83078,10,I,original,0,1,1,body_parts,outdoor_scenes,26,11,Stimuli/Experimental_stims/body_parts/engin-akyurt-x_3gyC42btc-unsplash.jpg,Stimuli/Experimental_stims/outdoor_scenes/stephen-leonardi-gyIRjKPXupE-unsplash.jpg,50,50,2100,0,,NaN,0,206,1,26,11,body_parts,outdoor_scenes,Stimuli/Experimental_stims/body_parts/engin-akyurt-x_3gyC42btc-unsplash.jpg,Stimuli/Experimental_stims/outdoor_scenes/stephen-leonardi-gyIRjKPXupE-unsplash.jpg,0,40,3,50,50
10,83078,11,F,original,0,1,1,faces,body_parts,22,35,Stimuli/Experimental_stims/faces/ravi-patel-VMGAbeeJTKo-unsplash.jpg,Stimuli/Experimental_stims/body_parts/wc-so-KH4AAPjb-tI-unsplash.jpg,50,50,1200,0,,NaN,0,184,1,22,35,faces,body_parts,Stimuli/Experimental_stims/faces/ravi-patel-VMGAbeeJTKo-unsplash.jpg,Stimuli/Experimental_stims/body_parts/wc-so-KH4AAPjb-tI-unsplash.jpg,0,40,3,50,50
11,83078,12,D,scramble,0,1,1,objects,faces,37,18,Stimuli/Experimental_stims/scramble/objects/scrambled_alexander-andrews-VLGWE_SumrA-unsplash.jpg,Stimuli/Experimental_stims/scramble/faces/scrambled_jessica-radanavong-mrYkTuAesKE-unsplash.jpg,NaN,NaN,3100,1300,right,0,1,NaN,NaN,NaN,NaN,NaN,NaN,NaN,NaN,1,40,3
12,83078,13,A,scramble,0,1,1,outdoor_scenes,objects,4,38,Stimuli/Experimental_stims/scramble/outdoor_scenes/scrambled_jarrett-kow-1ZOyYPOBn7I-unsplash.jpg,Stimuli/Experimental_stims/scramble/objects/scrambled_art-lasovsky-8XddFc6NkBY-unsplash.jpg,NaN,NaN,2200,1900,left,0,1,NaN,NaN,NaN,NaN,NaN,NaN,NaN,NaN,0,40,3
13,83078,14,D,original,0,1,1,objects,faces,37,18,Stimuli/Experimental_stims/objects/alexander-andrews-VLGWE_SumrA-unsplash.jpg,Stimuli/Experimental_stims/faces/jessica-radanavong-mrYkTuAesKE-unsplash.jpg,50,50,2000,0,,NaN,0,195,1,37,18,objects,faces,Stimuli/Experimental_stims/objects/alexander-andrews-VLGWE_SumrA-unsplash.jpg,Stimuli/Experimental_stims/faces/jessica-radanavong-mrYkTuAesKE-unsplash.jpg,0,40,3,50,50
14,83078,15,J,original,0,1,1,faces,objects,12,43,Stimuli/Experimental_stims/faces/aiony-haust-jmATI5Q_YgY-unsplash.jpg,Stimuli/Experimental_stims/objects/jonathan-greenaway-Y4hGgeiFn3s-unsplash.jpg,50,50,1900,0,,NaN,0,0,1,12,43,faces,objects,Stimuli/Experimental_stims/faces/aiony-haust-jmATI5Q_YgY-unsplash.jpg,Stimuli/Experimental_stims/objects/jonathan-greenaway-Y4hGgeiFn3s-unsplash.jpg,0,40,3,50,50
15,83078,16,F,scramble,0,1,1,faces,body_parts,22,35,Stimuli/Experimental_stims/scramble/faces/scrambled_ravi-patel-VMGAbeeJTKo-unsplash.jpg,Stimuli/Experimental_stims/scramble/body_parts/scrambled_wc-so-KH4AAPjb-tI-unsplash.jpg,NaN,NaN,1900,1100,left,0,1,NaN,NaN,NaN,NaN,NaN,NaN,NaN,NaN,0,40,3
16,83078,17,B,scramble,0,1,1,outdoor_scenes,faces,2,16,Stimuli/Experimental_stims/scramble/outdoor_scenes/scrambled_bruno-van-der-kraan-qez8mNJ3ilU-unsplash.jpg,Stimuli/Experimental_stims/scramble/faces/scrambled_freddy-kearney-o-ioeoATbIM-unsplash.jpg,NaN,NaN,3000,1500,right,0,1,NaN,NaN,NaN,NaN,NaN,NaN,NaN,NaN,1,40,3
17,83078,18,L,original,0,1,1,body_parts,faces,30,13,Stimuli/Experimental_stims/body_parts/mika-korhonen-Xodzxosar18-unsplash.jpg,Stimuli/Experimental_stims/faces/daniel-rigdon-dXmXKPP2L4E-unsplash.jpg,50,50,1400,0,,NaN,0,90,1,30,13,body_parts,faces,Stimuli/Experimental_stims/body_parts/mika-korhonen-Xodzxosar18-unsplash.jpg,Stimuli/Experimental_stims/faces/daniel-rigdon-dXmXKPP2L4E-unsplash.jpg,0,40,3,50,50
18,83078,19,C,scramble,0,1,1,outdoor_scenes,body_parts,1,25,Stimuli/Experimental_stims/scramble/outdoor_sceneser,1,43,iti,39.999999999-S2Q5mdOrrVc-unsplash.jpg,Stimuli/Experimental_stims/scramble/body_parts/scrambled_engin-akyurt-Q2rfH3GW39c-unsplash.jpg,NaN,NaN,2200,1500,right,0,1,NaN,NaN,NaN,NaN,NaN,NaN,NaN,NaN,0,40,3
19,83078,20,L,scramble,0,1,1,body_parts,faces,30,13,Stimuli/Experimental_stims/scramble/body_parts/scrambled_mika-korhonen-Xodzxosar18-unsplash.jpg,Stimuli/Experimental_stims/scramble/faces/scrambled_daniel-rigdon-dXmXKPP2L4E-unsplash.jpg,NaN,NaN,1900,700,left,1,0,197,1,30,13,body_parts,faces,Stimuli/Experimental_stims/scramble/body_parts/scrambled_mika-korhonen-Xodzxosar18-unsplash.jpg,Stimuli/Experimental_stims/scramble/faces/scrambled_daniel-rigdon-dXmXKPP2L4E-unsplash.jpg,0,40,3
20,83078,21,A,original,0,1,1,outdoor_scenes,objects,4,38,Stimuli/Experimental_stims/outdoor_scenes/jarrett-kow-1ZOyYPOBn7I-unsplash.jpg,Stimuli/Experimental_stims/objects/art-lasovsky-8XddFc6NkBY-unsplash.jpg,50,50,2600,0,,NaN,0,189,1,4,38,outdoor_scenes,objects,Stimuli/Experimental_stims/outdoor_scenes/jarrett-kow-1ZOyYPOBn7I-unsplash.jpg,Stimuli/Experimental_stims/objects/art-lasovsky-8XddFc6NkBY-unsplash.jpg,0,40,3,50,50
21,83078,22,E,original,0,1,1,objects,body_parts,46,28,Stimuli/Experimental_stims/objects/mockup-graphics-PNsj6RiHAF4-unsplash.jpg,Stimuli/Experimental_stims/body_parts/ira-vishnevskaya-8DQAvdCby1I-unsplash.jpg,50,50,1300,0,,NaN,0,10,1,46,28,objects,body_parts,Stimuli/Experimental_stims/objects/mockup-graphics-PNsj6RiHAF4-unsplash.jpg,Stimuli/Experimental_stims/body_parts/ira-vishnevskaya-8DQAvdCby1I-unsplash.jpg,0,40,3,50,50
22,83078,23,I,scramble,0,1,1,body_parts,outdoor_scenes,26,11,Stimuli/Experimental_stims/scramble/body_parts/scrambled_engin-akyurt-x_3gyC42btc-unsplash.jpg,Stimuli/Experimental_stims/scramble/outdoor_scenes/scrambled_stephen-leonardi-gyIRjKPXupE-unsplash.jpg,NaN,NaN,1100,1600,left,0,1,NaN,NaN,NaN,NaN,NaN,NaN,NaN,NaN,0,40,3
23,83078,24,H,original,0,1,1,faces,outdoor_scenes,21,10,Stimuli/Experimental_stims/faces/leilani-angel-K84vnnzxmTQ-unsplash.jpg,Stimuli/Experimental_stims/outdoor_scenes/shannon-kunkle-dM8INmkyDas-unsplash.jpg,50,50,2700,0,,NaN,0,126,1,21,10,faces,outdoor_scenes,Stimuli/Experimental_stims/faces/leilani-angel-K84vnnzxmTQ-unsplash.jpg,Stimuli/Experimental_stims/outdoor_scenes/shannon-kunkle-dM8INmkyDas-unsplash.jpg,1,40,3,50,50
24,83078,25,K,scramble,0,1,1,body_parts,objects,33,36,Stimuli/Experimental_stims/scramble/body_parts/scrambled_tucker-good-36skLT5jZcc-unsplash.jpg,Stimuli/Experimental_stims/scramble/objects/scrambled_alexander-andrews-JYGnB9gTCls-unsplash.jpg,NaN,NaN,1500,1800,left,0,1,NaN,NaN,NaN,NaN,NaN,NaN,NaN,NaN,0,40,3
25,83078,26,B,original,0,1,1,outdoor_scenes,faces,2,16,Stimuli/Experimental_stims/outdoor_scenes/bruno-van-der-kraan-qez8mNJ3ilU-unsplash.jpg,Stimuli/Experimental_stims/faces/freddy-kearney-o-ioeoATbIM-unsplash.jpg,50,50,1300,0,,NaN,0,139,1,2,16,outdoor_scenes,faces,Stimuli/Experimental_stims/outdoor_scenes/bruno-van-der-kraan-qez8mNJ3ilU-unsplash.jpg,Stimuli/Experimental_stims/faces/freddy-kearney-o-ioeoATbIM-unsplash.jpg,0,40,3,50,50
26,83078,27,H,scramble,0,1,1,faces,outdoor_scenes,21,10,Stimuli/Experimental_stims/scramble/faces/scrambled_leilani-angel-K84vnnzxmTQ-unsplash.jpg,Stimuli/Experimental_stims/scramble/outdoor_scenes/scrambled_shannon-kunkle-dM8INmkyDas-unsplash.jpg,NaN,NaN,1800,2000,right,0,1,NaN,NaN,NaN,NaN,NaN,NaN,NaN,NaN,0,40,3
27,83078,28,K,original,0,1,1,body_parts,objects,33,36,Stimuli/Experimental_stims/body_parts/tucker-good-36skLT5jZcc-unsplash.jpg,Stimuli/Experimental_stims/objects/alexander-andrews-JYGnB9gTCls-unsplash.jpg,50,50,1700,0,,NaN,0,144,1,33,36,body_parts,objects,Stimuli/Experimental_stims/body_parts/tucker-good-36skLT5jZcc-unsplash.jpg,Stimuli/Experimental_stims/objects/alexander-andrews-JYGnB9gTCls-unsplash.jpg,0,40,3,50,50
28,83078,29,C,scramble,0,1,2,outdoor_scenes,body_parts,1,25,Stimuli/Experimental_stims/scramble/outdoor_scenes/scrambled_ashim-d-silva-S2Q5mdOrrVc-unsplash.jpg,Stimuli/Experimental_stims/scramble/body_parts/scrambled_engin-akyurt-Q2rfH3GW39c-unsplash.jpg,NaN,NaN,3200,1600,right,0,1,NaN,NaN,NaN,NaN,NaN,NaN,NaN,NaN,1,40,3
29,83078,30,L,scramble,0,1,2,body_parts,faces,30,13,Stimuli/Experimental_stims/scramble/body_parts/scrambled_mika-korhonen-Xodzxosar18-unsplash.jpg,Stimuli/Experimental_stims/scramble/faces/scrambled_daniel-rigdon-dXmXKPP2L4E-unsplash.jpg,NaN,NaN,2400,1300,left,0,1,NaN,NaN,NaN,NaN,NaN,NaN,NaN,NaN,0,40,3
30,83078,31,B,original,0,1,2,outdoor_scenes,faces,2,16,Stimuli/Experimental_stims/outdoor_scenes/bruno-van-der-kraan-qez8mNJ3ilU-unsplash.jpg,Stimuli/Experimental_stims/faces/freddy-kearney-o-ioeoATbIM-unsplash.jpg,50,50,2100,0,,NaN,1,165,1,2,16,outdoor_scenes,faces,Stimuli/Experimental_stims/outdoor_scenes/bruno-van-der-kraan-qez8mNJ3ilU-unsplash.jpg,Stimuli/Experimental_stims/faces/freddy-kearney-o-ioeoATbIM-unsplash.jpg,0,40,3,50,50
31,83078,32,I,scramble,0,1,2,body_parts,outdoor_scenes,26,11,Stimuli/Experimental_stims/scramble/body_parts/scrambled_engin-akyurt-x_3gyC42btc-unsplash.jpg,Stimuli/Experimental_stims/scramble/outdoor_scenes/scrambled_stephen-leonardi-gyIRjKPXupE-unsplash.jpg,NaN,NaN,1100,1300,right,0,1,NaN,NaN,NaN,NaN,NaN,NaN,NaN,NaN,0,40,3
32,83078,33,B,scramble,0,1,2,outdoor_scenes,faces,2,16,Stimuli/Experimental_stims/scramble/outdoor_scenes/scrambled_bruno-van-der-kraan-qez8mNJ3ilU-unsplash.jpg,Stimuli/Experimental_stims/scramble/faces/scrambled_freddy-kearney-o-ioeoATbIM-unsplash.jpg,NaN,NaN,1200,1700,right,0,1,NaN,NaN,NaN,NaN,NaN,NaN,NaN,NaN,0,40,3
33,83078,34,A,original,0,1,2,outdoor_scenes,objects,4,38,Stimuli/Experimental_stims/outdoor_scenes/jarrett-kow-1ZOyYPOBn7I-unsplash.jpg,Stimuli/Experimental_stims/objects/art-lasovsky-8XddFc6NkBY-unsplash.jpg,50,50,1900,0,,NaN,1,143,1,4,38,outdoor_scenes,objects,Stimuli/Experimental_stims/outdoor_scenes/jarrett-kow-1ZOyYPOBn7I-unsplash.jpg,Stimuli/Experimental_stims/objects/art-lasovsky-8XddFc6NkBY-unsplash.jpg,0,40,3,50,50
34,83078,35,J,original,0,1,2,faces,objects,12,43,Stimuli/Experimental_stims/faces/aiony-haust-jmATI5Q_YgY-unsplash.jpg,Stimuli/Experimental_stims/objects/jonathan-greenaway-Y4hGgeiFn3s-unsplash.jpg,50,50,3600,0,,NaN,1,0,1,12,43,faces,objects,Stimuli/Experimental_stims/faces/aiony-haust-jmATI5Q_YgY-unsplash.jpg,Stimuli/Experimental_stims/objects/jonathan-greenaway-Y4hGgeiFn3s-unsplash.jpg,1,40,3,50,50
35,83078,36,E,scramble,0,1,2,objects,body_parts,46,28,Stimuli/Experimental_stims/scramble/objects/scrambled_mockup-graphics-PNsj6RiHAF4-unsplash.jpg,Stimuli/Experimental_stims/scramble/body_parts/scrambled_ira-vishnevskaya-8DQAvdCby1I-unsplash.jpg,NaN,NaN,2300,1000,left,0,1,NaN,NaN,NaN,NaN,NaN,NaN,NaN,NaN,0,40,3
36,83078,37,K,original,0,1,2,body_parts,objects,33,36,Stimuli/Experimental_stims/body_parts/tucker-good-36skLT5jZcc-unsplash.jpg,Stimuli/Experimental_stims/objects/alexander-andrews-JYGnB9gTCls-unsplash.jpg,50,50,2400,0,,NaN,1,154,1,33,36,body_parts,objects,Stimuli/Experimental_stims/body_parts/tucker-good-36skLT5jZcc-unsplash.jpg,Stimuli/Experimental_stims/objects/alexander-andrews-JYGnB9gTCls-unsplash.jpg,0,40,3,50,50
37,83078,38,F,scramble,0,1,2,faces,body_parts,22,35,Stimuli/Experimental_stims/scramble/faces/scrambled_ravi-patel-VMGAbeeJTKo-unsplash.jpg,Stimuli/Experimental_stims/scramble/body_parts/scrambled_wc-so-KH4AAPjb-tI-unsplash.jpg,NaN,NaN,2200,1800,right,0,1,NaN,NaN,NaN,NaN,NaN,NaN,NaN,NaN,0,40,3
38,83078,39,H,original,0,1,2,faces,outdoor_scenes,21,10,Stimuli/Experimental_stims/faces/leilani-angel-K84vnnzxmTQ-unsplash.jpg,Stimuli/Experimental_stims/outdoor_scenes/shannon-kunkle-dM8INmkyDas-unsplash.jpg,50,50,1000,0,,NaN,1,132,1,21,10,faces,outdoor_scenes,Stimuli/Experimental_stims/faces/leilani-angel-K84vnnzxmTQ-unsplash.jpg,Stimuli/Experimental_stims/outdoor_scenes/shannon-kunkle-dM8INmkyDas-unsplash.jpg,0,40,3,50,50
39,83078,40,J,scramble,0,1,2,faces,objects,12,43,Stimuli/Experimental_stims/scramble/faces/scrambled_aiony-haust-jmATI5Q_YgY-unsplash.jpg,Stimuli/Experimental_stims/scramble/objects/scrambled_jonathan-greenaway-Y4hGgeiFn3s-unsplash.jpg,NaN,NaN,1400,1800,left,0,1,NaN,NaN,NaN,NaN,NaN,NaN,NaN,NaN,0,40,3
40,83078,41,F,original,0,1,2,faces,body_parts,22,35,Stimuli/Experimental_stims/faces/ravi-patel-VMGAbeeJTKo-unsplash.jpg,Stimuli/Experimental_stims/body_parts/wc-so-KH4AAPjb-tI-unsplash.jpg,50,50,1300,0,,NaN,1,168,1,22,35,faces,body_parts,Stimuli/Experimental_stims/faces/ravi-patel-VMGAbeeJTKo-unsplash.jpg,Stimuli/Experimental_stims/body_parts/wc-so-KH4AAPjb-tI-unsplash.jpg,0,40,3,50,50
41,83078,42,K,scramble,0,1,2,body_parts,objects,33,36,Stimuli/Experimental_stims/scramble/body_parts/scrambled_tucker-good-36skLT5jZcc-unsplash.jpg,Stimuli/Experimental_stims/scramble/objects/scrambled_alexander-andrews-JYGnB9gTCls-unsplash.jpg,NaN,NaN,4300,1400,right,0,1,NaN,NaN,NaN,NaN,NaN,NaN,NaN,NaN,1,40,3
42,83078,43,E,original,0,1,2,objects,body_parts,46,28,Stimuli/Experimental_stims/objects/mockup-graphics-PNsj6RiHAF4-unsplash.jpg,Stimuli/Experimental_stims/body_parts/ira-vishnevskaya-8DQAvdCby1I-unsplash.jpg,50,50,1900,0,,NaN,1,131,1,46,28,objects,body_parts,Stimuli/Experimental_stims/objects/mockup-graphics-PNsj6RiHAF4-unsplash.jpg,Stimuli/Experimental_stims/body_parts/ira-vishnevskaya-8DQAvdCby1I-unsplash.jpg,0,40,3,50,50
43,83078,44,H,scramble,0,1,2,faces,outdoor_scenes,21,10,Stimuli/Experimental_stims/scramble/faces/scrambled_leilani-angel-K84vnnzxmTQ-unsplash.jpg,Stimuli/Experimental_stims/scramble/outdoor_scenes/scrambled_shannon-kunkle-dM8INmkyDas-unsplash.jpg,NaN,NaN,2100,700,left,1,0,213,1,21,10,faces,outdoor_scenes,Stimuli/Experimental_stims/scramble/faces/scrambled_leilani-angel-K84vnnzxmTQ-unsplash.jpg,Stimuli/Experimental_stims/scramble/outdoor_scenes/scrambled_shannon-kunkle-dM8INmkyDas-unsplash.jpg,0,40,3
44,83078,45,I,original,0,1,2,body_parts,outdoor_scenes,26,11,Stimuli/Experimental_stims/body_parts/engin-akyurt-x_3gyC42btc-unsplash.jpg,Stimuli/Experimental_stims/outdoor_scenes/stephen-leonardi-gyIRjKPXupE-unsplash.jpg,50,50,1200,0,,NaN,1,0,1,26,11,body_parts,outdoor_scenes,Stimuli/Experimental_stims/body_parts/engin-akyurt-x_3gyC42btc-unsplash.jpg,Stimuli/Experimental_stims/outdoor_scenes/stephen-leonardi-gyIRjKPXupE-unsplash.jpg,0,40,3,50,50
45,83078,46,D,original,0,1,2,objects,faces,37,18,Stimuli/Experimental_stims/objects/alexander-andrews-VLGWE_SumrA-unsplash.jpg,Stimuli/Experimental_stims/faces/jessica-radanavong-mrYkTuAesKE-unsplash.jpg,50,50,2200,0,,NaN,1,128,1,37,18,objects,faces,Stimuli/Experimental_stims/objects/alexander-andrews-VLGWE_SumrA-unsplash.jpg,Stimuli/Experimental_stims/faces/jessica-radanavong-mrYkTuAesKE-unsplash.jpg,0,40,3,50,50
46,83078,47,A,scramble,0,1,2,outdoor_scenes,objects,4,38,Stimuli/Experimental_stims/scramble/outdoor_scenes/scrambled_jarrett-kow-1ZOyYPOBn7I-unsplash.jpg,Stimuli/Experimental_stims/scramble/objects/scrambled_art-lasovsky-8XddFc6NkBY-unsplash.jpg,NaN,NaN,1300,1200,left,0,1,NaN,NaN,NaN,NaN,NaN,NaN,NaN,NaN,0,40,3
47,83078,48,G,original,0,1,2,objects,outdoor_scenes,44,7,Stimuli/Experimental_stims/objects/kuiye-chen-NuOGFo4PudE-unsplash.jpg,Stimuli/Experimental_stims/outdoor_scenes/petr-vysohlid-9fqwGqGLUxc-unsplash.jpg,50,50,1600,0,,NaN,1,111,1,44,7,objects,outdoor_scenes,Stimuli/Experimental_stims/objects/kuiye-chen-NuOGFo4PudE-unsplash.jpg,Stimuli/Experimental_stims/outdoor_scenes/petr-vysohlid-9fqwGqGLUxc-unsplash.jpg,0,40,3,50,50
48,83078,49,L,original,0,1,2,body_parts,faces,30,13,Stimuli/Experimental_stims/body_parts/mika-korhonen-Xodzxosar18-unsplash.jpg,Stimuli/Experimental_stims/faces/daniel-rigdon-dXmXKPP2L4E-unsplash.jpg,50,50,1800,0,,NaN,1,72,1,30,13,body_parts,faces,Stimuli/Experimental_stims/body_parts/mika-korhonen-Xodzxosar18-unsplash.jpg,Stimuli/Experimental_stims/faces/daniel-rigdon-dXmXKPP2L4E-unsplash.jpg,0,40,3,50,50
49,83078,50,G,scramble,0,1,2,objects,outdoor_scenes,44,7,Stimuli/Experimental_stims/scramble/objects/scrambled_kuiye-chen-NuOGFo4PudE-unsplash.jpg,Stimuli/Experimental_stims/scramble/outdoor_scenes/scrambled_petr-vysohlid-9fqwGqGLUxc-unsplash.jpg,NaN,NaN,1300,1800,right,0,1,NaN,NaN,NaN,NaN,NaN,NaN,NaN,NaN,0,40,3
50,83078,51,C,original,0,1,2,outdoor_scenes,body_parts,1,25,Stimuli/Experimental_stims/outdoor_scenes/ashim-d-silva-S2Q5mdOrrVc-unsplash.jpg,Stimuli/Experimental_stims/body_parts/engin-akyurt-Q2rfH3GW39c-unsplash.jpg,50,50,1100,0,,NaN,1,108,1,1,25,outdoor_scenes,body_parts,Stimuli/Experimental_stims/outdoor_scenes/ashim-d-silva-S2Q5mdOrrVc-unsplash.jpg,Stimuli/Experimental_stims/body_parts/engin-akyurt-Q2rfH3GW39c-unsplash.jpg,0,40,3,50,50
51,83078,52,D,scramble,0,1,2,objects,faces,37,18,Stimuli/Experimental_stims/scramble/objects/scrambled_alexander-andrews-VLGWE_SumrA-unsplash.jpg,Stimuli/Experimental_stims/scramble/faces/scrambled_jessica-radanavong-mrYkTuAesKE-unsplash.jpg,NaN,NaN,3200,1900,left,0,1,NaN,NaN,NaN,NaN,NaN,NaN,NaN,NaN,1,40,3
52,83078,53,B,original,0,2,3,outdoor_scenes,faces,2,16,Stimuli/Experimental_stims/outdoor_scenes/bruno-van-der-kraan-qez8mNJ3ilU-unsplash.jpg,Stimuli/Experimental_stims/faces/freddy-kearney-o-ioeoATbIM-unsplash.jpg,50,50,4700,0,,NaN,1,,NaN,NaN,NaN,NaN,NaN,NaN,NaN,1,40,3,NaN,NaN
53,83078,54,B,scramble,0,2,3,outdoor_scenes,faces,2,16,Stimuli/Experimental_stims/scramble/outdoor_scenes/scrambled_bruno-van-der-kraan-qez8mNJ3ilU-unsplash.jpg,Stimuli/Experimental_stims/scramble/faces/scrambled_freddy-kearney-o-ioeoATbIM-unsplash.jpg,NaN,NaN,1600,1400,right,0,1,NaN,NaN,NaN,NaN,NaN,NaN,NaN,NaN,0,40,3
54,83078,55,I,original,0,2,3,body_parts,outdoor_scenes,26,11,Stimuli/Experimental_stims/body_parts/engin-akyurt-x_3gyC42btc-unsplash.jpg,Stimuli/Experimental_stims/outdoor_scenes/stephen-leonardi-gyIRjKPXupE-unsplash.jpg,50,50,1100,0,,NaN,1,,NaN,NaN,NaN,NaN,NaN,NaN,NaN,0,40,3,NaN,NaN
55,83078,56,L,original,0,2,3,body_parts,faces,30,13,Stimuli/Experimental_stims/body_parts/mika-korhonen-Xodzxosar18-unsplash.jpg,Stimuli/Experimental_stims/faces/daniel-rigdon-dXmXKPP2L4E-unsplash.jpg,50,50,2400,0,,NaN,1,,NaN,NaN,NaN,NaN,NaN,NaN,NaN,0,40,3,NaN,NaN
56,83078,57,J,scramble,0,2,3,faces,objects,12,43,Stimuli/Experimental_stims/scramble/faces/scrambled_aiony-haust-jmATI5Q_YgY-unsplash.jpg,Stimuli/Experimental_stims/scramble/objects/scrambled_jonathan-greenaway-Y4hGgeiFn3s-unsplash.jpg,NaN,NaN,1400,700,right,0,1,NaN,NaN,NaN,NaN,NaN,NaN,NaN,NaN,0,40,3
57,83078,58,E,scramble,0,2,3,objects,body_parts,46,28,Stimuli/Experimental_stims/scramble/objects/scrambled_mockup-graphics-PNsj6RiHAF4-unsplash.jpg,Stimuli/Experimental_stims/scramble/body_parts/scrambled_ira-vishnevskaya-8DQAvdCby1I-unsplash.jpg,NaN,NaN,1800,900,right,0,1,NaN,NaN,NaN,NaN,NaN,NaN,NaN,NaN,0,40,3
58,83078,59,D,original,0,2,3,objects,faces,37,18,Stimuli/Experimental_stims/objects/alexander-andrews-VLGWE_SumrA-unsplash.jpg,Stimuli/Experimental_stims/faces/jessica-radanavong-mrYkTuAesKE-unsplash.jpg,50,50,3400,0,,NaN,1,,NaN,NaN,NaN,NaN,NaN,NaN,NaN,1,40,3,NaN,NaN
59,83078,60,C,scramble,0,2,3,outdoor_scenes,body_parts,1,25,Stimuli/Experimental_stims/scramble/outdoor_scenes/scrambled_ashim-d-silva-S2Q5mdOrrVc-unsplash.jpg,Stimuli/Experimental_stims/scramble/body_parts/scrambled_engin-akyurt-Q2rfH3GW39c-unsplash.jpg,NaN,NaN,1400,1000,left,0,1,NaN,NaN,NaN,NaN,NaN,NaN,NaN,NaN,0,40,3
60,83078,61,J,original,0,2,3,faces,objects,12,43,Stimuli/Experimental_stims/faces/aiony-haust-jmATI5Q_YgY-unsplash.jpg,Stimuli/Experimental_stims/objects/jonathan-greenaway-Y4hGgeiFn3s-unsplash.jpg,50,50,1900,0,,NaN,1,,NaN,NaN,NaN,NaN,NaN,NaN,NaN,0,40,3,NaN,NaN
61,83078,62,K,original,0,2,3,body_parts,objects,33,36,Stimuli/Experimental_stims/body_parts/tucker-good-36skLT5jZcc-unsplash.jpg,Stimuli/Experimental_stims/objects/alexander-andrews-JYGnB9gTCls-unsplash.jpg,50,50,1500,0,,NaN,1,,NaN,NaN,NaN,NaN,NaN,NaN,NaN,0,40,3,NaN,NaN
62,83078,63,F,scramble,0,2,3,faces,body_parts,22,35,Stimuli/Experimental_stims/scramble/faces/scrambled_ravi-patel-VMGAbeeJTKo-unsplash.jpg,Stimuli/Experimental_stims/scramble/body_parts/scrambled_wc-so-KH4AAPjb-tI-unsplash.jpg,NaN,NaN,2100,1100,left,0,1,NaN,NaN,NaN,NaN,NaN,NaN,NaN,NaN,0,40,3
63,83078,64,D,scramble,0,2,3,objects,faces,37,18,Stimuli/Experimental_stims/scramble/objects/scrambled_alexander-andrews-VLGWE_SumrA-unsplash.jpg,Stimuli/Experimental_stims/scramble/faces/scrambled_jessica-radanavong-mrYkTuAesKE-unsplash.jpg,NaN,NaN,1500,1500,right,0,1,NaN,NaN,NaN,NaN,NaN,NaN,NaN,NaN,0,40,3
64,83078,65,E,original,0,2,3,objects,body_parts,46,28,Stimuli/Experimental_stims/objects/mockup-graphics-PNsj6RiHAF4-unsplash.jpg,Stimuli/Experimental_stims/body_parts/ira-vishnevskaya-8DQAvdCby1I-unsplash.jpg,50,50,2000,0,,NaN,1,,NaN,NaN,NaN,NaN,NaN,NaN,NaN,0,40,3,NaN,NaN
65,83078,66,H,scramble,0,2,3,faces,outdoor_scenes,21,10,Stimuli/Experimental_stims/scramble/faces/scrambled_leilani-angel-K84vnnzxmTQ-unsplash.jpg,Stimuli/Experimental_stims/scramble/outdoor_scenes/scrambled_shannon-kunkle-dM8INmkyDas-unsplash.jpg,NaN,NaN,1100,1100,left,0,1,NaN,NaN,NaN,NaN,NaN,NaN,NaN,NaN,0,40,3
66,83078,67,G,original,0,2,3,objects,outdoor_scenes,44,7,Stimuli/Experimental_stims/objects/kuiye-chen-NuOGFo4PudE-unsplash.jpg,Stimuli/Experimental_stims/outdoor_scenes/petr-vysohlid-9fqwGqGLUxc-unsplash.jpg,50,50,1000,0,,NaN,1,,NaN,NaN,NaN,NaN,NaN,NaN,NaN,0,40,3,NaN,NaN
67,83078,68,A,scramble,0,2,3,outdoor_scenes,objects,4,38,Stimuli/Experimental_stims/scramble/outdoor_scenes/scrambled_jarrett-kow-1ZOyYPOBn7I-unsplash.jpg,Stimuli/Experimental_stims/scramble/objects/scrambled_art-lasovsky-8XddFc6NkBY-unsplash.jpg,NaN,NaN,2800,1400,left,0,1,NaN,NaN,NaN,NaN,NaN,NaN,NaN,NaN,0,40,3
68,83078,69,K,scramble,0,2,3,body_parts,objects,33,36,Stimuli/Experimental_stims/scramble/body_parts/scrambled_tucker-good-36skLT5jZcc-unsplash.jpg,Stimuli/Experimental_stims/scramble/objects/scrambled_alexander-andrews-JYGnB9gTCls-unsplash.jpg,NaN,NaN,3100,900,left,0,1,NaN,NaN,NaN,NaN,NaN,NaN,NaN,NaN,1,40,3
69,83078,70,H,original,0,2,3,faces,outdoor_scenes,21,10,Stimuli/Experimental_stims/faces/leilani-angel-K84vnnzxmTQ-unsplash.jpg,Stimuli/Experimental_stims/outdoor_scenes/shannon-kunkle-dM8INmkyDas-unsplash.jpg,50,50,1100,0,,NaN,1,,NaN,NaN,NaN,NaN,NaN,NaN,NaN,0,40,3,NaN,NaN
70,83078,71,I,scramble,0,2,3,body_parts,outdoor_scenes,26,11,Stimuli/Experimental_stims/scramble/body_parts/scrambled_engin-akyurt-x_3gyC42btc-unsplash.jpg,Stimuli/Experimental_stims/scramble/outdoor_scenes/scrambled_stephen-leonardi-gyIRjKPXupE-unsplash.jpg,NaN,NaN,1200,1100,right,0,1,NaN,NaN,NaN,NaN,NaN,NaN,NaN,NaN,0,40,3
71,83078,72,A,original,0,2,3,outdoor_scenes,objects,4,38,Stimuli/Experimental_stims/outdoor_scenes/jarrett-kow-1ZOyYPOBn7I-unsplash.jpg,Stimuli/Experimental_stims/objects/art-lasovsky-8XddFc6NkBY-unsplash.jpg,50,50,2500,0,,NaN,1,,NaN,NaN,NaN,NaN,NaN,NaN,NaN,0,40,3,NaN,NaN
72,83078,73,L,scramble,0,2,3,body_parts,faces,30,13,Stimuli/Experimental_stims/scramble/body_parts/scrambled_mika-korhonen-Xodzxosar18-unsplash.jpg,Stimuli/Experimental_stims/scramble/faces/scrambled_daniel-rigdon-dXmXKPP2L4E-unsplash.jpg,NaN,NaN,1300,1200,left,0,1,NaN,NaN,NaN,NaN,NaN,NaN,NaN,NaN,0,40,3
73,83078,74,G,scramble,0,2,3,objects,outdoor_scenes,44,7,Stimuli/Experimental_stims/scramble/objects/scrambled_kuiye-chen-NuOGFo4PudE-unsplash.jpg,Stimuli/Experimental_stims/scramble/outdoor_scenes/scrambled_petr-vysohlid-9fqwGqGLUxc-unsplash.jpg,NaN,NaN,3200,1300,right,0,1,NaN,NaN,NaN,NaN,NaN,NaN,NaN,NaN,1,40,3
74,83078,75,F,original,0,2,3,faces,body_parts,22,35,Stimuli/Experimental_stims/faces/ravi-patel-VMGAbeeJTKo-unsplash.jpg,Stimuli/Experimental_stims/body_parts/wc-so-KH4AAPjb-tI-unsplash.jpg,50,50,1800,0,,NaN,1,,NaN,NaN,NaN,NaN,NaN,NaN,NaN,0,40,3,NaN,NaN
75,83078,76,C,original,0,2,3,outdoor_scenes,body_parts,1,25,Stimuli/Experimental_stims/outdoor_scenes/ashim-d-silva-S2Q5mdOrrVc-unsplash.jpg,Stimuli/Experimental_stims/body_parts/engin-akyurt-Q2rfH3GW39c-unsplash.jpg,50,50,2100,0,,NaN,1,,NaN,NaN,NaN,NaN,NaN,NaN,NaN,0,40,3,NaN,NaN
76,83078,77,I,scramble,0,2,4,body_parts,outdoor_scenes,26,11,Stimuli/Experimental_stims/scramble/body_parts/scrambled_engin-akyurt-x_3gyC42btc-unsplash.jpg,Stimuli/Experimental_stims/scramble/outdoor_scenes/scrambled_stephen-leonardi-gyIRjKPXupE-unsplash.jpg,NaN,NaN,1700,700,left,0,1,NaN,NaN,NaN,NaN,NaN,NaN,NaN,NaN,0,40,3
77,83078,78,H,scramble,0,2,4,faces,outdoor_scenes,21,10,Stimuli/Experimental_stims/scramble/faces/scrambled_leilani-angel-K84vnnzxmTQ-unsplash.jpg,Stimuli/Experimental_stims/scramble/outdoor_scenes/scrambled_shannon-kunkle-dM8INmkyDas-unsplash.jpg,NaN,NaN,1100,1500,left,0,1,NaN,NaN,NaN,NaN,NaN,NaN,NaN,NaN,0,40,3
78,83078,79,G,original,0,2,4,objects,outdoor_scenes,44,7,Stimuli/Experimental_stims/objects/kuiye-chen-NuOGFo4PudE-unsplash.jpg,Stimuli/Experimental_stims/outdoor_scenes/petr-vysohlid-9fqwGqGLUxc-unsplash.jpg,50,50,1900,0,,NaN,1,,NaN,NaN,NaN,NaN,NaN,NaN,NaN,0,40,3,NaN,NaN
79,83078,80,D,scramble,0,2,4,objects,faces,37,18,Stimuli/Experimental_stims/scramble/objects/scrambled_alexander-andrews-VLGWE_SumrA-unsplash.jpg,Stimuli/Experimental_stims/scramble/faces/scrambled_jessica-radanavong-mrYkTuAesKE-unsplash.jpg,NaN,NaN,3600,1500,right,0,1,NaN,NaN,NaN,NaN,NaN,NaN,NaN,NaN,1,40,3
80,83078,81,C,original,0,2,4,outdoor_scenes,body_parts,1,25,Stimuli/Experimental_stims/outdoor_scenes/ashim-d-silva-S2Q5mdOrrVc-unsplash.jpg,Stimuli/Experimental_stims/body_parts/engin-akyurt-Q2rfH3GW39c-unsplash.jpg,50,50,1200,0,,NaN,1,,NaN,NaN,NaN,NaN,NaN,NaN,NaN,0,40,3,NaN,NaN
81,83078,82,F,original,0,2,4,faces,body_parts,22,35,Stimuli/Experimental_stims/faces/ravi-patel-VMGAbeeJTKo-unsplash.jpg,Stimuli/Experimental_stims/body_parts/wc-so-KH4AAPjb-tI-unsplash.jpg,50,50,2300,0,,NaN,1,,NaN,NaN,NaN,NaN,NaN,NaN,NaN,0,40,3,NaN,NaN
82,83078,83,J,scramble,0,2,4,faces,objects,12,43,Stimuli/Experimental_stims/scramble/faces/scrambled_aiony-haust-jmATI5Q_YgY-unsplash.jpg,Stimuli/Experimental_stims/scramble/objects/scrambled_jonathan-greenaway-Y4hGgeiFn3s-unsplash.jpg,NaN,NaN,1300,1300,right,0,1,NaN,NaN,NaN,NaN,NaN,NaN,NaN,NaN,0,40,3
83,83078,84,B,scramble,0,2,4,outdoor_scenes,faces,2,16,Stimuli/Experimental_stims/scramble/outdoor_scenes/scrambled_bruno-van-der-kraan-qez8mNJ3ilU-unsplash.jpg,Stimuli/Experimental_stims/scramble/faces/scrambled_freddy-kearney-o-ioeoATbIM-unsplash.jpg,NaN,NaN,2800,1000,left,0,1,NaN,NaN,NaN,NaN,NaN,NaN,NaN,NaN,0,40,3
84,83078,85,E,original,0,2,4,objects,body_parts,46,28,Stimuli/Experimental_stims/objects/mockup-graphics-PNsj6RiHAF4-unsplash.jpg,Stimuli/Experimental_stims/body_parts/ira-vishnevskaya-8DQAvdCby1I-unsplash.jpg,50,50,1100,0,,NaN,1,,NaN,NaN,NaN,NaN,NaN,NaN,NaN,0,40,3,NaN,NaN
85,83078,86,G,scramble,0,2,4,objects,outdoor_scenes,44,7,Stimuli/Experimental_stims/scramble/objects/scrambled_kuiye-chen-NuOGFo4PudE-unsplash.jpg,Stimuli/Experimental_stims/scramble/outdoor_scenes/scrambled_petr-vysohlid-9fqwGqGLUxc-unsplash.jpg,NaN,NaN,2300,1100,left,0,1,NaN,NaN,NaN,NaN,NaN,NaN,NaN,NaN,0,40,3
86,83078,87,J,original,0,2,4,faces,objects,12,43,Stimuli/Experimental_stims/faces/aiony-haust-jmATI5Q_YgY-unsplash.jpg,Stimuli/Experimental_stims/objects/jonathan-greenaway-Y4hGgeiFn3s-unsplash.jpg,50,50,2200,0,,NaN,1,,NaN,NaN,NaN,NaN,NaN,NaN,NaN,0,40,3,NaN,NaN
87,83078,88,D,original,0,2,4,objects,faces,37,18,Stimuli/Experimental_stims/objects/alexander-andrews-VLGWE_SumrA-unsplash.jpg,Stimuli/Experimental_stims/faces/jessica-radanavong-mrYkTuAesKE-unsplash.jpg,50,50,1400,0,,NaN,1,,NaN,NaN,NaN,NaN,NaN,NaN,NaN,0,40,3,NaN,NaN
88,83078,89,F,scramble,0,2,4,faces,body_parts,22,35,Stimuli/Experimental_stims/scramble/faces/scrambled_ravi-patel-VMGAbeeJTKo-unsplash.jpg,Stimuli/Experimental_stims/scramble/body_parts/scrambled_wc-so-KH4AAPjb-tI-unsplash.jpg,NaN,NaN,2900,200,left,0,1,NaN,NaN,NaN,NaN,NaN,NaN,NaN,NaN,0,40,3
89,83078,90,B,original,0,2,4,outdoor_scenes,faces,2,16,Stimuli/Experimental_stims/outdoor_scenes/bruno-van-der-kraan-qez8mNJ3ilU-unsplash.jpg,Stimuli/Experimental_stims/faces/freddy-kearney-o-ioeoATbIM-unsplash.jpg,50,50,1600,0,,NaN,1,,NaN,NaN,NaN,NaN,NaN,NaN,NaN,0,40,3,NaN,NaN
90,83078,91,C,scramble,0,2,4,outdoor_scenes,body_parts,1,25,Stimuli/Experimental_stims/scramble/outdoor_scenes/scrambled_ashim-d-silva-S2Q5mdOrrVc-unsplash.jpg,Stimuli/Experimental_stims/scramble/body_parts/scrambled_engin-akyurt-Q2rfH3GW39c-unsplash.jpg,NaN,NaN,3000,1000,right,0,1,NaN,NaN,NaN,NaN,NaN,NaN,NaN,NaN,1,40,3
91,83078,92,A,scramble,0,2,4,outdoor_scenes,objects,4,38,Stimuli/Experimental_stims/scramble/outdoor_scenes/scrambled_jarrett-kow-1ZOyYPOBn7I-unsplash.jpg,Stimuli/Experimental_stims/scramble/objects/scrambled_art-lasovsky-8XddFc6NkBY-unsplash.jpg,NaN,NaN,2800,500,left,0,1,NaN,NaN,NaN,NaN,NaN,NaN,NaN,NaN,0,40,3
92,83078,93,I,original,0,2,4,body_parts,outdoor_scenes,26,11,Stimuli/Experimental_stims/body_parts/engin-akyurt-x_3gyC42btc-unsplash.jpg,Stimuli/Experimental_stims/outdoor_scenes/stephen-leonardi-gyIRjKPXupE-unsplash.jpg,50,50,2900,0,,NaN,1,,NaN,NaN,NaN,NaN,NaN,NaN,NaN,0,40,3,NaN,NaN
93,83078,94,K,original,0,2,4,body_parts,objects,33,36,Stimuli/Experimental_stims/body_parts/tucker-good-36skLT5jZcc-unsplash.jpg,Stimuli/Experimental_stims/objects/alexander-andrews-JYGnB9gTCls-unsplash.jpg,50,50,1300,0,,NaN,1,,NaN,NaN,NaN,NaN,NaN,NaN,NaN,0,40,3,NaN,NaN
94,83078,95,E,scramble,0,2,4,objects,body_parts,46,28,Stimuli/Experimental_stims/scramble/objects/scrambled_mockup-graphics-PNsj6RiHAF4-unsplash.jpg,Stimuli/Experimental_stims/scramble/body_parts/scrambled_ira-vishnevskaya-8DQAvdCby1I-unsplash.jpg,NaN,NaN,1100,1800,right,0,1,NaN,NaN,NaN,NaN,NaN,NaN,NaN,NaN,0,40,3
95,83078,96,L,original,0,2,4,body_parts,faces,30,13,Stimuli/Experimental_stims/body_parts/mika-korhonen-Xodzxosar18-unsplash.jpg,Stimuli/Experimental_stims/faces/daniel-rigdon-dXmXKPP2L4E-unsplash.jpg,50,50,1500,0,,NaN,1,,NaN,NaN,NaN,NaN,NaN,NaN,NaN,0,40,3,NaN,NaN
96,83078,97,L,scramble,0,2,4,body_parts,faces,30,13,Stimuli/Experimental_stims/scramble/body_parts/scrambled_mika-korhonen-Xodzxosar18-unsplash.jpg,Stimuli/Experimental_stims/scramble/faces/scrambled_daniel-rigdon-dXmXKPP2L4E-unsplash.jpg,NaN,NaN,1100,500,right,0,1,NaN,NaN,NaN,NaN,NaN,NaN,NaN,NaN,0,40,3
97,83078,98,H,original,0,2,4,faces,outdoor_scenes,21,10,Stimuli/Experimental_stims/faces/leilani-angel-K84vnnzxmTQ-unsplash.jpg,Stimuli/Experimental_stims/outdoor_scenes/shannon-kunkle-dM8INmkyDas-unsplash.jpg,50,50,1500,0,,NaN,1,,NaN,NaN,NaN,NaN,NaN,NaN,NaN,0,40,3,NaN,NaN
98,83078,99,A,original,0,2,4,outdoor_scenes,objects,4,38,Stimuli/Experimental_stims/outdoor_scenes/jarrett-kow-1ZOyYPOBn7I-unsplash.jpg,Stimuli/Experimental_stims/objects/art-lasovsky-8XddFc6NkBY-unsplash.jpg,50,50,1100,0,,NaN,1,,NaN,NaN,NaN,NaN,NaN,NaN,NaN,0,40,3,NaN,NaN
99,83078,100,K,scramble,0,2,4,body_parts,objects,33,36,Stimuli/Experimental_stims/scramble/body_parts/scrambled_tucker-good-36skLT5jZcc-unsplash.jpg,Stimuli/Experimental_stims/scramble/objects/scrambled_alexander-andrews-JYGnB9gTCls-unsplash.jpg,NaN,NaN,4300,100,right,0,1,NaN,NaN,NaN,NaN,NaN,NaN,NaN,NaN,1,40,3