,PID,trial,pair_id,stim_type,practice,run,block,left_category,right_category,left_stimulus,right_stimulus,left_path,right_path,left_rating,right_rating,iti,scramble_screen_time,scramble_instructed_side,scramble_acc,no_response,rt,left_chosen,chosen_stimulus,unchosen_stimulus,chosen_category,unchosen_category,chosen_path,unchosen_path,long_iti,simulation,version
0,37760,1,prac1,original,1,0,0,,,,,Stimuli/Practice_stims/Deliberation/anthony-delanoix-Q0-fOL2nqZc-unsplash.jpg,Stimuli/Practice_stims/Deliberation/becca-tapert-sY5RjMB1KkE-unsplash.jpg,,,1500,0,,NaN,0,NaN,NaN,NaN,NaN,NaN,NaN,NaN,NaN,0,3,1
1,37760,2,prac2,scramble,1,0,0,,,,,Stimuli/Practice_stims/Deliberation/scramble/scrambled_clay-banks-1KPfcPdbWFM-unsplash.jpg,Stimuli/Practice_stims/Deliberation/scramble/scrambled_melissa-keizer-sV4Pd8wq5_o-unsplash.jpg,,,2500,2500,left,NaN,0,NaN,NaN,NaN,NaN,NaN,NaN,NaN,NaN,0,3,1
2,37760,3,prac3,scramble,1,0,0,,,,,Stimuli/Practice_stims/Deliberation/scramble/scrambled_anthony-delanoix-Q0-fOL2nqZc-unsplash.jpg,Stimuli/Practice_stims/Deliberation/scramble/scrambled_becca-tapert-sY5RjMB1KkE-unsplash.jpg,,,3000,1500,right,NaN,0,NaN,NaN,NaN,NaN,NaN,NaN,NaN,NaN,0,3,1
3,37760,4,prac4,original,1,0,0,,,,,Stimuli/Practice_stims/Deliberation/clay-banks-1KPfcPdbWFM-unsplash.jpg,Stimuli/Practice_stims/Deliberation/melissa-keizer-sV4Pd8wq5_o-unsplash.jpg,,,2000,0,,NaN,0,NaN,NaN,NaN,NaN,NaN,NaN,NaN,NaN,0,3,1
4,37760,5,L,original,0,1,1,body_parts,faces,34,14,Stimuli/Experimental_stims/body_parts/wagner-santos-mBWMvIuVnso-unsplash.jpg,Stimuli/Experimental_stims/faces/david-siglin-UuW4psOb388-unsplash.jpg,50,50,2000,0,,NaN,0,NaN,NaN,NaN,NaN,NaN,NaN,NaN,NaN,0,3,1
5,37760,6,K,scramble,0,1,1,body_parts,objects,24,47,Stimuli/Experimental_stims/scramble/body_parts/scrambled_clay-banks-LjqARJaJotc-unsplash.jpg,Stimuli/Experimental_stims/scramble/objects/scrambled_ronaldo-arthur-vidal-Cdz_lvnl37k-unsplash.jpg,NaN,NaN,1400,1800,left,NaN,0,NaN,NaN,NaN,NaN,NaN,NaN,NaN,NaN,0,3,1
6,37760,7,K,original,0,1,1,body_parts,objects,24,47,Stimuli/Experimental_stims/body_parts/clay-banks-LjqARJaJotc-unsplash.jpg,Stimuli/Experimental_stims/objects/ronaldo-arthur-vidal-Cdz_lvnl37k-unsplash.jpg,50,50,1700,0,,NaN,0,NaN,NaN,NaN,NaN,NaN,NaN,NaN,NaN,0,3,1
7,37760,8,C,scramble,0,1,1,outdoor_scenes,body_parts,5,25,Stimuli/Experimental_stims/scramble/outdoor_scenes/scrambled_jeff-king-bJHWJeiHfHc-unsplash.jpg,Stimuli/Experimental_stims/scramble/body_parts/scrambled_engin-akyurt-Q2rfH3GW39c-unsplash.jpg,NaN,NaN,2100,1500,right,NaN,0,NaN,NaN,NaN,NaN,NaN,NaN,NaN,NaN,0,3,1
8,37760,9,I,original,0,1,1,body_parts,outdoor_scenes,32,10,Stimuli/Experimental_stims/body_parts/towfiqu-barbhuiya-3AsiVDsZnHg-unsplash.jpg,Stimuli/Experimental_stims/outdoor_scenes/shannon-kunkle-dM8INmkyDas-unsplash.jpg,50,50,3600,0,,NaN,0,NaN,NaN,NaN,NaN,NaN,NaN,NaN,NaN,1,3,1
9,37760,10,F,original,0,1,1,faces,body_parts,17,33,Stimuli/Experimental_stims/faces/good-faces-xmSWVeGEnJw-unsplash.jpg,Stimuli/Experimental_stims/body_parts/tucker-good-36skLT5jZcc-unsplash.jpg,50,50,2500,0,,NaN,0,NaN,NaN,NaN,NaN,NaN,NaN,NaN,NaN,0,3,1
10,37760,11,J,scramble,0,1,1,faces,objects,23,39,Stimuli/Experimental_stims/scramble/faces/scrambled_rikonavt-HQjfrvdTfak-unsplash.jpg,Stimuli/Experimental_stims/scramble/objects/scrambled_charlesdeluvio-1-nx1QR5dTE-unsplash.jpg,NaN,NaN,1100,1300,right,NaN,0,NaN,NaN,NaN,NaN,NaN,NaN,NaN,NaN,0,3,1
11,37760,12,B,original,0,1,1,outdoor_scenes,faces,8,21,Stimuli/Experimental_stims/outdoor_scenes/samsommer-vddccTqwal8-unsplash.jpg,Stimuli/Experimental_stims/faces/leilani-angel-K84vnnzxmTQ-unsplash.jpg,50,50,1400,0,,NaN,0,NaN,NaN,NaN,NaN,NaN,NaN,NaN,NaN,0,3,1
12,37760,13,B,scramble,0,1,1,outdoor_scenes,faces,8,21,Stimuli/Experimental_stims/scramble/outdoor_scenes/scrambled_samsommer-vddccTqwal8-unsplash.jpg,Stimuli/Experimental_stims/scramble/faces/scrambled_leilani-angel-K84vnnzxmTQ-unsplash.jpg,NaN,NaN,1400,1500,right,NaN,0,NaN,NaN,NaN,NaN,NaN,NaN,NaN,NaN,0,3,1
13,37760,14,H,original,0,1,1,faces,outdoor_scenes,19,3,Stimuli/Experimental_stims/faces/joel-mott-LaK153ghdig-unsplash.jpg,Stimuli/Experimental_stims/outdoor_scenes/henry-be-NLF6hTe4PAg-unsplash.jpg,50,50,1800,0,,NaN,0,NaN,NaN,NaN,NaN,NaN,NaN,NaN,NaN,0,3,1
14,37760,15,G,scramble,0,1,1,objects,outdoor_scenes,45,7,Stimuli/Experimental_stims/scramble/objects/scrambled_leohoho-rngTKHXumy0-unsplash.jpg,Stimuli/Experimental_stims/scramble/outdoor_scenes/scrambled_petr-vysohlid-9fqwGqGLUxc-unsplash.jpg,NaN,NaN,4000,1000,left,NaN,0,NaN,NaN,NaN,NaN,NaN,NaN,NaN,NaN,1,3,1
15,37760,16,J,original,0,1,1,faces,objects,23,39,Stimuli/Experimental_stims/faces/rikonavt-HQjfrvdTfak-unsplash.jpg,Stimuli/Experimental_stims/objects/charlesdeluvio-1-nx1QR5dTE-unsplash.jpg,50,50,1100,0,,NaN,0,NaN,NaN,NaN,NaN,NaN,NaN,NaN,NaN,0,3,1
16,37760,17,G,original,0,1,1,objects,outdoor_scenes,45,7,Stimuli/Experimental_stims/objects/leohoho-rngTKHXumy0-unsplash.jpg,Stimuli/Experimental_stims/outdoor_scenes/petr-vysohlid-9fqwGqGLUxc-unsplash.jpg,50,50,1400,0,,NaN,0,NaN,NaN,NaN,NaN,NaN,NaN,NaN,NaN,0,3,1
17,37760,18,F,scramble,0,1,1,faces,body_parts,17,33,Stimuli/Experimental_stims/scramble/faces/scrambled_good-faces-xmSWVeGEnJw-unsplash.jpg,Stimuli/Experimental_stims/scramble/body_parts/scrambled_tucker-good-36skLT5jZcc-unsplash.jpg,NaN,NaN,1300,1100,left,NaN,0,NaN,NaN,NaN,NaN,NaN,NaN,NaN,NaN,0,3,1
18,37760,19,E,original,0,1,1,objects,body_parts,41,31,Stimuli/Experimental_stims/objects/insung-yoon-w2JtIQQXoRU-unsplash.jpg,Stimuli/Experimental_stims/body_parts/sincerely-media-VN6DbKajo5s-unsplash.jpg,50,50,1600,0,,NaN,0,NaN,NaN,NaN,NaN,NaN,NaN,NaN,NaN,0,3,1
19,37760,20,I,scramble,0,1,1,body_parts,outdoor_scenes,32,10,Stimuli/Experimental_stims/scramble/body_parts/scrambled_towfiqu-barbhuiya-3AsiVDsZnHg-unsplash.jpg,Stimuli/Experimental_stims/scramble/outdoor_scenes/scrambled_shannon-kunkle-dM8INmkyDas-unsplash.jpg,NaN,NaN,4000,1600,left,NaN,0,NaN,NaN,NaN,NaN,NaN,NaN,NaN,NaN,1,3,1
20,37760,21,H,scramble,0,1,1,faces,outdoor_scenes,19,3,Stimuli/Experimental_stims/scramble/faces/scrambled_joel-mott-LaK153ghdig-unsplash.jpg,Stimuli/Experimental_stims/scramble/outdoor_scenes/scrambled_henry-be-NLF6hTe4PAg-unsplash.jpg,NaN,NaN,2400,2000,right,NaN,0,NaN,NaN,NaN,NaN,NaN,NaN,NaN,NaN,0,3,1
21,37760,22,C,original,0,1,1,outdoor_scenes,body_parts,5,25,Stimuli/Experimental_stims/outdoor_scenes/jeff-king-bJHWJeiHfHc-unsplash.jpg,Stimuli/Experimental_stims/body_parts/engin-akyurt-Q2rfH3GW39c-unsplash.jpg,50,50,1800,0,,NaN,0,NaN,NaN,NaN,NaN,NaN,NaN,NaN,NaN,0,3,1
22,37760,23,L,scramble,0,1,1,body_parts,faces,34,14,Stimuli/Experimental_stims/scramble/body_parts/scrambled_wagner-santos-mBWMvIuVnso-unsplash.jpg,Stimuli/Experimental_stims/scramble/faces/scrambled_david-siglin-UuW4psOb388-unsplash.jpg,NaN,NaN,1600,700,left,NaN,0,NaN,NaN,NaN,NaN,NaN,NaN,NaN,NaN,0,3,1
23,37760,24,D,original,0,1,1,objects,faces,46,20,Stimuli/Experimental_stims/objects/mockup-graphics-PNsj6RiHAF4-unsplash.jpg,Stimuli/Experimental_stims/faces/justin-chen-J7Cf1Gch49E-unsplash.jpg,50,50,1500,0,,NaN,0,NaN,NaN,NaN,NaN,NaN,NaN,NaN,NaN,0,3,1
24,37760,25,E,scramble,0,1,1,objects,body_parts,41,31,Stimuli/Experimental_stims/scramble/objects/scrambled_insung-yoon-w2JtIQQXoRU-unsplash.jpg,Stimuli/Experimental_stims/scramble/body_parts/scrambled_sincerely-media-VN6DbKajo5s-unsplash.jpg,NaN,NaN,2400,1300,right,NaN,0,NaN,NaN,NaN,NaN,NaN,NaN,NaN,NaN,0,3,1
25,37760,26,A,original,0,1,1,outdoor_scenes,objects,11,38,Stimuli/Experimental_stims/outdoor_scenes/stephen-leonardi-gyIRjKPXupE-unsplash.jpg,Stimuli/Experimental_stims/objects/art-lasovsky-8XddFc6NkBY-unsplash.jpg,50,50,1000,0,,NaN,0,NaN,NaN,NaN,NaN,NaN,NaN,NaN,NaN,0,3,1
26,37760,27,A,scramble,0,1,1,outdoor_scenes,objects,11,38,Stimuli/Experimental_stims/scramble/outdoor_scenes/scrambled_stephen-leonardi-gyIRjKPXupE-unsplash.jpg,Stimuli/Experimental_stims/scramble/objects/scrambled_art-lasovsky-8XddFc6NkBY-unsplash.jpg,NaN,NaN,4400,1900,left,NaN,0,NaN,NaN,NaN,NaN,NaN,NaN,NaN,NaN,1,3,1
27,37760,28,D,scramble,0,1,1,objects,faces,46,20,Stimuli/Experimental_stims/scramble/objects/scrambled_mockup-graphics-PNsj6RiHAF4-unsplash.jpg,Stimuli/Experimental_stims/scramble/faces/scrambled_justin-chen-J7Cf1Gch49E-unsplash.jpg,NaN,NaN,1100,1300,right,NaN,0,NaN,NaN,NaN,NaN,NaN,NaN,NaN,NaN,0,3,1
28,37760,29,H,original,0,1,2,faces,outdoor_scenes,19,3,Stimuli/Experimental_stims/faces/joel-mott-LaK153ghdig-unsplash.jpg,Stimuli/Experimental_stims/outdoor_scenes/henry-be-NLF6hTe4PAg-unsplash.jpg,50,50,2700,0,,NaN,0,NaN,NaN,NaN,NaN,NaN,NaN,NaN,NaN,0,3,1
29,37760,30,L,scramble,0,1,2,body_parts,faces,34,14,Stimuli/Experimental_stims/scramble/body_parts/scrambled_wagner-santos-mBWMvIuVnso-unsplash.jpg,Stimuli/Experimental_stims/scramble/faces/scrambled_david-siglin-UuW4psOb388-unsplash.jpg,NaN,NaN,1100,1300,left,NaN,0,NaN,NaN,NaN,NaN,NaN,NaN,NaN,NaN,0,3,1
30,37760,31,E,scramble,0,1,2,objects,body_parts,41,31,Stimuli/Experimental_stims/scramble/objects/scrambled_insung-yoon-w2JtIQQXoRU-unsplash.jpg,Stimuli/Experimental_stims/scramble/body_parts/scrambled_sincerely-media-VN6DbKajo5s-unsplash.jpg,NaN,NaN,1000,1000,left,NaN,0,NaN,NaN,NaN,NaN,NaN,NaN,NaN,NaN,0,3,1
31,37760,32,D,original,0,1,2,objects,faces,46,20,Stimuli/Experimental_stims/objects/mockup-graphics-PNsj6RiHAF4-unsplash.jpg,Stimuli/Experimental_stims/faces/justin-chen-J7Cf1Gch49E-unsplash.jpg,50,50,3700,0,,NaN,0,NaN,NaN,NaN,NaN,NaN,NaN,NaN,NaN,1,3,1
32,37760,33,H,scramble,0,1,2,faces,outdoor_scenes,19,3,Stimuli/Experimental_stims/scramble/faces/scrambled_joel-mott-LaK153ghdig-unsplash.jpg,Stimuli/Experimental_stims/scramble/outdoor_scenes/scrambled_henry-be-NLF6hTe4PAg-unsplash.jpg,NaN,NaN,1400,700,left,NaN,0,NaN,NaN,NaN,NaN,NaN,NaN,NaN,NaN,0,3,1
33,37760,34,G,original,0,1,2,objects,outdoor_scenes,45,7,Stimuli/Experimental_stims/objects/leohoho-rngTKHXumy0-unsplash.jpg,Stimuli/Experimental_stims/outdoor_scenes/petr-vysohlid-9fqwGqGLUxc-unsplash.jpg,50,50,2800,0,,NaN,0,NaN,NaN,NaN,NaN,NaN,NaN,NaN,NaN,0,3,1
34,37760,35,K,original,0,1,2,body_parts,objects,24,47,Stimuli/Experimental_stims/body_parts/clay-banks-LjqARJaJotc-unsplash.jpg,Stimuli/Experimental_stims/objects/ronaldo-arthur-vidal-Cdz_lvnl37k-unsplash.jpg,50,50,1000,0,,NaN,0,NaN,NaN,NaN,NaN,NaN,NaN,NaN,NaN,0,3,1
35,37760,36,A,scramble,0,1,2,outdoor_scenes,objects,11,38,Stimuli/Experimental_stims/scramble/outdoor_scenes/scrambled_stephen-leonardi-gyIRjKPXupE-unsplash.jpg,Stimuli/Experimental_stims/scramble/objects/scrambled_art-lasovsky-8XddFc6NkBY-unsplash.jpg,NaN,NaN,1000,1200,left,NaN,0,NaN,NaN,NaN,NaN,NaN,NaN,NaN,NaN,0,3,1
36,37760,37,A,original,0,1,2,outdoor_scenes,objects,11,38,Stimuli/Experimental_stims/outdoor_scenes/stephen-leonardi-gyIRjKPXupE-unsplash.jpg,Stimuli/Experimental_stims/objects/art-lasovsky-8XddFc6NkBY-unsplash.jpg,50,50,1700,0,,NaN,0,NaN,NaN,NaN,NaN,NaN,NaN,NaN,NaN,0,3,1
37,37760,38,L,original,0,1,2,body_parts,faces,34,14,Stimuli/Experimental_stims/body_parts/wagner-santos-mBWMvIuVnso-unsplash.jpg,Stimuli/Experimental_stims/faces/david-siglin-UuW4psOb388-unsplash.jpg,50,50,1400,0,,NaN,0,NaN,NaN,NaN,NaN,NaN,NaN,NaN,NaN,0,3,1
38,37760,39,C,scramble,0,1,2,outdoor_scenes,body_parts,5,25,Stimuli/Experimental_stims/scramble/outdoor_scenes/scrambled_jeff-king-bJHWJeiHfHc-unsplash.jpg,Stimuli/Experimental_stims/scramble/body_parts/scrambled_engin-akyurt-Q2rfH3GW39c-unsplash.jpg,NaN,NaN,1500,1600,right,NaN,0,NaN,NaN,NaN,NaN,NaN,NaN,NaN,NaN,0,3,1
39,37760,40,B,scramble,0,1,2,outdoor_scenes,faces,8,21,Stimuli/Experimental_stims/scramble/outdoor_scenes/scrambled_samsommer-vddccTqwal8-unsplash.jpg,Stimuli/Experimental_stims/scramble/faces/scrambled_leilani-angel-K84vnnzxmTQ-unsplash.jpg,NaN,NaN,3400,1700,right,NaN,0,NaN,NaN,NaN,NaN,NaN,NaN,NaN,NaN,1,3,1
40,37760,41,I,original,0,1,2,body_parts,outdoor_scenes,32,10,Stimuli/Experimental_stims/body_parts/towfiqu-barbhuiya-3AsiVDsZnHg-unsplash.jpg,Stimuli/Experimental_stims/outdoor_scenes/shannon-kunkle-dM8INmkyDas-unsplash.jpg,50,50,2400,0,,NaN,0,NaN,NaN,NaN,NaN,NaN,NaN,NaN,NaN,0,3,1
41,37760,42,G,scramble,0,1,2,objects,outdoor_scenes,45,7,Stimuli/Experimental_stims/scramble/objects/scrambled_leohoho-rngTKHXumy0-unsplash.jpg,Stimuli/Experimental_stims/scramble/outdoor_scenes/scrambled_petr-vysohlid-9fqwGqGLUxc-unsplash.jpg,NaN,NaN,1900,1800,right,NaN,0,NaN,NaN,NaN,NaN,NaN,NaN,NaN,NaN,0,3,1
42,37760,43,I,scramble,0,1,2,body_parts,outdoor_scenes,32,10,Stimuli/Experimental_stims/scramble/body_parts/scrambled_towfiqu-barbhuiya-3AsiVDsZnHg-unsplash.jpg,Stimuli/Experimental_stims/scramble/outdoor_scenes/scrambled_shannon-kunkle-dM8INmkyDas-unsplash.jpg,NaN,NaN,2700,1300,right,NaN,0,NaN,NaN,NaN,NaN,NaN,NaN,NaN,NaN,0,3,1
43,37760,44,C,original,0,1,2,outdoor_scenes,body_parts,5,25,Stimuli/Experimental_stims/outdoor_scenes/jeff-king-bJHWJeiHfHc-unsplash.jpg,Stimuli/Experimental_stims/body_parts/engin-akyurt-Q2rfH3GW39c-unsplash.jpg,50,50,2700,0,,NaN,0,NaN,NaN,NaN,NaN,NaN,NaN,NaN,NaN,0,3,1
44,37760,45,F,scramble,0,1,2,faces,body_parts,17,33,Stimuli/Experimental_stims/scramble/faces/scrambled_good-faces-xmSWVeGEnJw-unsplash.jpg,Stimuli/Experimental_stims/scramble/body_parts/scrambled_tucker-good-36skLT5jZcc-unsplash.jpg,NaN,NaN,1800,1800,right,NaN,0,NaN,NaN,NaN,NaN,NaN,NaN,NaN,NaN,0,3,1
45,37760,46,F,original,0,1,2,faces,body_parts,17,33,Stimuli/Experimental_stims/faces/good-faces-xmSWVeGEnJw-unsplash.jpg,Stimuli/Experimental_stims/body_parts/tucker-good-36skLT5jZcc-unsplash.jpg,50,50,1500,0,,NaN,0,NaN,NaN,NaN,NaN,NaN,NaN,NaN,NaN,0,3,1
46,37760,47,K,scramble,0,1,2,body_parts,objects,24,47,Stimuli/Experimental_stims/scramble/body_parts/scrambled_clay-banks-LjqARJaJotc-unsplash.jpg,Stimuli/Experimental_stims/scramble/objects/scrambled_ronaldo-arthur-vidal-Cdz_lvnl37k-unsplash.jpg,NaN,NaN,3100,1400,right,NaN,0,NaN,NaN,NaN,NaN,NaN,NaN,NaN,NaN,1,3,1
47,37760,48,E,original,0,1,2,objects,body_parts,41,31,Stimuli/Experimental_stims/objects/insung-yoon-w2JtIQQXoRU-unsplash.jpg,Stimuli/Experimental_stims/body_parts/sincerely-media-VN6DbKajo5s-unsplash.jpg,50,50,1300,0,,NaN,0,NaN,NaN,NaN,NaN,NaN,NaN,NaN,NaN,0,3,1
48,37760,49,J,scramble,0,1,2,faces,objects,23,39,Stimuli/Experimental_stims/scramble/faces/scrambled_rikonavt-HQjfrvdTfak-unsplash.jpg,Stimuli/Experimental_stims/scramble/objects/scrambled_charlesdeluvio-1-nx1QR5dTE-unsplash.jpg,NaN,NaN,1100,1800,left,NaN,0,NaN,NaN,NaN,NaN,NaN,NaN,NaN,NaN,0,3,1
49,37760,50,D,scramble,0,1,2,objects,faces,46,20,Stimuli/Experimental_stims/scramble/objects/scrambled_mockup-graphics-PNsj6RiHAF4-unsplash.jpg,Stimuli/Experimental_stims/scramble/faces/scrambled_justin-chen-J7Cf1Gch49E-unsplash.jpg,NaN,NaN,2200,1900,left,NaN,0,NaN,NaN,NaN,NaN,NaN,NaN,NaN,NaN,0,3,1
50,37760,51,J,original,0,1,2,faces,objects,23,39,Stimuli/Experimental_stims/faces/rikonavt-HQjfrvdTfak-unsplash.jpg,Stimuli/Experimental_stims/objects/charlesdeluvio-1-nx1QR5dTE-unsplash.jpg,50,50,1100,0,,NaN,0,NaN,NaN,NaN,NaN,NaN,NaN,NaN,NaN,0,3,1
51,37760,52,B,original,0,1,2,outdoor_scenes,faces,8,21,Stimuli/Experimental_stims/outdoor_scenes/samsommer-vddccTqwal8-unsplash.jpg,Stimuli/Experimental_stims/faces/leilani-angel-K84vnnzxmTQ-unsplash.jpg,50,50,2900,0,,NaN,0,NaN,NaN,NaN,NaN,NaN,NaN,NaN,NaN,1,3,1
52,37760,53,B,original,0,2,3,outdoor_scenes,faces,8,21,Stimuli/Experimental_stims/outdoor_scenes/samsommer-vddccTqwal8-unsplash.jpg,Stimuli/Experimental_stims/faces/leilani-angel-K84vnnzxmTQ-unsplash.jpg,50,50,4200,0,,NaN,0,NaN,NaN,NaN,NaN,NaN,NaN,NaN,NaN,1,8,1
53,37760,54,K,scramble,0,2,3,body_parts,objects,24,47,Stimuli/Experimental_stims/scramble/body_parts/scrambled_clay-banks-LjqARJaJotc-unsplash.jpg,Stimuli/Experimental_stims/scramble/objects/scrambled_ronaldo-arthur-vidal-Cdz_lvnl37k-unsplash.jpg,NaN,NaN,1800,900,left,NaN,0,NaN,NaN,NaN,NaN,NaN,NaN,NaN,NaN,0,8,1
54,37760,55,A,original,0,2,3,outdoor_scenes,objects,11,38,Stimuli/Experimental_stims/outdoor_scenes/stephen-leonardi-gyIRjKPXupE-unsplash.jpg,Stimuli/Experimental_stims/objects/art-lasovsky-8XddFc6NkBY-unsplash.jpg,50,50,2600,0,,NaN,0,NaN,NaN,NaN,NaN,NaN,NaN,NaN,NaN,0,8,1
55,37760,56,G,scramble,0,2,3,objects,outdoor_scenes,45,7,Stimuli/Experimental_stims/scramble/objects/scrambled_leohoho-rngTKHXumy0-unsplash.jpg,Stimuli/Experimental_stims/scramble/outdoor_scenes/scrambled_petr-vysohlid-9fqwGqGLUxc-unsplash.jpg,NaN,NaN,1800,1300,right,NaN,0,NaN,NaN,NaN,NaN,NaN,NaN,NaN,NaN,0,8,1
56,37760,57,I,original,0,2,3,body_parts,outdoor_scenes,32,10,Stimuli/Experimental_stims/body_parts/towfiqu-barbhuiya-3AsiVDsZnHg-unsplash.jpg,Stimuli/Experimental_stims/outdoor_scenes/shannon-kunkle-dM8INmkyDas-unsplash.jpg,50,50,1200,0,,NaN,0,NaN,NaN,NaN,NaN,NaN,NaN,NaN,NaN,0,8,1
57,37760,58,E,scramble,0,2,3,objects,body_parts,41,31,Stimuli/Experimental_stims/scramble/objects/scrambled_insung-yoon-w2JtIQQXoRU-unsplash.jpg,Stimuli/Experimental_stims/scramble/body_parts/scrambled_sincerely-media-VN6DbKajo5s-unsplash.jpg,NaN,NaN,2600,900,right,NaN,0,NaN,NaN,NaN,NaN,NaN,NaN,NaN,NaN,0,8,1
58,37760,59,D,original,0,2,3,objects,faces,46,20,Stimuli/Experimental_stims/objects/mockup-graphics-PNsj6RiHAF4-unsplash.jpg,Stimuli/Experimental_stims/faces/justin-chen-J7Cf1Gch49E-unsplash.jpg,50,50,3200,0,,NaN,0,NaN,NaN,NaN,NaN,NaN,NaN,NaN,NaN,1,8,1
59,37760,60,D,scramble,0,2,3,objects,faces,46,20,Stimuli/Experimental_stims/scramble/objects/scrambled_mockup-graphics-PNsj6RiHAF4-unsplash.jpg,Stimuli/Experimental_stims/scramble/faces/scrambled_justin-chen-J7Cf1Gch49E-unsplash.jpg,NaN,NaN,2500,1500,right,NaN,0,NaN,NaN,NaN,NaN,NaN,NaN,NaN,NaN,0,8,1
60,37760,61,C,scramble,0,2,3,outdoor_scenes,body_parts,5,25,Stimuli/Experimental_stims/scramble/outdoor_scenes/scrambled_jeff-king-bJHWJeiHfHc-unsplash.jpg,Stimuli/Experimental_stims/scramble/body_parts/scrambled_engin-akyurt-Q2rfH3GW39c-unsplash.jpg,NaN,NaN,1500,1000,left,NaN,0,NaN,NaN,NaN,NaN,NaN,NaN,NaN,NaN,0,8,1
61,37760,62,C,original,0,2,3,outdoor_scenes,body_parts,5,25,Stimuli/Experimental_stims/outdoor_scenes/jeff-king-bJHWJeiHfHc-unsplash.jpg,Stimuli/Experimental_stims/body_parts/engin-akyurt-Q2rfH3GW39c-unsplash.jpg,50,50,1500,0,,NaN,0,NaN,NaN,NaN,NaN,NaN,NaN,NaN,NaN,0,8,1
62,37760,63,L,scramble,0,2,3,body_parts,faces,34,14,Stimuli/Experimental_stims/scramble/body_parts/scrambled_wagner-santos-mBWMvIuVnso-unsplash.jpg,Stimuli/Experimental_stims/scramble/faces/scrambled_david-siglin-UuW4psOb388-unsplash.jpg,NaN,NaN,2300,1200,left,NaN,0,NaN,NaN,NaN,NaN,NaN,NaN,NaN,NaN,0,8,1
63,37760,64,E,original,0,2,3,objects,body_parts,41,31,Stimuli/Experimental_stims/objects/insung-yoon-w2JtIQQXoRU-unsplash.jpg,Stimuli/Experimental_stims/body_parts/sincerely-media-VN6DbKajo5s-unsplash.jpg,50,50,1000,0,,NaN,0,NaN,NaN,NaN,NaN,NaN,NaN,NaN,NaN,0,8,1
64,37760,65,F,scramble,0,2,3,faces,body_parts,17,33,Stimuli/Experimental_stims/scramble/faces/scrambled_good-faces-xmSWVeGEnJw-unsplash.jpg,Stimuli/Experimental_stims/scramble/body_parts/scrambled_tucker-good-36skLT5jZcc-unsplash.jpg,NaN,NaN,1800,1100,left,NaN,0,NaN,NaN,NaN,NaN,NaN,NaN,NaN,NaN,0,8,1
65,37760,66,K,original,0,2,3,body_parts,objects,24,47,Stimuli/Experimental_stims/body_parts/clay-banks-LjqARJaJotc-unsplash.jpg,Stimuli/Experimental_stims/objects/ronaldo-arthur-vidal-Cdz_lvnl37k-unsplash.jpg,50,50,1300,0,,NaN,0,NaN,NaN,NaN,NaN,NaN,NaN,NaN,NaN,0,8,1
66,37760,67,H,scramble,0,2,3,faces,outdoor_scenes,19,3,Stimuli/Experimental_stims/scramble/faces/scrambled_joel-mott-LaK153ghdig-unsplash.jpg,Stimuli/Experimental_stims/scramble/outdoor_scenes/scrambled_henry-be-NLF6hTe4PAg-unsplash.jpg,NaN,NaN,1200,1100,left,NaN,0,NaN,NaN,NaN,NaN,NaN,NaN,NaN,NaN,0,8,1
67,37760,68,H,original,0,2,3,faces,outdoor_scenes,19,3,Stimuli/Experimental_stims/faces/joel-mott-LaK153ghdig-unsplash.jpg,Stimuli/Experimental_stims/outdoor_scenes/henry-be-NLF6hTe4PAg-unsplash.jpg,50,50,1300,0,,NaN,0,NaN,NaN,NaN,NaN,NaN,NaN,NaN,NaN,0,8,1
68,37760,69,J,scramble,0,2,3,faces,objects,23,39,Stimuli/Experimental_stims/scramble/faces/scrambled_rikonavt-HQjfrvdTfak-unsplash.jpg,Stimuli/Experimental_stims/scramble/objects/scrambled_charlesdeluvio-1-nx1QR5dTE-unsplash.jpg,NaN,NaN,3300,700,right,NaN,0,NaN,NaN,NaN,NaN,NaN,NaN,NaN,NaN,1,8,1
69,37760,70,A,scramble,0,2,3,outdoor_scenes,objects,11,38,Stimuli/Experimental_stims/scramble/outdoor_scenes/scrambled_stephen-leonardi-gyIRjKPXupE-unsplash.jpg,Stimuli/Experimental_stims/scramble/objects/scrambled_art-lasovsky-8XddFc6NkBY-unsplash.jpg,NaN,NaN,1100,1400,left,NaN,0,NaN,NaN,NaN,NaN,NaN,NaN,NaN,NaN,0,8,1
70,37760,71,J,original,0,2,3,faces,objects,23,39,Stimuli/Experimental_stims/faces/rikonavt-HQjfrvdTfak-unsplash.jpg,Stimuli/Experimental_stims/objects/charlesdeluvio-1-nx1QR5dTE-unsplash.jpg,50,50,1700,0,,NaN,0,NaN,NaN,NaN,NaN,NaN,NaN,NaN,NaN,0,8,1
71,37760,72,L,original,0,2,3,body_parts,faces,34,14,Stimuli/Experimental_stims/body_parts/wagner-santos-mBWMvIuVnso-unsplash.jpg,Stimuli/Experimental_stims/faces/david-siglin-UuW4psOb388-unsplash.jpg,50,50,2500,0,,NaN,0,NaN,NaN,NaN,NaN,NaN,NaN,NaN,NaN,0,8,1
72,37760,73,B,scramble,0,2,3,outdoor_scenes,faces,8,21,Stimuli/Experimental_stims/scramble/outdoor_scenes/scrambled_samsommer-vddccTqwal8-unsplash.jpg,Stimuli/Experimental_stims/scramble/faces/scrambled_leilani-angel-K84vnnzxmTQ-unsplash.jpg,NaN,NaN,2200,1400,right,NaN,0,NaN,NaN,NaN,NaN,NaN,NaN,NaN,NaN,0,8,1
73,37760,74,I,scramble,0,2,3,body_parts,outdoor_scenes,32,10,Stimuli/Experimental_stims/scramble/body_parts/scrambled_towfiqu-barbhuiya-3AsiVDsZnHg-unsplash.jpg,Stimuli/Experimental_stims/scramble/outdoor_scenes/scrambled_shannon-kunkle-dM8INmkyDas-unsplash.jpg,NaN,NaN,1400,1100,right,NaN,0,NaN,NaN,NaN,NaN,NaN,NaN,NaN,NaN,0,8,1
74,37760,75,F,original,0,2,3,faces,body_parts,17,33,Stimuli/Experimental_stims/faces/good-faces-xmSWVeGEnJw-unsplash.jpg,Stimuli/Experimental_stims/body_parts/tucker-good-36skLT5jZcc-unsplash.jpg,50,50,2800,0,,NaN,0,NaN,NaN,NaN,NaN,NaN,NaN,NaN,NaN,1,8,1
75,37760,76,G,original,0,2,3,objects,outdoor_scenes,45,7,Stimuli/Experimental_stims/objects/leohoho-rngTKHXumy0-unsplash.jpg,Stimuli/Experimental_stims/outdoor_scenes/petr-vysohlid-9fqwGqGLUxc-unsplash.jpg,50,50,1600,0,,NaN,0,NaN,NaN,NaN,NaN,NaN,NaN,NaN,NaN,0,8,1
76,37760,77,I,scramble,0,2,4,body_parts,outdoor_scenes,32,10,Stimuli/Experimental_stims/scramble/body_parts/scrambled_towfiqu-barbhuiya-3AsiVDsZnHg-unsplash.jpg,Stimuli/Experimental_stims/scramble/outdoor_scenes/scrambled_shannon-kunkle-dM8INmkyDas-unsplash.jpg,NaN,NaN,1700,700,left,NaN,0,NaN,NaN,NaN,NaN,NaN,NaN,NaN,NaN,0,8,1
77,37760,78,A,original,0,2,4,outdoor_scenes,objects,11,38,Stimuli/Experimental_stims/outdoor_scenes/stephen-leonardi-gyIRjKPXupE-unsplash.jpg,Stimuli/Experimental_stims/objects/art-lasovsky-8XddFc6NkBY-unsplash.jpg,50,50,1700,0,,NaN,0,NaN,NaN,NaN,NaN,NaN,NaN,NaN,NaN,0,8,1
78,37760,79,K,original,0,2,4,body_parts,objects,24,47,Stimuli/Experimental_stims/body_parts/clay-banks-LjqARJaJotc-unsplash.jpg,Stimuli/Experimental_stims/objects/ronaldo-arthur-vidal-Cdz_lvnl37k-unsplash.jpg,50,50,2000,0,,NaN,0,NaN,NaN,NaN,NaN,NaN,NaN,NaN,NaN,0,8,1
79,37760,80,H,scramble,0,2,4,faces,outdoor_scenes,19,3,Stimuli/Experimental_stims/scramble/faces/scrambled_joel-mott-LaK153ghdig-unsplash.jpg,Stimuli/Experimental_stims/scramble/outdoor_scenes/scrambled_henry-be-NLF6hTe4PAg-unsplash.jpg,NaN,NaN,1500,1500,left,NaN,0,NaN,NaN,NaN,NaN,NaN,NaN,NaN,NaN,0,8,1
80,37760,81,L,scramble,0,2,4,body_parts,faces,34,14,Stimuli/Experimental_stims/scramble/body_parts/scrambled_wagner-santos-mBWMvIuVnso-unsplash.jpg,Stimuli/Experimental_stims/scramble/faces/scrambled_david-siglin-UuW4psOb388-unsplash.jpg,NaN,NaN,3200,500,right,NaN,0,NaN,NaN,NaN,NaN,NaN,NaN,NaN,NaN,1,8,1
81,37760,82,I,original,0,2,4,body_parts,outdoor_scenes,32,10,Stimuli/Experimental_stims/body_parts/towfiqu-barbhuiya-3AsiVDsZnHg-unsplash.jpg,Stimuli/Experimental_stims/outdoor_scenes/shannon-kunkle-dM8INmkyDas-unsplash.jpg,50,50,1700,0,,NaN,0,NaN,NaN,NaN,NaN,NaN,NaN,NaN,NaN,0,8,1
82,37760,83,G,original,0,2,4,objects,outdoor_scenes,45,7,Stimuli/Experimental_stims/objects/leohoho-rngTKHXumy0-unsplash.jpg,Stimuli/Experimental_stims/outdoor_scenes/petr-vysohlid-9fqwGqGLUxc-unsplash.jpg,50,50,1900,0,,NaN,0,NaN,NaN,NaN,NaN,NaN,NaN,NaN,NaN,0,8,1
83,37760,84,E,scramble,0,2,4,objects,body_parts,41,31,Stimuli/Experimental_stims/scramble/objects/scrambled_insung-yoon-w2JtIQQXoRU-unsplash.jpg,Stimuli/Experimental_stims/scramble/body_parts/scrambled_sincerely-media-VN6DbKajo5s-unsplash.jpg,NaN,NaN,1600,1800,right,NaN,0,NaN,NaN,NaN,NaN,NaN,NaN,NaN,NaN,0,8,1
84,37760,85,G,scramble,0,2,4,objects,outdoor_scenes,45,7,Stimuli/Experimental_stims/scramble/objects/scrambled_leohoho-rngTKHXumy0-unsplash.jpg,Stimuli/Experimental_stims/scramble/outdoor_scenes/scrambled_petr-vysohlid-9fqwGqGLUxc-unsplash.jpg,NaN,NaN,2100,1100,left,NaN,0,NaN,NaN,NaN,NaN,NaN,NaN,NaN,NaN,0,8,1
85,37760,86,B,original,0,2,4,outdoor_scenes,faces,8,21,Stimuli/Experimental_stims/outdoor_scenes/samsommer-vddccTqwal8-unsplash.jpg,Stimuli/Experimental_stims/faces/leilani-angel-K84vnnzxmTQ-unsplash.jpg,50,50,1900,0,,NaN,0,NaN,NaN,NaN,NaN,NaN,NaN,NaN,NaN,0,8,1
86,37760,87,J,original,0,2,4,faces,objects,23,39,Stimuli/Experimental_stims/faces/rikonavt-HQjfrvdTfak-unsplash.jpg,Stimuli/Experimental_stims/objects/charlesdeluvio-1-nx1QR5dTE-unsplash.jpg,50,50,1100,0,,NaN,0,NaN,NaN,NaN,NaN,NaN,NaN,NaN,NaN,0,8,1
87,37760,88,C,scramble,0,2,4,outdoor_scenes,body_parts,5,25,Stimuli/Experimental_stims/scramble/outdoor_scenes/scrambled_jeff-king-bJHWJeiHfHc-unsplash.jpg,Stimuli/Experimental_stims/scramble/body_parts/scrambled_engin-akyurt-Q2rfH3GW39c-unsplash.jpg,NaN,NaN,1900,1000,right,NaN,0,NaN,NaN,NaN,NaN,NaN,NaN,NaN,NaN,0,8,1
88,37760,89,D,original,0,2,4,objects,faces,46,20,Stimuli/Experimental_stims/objects/mockup-graphics-PNsj6RiHAF4-unsplash.jpg,Stimuli/Experimental_stims/faces/justin-chen-J7Cf1Gch49E-unsplash.jpg,50,50,4500,0,,NaN,0,NaN,NaN,NaN,NaN,NaN,NaN,NaN,NaN,1,8,1
89,37760,90,A,scramble,0,2,4,outdoor_scenes,objects,11,38,Stimuli/Experimental_stims/scramble/outdoor_scenes/scrambled_stephen-leonardi-gyIRjKPXupE-unsplash.jpg,Stimuli/Experimental_stims/scramble/objects/scrambled_art-lasovsky-8XddFc6NkBY-unsplash.jpg,NaN,NaN,1800,500,left,NaN,0,NaN,NaN,NaN,NaN,NaN,NaN,NaN,NaN,0,8,1
90,37760,91,F,original,0,2,4,faces,body_parts,17,33,Stimuli/Experimental_stims/faces/good-faces-xmSWVeGEnJw-unsplash.jpg,Stimuli/Experimental_stims/body_parts/tucker-good-36skLT5jZcc-unsplash.jpg,50,50,1800,0,,NaN,0,NaN,NaN,NaN,NaN,NaN,NaN,NaN,NaN,0,8,1
91,37760,92,F,scramble,0,2,4,faces,body_parts,17,33,Stimuli/Experimental_stims/scramble/faces/scrambled_good-faces-xmSWVeGEnJw-unsplash.jpg,Stimuli/Experimental_stims/scramble/body_parts/scrambled_tucker-good-36skLT5jZcc-unsplash.jpg,NaN,NaN,1300,200,left,NaN,0,NaN,NaN,NaN,NaN,NaN,NaN,NaN,NaN,0,8,1
92,37760,93,J,scramble,0,2,4,faces,objects,23,39,Stimuli/Experimental_stims/scramble/faces/scrambled_rikonavt-HQjfrvdTfak-unsplash.jpg,Stimuli/Experimental_stims/scramble/objects/scrambled_charlesdeluvio-1-nx1QR5dTE-unsplash.jpg,NaN,NaN,1200,1300,right,NaN,0,NaN,NaN,NaN,NaN,NaN,NaN,NaN,NaN,0,8,1
93,37760,94,L,original,0,2,4,body_parts,faces,34,14,Stimuli/Experimental_stims/body_parts/wagner-santos-mBWMvIuVnso-unsplash.jpg,Stimuli/Experimental_stims/faces/david-siglin-UuW4psOb388-unsplash.jpg,50,50,3200,0,,NaN,0,NaN,NaN,NaN,NaN,NaN,NaN,NaN,NaN,1,8,1
94,37760,95,B,scramble,0,2,4,outdoor_scenes,faces,8,21,Stimuli/Experimental_stims/scramble/outdoor_scenes/scrambled_samsommer-vddccTqwal8-unsplash.jpg,Stimuli/Experimental_stims/scramble/faces/scrambled_leilani-angel-K84vnnzxmTQ-unsplash.jpg,NaN,NaN,1300,1000,left,NaN,0,NaN,NaN,NaN,NaN,NaN,NaN,NaN,NaN,0,8,1
95,37760,96,K,scramble,0,2,4,body_parts,objects,24,47,Stimuli/Experimental_stims/scramble/body_parts/scrambled_clay-banks-LjqARJaJotc-unsplash.jpg,Stimuli/Experimental_stims/scramble/objects/scrambled_ronaldo-arthur-vidal-Cdz_lvnl37k-unsplash.jpg,NaN,NaN,2400,100,right,NaN,0,NaN,NaN,NaN,NaN,NaN,NaN,NaN,NaN,0,8,1
96,37760,97,E,original,0,2,4,objects,body_parts,41,31,Stimuli/Experimental_stims/objects/insung-yoon-w2JtIQQXoRU-unsplash.jpg,Stimuli/Experimental_stims/body_parts/sincerely-media-VN6DbKajo5s-unsplash.jpg,50,50,1700,0,,NaN,0,NaN,NaN,NaN,NaN,NaN,NaN,NaN,NaN,0,8,1
97,37760,98,D,scramble,0,2,4,objects,faces,46,20,Stimuli/Experimental_stims/scramble/objects/scrambled_mockup-graphics-PNsj6RiHAF4-unsplash.jpg,Stimuli/Experimental_stims/scramble/faces/scrambled_justin-chen-J7Cf1Gch49E-unsplash.jpg,NaN,NaN,1000,1500,right,NaN,0,NaN,NaN,NaN,NaN,NaN,NaN,NaN,NaN,0,8,1
98,37760,99,C,original,0,2,4,outdoor_scenes,body_parts,5,25,Stimuli/Experimental_stims/outdoor_scenes/jeff-king-bJHWJeiHfHc-unsplash.jpg,Stimuli/Experimental_stims/body_parts/engin-akyurt-Q2rfH3GW39c-unsplash.jpg,50,50,1900,0,,NaN,0,NaN,NaN,NaN,NaN,NaN,NaN,NaN,NaN,0,8,1
99,37760,100,H,original,0,2,4,faces,outdoor_scenes,19,3,Stimuli/Experimental_stims/faces/joel-mott-LaK153ghdig-unsplash.jpg,Stimuli/Experimental_stims/outdoor_scenes/henry-be-NLF6hTe4PAg-unsplash.jpg,50,50,3200,0,,NaN,0,NaN,NaN,NaN,NaN,NaN,NaN,NaN,NaN,1,8,1