"","success","ttype","start_time","trial_type","trial_index","time_elapsed","internal_node_id","age","PID","gender","rt","responses","view_history","repeat_instructions","key_press","response","index","stimulus_index","path","missed_checkup","start_time_elapsed","run","task","isi","is_odd_ball","no_response","acc","duration","onset","duration_time_elapsed","onset_time_elapsed","trial_duration","left_chosen","chosen_stimulus","unchosen_stimulus","chosen_category","unchosen_category","chosen_rating","unchosen_rating","chosen_path","unchosen_path","pair_id","practice","scramble_screen_time","scramble_instructed_side","stim_type","iti","block","left_stimulus","right_stimulus","left_category","right_category","left_path","right_path","left_rating","right_rating","scramble_acc","stimulus_id","item_id","outcome","response_rt","deliberation_reward_tally","choice_type","gain_left","left_item_id","right_item_id","warning","higher_outcome_chosen","chosen_left","old_pair","pair_type","old_response","pair_acc","reward_type","outcome_response","outcome_rt","outcome_acc","category","choice","deliberated_stim","old_rating","new_rating","total_reward_tally"
"1","true","full_screen","d08162023hr1927","fullscreen",0,8105,"0.0-0.0-0.0",33,21859,"Female","","","",NA,"","",NA,NA,"",NA,NA,NA,"",NA,NA,NA,NA,NA,NA,NA,NA,NA,NA,NA,NA,"","",NA,NA,"","","",NA,NA,"","","",NA,NA,NA,"","","","",NA,NA,NA,NA,"","",NA,NA,"",NA,"","",NA,NA,NA,NA,"",NA,NA,"","",NA,NA,"","","",NA,NA,NA
"2","","get_id","","survey-text",1,36851,"0.0-0.0-1.0",33,21859,"Female","28733","{""Q0"":""33"",""Q1"":""Female""}","",NA,"","",NA,NA,"",NA,NA,NA,"",NA,NA,NA,NA,NA,NA,NA,NA,NA,NA,NA,NA,"","",NA,NA,"","","",NA,NA,"","","",NA,NA,NA,"","","","",NA,NA,NA,NA,"","",NA,NA,"",NA,"","",NA,NA,NA,NA,"",NA,NA,"","",NA,NA,"","","",NA,NA,NA
"3","","ratings_instructions","","instructions",2,47830,"0.0-1.0-0.0-0.0",33,21859,"Female","8530","","[{""page_index"":0,""viewing_time"":4380},{""page_index"":1,""viewing_time"":4149}]",NA,"","",NA,NA,"",NA,NA,NA,"",NA,NA,NA,NA,NA,NA,NA,NA,NA,NA,NA,NA,"","",NA,NA,"","","",NA,NA,"","","",NA,NA,NA,"","","","",NA,NA,NA,NA,"","",NA,NA,"",NA,"","",NA,NA,NA,NA,"",NA,NA,"","",NA,NA,"","","",NA,NA,NA
"4","","rating_comprehension_check","","survey-multi-choice",3,55287,"0.0-1.0-0.0-1.0",33,21859,"Female","7440","{""Q0"":""True"",""Q1"":""Mouse""}","",0,"","",NA,NA,"",NA,NA,NA,"",NA,NA,NA,NA,NA,NA,NA,NA,NA,NA,NA,NA,"","",NA,NA,"","","",NA,NA,"","","",NA,NA,NA,"","","","",NA,NA,NA,NA,"","",NA,NA,"",NA,"","",NA,NA,NA,NA,"",NA,NA,"","",NA,NA,"","","",NA,NA,NA
"5","","","","html-keyboard-response",4,59187,"0.0-1.0-1.0",33,21859,"Female","3883","","",NA,"68","",NA,NA,"",NA,NA,NA,"",NA,NA,NA,NA,NA,NA,NA,NA,NA,NA,NA,NA,"","",NA,NA,"","","",NA,NA,"","","",NA,NA,NA,"","","","",NA,NA,NA,NA,"","",NA,NA,"",NA,"","",NA,NA,NA,NA,"",NA,NA,"","",NA,NA,"","","",NA,NA,NA
"6","","rating","","html-slider-response",5,62358,"0.0-1.0-2.0",33,21859,"Female","3154","","",NA,"","75",0,23,"Stimuli/Experimental_stims/faces/rikonavt-HQjfrvdTfak-unsplash.jpg",NA,NA,NA,"",NA,NA,NA,NA,NA,NA,NA,NA,NA,NA,NA,NA,"","",NA,NA,"","","",NA,NA,"","","",NA,NA,NA,"","","","",NA,NA,NA,NA,"","",NA,NA,"",NA,"","",NA,NA,NA,NA,"",NA,NA,"","",NA,NA,"","","",NA,NA,NA
"7","","rating","","html-slider-response",6,64834,"0.0-1.0-3.0",33,21859,"Female","2462","","",NA,"","38",1,17,"Stimuli/Experimental_stims/faces/good-faces-xmSWVeGEnJw-unsplash.jpg",NA,NA,NA,"",NA,NA,NA,NA,NA,NA,NA,NA,NA,NA,NA,NA,"","",NA,NA,"","","",NA,NA,"","","",NA,NA,NA,"","","","",NA,NA,NA,NA,"","",NA,NA,"",NA,"","",NA,NA,NA,NA,"",NA,NA,"","",NA,NA,"","","",NA,NA,NA
"8","","rating","","html-slider-response",7,66754,"0.0-1.0-4.0",33,21859,"Female","1905","","",NA,"","69",2,10,"Stimuli/Experimental_stims/outdoor_scenes/shannon-kunkle-dM8INmkyDas-unsplash.jpg",NA,NA,NA,"",NA,NA,NA,NA,NA,NA,NA,NA,NA,NA,NA,NA,"","",NA,NA,"","","",NA,NA,"","","",NA,NA,NA,"","","","",NA,NA,NA,NA,"","",NA,NA,"",NA,"","",NA,NA,NA,NA,"",NA,NA,"","",NA,NA,"","","",NA,NA,NA
"9","","rating","","html-slider-response",8,69056,"0.0-1.0-5.0",33,21859,"Female","2287","","",NA,"","70",3,37,"Stimuli/Experimental_stims/objects/alexander-andrews-VLGWE_SumrA-unsplash.jpg",NA,NA,NA,"",NA,NA,NA,NA,NA,NA,NA,NA,NA,NA,NA,NA,"","",NA,NA,"","","",NA,NA,"","","",NA,NA,NA,"","","","",NA,NA,NA,NA,"","",NA,NA,"",NA,"","",NA,NA,NA,NA,"",NA,NA,"","",NA,NA,"","","",NA,NA,NA
"10","","rating","","html-slider-response",9,71619,"0.0-1.0-6.0",33,21859,"Female","2549","","",NA,"","80",4,12,"Stimuli/Experimental_stims/faces/aiony-haust-jmATI5Q_YgY-unsplash.jpg",NA,NA,NA,"",NA,NA,NA,NA,NA,NA,NA,NA,NA,NA,NA,NA,"","",NA,NA,"","","",NA,NA,"","","",NA,NA,NA,"","","","",NA,NA,NA,NA,"","",NA,NA,"",NA,"","",NA,NA,NA,NA,"",NA,NA,"","",NA,NA,"","","",NA,NA,NA
"11","","rating","","html-slider-response",10,73440,"0.0-1.0-7.0",33,21859,"Female","1809","","",NA,"","75",5,13,"Stimuli/Experimental_stims/faces/daniel-rigdon-dXmXKPP2L4E-unsplash.jpg",NA,NA,NA,"",NA,NA,NA,NA,NA,NA,NA,NA,NA,NA,NA,NA,"","",NA,NA,"","","",NA,NA,"","","",NA,NA,NA,"","","","",NA,NA,NA,NA,"","",NA,NA,"",NA,"","",NA,NA,NA,NA,"",NA,NA,"","",NA,NA,"","","",NA,NA,NA
"12","","rating","","html-slider-response",11,75098,"0.0-1.0-8.0",33,21859,"Female","1643","","",NA,"","68",6,46,"Stimuli/Experimental_stims/objects/mockup-graphics-PNsj6RiHAF4-unsplash.jpg",NA,NA,NA,"",NA,NA,NA,NA,NA,NA,NA,NA,NA,NA,NA,NA,"","",NA,NA,"","","",NA,NA,"","","",NA,NA,NA,"","","","",NA,NA,NA,NA,"","",NA,NA,"",NA,"","",NA,NA,NA,NA,"",NA,NA,"","",NA,NA,"","","",NA,NA,NA
"13","","rating","","html-slider-response",12,77634,"0.0-1.0-9.0",33,21859,"Female","2511","","",NA,"","77",7,0,"Stimuli/Experimental_stims/outdoor_scenes/aleksandra-boguslawska-MS7KD9Ti7FQ-unsplash.jpg",NA,NA,NA,"",NA,NA,NA,NA,NA,NA,NA,NA,NA,NA,NA,NA,"","",NA,NA,"","","",NA,NA,"","","",NA,NA,NA,"","","","",NA,NA,NA,NA,"","",NA,NA,"",NA,"","",NA,NA,NA,NA,"",NA,NA,"","",NA,NA,"","","",NA,NA,NA
"14","","rating","","html-slider-response",13,79463,"0.0-1.0-10.0",33,21859,"Female","1810","","",NA,"","41",8,42,"Stimuli/Experimental_stims/objects/jess-bailey-nOeVi8DsN8U-unsplash.jpg",NA,NA,NA,"",NA,NA,NA,NA,NA,NA,NA,NA,NA,NA,NA,NA,"","",NA,NA,"","","",NA,NA,"","","",NA,NA,NA,"","","","",NA,NA,NA,NA,"","",NA,NA,"",NA,"","",NA,NA,NA,NA,"",NA,NA,"","",NA,NA,"","","",NA,NA,NA
"15","","rating","","html-slider-response",14,81845,"0.0-1.0-11.0",33,21859,"Female","2363","","",NA,"","66",9,29,"Stimuli/Experimental_stims/body_parts/manuel-schinner-ZwjFuJ7ebpk-unsplash.jpg",NA,NA,NA,"",NA,NA,NA,NA,NA,NA,NA,NA,NA,NA,NA,NA,"","",NA,NA,"","","",NA,NA,"","","",NA,NA,NA,"","","","",NA,NA,NA,NA,"","",NA,NA,"",NA,"","",NA,NA,NA,NA,"",NA,NA,"","",NA,NA,"","","",NA,NA,NA
"16","","rating","","html-slider-response",15,83870,"0.0-1.0-12.0",33,21859,"Female","2008","","",NA,"","73",10,45,"Stimuli/Experimental_stims/objects/leohoho-rngTKHXumy0-unsplash.jpg",NA,NA,NA,"",NA,NA,NA,NA,NA,NA,NA,NA,NA,NA,NA,NA,"","",NA,NA,"","","",NA,NA,"","","",NA,NA,NA,"","","","",NA,NA,NA,NA,"","",NA,NA,"",NA,"","",NA,NA,NA,NA,"",NA,NA,"","",NA,NA,"","","",NA,NA,NA
"17","","rating","","html-slider-response",16,85747,"0.0-1.0-13.0",33,21859,"Female","1859","","",NA,"","76",11,16,"Stimuli/Experimental_stims/faces/freddy-kearney-o-ioeoATbIM-unsplash.jpg",NA,NA,NA,"",NA,NA,NA,NA,NA,NA,NA,NA,NA,NA,NA,NA,"","",NA,NA,"","","",NA,NA,"","","",NA,NA,NA,"","","","",NA,NA,NA,NA,"","",NA,NA,"",NA,"","",NA,NA,NA,NA,"",NA,NA,"","",NA,NA,"","","",NA,NA,NA
"18","","rating","","html-slider-response",17,87810,"0.0-1.0-14.0",33,21859,"Female","2045","","",NA,"","81",12,35,"Stimuli/Experimental_stims/body_parts/wc-so-KH4AAPjb-tI-unsplash.jpg",NA,NA,NA,"",NA,NA,NA,NA,NA,NA,NA,NA,NA,NA,NA,NA,"","",NA,NA,"","","",NA,NA,"","","",NA,NA,NA,"","","","",NA,NA,NA,NA,"","",NA,NA,"",NA,"","",NA,NA,NA,NA,"",NA,NA,"","",NA,NA,"","","",NA,NA,NA
"19","","rating","","html-slider-response",18,90066,"0.0-1.0-15.0",33,21859,"Female","2241","","",NA,"","87",13,8,"Stimuli/Experimental_stims/outdoor_scenes/samsommer-vddccTqwal8-unsplash.jpg",NA,NA,NA,"",NA,NA,NA,NA,NA,NA,NA,NA,NA,NA,NA,NA,"","",NA,NA,"","","",NA,NA,"","","",NA,NA,NA,"","","","",NA,NA,NA,NA,"","",NA,NA,"",NA,"","",NA,NA,NA,NA,"",NA,NA,"","",NA,NA,"","","",NA,NA,NA
"20","","rating","","html-slider-response",19,92271,"0.0-1.0-16.0",33,21859,"Female","2175","","",NA,"","20",14,18,"Stimuli/Experimental_stims/faces/jessica-radanavong-mrYkTuAesKE-unsplash.jpg",NA,NA,NA,"",NA,NA,NA,NA,NA,NA,NA,NA,NA,NA,NA,NA,"","",NA,NA,"","","",NA,NA,"","","",NA,NA,NA,"","","","",NA,NA,NA,NA,"","",NA,NA,"",NA,"","",NA,NA,NA,NA,"",NA,NA,"","",NA,NA,"","","",NA,NA,NA
"21","","rating","","html-slider-response",20,94079,"0.0-1.0-17.0",33,21859,"Female","1794","","",NA,"","35",15,6,"Stimuli/Experimental_stims/outdoor_scenes/meng-ji-8BH_M-53CyA-unsplash.jpg",NA,NA,NA,"",NA,NA,NA,NA,NA,NA,NA,NA,NA,NA,NA,NA,"","",NA,NA,"","","",NA,NA,"","","",NA,NA,NA,"","","","",NA,NA,NA,NA,"","",NA,NA,"",NA,"","",NA,NA,NA,NA,"",NA,NA,"","",NA,NA,"","","",NA,NA,NA
"22","","rating","","html-slider-response",21,96740,"0.0-1.0-18.0",33,21859,"Female","2639","","",NA,"","66",16,2,"Stimuli/Experimental_stims/outdoor_scenes/bruno-van-der-kraan-qez8mNJ3ilU-unsplash.jpg",NA,NA,NA,"",NA,NA,NA,NA,NA,NA,NA,NA,NA,NA,NA,NA,"","",NA,NA,"","","",NA,NA,"","","",NA,NA,NA,"","","","",NA,NA,NA,NA,"","",NA,NA,"",NA,"","",NA,NA,NA,NA,"",NA,NA,"","",NA,NA,"","","",NA,NA,NA
"23","","rating","","html-slider-response",22,99045,"0.0-1.0-19.0",33,21859,"Female","2283","","",NA,"","24",17,33,"Stimuli/Experimental_stims/body_parts/tucker-good-36skLT5jZcc-unsplash.jpg",NA,NA,NA,"",NA,NA,NA,NA,NA,NA,NA,NA,NA,NA,NA,NA,"","",NA,NA,"","","",NA,NA,"","","",NA,NA,NA,"","","","",NA,NA,NA,NA,"","",NA,NA,"",NA,"","",NA,NA,NA,NA,"",NA,NA,"","",NA,NA,"","","",NA,NA,NA
"24","","rating","","html-slider-response",23,101223,"0.0-1.0-20.0",33,21859,"Female","2160","","",NA,"","72",18,25,"Stimuli/Experimental_stims/body_parts/engin-akyurt-Q2rfH3GW39c-unsplash.jpg",NA,NA,NA,"",NA,NA,NA,NA,NA,NA,NA,NA,NA,NA,NA,NA,"","",NA,NA,"","","",NA,NA,"","","",NA,NA,NA,"","","","",NA,NA,NA,NA,"","",NA,NA,"",NA,"","",NA,NA,NA,NA,"",NA,NA,"","",NA,NA,"","","",NA,NA,NA
"25","","rating","","html-slider-response",24,104255,"0.0-1.0-21.0",33,21859,"Female","2973","","",NA,"","87",19,4,"Stimuli/Experimental_stims/outdoor_scenes/jarrett-kow-1ZOyYPOBn7I-unsplash.jpg",NA,NA,NA,"",NA,NA,NA,NA,NA,NA,NA,NA,NA,NA,NA,NA,"","",NA,NA,"","","",NA,NA,"","","",NA,NA,NA,"","","","",NA,NA,NA,NA,"","",NA,NA,"",NA,"","",NA,NA,NA,NA,"",NA,NA,"","",NA,NA,"","","",NA,NA,NA
"26","","rating","","html-slider-response",25,106454,"0.0-1.0-22.0",33,21859,"Female","2167","","",NA,"","91",20,11,"Stimuli/Experimental_stims/outdoor_scenes/stephen-leonardi-gyIRjKPXupE-unsplash.jpg",NA,NA,NA,"",NA,NA,NA,NA,NA,NA,NA,NA,NA,NA,NA,NA,"","",NA,NA,"","","",NA,NA,"","","",NA,NA,NA,"","","","",NA,NA,NA,NA,"","",NA,NA,"",NA,"","",NA,NA,NA,NA,"",NA,NA,"","",NA,NA,"","","",NA,NA,NA
"27","","rating","","html-slider-response",26,110218,"0.0-1.0-23.0",33,21859,"Female","3742","","",NA,"","70",21,47,"Stimuli/Experimental_stims/objects/ronaldo-arthur-vidal-Cdz_lvnl37k-unsplash.jpg",NA,NA,NA,"",NA,NA,NA,NA,NA,NA,NA,NA,NA,NA,NA,NA,"","",NA,NA,"","","",NA,NA,"","","",NA,NA,NA,"","","","",NA,NA,NA,NA,"","",NA,NA,"",NA,"","",NA,NA,NA,NA,"",NA,NA,"","",NA,NA,"","","",NA,NA,NA
"28","","rating","","html-slider-response",27,119498,"0.0-1.0-24.0",33,21859,"Female","9262","","",NA,"","69",22,39,"Stimuli/Experimental_stims/objects/charlesdeluvio-1-nx1QR5dTE-unsplash.jpg",NA,NA,NA,"",NA,NA,NA,NA,NA,NA,NA,NA,NA,NA,NA,NA,"","",NA,NA,"","","",NA,NA,"","","",NA,NA,NA,"","","","",NA,NA,NA,NA,"","",NA,NA,"",NA,"","",NA,NA,NA,NA,"",NA,NA,"","",NA,NA,"","","",NA,NA,NA
"29","","rating","","html-slider-response",28,122959,"0.0-1.0-25.0",33,21859,"Female","3441","","",NA,"","80",23,3,"Stimuli/Experimental_stims/outdoor_scenes/henry-be-NLF6hTe4PAg-unsplash.jpg",NA,NA,NA,"",NA,NA,NA,NA,NA,NA,NA,NA,NA,NA,NA,NA,"","",NA,NA,"","","",NA,NA,"","","",NA,NA,NA,"","","","",NA,NA,NA,NA,"","",NA,NA,"",NA,"","",NA,NA,NA,NA,"",NA,NA,"","",NA,NA,"","","",NA,NA,NA
"30","","rating","","html-slider-response",29,128048,"0.0-1.0-26.0",33,21859,"Female","5065","","",NA,"","76",24,34,"Stimuli/Experimental_stims/body_parts/wagner-santos-mBWMvIuVnso-unsplash.jpg",NA,NA,NA,"",NA,NA,NA,NA,NA,NA,NA,NA,NA,NA,NA,NA,"","",NA,NA,"","","",NA,NA,"","","",NA,NA,NA,"","","","",NA,NA,NA,NA,"","",NA,NA,"",NA,"","",NA,NA,NA,NA,"",NA,NA,"","",NA,NA,"","","",NA,NA,NA
"31","","rating","","html-slider-response",30,130493,"0.0-1.0-27.0",33,21859,"Female","2427","","",NA,"","82",25,27,"Stimuli/Experimental_stims/body_parts/heike-mintel-i_Gns0ELnLw-unsplash.jpg",NA,NA,NA,"",NA,NA,NA,NA,NA,NA,NA,NA,NA,NA,NA,NA,"","",NA,NA,"","","",NA,NA,"","","",NA,NA,NA,"","","","",NA,NA,NA,NA,"","",NA,NA,"",NA,"","",NA,NA,NA,NA,"",NA,NA,"","",NA,NA,"","","",NA,NA,NA
"32","","rating","","html-slider-response",31,134186,"0.0-1.0-28.0",33,21859,"Female","3673","","",NA,"","67",26,43,"Stimuli/Experimental_stims/objects/jonathan-greenaway-Y4hGgeiFn3s-unsplash.jpg",NA,NA,NA,"",NA,NA,NA,NA,NA,NA,NA,NA,NA,NA,NA,NA,"","",NA,NA,"","","",NA,NA,"","","",NA,NA,NA,"","","","",NA,NA,NA,NA,"","",NA,NA,"",NA,"","",NA,NA,NA,NA,"",NA,NA,"","",NA,NA,"","","",NA,NA,NA
"33","","rating","","html-slider-response",32,136622,"0.0-1.0-29.0",33,21859,"Female","2425","","",NA,"","31",27,40,"Stimuli/Experimental_stims/objects/fabian-blank-pElSkGRA2NU-unsplash.jpg",NA,NA,NA,"",NA,NA,NA,NA,NA,NA,NA,NA,NA,NA,NA,NA,"","",NA,NA,"","","",NA,NA,"","","",NA,NA,NA,"","","","",NA,NA,NA,NA,"","",NA,NA,"",NA,"","",NA,NA,NA,NA,"",NA,NA,"","",NA,NA,"","","",NA,NA,NA
"34","","rating","","html-slider-response",33,138207,"0.0-1.0-30.0",33,21859,"Female","1573","","",NA,"","39",28,38,"Stimuli/Experimental_stims/objects/art-lasovsky-8XddFc6NkBY-unsplash.jpg",NA,NA,NA,"",NA,NA,NA,NA,NA,NA,NA,NA,NA,NA,NA,NA,"","",NA,NA,"","","",NA,NA,"","","",NA,NA,NA,"","","","",NA,NA,NA,NA,"","",NA,NA,"",NA,"","",NA,NA,NA,NA,"",NA,NA,"","",NA,NA,"","","",NA,NA,NA
"35","","rating","","html-slider-response",34,140524,"0.0-1.0-31.0",33,21859,"Female","2301","","",NA,"","77",29,9,"Stimuli/Experimental_stims/outdoor_scenes/sergey-pesterev-y-b_FOmJXdg-unsplash.jpg",NA,NA,NA,"",NA,NA,NA,NA,NA,NA,NA,NA,NA,NA,NA,NA,"","",NA,NA,"","","",NA,NA,"","","",NA,NA,NA,"","","","",NA,NA,NA,NA,"","",NA,NA,"",NA,"","",NA,NA,NA,NA,"",NA,NA,"","",NA,NA,"","","",NA,NA,NA
"36","","rating","","html-slider-response",35,143249,"0.0-1.0-32.0",33,21859,"Female","2708","","",NA,"","78",30,19,"Stimuli/Experimental_stims/faces/joel-mott-LaK153ghdig-unsplash.jpg",NA,NA,NA,"",NA,NA,NA,NA,NA,NA,NA,NA,NA,NA,NA,NA,"","",NA,NA,"","","",NA,NA,"","","",NA,NA,NA,"","","","",NA,NA,NA,NA,"","",NA,NA,"",NA,"","",NA,NA,NA,NA,"",NA,NA,"","",NA,NA,"","","",NA,NA,NA
"37","","rating","","html-slider-response",36,147193,"0.0-1.0-33.0",33,21859,"Female","3923","","",NA,"","75",31,24,"Stimuli/Experimental_stims/body_parts/clay-banks-LjqARJaJotc-unsplash.jpg",NA,NA,NA,"",NA,NA,NA,NA,NA,NA,NA,NA,NA,NA,NA,NA,"","",NA,NA,"","","",NA,NA,"","","",NA,NA,NA,"","","","",NA,NA,NA,NA,"","",NA,NA,"",NA,"","",NA,NA,NA,NA,"",NA,NA,"","",NA,NA,"","","",NA,NA,NA
"38","","rating","","html-slider-response",37,149322,"0.0-1.0-34.0",33,21859,"Female","2109","","",NA,"","28",32,14,"Stimuli/Experimental_stims/faces/david-siglin-UuW4psOb388-unsplash.jpg",NA,NA,NA,"",NA,NA,NA,NA,NA,NA,NA,NA,NA,NA,NA,NA,"","",NA,NA,"","","",NA,NA,"","","",NA,NA,NA,"","","","",NA,NA,NA,NA,"","",NA,NA,"",NA,"","",NA,NA,NA,NA,"",NA,NA,"","",NA,NA,"","","",NA,NA,NA
"39","","rating","","html-slider-response",38,151422,"0.0-1.0-35.0",33,21859,"Female","2088","","",NA,"","74",33,44,"Stimuli/Experimental_stims/objects/kuiye-chen-NuOGFo4PudE-unsplash.jpg",NA,NA,NA,"",NA,NA,NA,NA,NA,NA,NA,NA,NA,NA,NA,NA,"","",NA,NA,"","","",NA,NA,"","","",NA,NA,NA,"","","","",NA,NA,NA,NA,"","",NA,NA,"",NA,"","",NA,NA,NA,NA,"",NA,NA,"","",NA,NA,"","","",NA,NA,NA
"40","","rating","","html-slider-response",39,154777,"0.0-1.0-36.0",33,21859,"Female","3345","","",NA,"","75",34,15,"Stimuli/Experimental_stims/faces/erik-lucatero-d2MSDujJl2g-unsplash.jpg",NA,NA,NA,"",NA,NA,NA,NA,NA,NA,NA,NA,NA,NA,NA,NA,"","",NA,NA,"","","",NA,NA,"","","",NA,NA,NA,"","","","",NA,NA,NA,NA,"","",NA,NA,"",NA,"","",NA,NA,NA,NA,"",NA,NA,"","",NA,NA,"","","",NA,NA,NA
"41","","rating","","html-slider-response",40,157021,"0.0-1.0-37.0",33,21859,"Female","2232","","",NA,"","30",35,1,"Stimuli/Experimental_stims/outdoor_scenes/ashim-d-silva-S2Q5mdOrrVc-unsplash.jpg",NA,NA,NA,"",NA,NA,NA,NA,NA,NA,NA,NA,NA,NA,NA,NA,"","",NA,NA,"","","",NA,NA,"","","",NA,NA,NA,"","","","",NA,NA,NA,NA,"","",NA,NA,"",NA,"","",NA,NA,NA,NA,"",NA,NA,"","",NA,NA,"","","",NA,NA,NA
"42","","rating","","html-slider-response",41,160804,"0.0-1.0-38.0",33,21859,"Female","3770","","",NA,"","64",36,22,"Stimuli/Experimental_stims/faces/ravi-patel-VMGAbeeJTKo-unsplash.jpg",NA,NA,NA,"",NA,NA,NA,NA,NA,NA,NA,NA,NA,NA,NA,NA,"","",NA,NA,"","","",NA,NA,"","","",NA,NA,NA,"","","","",NA,NA,NA,NA,"","",NA,NA,"",NA,"","",NA,NA,NA,NA,"",NA,NA,"","",NA,NA,"","","",NA,NA,NA
"43","","rating","","html-slider-response",42,163144,"0.0-1.0-39.0",33,21859,"Female","2323","","",NA,"","73",37,26,"Stimuli/Experimental_stims/body_parts/engin-akyurt-x_3gyC42btc-unsplash.jpg",NA,NA,NA,"",NA,NA,NA,NA,NA,NA,NA,NA,NA,NA,NA,NA,"","",NA,NA,"","","",NA,NA,"","","",NA,NA,NA,"","","","",NA,NA,NA,NA,"","",NA,NA,"",NA,"","",NA,NA,NA,NA,"",NA,NA,"","",NA,NA,"","","",NA,NA,NA
"44","","rating","","html-slider-response",43,164776,"0.0-1.0-40.0",33,21859,"Female","1611","","",NA,"","79",38,31,"Stimuli/Experimental_stims/body_parts/sincerely-media-VN6DbKajo5s-unsplash.jpg",NA,NA,NA,"",NA,NA,NA,NA,NA,NA,NA,NA,NA,NA,NA,NA,"","",NA,NA,"","","",NA,NA,"","","",NA,NA,NA,"","","","",NA,NA,NA,NA,"","",NA,NA,"",NA,"","",NA,NA,NA,NA,"",NA,NA,"","",NA,NA,"","","",NA,NA,NA
"45","","rating","","html-slider-response",44,167813,"0.0-1.0-41.0",33,21859,"Female","3019","","",NA,"","80",39,36,"Stimuli/Experimental_stims/objects/alexander-andrews-JYGnB9gTCls-unsplash.jpg",NA,NA,NA,"",NA,NA,NA,NA,NA,NA,NA,NA,NA,NA,NA,NA,"","",NA,NA,"","","",NA,NA,"","","",NA,NA,NA,"","","","",NA,NA,NA,NA,"","",NA,NA,"",NA,"","",NA,NA,NA,NA,"",NA,NA,"","",NA,NA,"","","",NA,NA,NA
"46","","rating","","html-slider-response",45,170902,"0.0-1.0-42.0",33,21859,"Female","3073","","",NA,"","54",40,28,"Stimuli/Experimental_stims/body_parts/ira-vishnevskaya-8DQAvdCby1I-unsplash.jpg",NA,NA,NA,"",NA,NA,NA,NA,NA,NA,NA,NA,NA,NA,NA,NA,"","",NA,NA,"","","",NA,NA,"","","",NA,NA,NA,"","","","",NA,NA,NA,NA,"","",NA,NA,"",NA,"","",NA,NA,NA,NA,"",NA,NA,"","",NA,NA,"","","",NA,NA,NA
"47","","rating","","html-slider-response",46,172587,"0.0-1.0-43.0",33,21859,"Female","1664","","",NA,"","53",41,20,"Stimuli/Experimental_stims/faces/justin-chen-J7Cf1Gch49E-unsplash.jpg",NA,NA,NA,"",NA,NA,NA,NA,NA,NA,NA,NA,NA,NA,NA,NA,"","",NA,NA,"","","",NA,NA,"","","",NA,NA,NA,"","","","",NA,NA,NA,NA,"","",NA,NA,"",NA,"","",NA,NA,NA,NA,"",NA,NA,"","",NA,NA,"","","",NA,NA,NA
"48","","rating","","html-slider-response",47,174705,"0.0-1.0-44.0",33,21859,"Female","2097","","",NA,"","52",42,41,"Stimuli/Experimental_stims/objects/insung-yoon-w2JtIQQXoRU-unsplash.jpg",NA,NA,NA,"",NA,NA,NA,NA,NA,NA,NA,NA,NA,NA,NA,NA,"","",NA,NA,"","","",NA,NA,"","","",NA,NA,NA,"","","","",NA,NA,NA,NA,"","",NA,NA,"",NA,"","",NA,NA,NA,NA,"",NA,NA,"","",NA,NA,"","","",NA,NA,NA
"49","","rating","","html-slider-response",48,176498,"0.0-1.0-45.0",33,21859,"Female","1779","","",NA,"","54",43,7,"Stimuli/Experimental_stims/outdoor_scenes/petr-vysohlid-9fqwGqGLUxc-unsplash.jpg",NA,NA,NA,"",NA,NA,NA,NA,NA,NA,NA,NA,NA,NA,NA,NA,"","",NA,NA,"","","",NA,NA,"","","",NA,NA,NA,"","","","",NA,NA,NA,NA,"","",NA,NA,"",NA,"","",NA,NA,NA,NA,"",NA,NA,"","",NA,NA,"","","",NA,NA,NA
"50","","rating","","html-slider-response",49,178300,"0.0-1.0-46.0",33,21859,"Female","1787","","",NA,"","46",44,5,"Stimuli/Experimental_stims/outdoor_scenes/jeff-king-bJHWJeiHfHc-unsplash.jpg",NA,NA,NA,"",NA,NA,NA,NA,NA,NA,NA,NA,NA,NA,NA,NA,"","",NA,NA,"","","",NA,NA,"","","",NA,NA,NA,"","","","",NA,NA,NA,NA,"","",NA,NA,"",NA,"","",NA,NA,NA,NA,"",NA,NA,"","",NA,NA,"","","",NA,NA,NA
"51","","rating","","html-slider-response",50,180174,"0.0-1.0-47.0",33,21859,"Female","1857","","",NA,"","45",45,30,"Stimuli/Experimental_stims/body_parts/mika-korhonen-Xodzxosar18-unsplash.jpg",NA,NA,NA,"",NA,NA,NA,NA,NA,NA,NA,NA,NA,NA,NA,NA,"","",NA,NA,"","","",NA,NA,"","","",NA,NA,NA,"","","","",NA,NA,NA,NA,"","",NA,NA,"",NA,"","",NA,NA,NA,NA,"",NA,NA,"","",NA,NA,"","","",NA,NA,NA
"52","","rating","","html-slider-response",51,185414,"0.0-1.0-48.0",33,21859,"Female","5227","","",NA,"","47",46,32,"Stimuli/Experimental_stims/body_parts/towfiqu-barbhuiya-3AsiVDsZnHg-unsplash.jpg",NA,NA,NA,"",NA,NA,NA,NA,NA,NA,NA,NA,NA,NA,NA,NA,"","",NA,NA,"","","",NA,NA,"","","",NA,NA,NA,"","","","",NA,NA,NA,NA,"","",NA,NA,"",NA,"","",NA,NA,NA,NA,"",NA,NA,"","",NA,NA,"","","",NA,NA,NA
"53","","rating","","html-slider-response",52,187758,"0.0-1.0-49.0",33,21859,"Female","2330","","",NA,"","47",47,21,"Stimuli/Experimental_stims/faces/leilani-angel-K84vnnzxmTQ-unsplash.jpg",NA,NA,NA,"",NA,NA,NA,NA,NA,NA,NA,NA,NA,NA,NA,NA,"","",NA,NA,"","","",NA,NA,"","","",NA,NA,NA,"","","","",NA,NA,NA,NA,"","",NA,NA,"",NA,"","",NA,NA,NA,NA,"",NA,NA,"","",NA,NA,"","","",NA,NA,NA
"54","","localizer_instructions","","instructions",53,201244,"0.0-2.0-0.0-0.0",33,21859,"Female","13307","","[{""page_index"":0,""viewing_time"":5509},{""page_index"":1,""viewing_time"":5341},{""page_index"":2,""viewing_time"":2457}]",NA,"","",NA,NA,"",NA,NA,NA,"",NA,NA,NA,NA,NA,NA,NA,NA,NA,NA,NA,NA,"","",NA,NA,"","","",NA,NA,"","","",NA,NA,NA,"","","","",NA,NA,NA,NA,"","",NA,NA,"",NA,"","",NA,NA,NA,NA,"",NA,NA,"","",NA,NA,"","","",NA,NA,NA
"55","","localizer_comprehension_check","","survey-multi-choice",54,209581,"0.0-2.0-0.0-1.0",33,21859,"Female","8315","{""Q0"":""True"",""Q1"":""D"",""Q2"":""K""}","",1,"","",NA,NA,"",NA,NA,NA,"",NA,NA,NA,NA,NA,NA,NA,NA,NA,NA,NA,NA,"","",NA,NA,"","","",NA,NA,"","","",NA,NA,NA,"","","","",NA,NA,NA,NA,"","",NA,NA,"",NA,"","",NA,NA,NA,NA,"",NA,NA,"","",NA,NA,"","","",NA,NA,NA
"56","","missed_instruction_checkup","","html-keyboard-response",55,213860,"0.0-2.0-0.0-2.0-0.0",33,21859,"Female","4265","","",NA,"68","",NA,NA,"",1,NA,NA,"",NA,NA,NA,NA,NA,NA,NA,NA,NA,NA,NA,NA,"","",NA,NA,"","","",NA,NA,"","","",NA,NA,NA,"","","","",NA,NA,NA,NA,"","",NA,NA,"",NA,"","",NA,NA,NA,NA,"",NA,NA,"","",NA,NA,"","","",NA,NA,NA
"57","","localizer_instructions","","instructions",56,219115,"0.0-2.0-0.1-0.1",33,21859,"Female","5245","","[{""page_index"":0,""viewing_time"":2060},{""page_index"":1,""viewing_time"":1258},{""page_index"":2,""viewing_time"":1927}]",NA,"","",NA,NA,"",NA,NA,NA,"",NA,NA,NA,NA,NA,NA,NA,NA,NA,NA,NA,NA,"","",NA,NA,"","","",NA,NA,"","","",NA,NA,NA,"","","","",NA,NA,NA,NA,"","",NA,NA,"",NA,"","",NA,NA,NA,NA,"",NA,NA,"","",NA,NA,"","","",NA,NA,NA
"58","","localizer_comprehension_check","","survey-multi-choice",57,226411,"0.0-2.0-0.1-1.1",33,21859,"Female","7285","{""Q0"":""True"",""Q1"":""K"",""Q2"":""D""}","",0,"","",NA,NA,"",NA,NA,NA,"",NA,NA,NA,NA,NA,NA,NA,NA,NA,NA,NA,NA,"","",NA,NA,"","","",NA,NA,"","","",NA,NA,NA,"","","","",NA,NA,NA,NA,"","",NA,NA,"",NA,"","",NA,NA,NA,NA,"",NA,NA,"","",NA,NA,"","","",NA,NA,NA
"59","","","","html-keyboard-response",58,231282,"0.0-2.0-1.0",33,21859,"Female","4858","","",NA,"68","",NA,NA,"",NA,NA,NA,"",NA,NA,NA,NA,NA,NA,NA,NA,NA,NA,NA,NA,"","",NA,NA,"","","",NA,NA,"","","",NA,NA,NA,"","","","",NA,NA,NA,NA,"","",NA,NA,"",NA,"","",NA,NA,NA,NA,"",NA,NA,"","",NA,NA,"","","",NA,NA,NA
"60","","localizer","","html-keyboard-response",59,231711,"0.0-2.0-2.0-0.0",33,21859,"Female",NA,"","",NA,NA,NA,0,NA,"Stimuli/Practice_stims/Localizer/annie-spratt-g9KFpAfQ5bc-unsplash.jpg",NA,231282,0,NA,NA,0,1,0,400,0,429,0,NA,NA,NA,NA,"","",NA,NA,"","","",NA,NA,"","","",NA,NA,NA,"","","","",NA,NA,NA,NA,"","",NA,NA,"",NA,"","",NA,NA,NA,NA,"",NA,NA,"","",NA,NA,"","","",NA,NA,NA
"61","","iti_localizer","","html-keyboard-response",60,232044,"0.0-2.0-2.0-1.0",33,21859,"Female",NA,"","",NA,NA,"",0,NA,"",NA,231711,0,"",NA,NA,NA,NA,300,400,333,429,300,NA,NA,NA,"","",NA,NA,"","","",NA,NA,"","","",NA,NA,NA,"","","","",NA,NA,NA,NA,"","",NA,NA,"",NA,"","",NA,NA,NA,NA,"",NA,NA,"","",NA,NA,"","","",NA,NA,NA
"62","","localizer","","html-keyboard-response",61,232476,"0.0-2.0-2.1-0.1",33,21859,"Female",NA,"","",NA,NA,NA,0,NA,"Stimuli/Practice_stims/Localizer/annie-spratt-g9KFpAfQ5bc-unsplash.jpg",NA,232044,0,NA,NA,0,1,0,400,700,432,762,NA,NA,NA,NA,"","",NA,NA,"","","",NA,NA,"","","",NA,NA,NA,"","","","",NA,NA,NA,NA,"","",NA,NA,"",NA,"","",NA,NA,NA,NA,"",NA,NA,"","",NA,NA,"","","",NA,NA,NA
"63","","iti_localizer","","html-keyboard-response",62,232803,"0.0-2.0-2.1-1.1",33,21859,"Female",NA,"","",NA,NA,"",0,NA,"",NA,232476,0,"",NA,NA,NA,NA,300,1100,327,1194,300,NA,NA,NA,"","",NA,NA,"","","",NA,NA,"","","",NA,NA,NA,"","","","",NA,NA,NA,NA,"","",NA,NA,"",NA,"","",NA,NA,NA,NA,"",NA,NA,"","",NA,NA,"","","",NA,NA,NA
"64","","localizer","","html-keyboard-response",63,233232,"0.0-2.0-2.2-0.2",33,21859,"Female","258","","",NA,"68","0",0,NA,"Stimuli/Practice_stims/Localizer/annie-spratt-g9KFpAfQ5bc-unsplash.jpg",NA,232803,0,NA,NA,0,0,1,400,1400,429,1521,NA,NA,NA,NA,"","",NA,NA,"","","",NA,NA,"","","",NA,NA,NA,"","","","",NA,NA,NA,NA,"","",NA,NA,"",NA,"","",NA,NA,NA,NA,"",NA,NA,"","",NA,NA,"","","",NA,NA,NA
"65","","iti_localizer","","html-keyboard-response",64,233633,"0.0-2.0-2.2-1.2",33,21859,"Female",NA,"","",NA,NA,"",0,NA,"",NA,233232,0,"",NA,NA,NA,NA,300,1800,401,1950,300,NA,NA,NA,"","",NA,NA,"","","",NA,NA,"","","",NA,NA,NA,"","","","",NA,NA,NA,NA,"","",NA,NA,"",NA,"","",NA,NA,NA,NA,"",NA,NA,"","",NA,NA,"","","",NA,NA,NA
"66","","localizer","","html-keyboard-response",65,234067,"0.0-2.0-3.0-0.0",33,21859,"Female","23","","",NA,"68","0",1,NA,"Stimuli/Practice_stims/Localizer/becca-tapert-sY5RjMB1KkE-unsplash.jpg",NA,233633,0,NA,NA,0,0,1,400,2100,434,2351,NA,NA,NA,NA,"","",NA,NA,"","","",NA,NA,"","","",NA,NA,NA,"","","","",NA,NA,NA,NA,"","",NA,NA,"",NA,"","",NA,NA,NA,NA,"",NA,NA,"","",NA,NA,"","","",NA,NA,NA
"67","","iti_localizer","","html-keyboard-response",66,234381,"0.0-2.0-3.0-1.0",33,21859,"Female",NA,"","",NA,NA,"",1,NA,"",NA,234067,0,"",NA,NA,NA,NA,300,2500,314,2785,300,NA,NA,NA,"","",NA,NA,"","","",NA,NA,"","","",NA,NA,NA,"","","","",NA,NA,NA,NA,"","",NA,NA,"",NA,"","",NA,NA,NA,NA,"",NA,NA,"","",NA,NA,"","","",NA,NA,NA
"68","","localizer","","html-keyboard-response",67,234826,"0.0-2.0-4.0-0.0",33,21859,"Female","117","","",NA,"68","0",2,NA,"Stimuli/Practice_stims/Localizer/charl-durand-bsfXvI25iNg-unsplash.jpg",NA,234381,0,NA,NA,1,0,0,400,2800,445,3099,NA,NA,NA,NA,"","",NA,NA,"","","",NA,NA,"","","",NA,NA,NA,"","","","",NA,NA,NA,NA,"","",NA,NA,"",NA,"","",NA,NA,NA,NA,"",NA,NA,"","",NA,NA,"","","",NA,NA,NA
"69","","iti_localizer","","html-keyboard-response",68,235217,"0.0-2.0-4.0-1.0",33,21859,"Female",NA,"","",NA,NA,"",2,NA,"",NA,234826,0,"",NA,NA,NA,NA,300,3200,391,3544,300,NA,NA,NA,"","",NA,NA,"","","",NA,NA,"","","",NA,NA,NA,"","","","",NA,NA,NA,NA,"","",NA,NA,"",NA,"","",NA,NA,NA,NA,"",NA,NA,"","",NA,NA,"","","",NA,NA,NA
"70","","localizer","","html-keyboard-response",69,235636,"0.0-2.0-5.0-0.0",33,21859,"Female","68","","",NA,"75","1",3,NA,"Stimuli/Practice_stims/Localizer/nizar-albusaidy-B2r2SWAf5CE-unsplash.jpg",NA,235217,0,NA,NA,0,0,0,400,3500,419,3935,NA,NA,NA,NA,"","",NA,NA,"","","",NA,NA,"","","",NA,NA,NA,"","","","",NA,NA,NA,NA,"","",NA,NA,"",NA,"","",NA,NA,NA,NA,"",NA,NA,"","",NA,NA,"","","",NA,NA,NA
"71","","iti_localizer","","html-keyboard-response",70,235960,"0.0-2.0-5.0-1.0",33,21859,"Female",NA,"","",NA,NA,"",3,NA,"",NA,235636,0,"",NA,NA,NA,NA,300,3900,324,4354,300,NA,NA,NA,"","",NA,NA,"","","",NA,NA,"","","",NA,NA,NA,"","","","",NA,NA,NA,NA,"","",NA,NA,"",NA,"","",NA,NA,NA,NA,"",NA,NA,"","",NA,NA,"","","",NA,NA,NA
"72","","localizer","","html-keyboard-response",71,236378,"0.0-2.0-6.0-0.0",33,21859,"Female","35","","",NA,"75","1",4,NA,"Stimuli/Practice_stims/Localizer/randy-fath-epf1tdtIIkM-unsplash.jpg",NA,235960,0,NA,NA,1,0,1,400,4200,418,4678,NA,NA,NA,NA,"","",NA,NA,"","","",NA,NA,"","","",NA,NA,NA,"","","","",NA,NA,NA,NA,"","",NA,NA,"",NA,"","",NA,NA,NA,NA,"",NA,NA,"","",NA,NA,"","","",NA,NA,NA
"73","","iti_localizer","","html-keyboard-response",72,236725,"0.0-2.0-6.0-1.0",33,21859,"Female",NA,"","",NA,NA,"",4,NA,"",NA,236378,0,"",NA,NA,NA,NA,300,4600,347,5096,300,NA,NA,NA,"","",NA,NA,"","","",NA,NA,"","","",NA,NA,NA,"","","","",NA,NA,NA,NA,"","",NA,NA,"",NA,"","",NA,NA,NA,NA,"",NA,NA,"","",NA,NA,"","","",NA,NA,NA
"74","","localizer","","html-keyboard-response",73,237212,"0.0-2.0-7.0-0.0",33,21859,"Female","19","","",NA,"75","1",5,NA,"Stimuli/Practice_stims/Localizer/yassine-khalfalli-adsQ9d_Cx0c-unsplash.jpg",NA,236725,0,NA,NA,0,0,0,400,4900,487,5443,NA,NA,NA,NA,"","",NA,NA,"","","",NA,NA,"","","",NA,NA,NA,"","","","",NA,NA,NA,NA,"","",NA,NA,"",NA,"","",NA,NA,NA,NA,"",NA,NA,"","",NA,NA,"","","",NA,NA,NA
"75","","iti_localizer","","html-keyboard-response",74,237594,"0.0-2.0-7.0-1.0",33,21859,"Female",NA,"","",NA,NA,"",5,NA,"",NA,237212,0,"",NA,NA,NA,NA,300,5300,382,5930,300,NA,NA,NA,"","",NA,NA,"","","",NA,NA,"","","",NA,NA,NA,"","","","",NA,NA,NA,NA,"","",NA,NA,"",NA,"","",NA,NA,NA,NA,"",NA,NA,"","",NA,NA,"","","",NA,NA,NA
"76","","practice_over","","html-keyboard-response",75,237715,"0.0-2.0-7.0-2.0-0.0",33,21859,"Female","112","","",NA,"68","",NA,NA,"",NA,NA,NA,"",NA,NA,NA,NA,NA,NA,NA,NA,NA,NA,NA,NA,"","",NA,NA,"","","",NA,NA,"","","",NA,NA,NA,"","","","",NA,NA,NA,NA,"","",NA,NA,"",NA,"","",NA,NA,NA,NA,"",NA,NA,"","",NA,NA,"","","",NA,NA,NA
"77","","start_run","","html-keyboard-response",76,241305,"0.0-2.0-7.0-2.0-1.0",33,21859,"Female","3580","","",NA,"84","",NA,NA,"",NA,NA,NA,"",NA,NA,NA,NA,NA,NA,NA,NA,NA,NA,NA,NA,"","",NA,NA,"","","",NA,NA,"","","",NA,NA,NA,"","","","",NA,NA,NA,NA,"","",NA,NA,"",NA,"","",NA,NA,NA,NA,"",NA,NA,"","",NA,NA,"","","",NA,NA,NA
"78","","localizer","","html-keyboard-response",77,242117,"0.0-2.0-8.0-0.0",33,21859,"Female",NA,"","",NA,NA,NA,6,NA,"Stimuli/Experimental_stims/localizer/faces/allef-vinicius-C_1jjFJioWg-unsplash.jpg",NA,241305,1,"faces",NA,0,1,0,400,0,812,0,NA,NA,NA,NA,"","",NA,NA,"","","",NA,NA,"","","",NA,NA,NA,"","","","",NA,NA,NA,NA,"","",NA,NA,"",NA,"","",NA,NA,NA,NA,"",NA,NA,"","",NA,NA,"","","",NA,NA,NA
"79","","iti_localizer","","html-keyboard-response",78,242440,"0.0-2.0-8.0-1.0",33,21859,"Female",NA,"","",NA,NA,"",6,NA,"",NA,242117,1,"",NA,NA,NA,NA,300,400,323,812,300,NA,NA,NA,"","",NA,NA,"","","",NA,NA,"","","",NA,NA,NA,"","","","",NA,NA,NA,NA,"","",NA,NA,"",NA,"","",NA,NA,NA,NA,"",NA,NA,"","",NA,NA,"","","",NA,NA,NA
"80","","localizer","","html-keyboard-response",79,242857,"0.0-2.0-9.0-0.0",33,21859,"Female","5","","",NA,"68","0",7,NA,"Stimuli/Experimental_stims/localizer/faces/ayo-ogunseinde-sibVwORYqs0-unsplash.jpg",NA,242440,1,"faces",NA,1,0,0,400,700,417,1135,NA,NA,NA,NA,"","",NA,NA,"","","",NA,NA,"","","",NA,NA,NA,"","","","",NA,NA,NA,NA,"","",NA,NA,"",NA,"","",NA,NA,NA,NA,"",NA,NA,"","",NA,NA,"","","",NA,NA,NA
"81","","iti_localizer","","html-keyboard-response",80,243266,"0.0-2.0-9.0-1.0",33,21859,"Female",NA,"","",NA,NA,"",7,NA,"",NA,242857,1,"",NA,NA,NA,NA,300,1100,409,1552,300,NA,NA,NA,"","",NA,NA,"","","",NA,NA,"","","",NA,NA,NA,"","","","",NA,NA,NA,NA,"","",NA,NA,"",NA,"","",NA,NA,NA,NA,"",NA,NA,"","",NA,NA,"","","",NA,NA,NA
"82","","localizer","","html-keyboard-response",81,243766,"0.0-2.0-10.0-0.0",33,21859,"Female","62","","",NA,"75","1",8,NA,"Stimuli/Experimental_stims/localizer/faces/abstral-official-cyOKLSgkgCE-unsplash.jpg",NA,243266,1,"faces",NA,0,0,0,400,1400,500,1961,NA,NA,NA,NA,"","",NA,NA,"","","",NA,NA,"","","",NA,NA,NA,"","","","",NA,NA,NA,NA,"","",NA,NA,"",NA,"","",NA,NA,NA,NA,"",NA,NA,"","",NA,NA,"","","",NA,NA,NA
"83","","iti_localizer","","html-keyboard-response",82,244213,"0.0-2.0-10.0-1.0",33,21859,"Female",NA,"","",NA,NA,"",8,NA,"",NA,243766,1,"",NA,NA,NA,NA,300,1800,447,2461,300,NA,NA,NA,"","",NA,NA,"","","",NA,NA,"","","",NA,NA,NA,"","","","",NA,NA,NA,NA,"","",NA,NA,"",NA,"","",NA,NA,NA,NA,"",NA,NA,"","",NA,NA,"","","",NA,NA,NA
"84","","localizer","","html-keyboard-response",83,244648,"0.0-2.0-11.0-0.0",33,21859,"Female","5","","",NA,"68","0",9,NA,"Stimuli/Experimental_stims/localizer/faces/hisu-lee-2qvxIr_DXGo-unsplash.jpg",NA,244213,1,"faces",NA,0,0,1,400,2100,435,2908,NA,NA,NA,NA,"","",NA,NA,"","","",NA,NA,"","","",NA,NA,NA,"","","","",NA,NA,NA,NA,"","",NA,NA,"",NA,"","",NA,NA,NA,NA,"",NA,NA,"","",NA,NA,"","","",NA,NA,NA
"85","","iti_localizer","","html-keyboard-response",84,244957,"0.0-2.0-11.0-1.0",33,21859,"Female",NA,"","",NA,NA,"",9,NA,"",NA,244648,1,"",NA,NA,NA,NA,300,2500,309,3343,300,NA,NA,NA,"","",NA,NA,"","","",NA,NA,"","","",NA,NA,NA,"","","","",NA,NA,NA,NA,"","",NA,NA,"",NA,"","",NA,NA,NA,NA,"",NA,NA,"","",NA,NA,"","","",NA,NA,NA
"86","","localizer","","html-keyboard-response",85,245383,"0.0-2.0-12.0-0.0",33,21859,"Female","268","","",NA,"68","0",10,NA,"Stimuli/Experimental_stims/localizer/faces/austin-wade-X6Uj51n5CE8-unsplash.jpg",NA,244957,1,"faces",NA,0,0,1,400,2800,426,3652,NA,NA,NA,NA,"","",NA,NA,"","","",NA,NA,"","","",NA,NA,NA,"","","","",NA,NA,NA,NA,"","",NA,NA,"",NA,"","",NA,NA,NA,NA,"",NA,NA,"","",NA,NA,"","","",NA,NA,NA
"87","","iti_localizer","","html-keyboard-response",86,245727,"0.0-2.0-12.0-1.0",33,21859,"Female",NA,"","",NA,NA,"",10,NA,"",NA,245383,1,"",NA,NA,NA,NA,300,3200,344,4078,300,NA,NA,NA,"","",NA,NA,"","","",NA,NA,"","","",NA,NA,NA,"","","","",NA,NA,NA,NA,"","",NA,NA,"",NA,"","",NA,NA,NA,NA,"",NA,NA,"","",NA,NA,"","","",NA,NA,NA
"88","","localizer","","html-keyboard-response",87,246170,"0.0-2.0-13.0-0.0",33,21859,"Female","86","","",NA,"75","1",11,NA,"Stimuli/Experimental_stims/localizer/faces/darshan-patel-QJEVpydulGs-unsplash.jpg",NA,245727,1,"faces",NA,0,0,0,400,3500,443,4422,NA,NA,NA,NA,"","",NA,NA,"","","",NA,NA,"","","",NA,NA,NA,"","","","",NA,NA,NA,NA,"","",NA,NA,"",NA,"","",NA,NA,NA,NA,"",NA,NA,"","",NA,NA,"","","",NA,NA,NA
"89","","iti_localizer","","html-keyboard-response",88,246489,"0.0-2.0-13.0-1.0",33,21859,"Female",NA,"","",NA,NA,"",11,NA,"",NA,246170,1,"",NA,NA,NA,NA,300,3900,319,4865,300,NA,NA,NA,"","",NA,NA,"","","",NA,NA,"","","",NA,NA,NA,"","","","",NA,NA,NA,NA,"","",NA,NA,"",NA,"","",NA,NA,NA,NA,"",NA,NA,"","",NA,NA,"","","",NA,NA,NA
"90","","localizer","","html-keyboard-response",89,246901,"0.0-2.0-14.0-0.0",33,21859,"Female","17","","",NA,"75","1",12,NA,"Stimuli/Experimental_stims/localizer/faces/aleksandar-popovski-Jy4ELSGPHTc-unsplash.jpg",NA,246489,1,"faces",NA,0,0,0,400,4200,412,5184,NA,NA,NA,NA,"","",NA,NA,"","","",NA,NA,"","","",NA,NA,NA,"","","","",NA,NA,NA,NA,"","",NA,NA,"",NA,"","",NA,NA,NA,NA,"",NA,NA,"","",NA,NA,"","","",NA,NA,NA
"91","","iti_localizer","","html-keyboard-response",90,247212,"0.0-2.0-14.0-1.0",33,21859,"Female",NA,"","",NA,NA,"",12,NA,"",NA,246901,1,"",NA,NA,NA,NA,300,4600,311,5596,300,NA,NA,NA,"","",NA,NA,"","","",NA,NA,"","","",NA,NA,NA,"","","","",NA,NA,NA,NA,"","",NA,NA,"",NA,"","",NA,NA,NA,NA,"",NA,NA,"","",NA,NA,"","","",NA,NA,NA
"92","","localizer","","html-keyboard-response",91,247629,"0.0-2.0-15.0-0.0",33,21859,"Female","1","","",NA,"75","1",13,NA,"Stimuli/Experimental_stims/localizer/faces/ethan-haddox-__ng3cRXmFE-unsplash.jpg",NA,247212,1,"faces",NA,0,0,0,400,4900,417,5907,NA,NA,NA,NA,"","",NA,NA,"","","",NA,NA,"","","",NA,NA,NA,"","","","",NA,NA,NA,NA,"","",NA,NA,"",NA,"","",NA,NA,NA,NA,"",NA,NA,"","",NA,NA,"","","",NA,NA,NA
"93","","iti_localizer","","html-keyboard-response",92,247950,"0.0-2.0-15.0-1.0",33,21859,"Female",NA,"","",NA,NA,"",13,NA,"",NA,247629,1,"",NA,NA,NA,NA,300,5300,321,6324,300,NA,NA,NA,"","",NA,NA,"","","",NA,NA,"","","",NA,NA,NA,"","","","",NA,NA,NA,NA,"","",NA,NA,"",NA,"","",NA,NA,NA,NA,"",NA,NA,"","",NA,NA,"","","",NA,NA,NA
"94","","localizer","","html-keyboard-response",93,248468,"0.0-2.0-16.0-0.0",33,21859,"Female","171","","",NA,"75","1",14,NA,"Stimuli/Experimental_stims/localizer/faces/jake-nackos-IF9TK5Uy-KI-unsplash.jpg",NA,247950,1,"faces",NA,0,0,0,400,5600,518,6645,NA,NA,NA,NA,"","",NA,NA,"","","",NA,NA,"","","",NA,NA,NA,"","","","",NA,NA,NA,NA,"","",NA,NA,"",NA,"","",NA,NA,NA,NA,"",NA,NA,"","",NA,NA,"","","",NA,NA,NA
"95","","iti_localizer","","html-keyboard-response",94,248794,"0.0-2.0-16.0-1.0",33,21859,"Female",NA,"","",NA,NA,"",14,NA,"",NA,248468,1,"",NA,NA,NA,NA,300,6000,326,7163,300,NA,NA,NA,"","",NA,NA,"","","",NA,NA,"","","",NA,NA,NA,"","","","",NA,NA,NA,NA,"","",NA,NA,"",NA,"","",NA,NA,NA,NA,"",NA,NA,"","",NA,NA,"","","",NA,NA,NA
"96","","localizer","","html-keyboard-response",95,249216,"0.0-2.0-17.0-0.0",33,21859,"Female","48","","",NA,"68","0",15,NA,"Stimuli/Experimental_stims/localizer/faces/mubariz-mehdizadeh-o-wlIFT4zE4-unsplash.jpg",NA,248794,1,"faces",NA,0,0,1,400,6300,422,7489,NA,NA,NA,NA,"","",NA,NA,"","","",NA,NA,"","","",NA,NA,NA,"","","","",NA,NA,NA,NA,"","",NA,NA,"",NA,"","",NA,NA,NA,NA,"",NA,NA,"","",NA,NA,"","","",NA,NA,NA
"97","","iti_localizer","","html-keyboard-response",96,249536,"0.0-2.0-17.0-1.0",33,21859,"Female",NA,"","",NA,NA,"",15,NA,"",NA,249216,1,"",NA,NA,NA,NA,300,6700,320,7911,300,NA,NA,NA,"","",NA,NA,"","","",NA,NA,"","","",NA,NA,NA,"","","","",NA,NA,NA,NA,"","",NA,NA,"",NA,"","",NA,NA,NA,NA,"",NA,NA,"","",NA,NA,"","","",NA,NA,NA
"98","","localizer","","html-keyboard-response",97,249948,"0.0-2.0-18.0-0.0",33,21859,"Female","3","","",NA,"68","0",16,NA,"Stimuli/Experimental_stims/localizer/faces/stephanie-nakagawa-ADSKIn0ScDg-unsplash.jpg",NA,249536,1,"faces",NA,0,0,1,400,7000,412,8231,NA,NA,NA,NA,"","",NA,NA,"","","",NA,NA,"","","",NA,NA,NA,"","","","",NA,NA,NA,NA,"","",NA,NA,"",NA,"","",NA,NA,NA,NA,"",NA,NA,"","",NA,NA,"","","",NA,NA,NA
"99","","iti_localizer","","html-keyboard-response",98,250268,"0.0-2.0-18.0-1.0",33,21859,"Female",NA,"","",NA,NA,"",16,NA,"",NA,249948,1,"",NA,NA,NA,NA,300,7400,320,8643,300,NA,NA,NA,"","",NA,NA,"","","",NA,NA,"","","",NA,NA,NA,"","","","",NA,NA,NA,NA,"","",NA,NA,"",NA,"","",NA,NA,NA,NA,"",NA,NA,"","",NA,NA,"","","",NA,NA,NA
"100","","localizer","","html-keyboard-response",99,250690,"0.0-2.0-19.0-0.0",33,21859,"Female","30","","",NA,"75","1",17,NA,"Stimuli/Experimental_stims/localizer/faces/foto-sushi-6anudmpILw4-unsplash.jpg",NA,250268,1,"faces",NA,0,0,0,400,7700,422,8963,NA,NA,NA,NA,"","",NA,NA,"","","",NA,NA,"","","",NA,NA,NA,"","","","",NA,NA,NA,NA,"","",NA,NA,"",NA,"","",NA,NA,NA,NA,"",NA,NA,"","",NA,NA,"","","",NA,NA,NA
"101","","iti_localizer","","html-keyboard-response",100,251006,"0.0-2.0-19.0-1.0",33,21859,"Female",NA,"","",NA,NA,"",17,NA,"",NA,250690,1,"",NA,NA,NA,NA,300,8100,316,9385,300,NA,NA,NA,"","",NA,NA,"","","",NA,NA,"","","",NA,NA,NA,"","","","",NA,NA,NA,NA,"","",NA,NA,"",NA,"","",NA,NA,NA,NA,"",NA,NA,"","",NA,NA,"","","",NA,NA,NA
"102","","localizer","","html-keyboard-response",101,251431,"0.0-2.0-20.0-0.0",33,21859,"Female","199","","",NA,"75","1",18,NA,"Stimuli/Experimental_stims/localizer/faces/samuel-dixon--fQ5XNOcqFQ-unsplash.jpg",NA,251006,1,"faces",NA,0,0,0,400,8400,425,9701,NA,NA,NA,NA,"","",NA,NA,"","","",NA,NA,"","","",NA,NA,NA,"","","","",NA,NA,NA,NA,"","",NA,NA,"",NA,"","",NA,NA,NA,NA,"",NA,NA,"","",NA,NA,"","","",NA,NA,NA
"103","","iti_localizer","","html-keyboard-response",102,251759,"0.0-2.0-20.0-1.0",33,21859,"Female",NA,"","",NA,NA,"",18,NA,"",NA,251431,1,"",NA,NA,NA,NA,300,8800,328,10126,300,NA,NA,NA,"","",NA,NA,"","","",NA,NA,"","","",NA,NA,NA,"","","","",NA,NA,NA,NA,"","",NA,NA,"",NA,"","",NA,NA,NA,NA,"",NA,NA,"","",NA,NA,"","","",NA,NA,NA
"104","","localizer","","html-keyboard-response",103,252170,"0.0-2.0-21.0-0.0",33,21859,"Female","2","","",NA,"68","0",19,NA,"Stimuli/Experimental_stims/localizer/faces/jeffery-erhunse-vp9mRauo68c-unsplash.jpg",NA,251759,1,"faces",NA,0,0,1,400,9100,411,10454,NA,NA,NA,NA,"","",NA,NA,"","","",NA,NA,"","","",NA,NA,NA,"","","","",NA,NA,NA,NA,"","",NA,NA,"",NA,"","",NA,NA,NA,NA,"",NA,NA,"","",NA,NA,"","","",NA,NA,NA
"105","","iti_localizer","","html-keyboard-response",104,252491,"0.0-2.0-21.0-1.0",33,21859,"Female",NA,"","",NA,NA,"",19,NA,"",NA,252170,1,"",NA,NA,NA,NA,300,9500,321,10865,300,NA,NA,NA,"","",NA,NA,"","","",NA,NA,"","","",NA,NA,NA,"","","","",NA,NA,NA,NA,"","",NA,NA,"",NA,"","",NA,NA,NA,NA,"",NA,NA,"","",NA,NA,"","","",NA,NA,NA
"106","","localizer","","html-keyboard-response",105,253086,"0.0-2.0-22.0-0.0",33,21859,"Female","75","","",NA,"75","1",20,NA,"Stimuli/Experimental_stims/localizer/faces/ayo-ogunseinde-6W4F62sN_yI-unsplash.jpg",NA,252491,1,"faces",NA,0,0,0,400,9800,595,11186,NA,NA,NA,NA,"","",NA,NA,"","","",NA,NA,"","","",NA,NA,NA,"","","","",NA,NA,NA,NA,"","",NA,NA,"",NA,"","",NA,NA,NA,NA,"",NA,NA,"","",NA,NA,"","","",NA,NA,NA
"107","","iti_localizer","","html-keyboard-response",106,253644,"0.0-2.0-22.0-1.0",33,21859,"Female",NA,"","",NA,NA,"",20,NA,"",NA,253086,1,"",NA,NA,NA,NA,300,10200,558,11781,300,NA,NA,NA,"","",NA,NA,"","","",NA,NA,"","","",NA,NA,NA,"","","","",NA,NA,NA,NA,"","",NA,NA,"",NA,"","",NA,NA,NA,NA,"",NA,NA,"","",NA,NA,"","","",NA,NA,NA
"108","","localizer","","html-keyboard-response",107,254163,"0.0-2.0-23.0-0.0",33,21859,"Female","316","","",NA,"68","0",21,NA,"Stimuli/Experimental_stims/localizer/faces/whereslugo-zl_fPgiwduo-unsplash.jpg",NA,253644,1,"faces",NA,0,0,1,400,10500,519,12339,NA,NA,NA,NA,"","",NA,NA,"","","",NA,NA,"","","",NA,NA,NA,"","","","",NA,NA,NA,NA,"","",NA,NA,"",NA,"","",NA,NA,NA,NA,"",NA,NA,"","",NA,NA,"","","",NA,NA,NA
"109","","iti_localizer","","html-keyboard-response",108,254476,"0.0-2.0-23.0-1.0",33,21859,"Female",NA,"","",NA,NA,"",21,NA,"",NA,254163,1,"",NA,NA,NA,NA,300,10900,313,12858,300,NA,NA,NA,"","",NA,NA,"","","",NA,NA,"","","",NA,NA,NA,"","","","",NA,NA,NA,NA,"","",NA,NA,"",NA,"","",NA,NA,NA,NA,"",NA,NA,"","",NA,NA,"","","",NA,NA,NA
"110","","localizer","","html-keyboard-response",109,254887,"0.0-2.0-24.0-0.0",33,21859,"Female","134","","",NA,"68","0",22,NA,"Stimuli/Experimental_stims/localizer/faces/chanvre-quebec-mXu1SpzHq6w-unsplash.jpg",NA,254476,1,"faces",NA,0,0,1,400,11200,411,13171,NA,NA,NA,NA,"","",NA,NA,"","","",NA,NA,"","","",NA,NA,NA,"","","","",NA,NA,NA,NA,"","",NA,NA,"",NA,"","",NA,NA,NA,NA,"",NA,NA,"","",NA,NA,"","","",NA,NA,NA
"111","","iti_localizer","","html-keyboard-response",110,255217,"0.0-2.0-24.0-1.0",33,21859,"Female",NA,"","",NA,NA,"",22,NA,"",NA,254887,1,"",NA,NA,NA,NA,300,11600,330,13582,300,NA,NA,NA,"","",NA,NA,"","","",NA,NA,"","","",NA,NA,NA,"","","","",NA,NA,NA,NA,"","",NA,NA,"",NA,"","",NA,NA,NA,NA,"",NA,NA,"","",NA,NA,"","","",NA,NA,NA
"112","","localizer","","html-keyboard-response",111,255691,"0.0-2.0-25.0-0.0",33,21859,"Female","99","","",NA,"68","0",23,NA,"Stimuli/Experimental_stims/localizer/faces/ian-dooley-d1UPkiFd04A-unsplash.jpg",NA,255217,1,"faces",NA,0,0,1,400,11900,474,13912,NA,NA,NA,NA,"","",NA,NA,"","","",NA,NA,"","","",NA,NA,NA,"","","","",NA,NA,NA,NA,"","",NA,NA,"",NA,"","",NA,NA,NA,NA,"",NA,NA,"","",NA,NA,"","","",NA,NA,NA
"113","","iti_localizer","","html-keyboard-response",112,256003,"0.0-2.0-25.0-1.0",33,21859,"Female",NA,"","",NA,NA,"",23,NA,"",NA,255691,1,"",NA,NA,NA,NA,300,12300,312,14386,300,NA,NA,NA,"","",NA,NA,"","","",NA,NA,"","","",NA,NA,NA,"","","","",NA,NA,NA,NA,"","",NA,NA,"",NA,"","",NA,NA,NA,NA,"",NA,NA,"","",NA,NA,"","","",NA,NA,NA
"114","","localizer","","html-keyboard-response",113,256412,"0.0-2.0-26.0-0.0",33,21859,"Female","59","","",NA,"68","0",24,NA,"Stimuli/Experimental_stims/localizer/faces/matheus-ferrero-W7b3eDUb_2I-unsplash.jpg",NA,256003,1,"faces",NA,1,0,0,400,12600,409,14698,NA,NA,NA,NA,"","",NA,NA,"","","",NA,NA,"","","",NA,NA,NA,"","","","",NA,NA,NA,NA,"","",NA,NA,"",NA,"","",NA,NA,NA,NA,"",NA,NA,"","",NA,NA,"","","",NA,NA,NA
"115","","iti_localizer","","html-keyboard-response",114,256743,"0.0-2.0-26.0-1.0",33,21859,"Female",NA,"","",NA,NA,"",24,NA,"",NA,256412,1,"",NA,NA,NA,NA,300,13000,331,15107,300,NA,NA,NA,"","",NA,NA,"","","",NA,NA,"","","",NA,NA,NA,"","","","",NA,NA,NA,NA,"","",NA,NA,"",NA,"","",NA,NA,NA,NA,"",NA,NA,"","",NA,NA,"","","",NA,NA,NA
"116","","localizer","","html-keyboard-response",115,257156,"0.0-2.0-27.0-0.0",33,21859,"Female","29","","",NA,"75","1",25,NA,"Stimuli/Experimental_stims/localizer/faces/jeffery-erhunse-BQMZ5ligqps-unsplash.jpg",NA,256743,1,"faces",NA,0,0,0,400,13300,413,15438,NA,NA,NA,NA,"","",NA,NA,"","","",NA,NA,"","","",NA,NA,NA,"","","","",NA,NA,NA,NA,"","",NA,NA,"",NA,"","",NA,NA,NA,NA,"",NA,NA,"","",NA,NA,"","","",NA,NA,NA
"117","","iti_localizer","","html-keyboard-response",116,271170,"0.0-2.0-27.0-1.0",33,21859,"Female",NA,"","",NA,NA,"",25,NA,"",NA,257156,1,"",NA,NA,NA,NA,14000,13700,14014,15851,14000,NA,NA,NA,"","",NA,NA,"","","",NA,NA,"","","",NA,NA,NA,"","","","",NA,NA,NA,NA,"","",NA,NA,"",NA,"","",NA,NA,NA,NA,"",NA,NA,"","",NA,NA,"","","",NA,NA,NA
"118","","localizer","","html-keyboard-response",117,271582,"0.0-2.0-28.0-0.0",33,21859,"Female",NA,"","",NA,NA,NA,26,NA,"Stimuli/Experimental_stims/localizer/body_parts/jeremy-bishop-mLd3hAaH2ns-unsplash.jpg",NA,271170,1,"body_parts",NA,0,1,0,400,27700,412,29865,NA,NA,NA,NA,"","",NA,NA,"","","",NA,NA,"","","",NA,NA,NA,"","","","",NA,NA,NA,NA,"","",NA,NA,"",NA,"","",NA,NA,NA,NA,"",NA,NA,"","",NA,NA,"","","",NA,NA,NA
"119","","iti_localizer","","html-keyboard-response",118,271895,"0.0-2.0-28.0-1.0",33,21859,"Female",NA,"","",NA,NA,"",26,NA,"",NA,271582,1,"",NA,NA,NA,NA,300,28100,313,30277,300,NA,NA,NA,"","",NA,NA,"","","",NA,NA,"","","",NA,NA,NA,"","","","",NA,NA,NA,NA,"","",NA,NA,"",NA,"","",NA,NA,NA,NA,"",NA,NA,"","",NA,NA,"","","",NA,NA,NA
"120","","localizer","","html-keyboard-response",119,272309,"0.0-2.0-29.0-0.0",33,21859,"Female",NA,"","",NA,NA,NA,27,NA,"Stimuli/Experimental_stims/localizer/body_parts/sincerely-media-3DZHTq_i7Qk-unsplash.jpg",NA,271895,1,"body_parts",NA,0,1,0,400,28400,414,30590,NA,NA,NA,NA,"","",NA,NA,"","","",NA,NA,"","","",NA,NA,NA,"","","","",NA,NA,NA,NA,"","",NA,NA,"",NA,"","",NA,NA,NA,NA,"",NA,NA,"","",NA,NA,"","","",NA,NA,NA
"121","","iti_localizer","","html-keyboard-response",120,272629,"0.0-2.0-29.0-1.0",33,21859,"Female",NA,"","",NA,NA,"",27,NA,"",NA,272309,1,"",NA,NA,NA,NA,300,28800,320,31004,300,NA,NA,NA,"","",NA,NA,"","","",NA,NA,"","","",NA,NA,NA,"","","","",NA,NA,NA,NA,"","",NA,NA,"",NA,"","",NA,NA,NA,NA,"",NA,NA,"","",NA,NA,"","","",NA,NA,NA
"122","","localizer","","html-keyboard-response",121,273101,"0.0-2.0-30.0-0.0",33,21859,"Female",NA,"","",NA,NA,NA,28,NA,"Stimuli/Experimental_stims/localizer/body_parts/nick-page-jAGdpOGvLAA-unsplash.jpg",NA,272629,1,"body_parts",NA,0,1,0,400,29100,472,31324,NA,NA,NA,NA,"","",NA,NA,"","","",NA,NA,"","","",NA,NA,NA,"","","","",NA,NA,NA,NA,"","",NA,NA,"",NA,"","",NA,NA,NA,NA,"",NA,NA,"","",NA,NA,"","","",NA,NA,NA
"123","","iti_localizer","","html-keyboard-response",122,273412,"0.0-2.0-30.0-1.0",33,21859,"Female",NA,"","",NA,NA,"",28,NA,"",NA,273101,1,"",NA,NA,NA,NA,300,29500,311,31796,300,NA,NA,NA,"","",NA,NA,"","","",NA,NA,"","","",NA,NA,NA,"","","","",NA,NA,NA,NA,"","",NA,NA,"",NA,"","",NA,NA,NA,NA,"",NA,NA,"","",NA,NA,"","","",NA,NA,NA
"124","","localizer","","html-keyboard-response",123,273875,"0.0-2.0-31.0-0.0",33,21859,"Female","195","","",NA,"68","0",29,NA,"Stimuli/Experimental_stims/localizer/body_parts/priscilla-du-preez-e6fcNpur53A-unsplash.jpg",NA,273412,1,"body_parts",NA,1,0,0,400,29800,463,32107,NA,NA,NA,NA,"","",NA,NA,"","","",NA,NA,"","","",NA,NA,NA,"","","","",NA,NA,NA,NA,"","",NA,NA,"",NA,"","",NA,NA,NA,NA,"",NA,NA,"","",NA,NA,"","","",NA,NA,NA
"125","","iti_localizer","","html-keyboard-response",124,274183,"0.0-2.0-31.0-1.0",33,21859,"Female",NA,"","",NA,NA,"",29,NA,"",NA,273875,1,"",NA,NA,NA,NA,300,30200,308,32570,300,NA,NA,NA,"","",NA,NA,"","","",NA,NA,"","","",NA,NA,NA,"","","","",NA,NA,NA,NA,"","",NA,NA,"",NA,"","",NA,NA,NA,NA,"",NA,NA,"","",NA,NA,"","","",NA,NA,NA
"126","","localizer","","html-keyboard-response",125,274594,"0.0-2.0-32.0-0.0",33,21859,"Female","27","","",NA,"68","0",30,NA,"Stimuli/Experimental_stims/localizer/body_parts/lilartsy-1KkhQ8uL28g-unsplash.jpg",NA,274183,1,"body_parts",NA,0,0,1,400,30500,411,32878,NA,NA,NA,NA,"","",NA,NA,"","","",NA,NA,"","","",NA,NA,NA,"","","","",NA,NA,NA,NA,"","",NA,NA,"",NA,"","",NA,NA,NA,NA,"",NA,NA,"","",NA,NA,"","","",NA,NA,NA
"127","","iti_localizer","","html-keyboard-response",126,274906,"0.0-2.0-32.0-1.0",33,21859,"Female",NA,"","",NA,NA,"",30,NA,"",NA,274594,1,"",NA,NA,NA,NA,300,30900,312,33289,300,NA,NA,NA,"","",NA,NA,"","","",NA,NA,"","","",NA,NA,NA,"","","","",NA,NA,NA,NA,"","",NA,NA,"",NA,"","",NA,NA,NA,NA,"",NA,NA,"","",NA,NA,"","","",NA,NA,NA
"128","","localizer","","html-keyboard-response",127,275342,"0.0-2.0-33.0-0.0",33,21859,"Female","111","","",NA,"68","0",31,NA,"Stimuli/Experimental_stims/localizer/body_parts/sippakorn-yamkasikorn-32_sJlJa5gA-unsplash.jpg",NA,274906,1,"body_parts",NA,0,0,1,400,31200,436,33601,NA,NA,NA,NA,"","",NA,NA,"","","",NA,NA,"","","",NA,NA,NA,"","","","",NA,NA,NA,NA,"","",NA,NA,"",NA,"","",NA,NA,NA,NA,"",NA,NA,"","",NA,NA,"","","",NA,NA,NA
"129","","iti_localizer","","html-keyboard-response",128,275751,"0.0-2.0-33.0-1.0",33,21859,"Female",NA,"","",NA,NA,"",31,NA,"",NA,275342,1,"",NA,NA,NA,NA,300,31600,409,34037,300,NA,NA,NA,"","",NA,NA,"","","",NA,NA,"","","",NA,NA,NA,"","","","",NA,NA,NA,NA,"","",NA,NA,"",NA,"","",NA,NA,NA,NA,"",NA,NA,"","",NA,NA,"","","",NA,NA,NA
"130","","localizer","","html-keyboard-response",129,276175,"0.0-2.0-34.0-0.0",33,21859,"Female","85","","",NA,"68","0",32,NA,"Stimuli/Experimental_stims/localizer/body_parts/meghan-thompson-U1b8OB0QpIo-unsplash.jpg",NA,275751,1,"body_parts",NA,0,0,1,400,31900,424,34446,NA,NA,NA,NA,"","",NA,NA,"","","",NA,NA,"","","",NA,NA,NA,"","","","",NA,NA,NA,NA,"","",NA,NA,"",NA,"","",NA,NA,NA,NA,"",NA,NA,"","",NA,NA,"","","",NA,NA,NA
"131","","iti_localizer","","html-keyboard-response",130,276488,"0.0-2.0-34.0-1.0",33,21859,"Female",NA,"","",NA,NA,"",32,NA,"",NA,276175,1,"",NA,NA,NA,NA,300,32300,313,34870,300,NA,NA,NA,"","",NA,NA,"","","",NA,NA,"","","",NA,NA,NA,"","","","",NA,NA,NA,NA,"","",NA,NA,"",NA,"","",NA,NA,NA,NA,"",NA,NA,"","",NA,NA,"","","",NA,NA,NA
"132","","localizer","","html-keyboard-response",131,276920,"0.0-2.0-35.0-0.0",33,21859,"Female","130","","",NA,"75","1",33,NA,"Stimuli/Experimental_stims/localizer/body_parts/semen-zhuravlev-_XxH_mV8dnk-unsplash (1).jpg",NA,276488,1,"body_parts",NA,0,0,0,400,32600,432,35183,NA,NA,NA,NA,"","",NA,NA,"","","",NA,NA,"","","",NA,NA,NA,"","","","",NA,NA,NA,NA,"","",NA,NA,"",NA,"","",NA,NA,NA,NA,"",NA,NA,"","",NA,NA,"","","",NA,NA,NA
"133","","iti_localizer","","html-keyboard-response",132,277285,"0.0-2.0-35.0-1.0",33,21859,"Female",NA,"","",NA,NA,"",33,NA,"",NA,276920,1,"",NA,NA,NA,NA,300,33000,365,35615,300,NA,NA,NA,"","",NA,NA,"","","",NA,NA,"","","",NA,NA,NA,"","","","",NA,NA,NA,NA,"","",NA,NA,"",NA,"","",NA,NA,NA,NA,"",NA,NA,"","",NA,NA,"","","",NA,NA,NA
"134","","localizer","","html-keyboard-response",133,277706,"0.0-2.0-36.0-0.0",33,21859,"Female","3","","",NA,"68","0",34,NA,"Stimuli/Experimental_stims/localizer/body_parts/betzy-arosemena-YHdgnygtVCQ-unsplash.jpg",NA,277285,1,"body_parts",NA,0,0,1,400,33300,421,35980,NA,NA,NA,NA,"","",NA,NA,"","","",NA,NA,"","","",NA,NA,NA,"","","","",NA,NA,NA,NA,"","",NA,NA,"",NA,"","",NA,NA,NA,NA,"",NA,NA,"","",NA,NA,"","","",NA,NA,NA
"135","","iti_localizer","","html-keyboard-response",134,278016,"0.0-2.0-36.0-1.0",33,21859,"Female",NA,"","",NA,NA,"",34,NA,"",NA,277706,1,"",NA,NA,NA,NA,300,33700,310,36401,300,NA,NA,NA,"","",NA,NA,"","","",NA,NA,"","","",NA,NA,NA,"","","","",NA,NA,NA,NA,"","",NA,NA,"",NA,"","",NA,NA,NA,NA,"",NA,NA,"","",NA,NA,"","","",NA,NA,NA
"136","","localizer","","html-keyboard-response",135,278433,"0.0-2.0-37.0-0.0",33,21859,"Female","116","","",NA,"75","1",35,NA,"Stimuli/Experimental_stims/localizer/body_parts/davidcohen-qghuLqyh3nE-unsplash.jpg",NA,278016,1,"body_parts",NA,0,0,0,400,34000,417,36711,NA,NA,NA,NA,"","",NA,NA,"","","",NA,NA,"","","",NA,NA,NA,"","","","",NA,NA,NA,NA,"","",NA,NA,"",NA,"","",NA,NA,NA,NA,"",NA,NA,"","",NA,NA,"","","",NA,NA,NA
"137","","iti_localizer","","html-keyboard-response",136,278743,"0.0-2.0-37.0-1.0",33,21859,"Female",NA,"","",NA,NA,"",35,NA,"",NA,278433,1,"",NA,NA,NA,NA,300,34400,310,37128,300,NA,NA,NA,"","",NA,NA,"","","",NA,NA,"","","",NA,NA,NA,"","","","",NA,NA,NA,NA,"","",NA,NA,"",NA,"","",NA,NA,NA,NA,"",NA,NA,"","",NA,NA,"","","",NA,NA,NA
"138","","localizer","","html-keyboard-response",137,279315,"0.0-2.0-38.0-0.0",33,21859,"Female","134","","",NA,"75","1",36,NA,"Stimuli/Experimental_stims/localizer/body_parts/niu-niu-5HzOtV-FSlw-unsplash.jpg",NA,278743,1,"body_parts",NA,0,0,0,400,34700,572,37438,NA,NA,NA,NA,"","",NA,NA,"","","",NA,NA,"","","",NA,NA,NA,"","","","",NA,NA,NA,NA,"","",NA,NA,"",NA,"","",NA,NA,NA,NA,"",NA,NA,"","",NA,NA,"","","",NA,NA,NA
"139","","iti_localizer","","html-keyboard-response",138,279687,"0.0-2.0-38.0-1.0",33,21859,"Female",NA,"","",NA,NA,"",36,NA,"",NA,279315,1,"",NA,NA,NA,NA,300,35100,372,38010,300,NA,NA,NA,"","",NA,NA,"","","",NA,NA,"","","",NA,NA,NA,"","","","",NA,NA,NA,NA,"","",NA,NA,"",NA,"","",NA,NA,NA,NA,"",NA,NA,"","",NA,NA,"","","",NA,NA,NA
"140","","localizer","","html-keyboard-response",139,280108,"0.0-2.0-39.0-0.0",33,21859,"Female","57","","",NA,"75","1",37,NA,"Stimuli/Experimental_stims/localizer/body_parts/liv-bruce-M0oVPGsWk1E-unsplash.jpg",NA,279687,1,"body_parts",NA,0,0,0,400,35400,421,38382,NA,NA,NA,NA,"","",NA,NA,"","","",NA,NA,"","","",NA,NA,NA,"","","","",NA,NA,NA,NA,"","",NA,NA,"",NA,"","",NA,NA,NA,NA,"",NA,NA,"","",NA,NA,"","","",NA,NA,NA
"141","","iti_localizer","","html-keyboard-response",140,280418,"0.0-2.0-39.0-1.0",33,21859,"Female",NA,"","",NA,NA,"",37,NA,"",NA,280108,1,"",NA,NA,NA,NA,300,35800,310,38803,300,NA,NA,NA,"","",NA,NA,"","","",NA,NA,"","","",NA,NA,NA,"","","","",NA,NA,NA,NA,"","",NA,NA,"",NA,"","",NA,NA,NA,NA,"",NA,NA,"","",NA,NA,"","","",NA,NA,NA
"142","","localizer","","html-keyboard-response",141,280834,"0.0-2.0-40.0-0.0",33,21859,"Female","107","","",NA,"75","1",38,NA,"Stimuli/Experimental_stims/localizer/body_parts/nick-page-WTNmgJtwzGI-unsplash.jpg",NA,280418,1,"body_parts",NA,0,0,0,400,36100,416,39113,NA,NA,NA,NA,"","",NA,NA,"","","",NA,NA,"","","",NA,NA,NA,"","","","",NA,NA,NA,NA,"","",NA,NA,"",NA,"","",NA,NA,NA,NA,"",NA,NA,"","",NA,NA,"","","",NA,NA,NA
"143","","iti_localizer","","html-keyboard-response",142,281155,"0.0-2.0-40.0-1.0",33,21859,"Female",NA,"","",NA,NA,"",38,NA,"",NA,280834,1,"",NA,NA,NA,NA,300,36500,321,39529,300,NA,NA,NA,"","",NA,NA,"","","",NA,NA,"","","",NA,NA,NA,"","","","",NA,NA,NA,NA,"","",NA,NA,"",NA,"","",NA,NA,NA,NA,"",NA,NA,"","",NA,NA,"","","",NA,NA,NA
"144","","localizer","","html-keyboard-response",143,281566,"0.0-2.0-41.0-0.0",33,21859,"Female","3","","",NA,"68","0",39,NA,"Stimuli/Experimental_stims/localizer/body_parts/billie-5OXE3KjDEfI-unsplash.jpg",NA,281155,1,"body_parts",NA,0,0,1,400,36800,411,39850,NA,NA,NA,NA,"","",NA,NA,"","","",NA,NA,"","","",NA,NA,NA,"","","","",NA,NA,NA,NA,"","",NA,NA,"",NA,"","",NA,NA,NA,NA,"",NA,NA,"","",NA,NA,"","","",NA,NA,NA
"145","","iti_localizer","","html-keyboard-response",144,281882,"0.0-2.0-41.0-1.0",33,21859,"Female",NA,"","",NA,NA,"",39,NA,"",NA,281566,1,"",NA,NA,NA,NA,300,37200,316,40261,300,NA,NA,NA,"","",NA,NA,"","","",NA,NA,"","","",NA,NA,NA,"","","","",NA,NA,NA,NA,"","",NA,NA,"",NA,"","",NA,NA,NA,NA,"",NA,NA,"","",NA,NA,"","","",NA,NA,NA
"146","","localizer","","html-keyboard-response",145,282336,"0.0-2.0-42.0-0.0",33,21859,"Female","82","","",NA,"68","0",40,NA,"Stimuli/Experimental_stims/localizer/body_parts/apostolos-vamvouras-g5wKHRu2QW0-unsplash.jpg",NA,281882,1,"body_parts",NA,0,0,1,400,37500,454,40577,NA,NA,NA,NA,"","",NA,NA,"","","",NA,NA,"","","",NA,NA,NA,"","","","",NA,NA,NA,NA,"","",NA,NA,"",NA,"","",NA,NA,NA,NA,"",NA,NA,"","",NA,NA,"","","",NA,NA,NA
"147","","iti_localizer","","html-keyboard-response",146,282671,"0.0-2.0-42.0-1.0",33,21859,"Female",NA,"","",NA,NA,"",40,NA,"",NA,282336,1,"",NA,NA,NA,NA,300,37900,335,41031,300,NA,NA,NA,"","",NA,NA,"","","",NA,NA,"","","",NA,NA,NA,"","","","",NA,NA,NA,NA,"","",NA,NA,"",NA,"","",NA,NA,NA,NA,"",NA,NA,"","",NA,NA,"","","",NA,NA,NA
"148","","localizer","","html-keyboard-response",147,283081,"0.0-2.0-43.0-0.0",33,21859,"Female","152","","",NA,"68","0",41,NA,"Stimuli/Experimental_stims/localizer/body_parts/david-fanuel-qnV8X7OViNY-unsplash.jpg",NA,282671,1,"body_parts",NA,0,0,1,400,38200,410,41366,NA,NA,NA,NA,"","",NA,NA,"","","",NA,NA,"","","",NA,NA,NA,"","","","",NA,NA,NA,NA,"","",NA,NA,"",NA,"","",NA,NA,NA,NA,"",NA,NA,"","",NA,NA,"","","",NA,NA,NA
"149","","iti_localizer","","html-keyboard-response",148,283389,"0.0-2.0-43.0-1.0",33,21859,"Female",NA,"","",NA,NA,"",41,NA,"",NA,283081,1,"",NA,NA,NA,NA,300,38600,308,41776,300,NA,NA,NA,"","",NA,NA,"","","",NA,NA,"","","",NA,NA,NA,"","","","",NA,NA,NA,NA,"","",NA,NA,"",NA,"","",NA,NA,NA,NA,"",NA,NA,"","",NA,NA,"","","",NA,NA,NA
"150","","localizer","","html-keyboard-response",149,283798,"0.0-2.0-44.0-0.0",33,21859,"Female","139","","",NA,"68","0",42,NA,"Stimuli/Experimental_stims/localizer/body_parts/nattalia-nunez-MB9sdDfZMSg-unsplash.jpg",NA,283389,1,"body_parts",NA,0,0,1,400,38900,409,42084,NA,NA,NA,NA,"","",NA,NA,"","","",NA,NA,"","","",NA,NA,NA,"","","","",NA,NA,NA,NA,"","",NA,NA,"",NA,"","",NA,NA,NA,NA,"",NA,NA,"","",NA,NA,"","","",NA,NA,NA
"151","","iti_localizer","","html-keyboard-response",150,284144,"0.0-2.0-44.0-1.0",33,21859,"Female",NA,"","",NA,NA,"",42,NA,"",NA,283798,1,"",NA,NA,NA,NA,300,39300,346,42493,300,NA,NA,NA,"","",NA,NA,"","","",NA,NA,"","","",NA,NA,NA,"","","","",NA,NA,NA,NA,"","",NA,NA,"",NA,"","",NA,NA,NA,NA,"",NA,NA,"","",NA,NA,"","","",NA,NA,NA
"152","","localizer","","html-keyboard-response",151,284608,"0.0-2.0-45.0-0.0",33,21859,"Female","297","","",NA,"68","0",43,NA,"Stimuli/Experimental_stims/localizer/body_parts/carlos-henrique-NAOJKwZswbs-unsplash.jpg",NA,284144,1,"body_parts",NA,0,0,1,400,39600,464,42839,NA,NA,NA,NA,"","",NA,NA,"","","",NA,NA,"","","",NA,NA,NA,"","","","",NA,NA,NA,NA,"","",NA,NA,"",NA,"","",NA,NA,NA,NA,"",NA,NA,"","",NA,NA,"","","",NA,NA,NA
"153","","iti_localizer","","html-keyboard-response",152,284919,"0.0-2.0-45.0-1.0",33,21859,"Female",NA,"","",NA,NA,"",43,NA,"",NA,284608,1,"",NA,NA,NA,NA,300,40000,311,43303,300,NA,NA,NA,"","",NA,NA,"","","",NA,NA,"","","",NA,NA,NA,"","","","",NA,NA,NA,NA,"","",NA,NA,"",NA,"","",NA,NA,NA,NA,"",NA,NA,"","",NA,NA,"","","",NA,NA,NA
"154","","localizer","","html-keyboard-response",153,285331,"0.0-2.0-46.0-0.0",33,21859,"Female","156","","",NA,"75","1",44,NA,"Stimuli/Experimental_stims/localizer/body_parts/jeremy-yap-TfJEi17kA0w-unsplash.jpg",NA,284919,1,"body_parts",NA,1,0,1,400,40300,412,43614,NA,NA,NA,NA,"","",NA,NA,"","","",NA,NA,"","","",NA,NA,NA,"","","","",NA,NA,NA,NA,"","",NA,NA,"",NA,"","",NA,NA,NA,NA,"",NA,NA,"","",NA,NA,"","","",NA,NA,NA
"155","","iti_localizer","","html-keyboard-response",154,285652,"0.0-2.0-46.0-1.0",33,21859,"Female",NA,"","",NA,NA,"",44,NA,"",NA,285331,1,"",NA,NA,NA,NA,300,40700,321,44026,300,NA,NA,NA,"","",NA,NA,"","","",NA,NA,"","","",NA,NA,NA,"","","","",NA,NA,NA,NA,"","",NA,NA,"",NA,"","",NA,NA,NA,NA,"",NA,NA,"","",NA,NA,"","","",NA,NA,NA
"156","","localizer","","html-keyboard-response",155,286122,"0.0-2.0-47.0-0.0",33,21859,"Female","1","","",NA,"75","1",45,NA,"Stimuli/Experimental_stims/localizer/body_parts/danie-franco-jyyNiSEcCl4-unsplash.jpg",NA,285652,1,"body_parts",NA,0,0,0,400,41000,470,44347,NA,NA,NA,NA,"","",NA,NA,"","","",NA,NA,"","","",NA,NA,NA,"","","","",NA,NA,NA,NA,"","",NA,NA,"",NA,"","",NA,NA,NA,NA,"",NA,NA,"","",NA,NA,"","","",NA,NA,NA
"157","","iti_localizer","","html-keyboard-response",156,300360,"0.0-2.0-47.0-1.0",33,21859,"Female",NA,"","",NA,NA,"",45,NA,"",NA,286122,1,"",NA,NA,NA,NA,14000,41400,14238,44817,14000,NA,NA,NA,"","",NA,NA,"","","",NA,NA,"","","",NA,NA,NA,"","","","",NA,NA,NA,NA,"","",NA,NA,"",NA,"","",NA,NA,NA,NA,"",NA,NA,"","",NA,NA,"","","",NA,NA,NA
"158","","localizer","","html-keyboard-response",157,300771,"0.0-2.0-48.0-0.0",33,21859,"Female",NA,"","",NA,NA,NA,46,NA,"Stimuli/Experimental_stims/localizer/objects/chris-briggs-x9TCnxNBofE-unsplash.jpg",NA,300360,1,"objects",NA,0,1,0,400,55400,411,59055,NA,NA,NA,NA,"","",NA,NA,"","","",NA,NA,"","","",NA,NA,NA,"","","","",NA,NA,NA,NA,"","",NA,NA,"",NA,"","",NA,NA,NA,NA,"",NA,NA,"","",NA,NA,"","","",NA,NA,NA
"159","","iti_localizer","","html-keyboard-response",158,301095,"0.0-2.0-48.0-1.0",33,21859,"Female",NA,"","",NA,NA,"",46,NA,"",NA,300771,1,"",NA,NA,NA,NA,300,55800,324,59466,300,NA,NA,NA,"","",NA,NA,"","","",NA,NA,"","","",NA,NA,NA,"","","","",NA,NA,NA,NA,"","",NA,NA,"",NA,"","",NA,NA,NA,NA,"",NA,NA,"","",NA,NA,"","","",NA,NA,NA
"160","","localizer","","html-keyboard-response",159,301531,"0.0-2.0-49.0-0.0",33,21859,"Female","320","","",NA,"68","0",47,NA,"Stimuli/Experimental_stims/localizer/objects/quino-al-8gWEAAXJjtI-unsplash.jpg",NA,301095,1,"objects",NA,0,0,1,400,56100,436,59790,NA,NA,NA,NA,"","",NA,NA,"","","",NA,NA,"","","",NA,NA,NA,"","","","",NA,NA,NA,NA,"","",NA,NA,"",NA,"","",NA,NA,NA,NA,"",NA,NA,"","",NA,NA,"","","",NA,NA,NA
"161","","iti_localizer","","html-keyboard-response",160,301844,"0.0-2.0-49.0-1.0",33,21859,"Female",NA,"","",NA,NA,"",47,NA,"",NA,301531,1,"",NA,NA,NA,NA,300,56500,313,60226,300,NA,NA,NA,"","",NA,NA,"","","",NA,NA,"","","",NA,NA,NA,"","","","",NA,NA,NA,NA,"","",NA,NA,"",NA,"","",NA,NA,NA,NA,"",NA,NA,"","",NA,NA,"","","",NA,NA,NA
"162","","localizer","","html-keyboard-response",161,302262,"0.0-2.0-50.0-0.0",33,21859,"Female","65","","",NA,"68","0",48,NA,"Stimuli/Experimental_stims/localizer/objects/recha-oktaviani-t__61ap00Mc-unsplash.jpg",NA,301844,1,"objects",NA,0,0,1,400,56800,418,60539,NA,NA,NA,NA,"","",NA,NA,"","","",NA,NA,"","","",NA,NA,NA,"","","","",NA,NA,NA,NA,"","",NA,NA,"",NA,"","",NA,NA,NA,NA,"",NA,NA,"","",NA,NA,"","","",NA,NA,NA
"163","","iti_localizer","","html-keyboard-response",162,302645,"0.0-2.0-50.0-1.0",33,21859,"Female",NA,"","",NA,NA,"",48,NA,"",NA,302262,1,"",NA,NA,NA,NA,300,57200,383,60957,300,NA,NA,NA,"","",NA,NA,"","","",NA,NA,"","","",NA,NA,NA,"","","","",NA,NA,NA,NA,"","",NA,NA,"",NA,"","",NA,NA,NA,NA,"",NA,NA,"","",NA,NA,"","","",NA,NA,NA
"164","","localizer","","html-keyboard-response",163,303210,"0.0-2.0-51.0-0.0",33,21859,"Female","86","","",NA,"75","1",49,NA,"Stimuli/Experimental_stims/localizer/objects/kelly-jean-cKjbI0Y00X0-unsplash.jpg",NA,302645,1,"objects",NA,1,0,1,400,57500,565,61340,NA,NA,NA,NA,"","",NA,NA,"","","",NA,NA,"","","",NA,NA,NA,"","","","",NA,NA,NA,NA,"","",NA,NA,"",NA,"","",NA,NA,NA,NA,"",NA,NA,"","",NA,NA,"","","",NA,NA,NA
"165","","iti_localizer","","html-keyboard-response",164,303519,"0.0-2.0-51.0-1.0",33,21859,"Female",NA,"","",NA,NA,"",49,NA,"",NA,303210,1,"",NA,NA,NA,NA,300,57900,309,61905,300,NA,NA,NA,"","",NA,NA,"","","",NA,NA,"","","",NA,NA,NA,"","","","",NA,NA,NA,NA,"","",NA,NA,"",NA,"","",NA,NA,NA,NA,"",NA,NA,"","",NA,NA,"","","",NA,NA,NA
"166","","localizer","","html-keyboard-response",165,303928,"0.0-2.0-52.0-0.0",33,21859,"Female","83","","",NA,"75","1",50,NA,"Stimuli/Experimental_stims/localizer/objects/mockup-graphics-Pj2PY-E-LfM-unsplash.jpg",NA,303519,1,"objects",NA,0,0,0,400,58200,409,62214,NA,NA,NA,NA,"","",NA,NA,"","","",NA,NA,"","","",NA,NA,NA,"","","","",NA,NA,NA,NA,"","",NA,NA,"",NA,"","",NA,NA,NA,NA,"",NA,NA,"","",NA,NA,"","","",NA,NA,NA
"167","","iti_localizer","","html-keyboard-response",166,304238,"0.0-2.0-52.0-1.0",33,21859,"Female",NA,"","",NA,NA,"",50,NA,"",NA,303928,1,"",NA,NA,NA,NA,300,58600,310,62623,300,NA,NA,NA,"","",NA,NA,"","","",NA,NA,"","","",NA,NA,NA,"","","","",NA,NA,NA,NA,"","",NA,NA,"",NA,"","",NA,NA,NA,NA,"",NA,NA,"","",NA,NA,"","","",NA,NA,NA
"168","","localizer","","html-keyboard-response",167,304650,"0.0-2.0-53.0-0.0",33,21859,"Female","13","","",NA,"68","0",51,NA,"Stimuli/Experimental_stims/localizer/objects/andrew-petrov-TVJqDat4MAw-unsplash.jpg",NA,304238,1,"objects",NA,0,0,1,400,58900,412,62933,NA,NA,NA,NA,"","",NA,NA,"","","",NA,NA,"","","",NA,NA,NA,"","","","",NA,NA,NA,NA,"","",NA,NA,"",NA,"","",NA,NA,NA,NA,"",NA,NA,"","",NA,NA,"","","",NA,NA,NA
"169","","iti_localizer","","html-keyboard-response",168,304962,"0.0-2.0-53.0-1.0",33,21859,"Female",NA,"","",NA,NA,"",51,NA,"",NA,304650,1,"",NA,NA,NA,NA,300,59300,312,63345,300,NA,NA,NA,"","",NA,NA,"","","",NA,NA,"","","",NA,NA,NA,"","","","",NA,NA,NA,NA,"","",NA,NA,"",NA,"","",NA,NA,NA,NA,"",NA,NA,"","",NA,NA,"","","",NA,NA,NA
"170","","localizer","","html-keyboard-response",169,305383,"0.0-2.0-54.0-0.0",33,21859,"Female","58","","",NA,"75","1",52,NA,"Stimuli/Experimental_stims/localizer/objects/ignat-dolomanov-kFBDVnmskPA-unsplash.jpg",NA,304962,1,"objects",NA,0,0,0,400,59600,421,63657,NA,NA,NA,NA,"","",NA,NA,"","","",NA,NA,"","","",NA,NA,NA,"","","","",NA,NA,NA,NA,"","",NA,NA,"",NA,"","",NA,NA,NA,NA,"",NA,NA,"","",NA,NA,"","","",NA,NA,NA
"171","","iti_localizer","","html-keyboard-response",170,305706,"0.0-2.0-54.0-1.0",33,21859,"Female",NA,"","",NA,NA,"",52,NA,"",NA,305383,1,"",NA,NA,NA,NA,300,60000,323,64078,300,NA,NA,NA,"","",NA,NA,"","","",NA,NA,"","","",NA,NA,NA,"","","","",NA,NA,NA,NA,"","",NA,NA,"",NA,"","",NA,NA,NA,NA,"",NA,NA,"","",NA,NA,"","","",NA,NA,NA
"172","","localizer","","html-keyboard-response",171,306179,"0.0-2.0-55.0-0.0",33,21859,"Female","93","","",NA,"75","1",53,NA,"Stimuli/Experimental_stims/localizer/objects/ana-9GmAaEMMKho-unsplash.jpg",NA,305706,1,"objects",NA,0,0,0,400,60300,473,64401,NA,NA,NA,NA,"","",NA,NA,"","","",NA,NA,"","","",NA,NA,NA,"","","","",NA,NA,NA,NA,"","",NA,NA,"",NA,"","",NA,NA,NA,NA,"",NA,NA,"","",NA,NA,"","","",NA,NA,NA
"173","","iti_localizer","","html-keyboard-response",172,306529,"0.0-2.0-55.0-1.0",33,21859,"Female",NA,"","",NA,NA,"",53,NA,"",NA,306179,1,"",NA,NA,NA,NA,300,60700,350,64874,300,NA,NA,NA,"","",NA,NA,"","","",NA,NA,"","","",NA,NA,NA,"","","","",NA,NA,NA,NA,"","",NA,NA,"",NA,"","",NA,NA,NA,NA,"",NA,NA,"","",NA,NA,"","","",NA,NA,NA
"174","","localizer","","html-keyboard-response",173,306964,"0.0-2.0-56.0-0.0",33,21859,"Female","33","","",NA,"68","0",54,NA,"Stimuli/Experimental_stims/localizer/objects/yossy-made-yulian-WaEqwDSIeTY-unsplash.jpg",NA,306529,1,"objects",NA,0,0,1,400,61000,435,65224,NA,NA,NA,NA,"","",NA,NA,"","","",NA,NA,"","","",NA,NA,NA,"","","","",NA,NA,NA,NA,"","",NA,NA,"",NA,"","",NA,NA,NA,NA,"",NA,NA,"","",NA,NA,"","","",NA,NA,NA
"175","","iti_localizer","","html-keyboard-response",174,307275,"0.0-2.0-56.0-1.0",33,21859,"Female",NA,"","",NA,NA,"",54,NA,"",NA,306964,1,"",NA,NA,NA,NA,300,61400,311,65659,300,NA,NA,NA,"","",NA,NA,"","","",NA,NA,"","","",NA,NA,NA,"","","","",NA,NA,NA,NA,"","",NA,NA,"",NA,"","",NA,NA,NA,NA,"",NA,NA,"","",NA,NA,"","","",NA,NA,NA
"176","","localizer","","html-keyboard-response",175,307681,"0.0-2.0-57.0-0.0",33,21859,"Female","24","","",NA,"68","0",55,NA,"Stimuli/Experimental_stims/localizer/objects/mockup-graphics-U6ZMEefFGx8-unsplash.jpg",NA,307275,1,"objects",NA,0,0,1,400,61700,406,65970,NA,NA,NA,NA,"","",NA,NA,"","","",NA,NA,"","","",NA,NA,NA,"","","","",NA,NA,NA,NA,"","",NA,NA,"",NA,"","",NA,NA,NA,NA,"",NA,NA,"","",NA,NA,"","","",NA,NA,NA
"177","","iti_localizer","","html-keyboard-response",176,307988,"0.0-2.0-57.0-1.0",33,21859,"Female",NA,"","",NA,NA,"",55,NA,"",NA,307681,1,"",NA,NA,NA,NA,300,62100,307,66376,300,NA,NA,NA,"","",NA,NA,"","","",NA,NA,"","","",NA,NA,NA,"","","","",NA,NA,NA,NA,"","",NA,NA,"",NA,"","",NA,NA,NA,NA,"",NA,NA,"","",NA,NA,"","","",NA,NA,NA
"178","","localizer","","html-keyboard-response",177,308513,"0.0-2.0-58.0-0.0",33,21859,"Female","50","","",NA,"68","0",56,NA,"Stimuli/Experimental_stims/localizer/objects/raimond-klavins-ZdvDPXVvcKs-unsplash.jpg",NA,307988,1,"objects",NA,0,0,1,400,62400,525,66683,NA,NA,NA,NA,"","",NA,NA,"","","",NA,NA,"","","",NA,NA,NA,"","","","",NA,NA,NA,NA,"","",NA,NA,"",NA,"","",NA,NA,NA,NA,"",NA,NA,"","",NA,NA,"","","",NA,NA,NA
"179","","iti_localizer","","html-keyboard-response",178,309090,"0.0-2.0-58.0-1.0",33,21859,"Female",NA,"","",NA,NA,"",56,NA,"",NA,308513,1,"",NA,NA,NA,NA,300,62800,577,67208,300,NA,NA,NA,"","",NA,NA,"","","",NA,NA,"","","",NA,NA,NA,"","","","",NA,NA,NA,NA,"","",NA,NA,"",NA,"","",NA,NA,NA,NA,"",NA,NA,"","",NA,NA,"","","",NA,NA,NA
"180","","localizer","","html-keyboard-response",179,309499,"0.0-2.0-59.0-0.0",33,21859,"Female","19","","",NA,"68","0",57,NA,"Stimuli/Experimental_stims/localizer/objects/sam-moghadam-khamseh-L_7MQsHl_aU-unsplash.jpg",NA,309090,1,"objects",NA,0,0,1,400,63100,409,67785,NA,NA,NA,NA,"","",NA,NA,"","","",NA,NA,"","","",NA,NA,NA,"","","","",NA,NA,NA,NA,"","",NA,NA,"",NA,"","",NA,NA,NA,NA,"",NA,NA,"","",NA,NA,"","","",NA,NA,NA
"181","","iti_localizer","","html-keyboard-response",180,309813,"0.0-2.0-59.0-1.0",33,21859,"Female",NA,"","",NA,NA,"",57,NA,"",NA,309499,1,"",NA,NA,NA,NA,300,63500,314,68194,300,NA,NA,NA,"","",NA,NA,"","","",NA,NA,"","","",NA,NA,NA,"","","","",NA,NA,NA,NA,"","",NA,NA,"",NA,"","",NA,NA,NA,NA,"",NA,NA,"","",NA,NA,"","","",NA,NA,NA
"182","","localizer","","html-keyboard-response",181,310242,"0.0-2.0-60.0-0.0",33,21859,"Female","15","","",NA,"68","0",58,NA,"Stimuli/Experimental_stims/localizer/objects/engin-akyurt-bbbKzTmY2Gg-unsplash.jpg",NA,309813,1,"objects",NA,0,0,1,400,63800,429,68508,NA,NA,NA,NA,"","",NA,NA,"","","",NA,NA,"","","",NA,NA,NA,"","","","",NA,NA,NA,NA,"","",NA,NA,"",NA,"","",NA,NA,NA,NA,"",NA,NA,"","",NA,NA,"","","",NA,NA,NA
"183","","iti_localizer","","html-keyboard-response",182,310557,"0.0-2.0-60.0-1.0",33,21859,"Female",NA,"","",NA,NA,"",58,NA,"",NA,310242,1,"",NA,NA,NA,NA,300,64200,315,68937,300,NA,NA,NA,"","",NA,NA,"","","",NA,NA,"","","",NA,NA,NA,"","","","",NA,NA,NA,NA,"","",NA,NA,"",NA,"","",NA,NA,NA,NA,"",NA,NA,"","",NA,NA,"","","",NA,NA,NA
"184","","localizer","","html-keyboard-response",183,310968,"0.0-2.0-61.0-0.0",33,21859,"Female","28","","",NA,"68","0",59,NA,"Stimuli/Experimental_stims/localizer/objects/eugene-chystiakov-3neSwyntbQ8-unsplash.jpg",NA,310557,1,"objects",NA,1,0,0,400,64500,411,69252,NA,NA,NA,NA,"","",NA,NA,"","","",NA,NA,"","","",NA,NA,NA,"","","","",NA,NA,NA,NA,"","",NA,NA,"",NA,"","",NA,NA,NA,NA,"",NA,NA,"","",NA,NA,"","","",NA,NA,NA
"185","","iti_localizer","","html-keyboard-response",184,311280,"0.0-2.0-61.0-1.0",33,21859,"Female",NA,"","",NA,NA,"",59,NA,"",NA,310968,1,"",NA,NA,NA,NA,300,64900,312,69663,300,NA,NA,NA,"","",NA,NA,"","","",NA,NA,"","","",NA,NA,NA,"","","","",NA,NA,NA,NA,"","",NA,NA,"",NA,"","",NA,NA,NA,NA,"",NA,NA,"","",NA,NA,"","","",NA,NA,NA
"186","","localizer","","html-keyboard-response",185,311692,"0.0-2.0-62.0-0.0",33,21859,"Female","14","","",NA,"68","0",60,NA,"Stimuli/Experimental_stims/localizer/objects/mae-mu-yl2d0CKW130-unsplash.jpg",NA,311280,1,"objects",NA,0,0,1,400,65200,412,69975,NA,NA,NA,NA,"","",NA,NA,"","","",NA,NA,"","","",NA,NA,NA,"","","","",NA,NA,NA,NA,"","",NA,NA,"",NA,"","",NA,NA,NA,NA,"",NA,NA,"","",NA,NA,"","","",NA,NA,NA
"187","","iti_localizer","","html-keyboard-response",186,312001,"0.0-2.0-62.0-1.0",33,21859,"Female",NA,"","",NA,NA,"",60,NA,"",NA,311692,1,"",NA,NA,NA,NA,300,65600,309,70387,300,NA,NA,NA,"","",NA,NA,"","","",NA,NA,"","","",NA,NA,NA,"","","","",NA,NA,NA,NA,"","",NA,NA,"",NA,"","",NA,NA,NA,NA,"",NA,NA,"","",NA,NA,"","","",NA,NA,NA
"188","","localizer","","html-keyboard-response",187,312425,"0.0-2.0-63.0-0.0",33,21859,"Female","84","","",NA,"68","0",61,NA,"Stimuli/Experimental_stims/localizer/objects/sam-moghadam-khamseh-kvmdsTrGOBM-unsplash.jpg",NA,312001,1,"objects",NA,0,0,1,400,65900,424,70696,NA,NA,NA,NA,"","",NA,NA,"","","",NA,NA,"","","",NA,NA,NA,"","","","",NA,NA,NA,NA,"","",NA,NA,"",NA,"","",NA,NA,NA,NA,"",NA,NA,"","",NA,NA,"","","",NA,NA,NA
"189","","iti_localizer","","html-keyboard-response",188,312849,"0.0-2.0-63.0-1.0",33,21859,"Female",NA,"","",NA,NA,"",61,NA,"",NA,312425,1,"",NA,NA,NA,NA,300,66300,424,71120,300,NA,NA,NA,"","",NA,NA,"","","",NA,NA,"","","",NA,NA,NA,"","","","",NA,NA,NA,NA,"","",NA,NA,"",NA,"","",NA,NA,NA,NA,"",NA,NA,"","",NA,NA,"","","",NA,NA,NA
"190","","localizer","","html-keyboard-response",189,313383,"0.0-2.0-64.0-0.0",33,21859,"Female","45","","",NA,"68","0",62,NA,"Stimuli/Experimental_stims/localizer/objects/nordwood-themes-E9tFH39iRPE-unsplash.jpg",NA,312849,1,"objects",NA,0,0,1,400,66600,534,71544,NA,NA,NA,NA,"","",NA,NA,"","","",NA,NA,"","","",NA,NA,NA,"","","","",NA,NA,NA,NA,"","",NA,NA,"",NA,"","",NA,NA,NA,NA,"",NA,NA,"","",NA,NA,"","","",NA,NA,NA
"191","","iti_localizer","","html-keyboard-response",190,313702,"0.0-2.0-64.0-1.0",33,21859,"Female",NA,"","",NA,NA,"",62,NA,"",NA,313383,1,"",NA,NA,NA,NA,300,67000,319,72078,300,NA,NA,NA,"","",NA,NA,"","","",NA,NA,"","","",NA,NA,NA,"","","","",NA,NA,NA,NA,"","",NA,NA,"",NA,"","",NA,NA,NA,NA,"",NA,NA,"","",NA,NA,"","","",NA,NA,NA
"192","","localizer","","html-keyboard-response",191,314113,"0.0-2.0-65.0-0.0",33,21859,"Female","46","","",NA,"75","1",63,NA,"Stimuli/Experimental_stims/localizer/objects/mockup-graphics-aUkYaG12Dgs-unsplash.jpg",NA,313702,1,"objects",NA,0,0,0,400,67300,411,72397,NA,NA,NA,NA,"","",NA,NA,"","","",NA,NA,"","","",NA,NA,NA,"","","","",NA,NA,NA,NA,"","",NA,NA,"",NA,"","",NA,NA,NA,NA,"",NA,NA,"","",NA,NA,"","","",NA,NA,NA
"193","","iti_localizer","","html-keyboard-response",192,314432,"0.0-2.0-65.0-1.0",33,21859,"Female",NA,"","",NA,NA,"",63,NA,"",NA,314113,1,"",NA,NA,NA,NA,300,67700,319,72808,300,NA,NA,NA,"","",NA,NA,"","","",NA,NA,"","","",NA,NA,NA,"","","","",NA,NA,NA,NA,"","",NA,NA,"",NA,"","",NA,NA,NA,NA,"",NA,NA,"","",NA,NA,"","","",NA,NA,NA
"194","","localizer","","html-keyboard-response",193,314857,"0.0-2.0-66.0-0.0",33,21859,"Female","66","","",NA,"75","1",64,NA,"Stimuli/Experimental_stims/localizer/objects/maria-lupan-Rlakka_pZMU-unsplash.jpg",NA,314432,1,"objects",NA,0,0,0,400,68000,425,73127,NA,NA,NA,NA,"","",NA,NA,"","","",NA,NA,"","","",NA,NA,NA,"","","","",NA,NA,NA,NA,"","",NA,NA,"",NA,"","",NA,NA,NA,NA,"",NA,NA,"","",NA,NA,"","","",NA,NA,NA
"195","","iti_localizer","","html-keyboard-response",194,315232,"0.0-2.0-66.0-1.0",33,21859,"Female",NA,"","",NA,NA,"",64,NA,"",NA,314857,1,"",NA,NA,NA,NA,300,68400,375,73552,300,NA,NA,NA,"","",NA,NA,"","","",NA,NA,"","","",NA,NA,NA,"","","","",NA,NA,NA,NA,"","",NA,NA,"",NA,"","",NA,NA,NA,NA,"",NA,NA,"","",NA,NA,"","","",NA,NA,NA
"196","","localizer","","html-keyboard-response",195,315643,"0.0-2.0-67.0-0.0",33,21859,"Female","12","","",NA,"75","1",65,NA,"Stimuli/Experimental_stims/localizer/objects/quaritsch-photography-lZ8onQ1wuY8-unsplash.jpg",NA,315232,1,"objects",NA,0,0,0,400,68700,411,73927,NA,NA,NA,NA,"","",NA,NA,"","","",NA,NA,"","","",NA,NA,NA,"","","","",NA,NA,NA,NA,"","",NA,NA,"",NA,"","",NA,NA,NA,NA,"",NA,NA,"","",NA,NA,"","","",NA,NA,NA
"197","","iti_localizer","","html-keyboard-response",196,329683,"0.0-2.0-67.0-1.0",33,21859,"Female",NA,"","",NA,NA,"",65,NA,"",NA,315643,1,"",NA,NA,NA,NA,14000,69100,14040,74338,14000,NA,NA,NA,"","",NA,NA,"","","",NA,NA,"","","",NA,NA,NA,"","","","",NA,NA,NA,NA,"","",NA,NA,"",NA,"","",NA,NA,NA,NA,"",NA,NA,"","",NA,NA,"","","",NA,NA,NA
"198","","localizer","","html-keyboard-response",197,330165,"0.0-2.0-68.0-0.0",33,21859,"Female",NA,"","",NA,NA,NA,66,NA,"Stimuli/Experimental_stims/localizer/faces/brooke-cagle-Nm70URdtf3c-unsplash (1).jpg",NA,329683,1,"faces",NA,0,1,0,400,83100,482,88378,NA,NA,NA,NA,"","",NA,NA,"","","",NA,NA,"","","",NA,NA,NA,"","","","",NA,NA,NA,NA,"","",NA,NA,"",NA,"","",NA,NA,NA,NA,"",NA,NA,"","",NA,NA,"","","",NA,NA,NA
"199","","iti_localizer","","html-keyboard-response",198,330489,"0.0-2.0-68.0-1.0",33,21859,"Female",NA,"","",NA,NA,"",66,NA,"",NA,330165,1,"",NA,NA,NA,NA,300,83500,324,88860,300,NA,NA,NA,"","",NA,NA,"","","",NA,NA,"","","",NA,NA,NA,"","","","",NA,NA,NA,NA,"","",NA,NA,"",NA,"","",NA,NA,NA,NA,"",NA,NA,"","",NA,NA,"","","",NA,NA,NA
"200","","localizer","","html-keyboard-response",199,330901,"0.0-2.0-69.0-0.0",33,21859,"Female","272","","",NA,"68","0",67,NA,"Stimuli/Experimental_stims/localizer/faces/joseph-gonzalez-iFgRcqHznqg-unsplash.jpg",NA,330489,1,"faces",NA,0,0,1,400,83800,412,89184,NA,NA,NA,NA,"","",NA,NA,"","","",NA,NA,"","","",NA,NA,NA,"","","","",NA,NA,NA,NA,"","",NA,NA,"",NA,"","",NA,NA,NA,NA,"",NA,NA,"","",NA,NA,"","","",NA,NA,NA
"201","","iti_localizer","","html-keyboard-response",200,331223,"0.0-2.0-69.0-1.0",33,21859,"Female",NA,"","",NA,NA,"",67,NA,"",NA,330901,1,"",NA,NA,NA,NA,300,84200,322,89596,300,NA,NA,NA,"","",NA,NA,"","","",NA,NA,"","","",NA,NA,NA,"","","","",NA,NA,NA,NA,"","",NA,NA,"",NA,"","",NA,NA,NA,NA,"",NA,NA,"","",NA,NA,"","","",NA,NA,NA
"202","","localizer","","html-keyboard-response",201,331643,"0.0-2.0-70.0-0.0",33,21859,"Female","108","","",NA,"75","1",68,NA,"Stimuli/Experimental_stims/localizer/faces/pavel-anoshin-d0peGya6R5Y-unsplash.jpg",NA,331223,1,"faces",NA,0,0,0,400,84500,420,89918,NA,NA,NA,NA,"","",NA,NA,"","","",NA,NA,"","","",NA,NA,NA,"","","","",NA,NA,NA,NA,"","",NA,NA,"",NA,"","",NA,NA,NA,NA,"",NA,NA,"","",NA,NA,"","","",NA,NA,NA
"203","","iti_localizer","","html-keyboard-response",202,331967,"0.0-2.0-70.0-1.0",33,21859,"Female",NA,"","",NA,NA,"",68,NA,"",NA,331643,1,"",NA,NA,NA,NA,300,84900,324,90338,300,NA,NA,NA,"","",NA,NA,"","","",NA,NA,"","","",NA,NA,NA,"","","","",NA,NA,NA,NA,"","",NA,NA,"",NA,"","",NA,NA,NA,NA,"",NA,NA,"","",NA,NA,"","","",NA,NA,NA
"204","","localizer","","html-keyboard-response",203,332386,"0.0-2.0-71.0-0.0",33,21859,"Female","92","","",NA,"75","1",69,NA,"Stimuli/Experimental_stims/localizer/faces/alexis-chloe-TYDkKEgc0Fg-unsplash.jpg",NA,331967,1,"faces",NA,0,0,0,400,85200,419,90662,NA,NA,NA,NA,"","",NA,NA,"","","",NA,NA,"","","",NA,NA,NA,"","","","",NA,NA,NA,NA,"","",NA,NA,"",NA,"","",NA,NA,NA,NA,"",NA,NA,"","",NA,NA,"","","",NA,NA,NA
"205","","iti_localizer","","html-keyboard-response",204,332760,"0.0-2.0-71.0-1.0",33,21859,"Female",NA,"","",NA,NA,"",69,NA,"",NA,332386,1,"",NA,NA,NA,NA,300,85600,374,91081,300,NA,NA,NA,"","",NA,NA,"","","",NA,NA,"","","",NA,NA,NA,"","","","",NA,NA,NA,NA,"","",NA,NA,"",NA,"","",NA,NA,NA,NA,"",NA,NA,"","",NA,NA,"","","",NA,NA,NA
"206","","localizer","","html-keyboard-response",205,333170,"0.0-2.0-72.0-0.0",33,21859,"Female","4","","",NA,"68","0",70,NA,"Stimuli/Experimental_stims/localizer/faces/aiony-haust-K0DxxljcRv0-unsplash.jpg",NA,332760,1,"faces",NA,1,0,0,400,85900,410,91455,NA,NA,NA,NA,"","",NA,NA,"","","",NA,NA,"","","",NA,NA,NA,"","","","",NA,NA,NA,NA,"","",NA,NA,"",NA,"","",NA,NA,NA,NA,"",NA,NA,"","",NA,NA,"","","",NA,NA,NA
"207","","iti_localizer","","html-keyboard-response",206,333581,"0.0-2.0-72.0-1.0",33,21859,"Female",NA,"","",NA,NA,"",70,NA,"",NA,333170,1,"",NA,NA,NA,NA,300,86300,411,91865,300,NA,NA,NA,"","",NA,NA,"","","",NA,NA,"","","",NA,NA,NA,"","","","",NA,NA,NA,NA,"","",NA,NA,"",NA,"","",NA,NA,NA,NA,"",NA,NA,"","",NA,NA,"","","",NA,NA,NA
"208","","localizer","","html-keyboard-response",207,334000,"0.0-2.0-73.0-0.0",33,21859,"Female","4","","",NA,"68","0",71,NA,"Stimuli/Experimental_stims/localizer/faces/olena-sergienko-0TSd6uCKTKc-unsplash.jpg",NA,333581,1,"faces",NA,0,0,1,400,86600,419,92276,NA,NA,NA,NA,"","",NA,NA,"","","",NA,NA,"","","",NA,NA,NA,"","","","",NA,NA,NA,NA,"","",NA,NA,"",NA,"","",NA,NA,NA,NA,"",NA,NA,"","",NA,NA,"","","",NA,NA,NA
"209","","iti_localizer","","html-keyboard-response",208,334310,"0.0-2.0-73.0-1.0",33,21859,"Female",NA,"","",NA,NA,"",71,NA,"",NA,334000,1,"",NA,NA,NA,NA,300,87000,310,92695,300,NA,NA,NA,"","",NA,NA,"","","",NA,NA,"","","",NA,NA,NA,"","","","",NA,NA,NA,NA,"","",NA,NA,"",NA,"","",NA,NA,NA,NA,"",NA,NA,"","",NA,NA,"","","",NA,NA,NA
"210","","localizer","","html-keyboard-response",209,334740,"0.0-2.0-74.0-0.0",33,21859,"Female","154","","",NA,"68","0",72,NA,"Stimuli/Experimental_stims/localizer/faces/aatik-tasneem-7omHUGhhmZ0-unsplash.jpg",NA,334310,1,"faces",NA,0,0,1,400,87300,430,93005,NA,NA,NA,NA,"","",NA,NA,"","","",NA,NA,"","","",NA,NA,NA,"","","","",NA,NA,NA,NA,"","",NA,NA,"",NA,"","",NA,NA,NA,NA,"",NA,NA,"","",NA,NA,"","","",NA,NA,NA
"211","","iti_localizer","","html-keyboard-response",210,335072,"0.0-2.0-74.0-1.0",33,21859,"Female",NA,"","",NA,NA,"",72,NA,"",NA,334740,1,"",NA,NA,NA,NA,300,87700,332,93435,300,NA,NA,NA,"","",NA,NA,"","","",NA,NA,"","","",NA,NA,NA,"","","","",NA,NA,NA,NA,"","",NA,NA,"",NA,"","",NA,NA,NA,NA,"",NA,NA,"","",NA,NA,"","","",NA,NA,NA
"212","","localizer","","html-keyboard-response",211,335487,"0.0-2.0-75.0-0.0",33,21859,"Female","13","","",NA,"68","0",73,NA,"Stimuli/Experimental_stims/localizer/faces/tyler-nix-ZGa9d1a_4tA-unsplash.jpg",NA,335072,1,"faces",NA,0,0,1,400,88000,415,93767,NA,NA,NA,NA,"","",NA,NA,"","","",NA,NA,"","","",NA,NA,NA,"","","","",NA,NA,NA,NA,"","",NA,NA,"",NA,"","",NA,NA,NA,NA,"",NA,NA,"","",NA,NA,"","","",NA,NA,NA
"213","","iti_localizer","","html-keyboard-response",212,335873,"0.0-2.0-75.0-1.0",33,21859,"Female",NA,"","",NA,NA,"",73,NA,"",NA,335487,1,"",NA,NA,NA,NA,300,88400,386,94182,300,NA,NA,NA,"","",NA,NA,"","","",NA,NA,"","","",NA,NA,NA,"","","","",NA,NA,NA,NA,"","",NA,NA,"",NA,"","",NA,NA,NA,NA,"",NA,NA,"","",NA,NA,"","","",NA,NA,NA
"214","","localizer","","html-keyboard-response",213,336283,"0.0-2.0-76.0-0.0",33,21859,"Female","32","","",NA,"75","1",74,NA,"Stimuli/Experimental_stims/localizer/faces/imansyah-muhamad-putera-n4KewLKFOZw-unsplash.jpg",NA,335873,1,"faces",NA,0,0,0,400,88700,410,94568,NA,NA,NA,NA,"","",NA,NA,"","","",NA,NA,"","","",NA,NA,NA,"","","","",NA,NA,NA,NA,"","",NA,NA,"",NA,"","",NA,NA,NA,NA,"",NA,NA,"","",NA,NA,"","","",NA,NA,NA
"215","","iti_localizer","","html-keyboard-response",214,336602,"0.0-2.0-76.0-1.0",33,21859,"Female",NA,"","",NA,NA,"",74,NA,"",NA,336283,1,"",NA,NA,NA,NA,300,89100,319,94978,300,NA,NA,NA,"","",NA,NA,"","","",NA,NA,"","","",NA,NA,NA,"","","","",NA,NA,NA,NA,"","",NA,NA,"",NA,"","",NA,NA,NA,NA,"",NA,NA,"","",NA,NA,"","","",NA,NA,NA
"216","","localizer","","html-keyboard-response",215,337028,"0.0-2.0-77.0-0.0",33,21859,"Female","77","","",NA,"75","1",75,NA,"Stimuli/Experimental_stims/localizer/faces/philip-martin-5aGUyCW_PJw-unsplash.jpg",NA,336602,1,"faces",NA,0,0,0,400,89400,426,95297,NA,NA,NA,NA,"","",NA,NA,"","","",NA,NA,"","","",NA,NA,NA,"","","","",NA,NA,NA,NA,"","",NA,NA,"",NA,"","",NA,NA,NA,NA,"",NA,NA,"","",NA,NA,"","","",NA,NA,NA
"217","","iti_localizer","","html-keyboard-response",216,337342,"0.0-2.0-77.0-1.0",33,21859,"Female",NA,"","",NA,NA,"",75,NA,"",NA,337028,1,"",NA,NA,NA,NA,300,89800,314,95723,300,NA,NA,NA,"","",NA,NA,"","","",NA,NA,"","","",NA,NA,NA,"","","","",NA,NA,NA,NA,"","",NA,NA,"",NA,"","",NA,NA,NA,NA,"",NA,NA,"","",NA,NA,"","","",NA,NA,NA
"218","","localizer","","html-keyboard-response",217,337783,"0.0-2.0-78.0-0.0",33,21859,"Female","279","","",NA,"75","1",76,NA,"Stimuli/Experimental_stims/localizer/faces/vince-fleming-j3lf-Jn6deo-unsplash.jpg",NA,337342,1,"faces",NA,0,0,0,400,90100,441,96037,NA,NA,NA,NA,"","",NA,NA,"","","",NA,NA,"","","",NA,NA,NA,"","","","",NA,NA,NA,NA,"","",NA,NA,"",NA,"","",NA,NA,NA,NA,"",NA,NA,"","",NA,NA,"","","",NA,NA,NA
"219","","iti_localizer","","html-keyboard-response",218,338105,"0.0-2.0-78.0-1.0",33,21859,"Female",NA,"","",NA,NA,"",76,NA,"",NA,337783,1,"",NA,NA,NA,NA,300,90500,322,96478,300,NA,NA,NA,"","",NA,NA,"","","",NA,NA,"","","",NA,NA,NA,"","","","",NA,NA,NA,NA,"","",NA,NA,"",NA,"","",NA,NA,NA,NA,"",NA,NA,"","",NA,NA,"","","",NA,NA,NA
"220","","localizer","","html-keyboard-response",219,338626,"0.0-2.0-79.0-0.0",33,21859,"Female","81","","",NA,"75","1",77,NA,"Stimuli/Experimental_stims/localizer/faces/hassan-khan-EGVccebWodM-unsplash.jpg",NA,338105,1,"faces",NA,0,0,0,400,90800,521,96800,NA,NA,NA,NA,"","",NA,NA,"","","",NA,NA,"","","",NA,NA,NA,"","","","",NA,NA,NA,NA,"","",NA,NA,"",NA,"","",NA,NA,NA,NA,"",NA,NA,"","",NA,NA,"","","",NA,NA,NA
"221","","iti_localizer","","html-keyboard-response",220,338956,"0.0-2.0-79.0-1.0",33,21859,"Female",NA,"","",NA,NA,"",77,NA,"",NA,338626,1,"",NA,NA,NA,NA,300,91200,330,97321,300,NA,NA,NA,"","",NA,NA,"","","",NA,NA,"","","",NA,NA,NA,"","","","",NA,NA,NA,NA,"","",NA,NA,"",NA,"","",NA,NA,NA,NA,"",NA,NA,"","",NA,NA,"","","",NA,NA,NA
"222","","localizer","","html-keyboard-response",221,339382,"0.0-2.0-80.0-0.0",33,21859,"Female","18","","",NA,"75","1",78,NA,"Stimuli/Experimental_stims/localizer/faces/toa-heftiba-O3ymvT7Wf9U-unsplash.jpg",NA,338956,1,"faces",NA,0,0,0,400,91500,426,97651,NA,NA,NA,NA,"","",NA,NA,"","","",NA,NA,"","","",NA,NA,NA,"","","","",NA,NA,NA,NA,"","",NA,NA,"",NA,"","",NA,NA,NA,NA,"",NA,NA,"","",NA,NA,"","","",NA,NA,NA
"223","","iti_localizer","","html-keyboard-response",222,339720,"0.0-2.0-80.0-1.0",33,21859,"Female",NA,"","",NA,NA,"",78,NA,"",NA,339382,1,"",NA,NA,NA,NA,300,91900,338,98077,300,NA,NA,NA,"","",NA,NA,"","","",NA,NA,"","","",NA,NA,NA,"","","","",NA,NA,NA,NA,"","",NA,NA,"",NA,"","",NA,NA,NA,NA,"",NA,NA,"","",NA,NA,"","","",NA,NA,NA
"224","","localizer","","html-keyboard-response",223,340196,"0.0-2.0-81.0-0.0",33,21859,"Female","95","","",NA,"68","0",79,NA,"Stimuli/Experimental_stims/localizer/faces/jurica-koletic-7YVZYZeITc8-unsplash.jpg",NA,339720,1,"faces",NA,0,0,1,400,92200,476,98415,NA,NA,NA,NA,"","",NA,NA,"","","",NA,NA,"","","",NA,NA,NA,"","","","",NA,NA,NA,NA,"","",NA,NA,"",NA,"","",NA,NA,NA,NA,"",NA,NA,"","",NA,NA,"","","",NA,NA,NA
"225","","iti_localizer","","html-keyboard-response",224,340508,"0.0-2.0-81.0-1.0",33,21859,"Female",NA,"","",NA,NA,"",79,NA,"",NA,340196,1,"",NA,NA,NA,NA,300,92600,312,98891,300,NA,NA,NA,"","",NA,NA,"","","",NA,NA,"","","",NA,NA,NA,"","","","",NA,NA,NA,NA,"","",NA,NA,"",NA,"","",NA,NA,NA,NA,"",NA,NA,"","",NA,NA,"","","",NA,NA,NA
"226","","localizer","","html-keyboard-response",225,340952,"0.0-2.0-82.0-0.0",33,21859,"Female","145","","",NA,"68","0",80,NA,"Stimuli/Experimental_stims/localizer/faces/rui-silvestre-hAMJpesMeDE-unsplash.jpg",NA,340508,1,"faces",NA,0,0,1,400,92900,444,99203,NA,NA,NA,NA,"","",NA,NA,"","","",NA,NA,"","","",NA,NA,NA,"","","","",NA,NA,NA,NA,"","",NA,NA,"",NA,"","",NA,NA,NA,NA,"",NA,NA,"","",NA,NA,"","","",NA,NA,NA
"227","","iti_localizer","","html-keyboard-response",226,341360,"0.0-2.0-82.0-1.0",33,21859,"Female",NA,"","",NA,NA,"",80,NA,"",NA,340952,1,"",NA,NA,NA,NA,300,93300,408,99647,300,NA,NA,NA,"","",NA,NA,"","","",NA,NA,"","","",NA,NA,NA,"","","","",NA,NA,NA,NA,"","",NA,NA,"",NA,"","",NA,NA,NA,NA,"",NA,NA,"","",NA,NA,"","","",NA,NA,NA
"228","","localizer","","html-keyboard-response",227,341771,"0.0-2.0-83.0-0.0",33,21859,"Female","251","","",NA,"75","1",81,NA,"Stimuli/Experimental_stims/localizer/faces/ben-scott-tWb7IsL9CnY-unsplash.jpg",NA,341360,1,"faces",NA,1,0,1,400,93600,411,100055,NA,NA,NA,NA,"","",NA,NA,"","","",NA,NA,"","","",NA,NA,NA,"","","","",NA,NA,NA,NA,"","",NA,NA,"",NA,"","",NA,NA,NA,NA,"",NA,NA,"","",NA,NA,"","","",NA,NA,NA
"229","","iti_localizer","","html-keyboard-response",228,342080,"0.0-2.0-83.0-1.0",33,21859,"Female",NA,"","",NA,NA,"",81,NA,"",NA,341771,1,"",NA,NA,NA,NA,300,94000,309,100466,300,NA,NA,NA,"","",NA,NA,"","","",NA,NA,"","","",NA,NA,NA,"","","","",NA,NA,NA,NA,"","",NA,NA,"",NA,"","",NA,NA,NA,NA,"",NA,NA,"","",NA,NA,"","","",NA,NA,NA
"230","","localizer","","html-keyboard-response",229,342511,"0.0-2.0-84.0-0.0",33,21859,"Female","137","","",NA,"75","1",82,NA,"Stimuli/Experimental_stims/localizer/faces/mathias-huysmans-U4JDjYmjn1g-unsplash.jpg",NA,342080,1,"faces",NA,0,0,0,400,94300,431,100775,NA,NA,NA,NA,"","",NA,NA,"","","",NA,NA,"","","",NA,NA,NA,"","","","",NA,NA,NA,NA,"","",NA,NA,"",NA,"","",NA,NA,NA,NA,"",NA,NA,"","",NA,NA,"","","",NA,NA,NA
"231","","iti_localizer","","html-keyboard-response",230,342862,"0.0-2.0-84.0-1.0",33,21859,"Female",NA,"","",NA,NA,"",82,NA,"",NA,342511,1,"",NA,NA,NA,NA,300,94700,351,101206,300,NA,NA,NA,"","",NA,NA,"","","",NA,NA,"","","",NA,NA,NA,"","","","",NA,NA,NA,NA,"","",NA,NA,"",NA,"","",NA,NA,NA,NA,"",NA,NA,"","",NA,NA,"","","",NA,NA,NA
"232","","localizer","","html-keyboard-response",231,343297,"0.0-2.0-85.0-0.0",33,21859,"Female","95","","",NA,"75","1",83,NA,"Stimuli/Experimental_stims/localizer/faces/james-marty-h1BuNJZzpC8-unsplash.jpg",NA,342862,1,"faces",NA,0,0,0,400,95000,435,101557,NA,NA,NA,NA,"","",NA,NA,"","","",NA,NA,"","","",NA,NA,NA,"","","","",NA,NA,NA,NA,"","",NA,NA,"",NA,"","",NA,NA,NA,NA,"",NA,NA,"","",NA,NA,"","","",NA,NA,NA
"233","","iti_localizer","","html-keyboard-response",232,343774,"0.0-2.0-85.0-1.0",33,21859,"Female",NA,"","",NA,NA,"",83,NA,"",NA,343297,1,"",NA,NA,NA,NA,300,95400,477,101992,300,NA,NA,NA,"","",NA,NA,"","","",NA,NA,"","","",NA,NA,NA,"","","","",NA,NA,NA,NA,"","",NA,NA,"",NA,"","",NA,NA,NA,NA,"",NA,NA,"","",NA,NA,"","","",NA,NA,NA
"234","","localizer","","html-keyboard-response",233,344251,"0.0-2.0-86.0-0.0",33,21859,"Female","25","","",NA,"75","1",84,NA,"Stimuli/Experimental_stims/localizer/faces/drew-hays-agGIKYs4mYs-unsplash.jpg",NA,343774,1,"faces",NA,0,0,0,400,95700,477,102469,NA,NA,NA,NA,"","",NA,NA,"","","",NA,NA,"","","",NA,NA,NA,"","","","",NA,NA,NA,NA,"","",NA,NA,"",NA,"","",NA,NA,NA,NA,"",NA,NA,"","",NA,NA,"","","",NA,NA,NA
"235","","iti_localizer","","html-keyboard-response",234,344597,"0.0-2.0-86.0-1.0",33,21859,"Female",NA,"","",NA,NA,"",84,NA,"",NA,344251,1,"",NA,NA,NA,NA,300,96100,346,102946,300,NA,NA,NA,"","",NA,NA,"","","",NA,NA,"","","",NA,NA,NA,"","","","",NA,NA,NA,NA,"","",NA,NA,"",NA,"","",NA,NA,NA,NA,"",NA,NA,"","",NA,NA,"","","",NA,NA,NA
"236","","localizer","","html-keyboard-response",235,345015,"0.0-2.0-87.0-0.0",33,21859,"Female","4","","",NA,"75","1",85,NA,"Stimuli/Experimental_stims/localizer/faces/jakob-owens-lkMJcGDZLVs-unsplash.jpg",NA,344597,1,"faces",NA,0,0,0,400,96400,418,103292,NA,NA,NA,NA,"","",NA,NA,"","","",NA,NA,"","","",NA,NA,NA,"","","","",NA,NA,NA,NA,"","",NA,NA,"",NA,"","",NA,NA,NA,NA,"",NA,NA,"","",NA,NA,"","","",NA,NA,NA
"237","","iti_localizer","","html-keyboard-response",236,359094,"0.0-2.0-87.0-1.0",33,21859,"Female",NA,"","",NA,NA,"",85,NA,"",NA,345015,1,"",NA,NA,NA,NA,14000,96800,14079,103710,14000,NA,NA,NA,"","",NA,NA,"","","",NA,NA,"","","",NA,NA,NA,"","","","",NA,NA,NA,NA,"","",NA,NA,"",NA,"","",NA,NA,NA,NA,"",NA,NA,"","",NA,NA,"","","",NA,NA,NA
"238","","localizer","","html-keyboard-response",237,359525,"0.0-2.0-88.0-0.0",33,21859,"Female",NA,"","",NA,NA,NA,86,NA,"Stimuli/Experimental_stims/localizer/body_parts/marcel-fagin-OUYg0Q3ec-Y-unsplash.jpg",NA,359094,1,"body_parts",NA,0,1,0,400,110800,431,117789,NA,NA,NA,NA,"","",NA,NA,"","","",NA,NA,"","","",NA,NA,NA,"","","","",NA,NA,NA,NA,"","",NA,NA,"",NA,"","",NA,NA,NA,NA,"",NA,NA,"","",NA,NA,"","","",NA,NA,NA
"239","","iti_localizer","","html-keyboard-response",238,359842,"0.0-2.0-88.0-1.0",33,21859,"Female",NA,"","",NA,NA,"",86,NA,"",NA,359525,1,"",NA,NA,NA,NA,300,111200,317,118220,300,NA,NA,NA,"","",NA,NA,"","","",NA,NA,"","","",NA,NA,NA,"","","","",NA,NA,NA,NA,"","",NA,NA,"",NA,"","",NA,NA,NA,NA,"",NA,NA,"","",NA,NA,"","","",NA,NA,NA
"240","","localizer","","html-keyboard-response",239,360309,"0.0-2.0-89.0-0.0",33,21859,"Female",NA,"","",NA,NA,NA,87,NA,"Stimuli/Experimental_stims/localizer/body_parts/helen-ast-l2iY5Sh0mTg-unsplash.jpg",NA,359842,1,"body_parts",NA,0,1,0,400,111500,467,118537,NA,NA,NA,NA,"","",NA,NA,"","","",NA,NA,"","","",NA,NA,NA,"","","","",NA,NA,NA,NA,"","",NA,NA,"",NA,"","",NA,NA,NA,NA,"",NA,NA,"","",NA,NA,"","","",NA,NA,NA
"241","","iti_localizer","","html-keyboard-response",240,360629,"0.0-2.0-89.0-1.0",33,21859,"Female",NA,"","",NA,NA,"",87,NA,"",NA,360309,1,"",NA,NA,NA,NA,300,111900,320,119004,300,NA,NA,NA,"","",NA,NA,"","","",NA,NA,"","","",NA,NA,NA,"","","","",NA,NA,NA,NA,"","",NA,NA,"",NA,"","",NA,NA,NA,NA,"",NA,NA,"","",NA,NA,"","","",NA,NA,NA
"242","","localizer","","html-keyboard-response",241,361116,"0.0-2.0-90.0-0.0",33,21859,"Female","112","","",NA,"68","0",88,NA,"Stimuli/Experimental_stims/localizer/body_parts/luisa-denu-o5EU_lUB1rg-unsplash.jpg",NA,360629,1,"body_parts",NA,0,0,1,400,112200,487,119324,NA,NA,NA,NA,"","",NA,NA,"","","",NA,NA,"","","",NA,NA,NA,"","","","",NA,NA,NA,NA,"","",NA,NA,"",NA,"","",NA,NA,NA,NA,"",NA,NA,"","",NA,NA,"","","",NA,NA,NA
"243","","iti_localizer","","html-keyboard-response",242,361441,"0.0-2.0-90.0-1.0",33,21859,"Female",NA,"","",NA,NA,"",88,NA,"",NA,361116,1,"",NA,NA,NA,NA,300,112600,325,119811,300,NA,NA,NA,"","",NA,NA,"","","",NA,NA,"","","",NA,NA,NA,"","","","",NA,NA,NA,NA,"","",NA,NA,"",NA,"","",NA,NA,NA,NA,"",NA,NA,"","",NA,NA,"","","",NA,NA,NA
"244","","localizer","","html-keyboard-response",243,361973,"0.0-2.0-91.0-0.0",33,21859,"Female","63","","",NA,"68","0",89,NA,"Stimuli/Experimental_stims/localizer/body_parts/megan-menegay-UojxG_BJxnI-unsplash.jpg",NA,361441,1,"body_parts",NA,0,0,1,400,112900,532,120136,NA,NA,NA,NA,"","",NA,NA,"","","",NA,NA,"","","",NA,NA,NA,"","","","",NA,NA,NA,NA,"","",NA,NA,"",NA,"","",NA,NA,NA,NA,"",NA,NA,"","",NA,NA,"","","",NA,NA,NA
"245","","iti_localizer","","html-keyboard-response",244,362283,"0.0-2.0-91.0-1.0",33,21859,"Female",NA,"","",NA,NA,"",89,NA,"",NA,361973,1,"",NA,NA,NA,NA,300,113300,310,120668,300,NA,NA,NA,"","",NA,NA,"","","",NA,NA,"","","",NA,NA,NA,"","","","",NA,NA,NA,NA,"","",NA,NA,"",NA,"","",NA,NA,NA,NA,"",NA,NA,"","",NA,NA,"","","",NA,NA,NA
"246","","localizer","","html-keyboard-response",245,362748,"0.0-2.0-92.0-0.0",33,21859,"Female","26","","",NA,"68","0",90,NA,"Stimuli/Experimental_stims/localizer/body_parts/sincerely-media-9Zf6yh7RYbQ-unsplash.jpg",NA,362283,1,"body_parts",NA,0,0,1,400,113600,465,120978,NA,NA,NA,NA,"","",NA,NA,"","","",NA,NA,"","","",NA,NA,NA,"","","","",NA,NA,NA,NA,"","",NA,NA,"",NA,"","",NA,NA,NA,NA,"",NA,NA,"","",NA,NA,"","","",NA,NA,NA
"247","","iti_localizer","","html-keyboard-response",246,363113,"0.0-2.0-92.0-1.0",33,21859,"Female",NA,"","",NA,NA,"",90,NA,"",NA,362748,1,"",NA,NA,NA,NA,300,114000,365,121443,300,NA,NA,NA,"","",NA,NA,"","","",NA,NA,"","","",NA,NA,NA,"","","","",NA,NA,NA,NA,"","",NA,NA,"",NA,"","",NA,NA,NA,NA,"",NA,NA,"","",NA,NA,"","","",NA,NA,NA
"248","","localizer","","html-keyboard-response",247,363540,"0.0-2.0-93.0-0.0",33,21859,"Female","15","","",NA,"68","0",91,NA,"Stimuli/Experimental_stims/localizer/body_parts/sandra-seitamaa-YCc_YAAhY3I-unsplash.jpg",NA,363113,1,"body_parts",NA,1,0,0,400,114300,427,121808,NA,NA,NA,NA,"","",NA,NA,"","","",NA,NA,"","","",NA,NA,NA,"","","","",NA,NA,NA,NA,"","",NA,NA,"",NA,"","",NA,NA,NA,NA,"",NA,NA,"","",NA,NA,"","","",NA,NA,NA
"249","","iti_localizer","","html-keyboard-response",248,363849,"0.0-2.0-93.0-1.0",33,21859,"Female",NA,"","",NA,NA,"",91,NA,"",NA,363540,1,"",NA,NA,NA,NA,300,114700,309,122235,300,NA,NA,NA,"","",NA,NA,"","","",NA,NA,"","","",NA,NA,NA,"","","","",NA,NA,NA,NA,"","",NA,NA,"",NA,"","",NA,NA,NA,NA,"",NA,NA,"","",NA,NA,"","","",NA,NA,NA
"250","","localizer","","html-keyboard-response",249,364286,"0.0-2.0-94.0-0.0",33,21859,"Female","84","","",NA,"75","1",92,NA,"Stimuli/Experimental_stims/localizer/body_parts/jonathan-borba-hTwH8QFkPMs-unsplash.jpg",NA,363849,1,"body_parts",NA,0,0,0,400,115000,437,122544,NA,NA,NA,NA,"","",NA,NA,"","","",NA,NA,"","","",NA,NA,NA,"","","","",NA,NA,NA,NA,"","",NA,NA,"",NA,"","",NA,NA,NA,NA,"",NA,NA,"","",NA,NA,"","","",NA,NA,NA
"251","","iti_localizer","","html-keyboard-response",250,364643,"0.0-2.0-94.0-1.0",33,21859,"Female",NA,"","",NA,NA,"",92,NA,"",NA,364286,1,"",NA,NA,NA,NA,300,115400,357,122981,300,NA,NA,NA,"","",NA,NA,"","","",NA,NA,"","","",NA,NA,NA,"","","","",NA,NA,NA,NA,"","",NA,NA,"",NA,"","",NA,NA,NA,NA,"",NA,NA,"","",NA,NA,"","","",NA,NA,NA
"252","","localizer","","html-keyboard-response",251,365083,"0.0-2.0-95.0-0.0",33,21859,"Female","290","","",NA,"75","1",93,NA,"Stimuli/Experimental_stims/localizer/body_parts/bady-abbas-N-VEeMnm7gE-unsplash.jpg",NA,364643,1,"body_parts",NA,0,0,0,400,115700,440,123338,NA,NA,NA,NA,"","",NA,NA,"","","",NA,NA,"","","",NA,NA,NA,"","","","",NA,NA,NA,NA,"","",NA,NA,"",NA,"","",NA,NA,NA,NA,"",NA,NA,"","",NA,NA,"","","",NA,NA,NA
"253","","iti_localizer","","html-keyboard-response",252,365410,"0.0-2.0-95.0-1.0",33,21859,"Female",NA,"","",NA,NA,"",93,NA,"",NA,365083,1,"",NA,NA,NA,NA,300,116100,327,123778,300,NA,NA,NA,"","",NA,NA,"","","",NA,NA,"","","",NA,NA,NA,"","","","",NA,NA,NA,NA,"","",NA,NA,"",NA,"","",NA,NA,NA,NA,"",NA,NA,"","",NA,NA,"","","",NA,NA,NA
"254","","localizer","","html-keyboard-response",253,365835,"0.0-2.0-96.0-0.0",33,21859,"Female","4","","",NA,"68","0",94,NA,"Stimuli/Experimental_stims/localizer/body_parts/sydney-herron-b2W04fGuS70-unsplash.jpg",NA,365410,1,"body_parts",NA,0,0,1,400,116400,425,124105,NA,NA,NA,NA,"","",NA,NA,"","","",NA,NA,"","","",NA,NA,NA,"","","","",NA,NA,NA,NA,"","",NA,NA,"",NA,"","",NA,NA,NA,NA,"",NA,NA,"","",NA,NA,"","","",NA,NA,NA
"255","","iti_localizer","","html-keyboard-response",254,366158,"0.0-2.0-96.0-1.0",33,21859,"Female",NA,"","",NA,NA,"",94,NA,"",NA,365835,1,"",NA,NA,NA,NA,300,116800,323,124530,300,NA,NA,NA,"","",NA,NA,"","","",NA,NA,"","","",NA,NA,NA,"","","","",NA,NA,NA,NA,"","",NA,NA,"",NA,"","",NA,NA,NA,NA,"",NA,NA,"","",NA,NA,"","","",NA,NA,NA
"256","","localizer","","html-keyboard-response",255,366703,"0.0-2.0-97.0-0.0",33,21859,"Female","24","","",NA,"75","1",95,NA,"Stimuli/Experimental_stims/localizer/body_parts/matthew-wheeler-2_UxqsaDMmo-unsplash.jpg",NA,366158,1,"body_parts",NA,0,0,0,400,117100,545,124853,NA,NA,NA,NA,"","",NA,NA,"","","",NA,NA,"","","",NA,NA,NA,"","","","",NA,NA,NA,NA,"","",NA,NA,"",NA,"","",NA,NA,NA,NA,"",NA,NA,"","",NA,NA,"","","",NA,NA,NA
"257","","iti_localizer","","html-keyboard-response",256,367020,"0.0-2.0-97.0-1.0",33,21859,"Female",NA,"","",NA,NA,"",95,NA,"",NA,366703,1,"",NA,NA,NA,NA,300,117500,317,125398,300,NA,NA,NA,"","",NA,NA,"","","",NA,NA,"","","",NA,NA,NA,"","","","",NA,NA,NA,NA,"","",NA,NA,"",NA,"","",NA,NA,NA,NA,"",NA,NA,"","",NA,NA,"","","",NA,NA,NA
"258","","localizer","","html-keyboard-response",257,367449,"0.0-2.0-98.0-0.0",33,21859,"Female","111","","",NA,"75","1",96,NA,"Stimuli/Experimental_stims/localizer/body_parts/sincerely-media-Q7qRyaurQfo-unsplash.jpg",NA,367020,1,"body_parts",NA,0,0,0,400,117800,429,125715,NA,NA,NA,NA,"","",NA,NA,"","","",NA,NA,"","","",NA,NA,NA,"","","","",NA,NA,NA,NA,"","",NA,NA,"",NA,"","",NA,NA,NA,NA,"",NA,NA,"","",NA,NA,"","","",NA,NA,NA
"259","","iti_localizer","","html-keyboard-response",258,367886,"0.0-2.0-98.0-1.0",33,21859,"Female",NA,"","",NA,NA,"",96,NA,"",NA,367449,1,"",NA,NA,NA,NA,300,118200,437,126144,300,NA,NA,NA,"","",NA,NA,"","","",NA,NA,"","","",NA,NA,NA,"","","","",NA,NA,NA,NA,"","",NA,NA,"",NA,"","",NA,NA,NA,NA,"",NA,NA,"","",NA,NA,"","","",NA,NA,NA
"260","","localizer","","html-keyboard-response",259,368312,"0.0-2.0-99.0-0.0",33,21859,"Female","14","","",NA,"75","1",97,NA,"Stimuli/Experimental_stims/localizer/body_parts/sincerely-media-pdynOoM7xmA-unsplash.jpg",NA,367886,1,"body_parts",NA,0,0,0,400,118500,426,126581,NA,NA,NA,NA,"","",NA,NA,"","","",NA,NA,"","","",NA,NA,NA,"","","","",NA,NA,NA,NA,"","",NA,NA,"",NA,"","",NA,NA,NA,NA,"",NA,NA,"","",NA,NA,"","","",NA,NA,NA
"261","","iti_localizer","","html-keyboard-response",260,368647,"0.0-2.0-99.0-1.0",33,21859,"Female",NA,"","",NA,NA,"",97,NA,"",NA,368312,1,"",NA,NA,NA,NA,300,118900,335,127007,300,NA,NA,NA,"","",NA,NA,"","","",NA,NA,"","","",NA,NA,NA,"","","","",NA,NA,NA,NA,"","",NA,NA,"",NA,"","",NA,NA,NA,NA,"",NA,NA,"","",NA,NA,"","","",NA,NA,NA
"262","","localizer","","html-keyboard-response",261,369136,"0.0-2.0-100.0-0.0",33,21859,"Female","102","","",NA,"68","0",98,NA,"Stimuli/Experimental_stims/localizer/body_parts/nadine-shaabana-ypyaaEf2ntM-unsplash.jpg",NA,368647,1,"body_parts",NA,0,0,1,400,119200,489,127342,NA,NA,NA,NA,"","",NA,NA,"","","",NA,NA,"","","",NA,NA,NA,"","","","",NA,NA,NA,NA,"","",NA,NA,"",NA,"","",NA,NA,NA,NA,"",NA,NA,"","",NA,NA,"","","",NA,NA,NA
"263","","iti_localizer","","html-keyboard-response",262,369473,"0.0-2.0-100.0-1.0",33,21859,"Female",NA,"","",NA,NA,"",98,NA,"",NA,369136,1,"",NA,NA,NA,NA,300,119600,337,127831,300,NA,NA,NA,"","",NA,NA,"","","",NA,NA,"","","",NA,NA,NA,"","","","",NA,NA,NA,NA,"","",NA,NA,"",NA,"","",NA,NA,NA,NA,"",NA,NA,"","",NA,NA,"","","",NA,NA,NA
