"","PID","practice","trial","run","task","stimulus_duration","iti","is_odd_ball","path","response","rt","version","no_response","acc"
"1",21859,1,1,0,NA,400,300,0,"Stimuli/Practice_stims/Localizer/annie-spratt-g9KFpAfQ5bc-unsplash.jpg",0,258,4,0,1
"2",21859,1,2,0,NA,400,300,0,"Stimuli/Practice_stims/Localizer/becca-tapert-sY5RjMB1KkE-unsplash.jpg",0,23,4,0,1
"3",21859,1,3,0,NA,400,300,1,"Stimuli/Practice_stims/Localizer/charl-durand-bsfXvI25iNg-unsplash.jpg",0,117,4,0,0
"4",21859,1,4,0,NA,400,300,0,"Stimuli/Practice_stims/Localizer/nizar-albusaidy-B2r2SWAf5CE-unsplash.jpg",1,68,4,0,0
"5",21859,1,5,0,NA,400,300,1,"Stimuli/Practice_stims/Localizer/randy-fath-epf1tdtIIkM-unsplash.jpg",1,35,4,0,1
"6",21859,1,6,0,NA,400,300,0,"Stimuli/Practice_stims/Localizer/yassine-khalfalli-adsQ9d_Cx0c-unsplash.jpg",1,19,4,0,0
"7",21859,0,7,1,"faces",400,300,0,"Stimuli/Experimental_stims/localizer/faces/allef-vinicius-C_1jjFJioWg-unsplash.jpg",NA,NA,4,1,0
"8",21859,0,8,1,"faces",400,300,1,"Stimuli/Experimental_stims/localizer/faces/ayo-ogunseinde-sibVwORYqs0-unsplash.jpg",0,5,4,0,0
"9",21859,0,9,1,"faces",400,300,0,"Stimuli/Experimental_stims/localizer/faces/abstral-official-cyOKLSgkgCE-unsplash.jpg",1,62,4,0,0
"10",21859,0,10,1,"faces",400,300,0,"Stimuli/Experimental_stims/localizer/faces/hisu-lee-2qvxIr_DXGo-unsplash.jpg",0,5,4,0,1
"11",21859,0,11,1,"faces",400,300,0,"Stimuli/Experimental_stims/localizer/faces/austin-wade-X6Uj51n5CE8-unsplash.jpg",0,268,4,0,1
"12",21859,0,12,1,"faces",400,300,0,"Stimuli/Experimental_stims/localizer/faces/darshan-patel-QJEVpydulGs-unsplash.jpg",1,86,4,0,0
"13",21859,0,13,1,"faces",400,300,0,"Stimuli/Experimental_stims/localizer/faces/aleksandar-popovski-Jy4ELSGPHTc-unsplash.jpg",1,17,4,0,0
"14",21859,0,14,1,"faces",400,300,0,"Stimuli/Experimental_stims/localizer/faces/ethan-haddox-__ng3cRXmFE-unsplash.jpg",1,1,4,0,0
"15",21859,0,15,1,"faces",400,300,0,"Stimuli/Experimental_stims/localizer/faces/jake-nackos-IF9TK5Uy-KI-unsplash.jpg",1,171,4,0,0
"16",21859,0,16,1,"faces",400,300,0,"Stimuli/Experimental_stims/localizer/faces/mubariz-mehdizadeh-o-wlIFT4zE4-unsplash.jpg",0,48,4,0,1
"17",21859,0,17,1,"faces",400,300,0,"Stimuli/Experimental_stims/localizer/faces/stephanie-nakagawa-ADSKIn0ScDg-unsplash.jpg",0,3,4,0,1
"18",21859,0,18,1,"faces",400,300,0,"Stimuli/Experimental_stims/localizer/faces/foto-sushi-6anudmpILw4-unsplash.jpg",1,30,4,0,0
"19",21859,0,19,1,"faces",400,300,0,"Stimuli/Experimental_stims/localizer/faces/samuel-dixon--fQ5XNOcqFQ-unsplash.jpg",1,199,4,0,0
"20",21859,0,20,1,"faces",400,300,0,"Stimuli/Experimental_stims/localizer/faces/jeffery-erhunse-vp9mRauo68c-unsplash.jpg",0,2,4,0,1
"21",21859,0,21,1,"faces",400,300,0,"Stimuli/Experimental_stims/localizer/faces/ayo-ogunseinde-6W4F62sN_yI-unsplash.jpg",1,75,4,0,0
"22",21859,0,22,1,"faces",400,300,0,"Stimuli/Experimental_stims/localizer/faces/whereslugo-zl_fPgiwduo-unsplash.jpg",0,316,4,0,1
"23",21859,0,23,1,"faces",400,300,0,"Stimuli/Experimental_stims/localizer/faces/chanvre-quebec-mXu1SpzHq6w-unsplash.jpg",0,134,4,0,1
"24",21859,0,24,1,"faces",400,300,0,"Stimuli/Experimental_stims/localizer/faces/ian-dooley-d1UPkiFd04A-unsplash.jpg",0,99,4,0,1
"25",21859,0,25,1,"faces",400,300,1,"Stimuli/Experimental_stims/localizer/faces/matheus-ferrero-W7b3eDUb_2I-unsplash.jpg",0,59,4,0,0
"26",21859,0,26,1,"faces",400,14000,0,"Stimuli/Experimental_stims/localizer/faces/jeffery-erhunse-BQMZ5ligqps-unsplash.jpg",1,29,4,0,0
"27",21859,0,27,1,"body_parts",400,300,0,"Stimuli/Experimental_stims/localizer/body_parts/jeremy-bishop-mLd3hAaH2ns-unsplash.jpg",NA,NA,4,1,0
"28",21859,0,28,1,"body_parts",400,300,0,"Stimuli/Experimental_stims/localizer/body_parts/sincerely-media-3DZHTq_i7Qk-unsplash.jpg",NA,NA,4,1,0
"29",21859,0,29,1,"body_parts",400,300,0,"Stimuli/Experimental_stims/localizer/body_parts/nick-page-jAGdpOGvLAA-unsplash.jpg",NA,NA,4,1,0
"30",21859,0,30,1,"body_parts",400,300,1,"Stimuli/Experimental_stims/localizer/body_parts/priscilla-du-preez-e6fcNpur53A-unsplash.jpg",0,195,4,0,0
"31",21859,0,31,1,"body_parts",400,300,0,"Stimuli/Experimental_stims/localizer/body_parts/lilartsy-1KkhQ8uL28g-unsplash.jpg",0,27,4,0,1
"32",21859,0,32,1,"body_parts",400,300,0,"Stimuli/Experimental_stims/localizer/body_parts/sippakorn-yamkasikorn-32_sJlJa5gA-unsplash.jpg",0,111,4,0,1
"33",21859,0,33,1,"body_parts",400,300,0,"Stimuli/Experimental_stims/localizer/body_parts/meghan-thompson-U1b8OB0QpIo-unsplash.jpg",0,85,4,0,1
"34",21859,0,34,1,"body_parts",400,300,0,"Stimuli/Experimental_stims/localizer/body_parts/semen-zhuravlev-_XxH_mV8dnk-unsplash (1).jpg",1,130,4,0,0
"35",21859,0,35,1,"body_parts",400,300,0,"Stimuli/Experimental_stims/localizer/body_parts/betzy-arosemena-YHdgnygtVCQ-unsplash.jpg",0,3,4,0,1
"36",21859,0,36,1,"body_parts",400,300,0,"Stimuli/Experimental_stims/localizer/body_parts/davidcohen-qghuLqyh3nE-unsplash.jpg",1,116,4,0,0
"37",21859,0,37,1,"body_parts",400,300,0,"Stimuli/Experimental_stims/localizer/body_parts/niu-niu-5HzOtV-FSlw-unsplash.jpg",1,134,4,0,0
"38",21859,0,38,1,"body_parts",400,300,0,"Stimuli/Experimental_stims/localizer/body_parts/liv-bruce-M0oVPGsWk1E-unsplash.jpg",1,57,4,0,0
"39",21859,0,39,1,"body_parts",400,300,0,"Stimuli/Experimental_stims/localizer/body_parts/nick-page-WTNmgJtwzGI-unsplash.jpg",1,107,4,0,0
"40",21859,0,40,1,"body_parts",400,300,0,"Stimuli/Experimental_stims/localizer/body_parts/billie-5OXE3KjDEfI-unsplash.jpg",0,3,4,0,1
"41",21859,0,41,1,"body_parts",400,300,0,"Stimuli/Experimental_stims/localizer/body_parts/apostolos-vamvouras-g5wKHRu2QW0-unsplash.jpg",0,82,4,0,1
"42",21859,0,42,1,"body_parts",400,300,0,"Stimuli/Experimental_stims/localizer/body_parts/david-fanuel-qnV8X7OViNY-unsplash.jpg",0,152,4,0,1
"43",21859,0,43,1,"body_parts",400,300,0,"Stimuli/Experimental_stims/localizer/body_parts/nattalia-nunez-MB9sdDfZMSg-unsplash.jpg",0,139,4,0,1
"44",21859,0,44,1,"body_parts",400,300,0,"Stimuli/Experimental_stims/localizer/body_parts/carlos-henrique-NAOJKwZswbs-unsplash.jpg",0,297,4,0,1
"45",21859,0,45,1,"body_parts",400,300,1,"Stimuli/Experimental_stims/localizer/body_parts/jeremy-yap-TfJEi17kA0w-unsplash.jpg",1,156,4,0,1
"46",21859,0,46,1,"body_parts",400,14000,0,"Stimuli/Experimental_stims/localizer/body_parts/danie-franco-jyyNiSEcCl4-unsplash.jpg",1,1,4,0,0
"47",21859,0,47,1,"objects",400,300,0,"Stimuli/Experimental_stims/localizer/objects/chris-briggs-x9TCnxNBofE-unsplash.jpg",NA,NA,4,1,0
"48",21859,0,48,1,"objects",400,300,0,"Stimuli/Experimental_stims/localizer/objects/quino-al-8gWEAAXJjtI-unsplash.jpg",0,320,4,0,1
"49",21859,0,49,1,"objects",400,300,0,"Stimuli/Experimental_stims/localizer/objects/recha-oktaviani-t__61ap00Mc-unsplash.jpg",0,65,4,0,1
"50",21859,0,50,1,"objects",400,300,1,"Stimuli/Experimental_stims/localizer/objects/kelly-jean-cKjbI0Y00X0-unsplash.jpg",1,86,4,0,1
"51",21859,0,51,1,"objects",400,300,0,"Stimuli/Experimental_stims/localizer/objects/mockup-graphics-Pj2PY-E-LfM-unsplash.jpg",1,83,4,0,0
"52",21859,0,52,1,"objects",400,300,0,"Stimuli/Experimental_stims/localizer/objects/andrew-petrov-TVJqDat4MAw-unsplash.jpg",0,13,4,0,1
"53",21859,0,53,1,"objects",400,300,0,"Stimuli/Experimental_stims/localizer/objects/ignat-dolomanov-kFBDVnmskPA-unsplash.jpg",1,58,4,0,0
"54",21859,0,54,1,"objects",400,300,0,"Stimuli/Experimental_stims/localizer/objects/ana-9GmAaEMMKho-unsplash.jpg",1,93,4,0,0
"55",21859,0,55,1,"objects",400,300,0,"Stimuli/Experimental_stims/localizer/objects/yossy-made-yulian-WaEqwDSIeTY-unsplash.jpg",0,33,4,0,1
"56",21859,0,56,1,"objects",400,300,0,"Stimuli/Experimental_stims/localizer/objects/mockup-graphics-U6ZMEefFGx8-unsplash.jpg",0,24,4,0,1
"57",21859,0,57,1,"objects",400,300,0,"Stimuli/Experimental_stims/localizer/objects/raimond-klavins-ZdvDPXVvcKs-unsplash.jpg",0,50,4,0,1
"58",21859,0,58,1,"objects",400,300,0,"Stimuli/Experimental_stims/localizer/objects/sam-moghadam-khamseh-L_7MQsHl_aU-unsplash.jpg",0,19,4,0,1
"59",21859,0,59,1,"objects",400,300,0,"Stimuli/Experimental_stims/localizer/objects/engin-akyurt-bbbKzTmY2Gg-unsplash.jpg",0,15,4,0,1
"60",21859,0,60,1,"objects",400,300,1,"Stimuli/Experimental_stims/localizer/objects/eugene-chystiakov-3neSwyntbQ8-unsplash.jpg",0,28,4,0,0
"61",21859,0,61,1,"objects",400,300,0,"Stimuli/Experimental_stims/localizer/objects/mae-mu-yl2d0CKW130-unsplash.jpg",0,14,4,0,1
"62",21859,0,62,1,"objects",400,300,0,"Stimuli/Experimental_stims/localizer/objects/sam-moghadam-khamseh-kvmdsTrGOBM-unsplash.jpg",0,84,4,0,1
"63",21859,0,63,1,"objects",400,300,0,"Stimuli/Experimental_stims/localizer/objects/nordwood-themes-E9tFH39iRPE-unsplash.jpg",0,45,4,0,1
"64",21859,0,64,1,"objects",400,300,0,"Stimuli/Experimental_stims/localizer/objects/mockup-graphics-aUkYaG12Dgs-unsplash.jpg",1,46,4,0,0
"65",21859,0,65,1,"objects",400,300,0,"Stimuli/Experimental_stims/localizer/objects/maria-lupan-Rlakka_pZMU-unsplash.jpg",1,66,4,0,0
"66",21859,0,66,1,"objects",400,14000,0,"Stimuli/Experimental_stims/localizer/objects/quaritsch-photography-lZ8onQ1wuY8-unsplash.jpg",1,12,4,0,0
"67",21859,0,67,1,"faces",400,300,0,"Stimuli/Experimental_stims/localizer/faces/brooke-cagle-Nm70URdtf3c-unsplash (1).jpg",NA,NA,4,1,0
"68",21859,0,68,1,"faces",400,300,0,"Stimuli/Experimental_stims/localizer/faces/joseph-gonzalez-iFgRcqHznqg-unsplash.jpg",0,272,4,0,1
"69",21859,0,69,1,"faces",400,300,0,"Stimuli/Experimental_stims/localizer/faces/pavel-anoshin-d0peGya6R5Y-unsplash.jpg",1,108,4,0,0
"70",21859,0,70,1,"faces",400,300,0,"Stimuli/Experimental_stims/localizer/faces/alexis-chloe-TYDkKEgc0Fg-unsplash.jpg",1,92,4,0,0
"71",21859,0,71,1,"faces",400,300,1,"Stimuli/Experimental_stims/localizer/faces/aiony-haust-K0DxxljcRv0-unsplash.jpg",0,4,4,0,0
"72",21859,0,72,1,"faces",400,300,0,"Stimuli/Experimental_stims/localizer/faces/olena-sergienko-0TSd6uCKTKc-unsplash.jpg",0,4,4,0,1
"73",21859,0,73,1,"faces",400,300,0,"Stimuli/Experimental_stims/localizer/faces/aatik-tasneem-7omHUGhhmZ0-unsplash.jpg",0,154,4,0,1
"74",21859,0,74,1,"faces",400,300,0,"Stimuli/Experimental_stims/localizer/faces/tyler-nix-ZGa9d1a_4tA-unsplash.jpg",0,13,4,0,1
"75",21859,0,75,1,"faces",400,300,0,"Stimuli/Experimental_stims/localizer/faces/imansyah-muhamad-putera-n4KewLKFOZw-unsplash.jpg",1,32,4,0,0
"76",21859,0,76,1,"faces",400,300,0,"Stimuli/Experimental_stims/localizer/faces/philip-martin-5aGUyCW_PJw-unsplash.jpg",1,77,4,0,0
"77",21859,0,77,1,"faces",400,300,0,"Stimuli/Experimental_stims/localizer/faces/vince-fleming-j3lf-Jn6deo-unsplash.jpg",1,279,4,0,0
"78",21859,0,78,1,"faces",400,300,0,"Stimuli/Experimental_stims/localizer/faces/hassan-khan-EGVccebWodM-unsplash.jpg",1,81,4,0,0
"79",21859,0,79,1,"faces",400,300,0,"Stimuli/Experimental_stims/localizer/faces/toa-heftiba-O3ymvT7Wf9U-unsplash.jpg",1,18,4,0,0
"80",21859,0,80,1,"faces",400,300,0,"Stimuli/Experimental_stims/localizer/faces/jurica-koletic-7YVZYZeITc8-unsplash.jpg",0,95,4,0,1
"81",21859,0,81,1,"faces",400,300,0,"Stimuli/Experimental_stims/localizer/faces/rui-silvestre-hAMJpesMeDE-unsplash.jpg",0,145,4,0,1
"82",21859,0,82,1,"faces",400,300,1,"Stimuli/Experimental_stims/localizer/faces/ben-scott-tWb7IsL9CnY-unsplash.jpg",1,251,4,0,1
"83",21859,0,83,1,"faces",400,300,0,"Stimuli/Experimental_stims/localizer/faces/mathias-huysmans-U4JDjYmjn1g-unsplash.jpg",1,137,4,0,0
"84",21859,0,84,1,"faces",400,300,0,"Stimuli/Experimental_stims/localizer/faces/james-marty-h1BuNJZzpC8-unsplash.jpg",1,95,4,0,0
"85",21859,0,85,1,"faces",400,300,0,"Stimuli/Experimental_stims/localizer/faces/drew-hays-agGIKYs4mYs-unsplash.jpg",1,25,4,0,0
"86",21859,0,86,1,"faces",400,14000,0,"Stimuli/Experimental_stims/localizer/faces/jakob-owens-lkMJcGDZLVs-unsplash.jpg",1,4,4,0,0
"87",21859,0,87,1,"body_parts",400,300,0,"Stimuli/Experimental_stims/localizer/body_parts/marcel-fagin-OUYg0Q3ec-Y-unsplash.jpg",NA,NA,4,1,0
"88",21859,0,88,1,"body_parts",400,300,0,"Stimuli/Experimental_stims/localizer/body_parts/helen-ast-l2iY5Sh0mTg-unsplash.jpg",NA,NA,4,1,0
"89",21859,0,89,1,"body_parts",400,300,0,"Stimuli/Experimental_stims/localizer/body_parts/luisa-denu-o5EU_lUB1rg-unsplash.jpg",0,112,4,0,1
"90",21859,0,90,1,"body_parts",400,300,0,"Stimuli/Experimental_stims/localizer/body_parts/megan-menegay-UojxG_BJxnI-unsplash.jpg",0,63,4,0,1
"91",21859,0,91,1,"body_parts",400,300,0,"Stimuli/Experimental_stims/localizer/body_parts/sincerely-media-9Zf6yh7RYbQ-unsplash.jpg",0,26,4,0,1
"92",21859,0,92,1,"body_parts",400,300,1,"Stimuli/Experimental_stims/localizer/body_parts/sandra-seitamaa-YCc_YAAhY3I-unsplash.jpg",0,15,4,0,0
"93",21859,0,93,1,"body_parts",400,300,0,"Stimuli/Experimental_stims/localizer/body_parts/jonathan-borba-hTwH8QFkPMs-unsplash.jpg",1,84,4,0,0
"94",21859,0,94,1,"body_parts",400,300,0,"Stimuli/Experimental_stims/localizer/body_parts/bady-abbas-N-VEeMnm7gE-unsplash.jpg",1,290,4,0,0
"95",21859,0,95,1,"body_parts",400,300,0,"Stimuli/Experimental_stims/localizer/body_parts/sydney-herron-b2W04fGuS70-unsplash.jpg",0,4,4,0,1
"96",21859,0,96,1,"body_parts",400,300,0,"Stimuli/Experimental_stims/localizer/body_parts/matthew-wheeler-2_UxqsaDMmo-unsplash.jpg",1,24,4,0,0
"97",21859,0,97,1,"body_parts",400,300,0,"Stimuli/Experimental_stims/localizer/body_parts/sincerely-media-Q7qRyaurQfo-unsplash.jpg",1,111,4,0,0
"98",21859,0,98,1,"body_parts",400,300,0,"Stimuli/Experimental_stims/localizer/body_parts/sincerely-media-pdynOoM7xmA-unsplash.jpg",1,14,4,0,0
"99",21859,0,99,1,"body_parts",400,300,0,"Stimuli/Experimental_stims/localizer/body_parts/nadine-shaabana-ypyaaEf2ntM-unsplash.jpg",0,102,4,0,1
"100",21859,0,100,1,"body_parts",400,300,0,"Stimuli/Experimental_stims/localizer/body_parts/louis-hansel-FjKTMRTQYAs-unsplash.jpg",1,81,4,0,0
"101",21859,0,101,1,"body_parts",400,300,0,"Stimuli/Experimental_stims/localizer/body_parts/pure-julia-9lVaya31sMk-unsplash.jpg",1,285,4,0,0
"102",21859,0,102,1,"body_parts",400,300,0,"Stimuli/Experimental_stims/localizer/body_parts/sincerely-media-7TBFwUQA6Xk-unsplash.jpg",0,118,4,0,1
"103",21859,0,103,1,"body_parts",400,300,0,"Stimuli/Experimental_stims/localizer/body_parts/bady-abbas-pIySu25o0bM-unsplash.jpg",0,72,4,0,1
"104",21859,0,104,1,"body_parts",400,300,0,"Stimuli/Experimental_stims/localizer/body_parts/hu-chen-tCbTGNwrFNM-unsplash.jpg",0,183,4,0,1
"105",21859,0,105,1,"body_parts",400,300,0,"Stimuli/Experimental_stims/localizer/body_parts/sina-rezakhani-d1gQi0Jl05U-unsplash (1).jpg",0,47,4,0,1
"106",21859,0,106,1,"body_parts",400,14000,1,"Stimuli/Experimental_stims/localizer/body_parts/ant-rozetsky-bXQd8JXx0vs-unsplash.jpg",1,228,4,0,1
"107",21859,0,107,1,"outdoor_scenes",400,300,0,"Stimuli/Experimental_stims/localizer/outdoor_scenes/samsommer-vddccTqwal8-unsplash.jpg",NA,NA,4,1,0
"108",21859,0,108,1,"outdoor_scenes",400,300,0,"Stimuli/Experimental_stims/localizer/outdoor_scenes/ken-cheung-KonWFWUaAuk-unsplash.jpg",0,355,4,0,1
"109",21859,0,109,1,"outdoor_scenes",400,300,0,"Stimuli/Experimental_stims/localizer/outdoor_scenes/rod-sot-X_vbB7wfv5k-unsplash.jpg",1,41,4,0,0
"110",21859,0,110,1,"outdoor_scenes",400,300,0,"Stimuli/Experimental_stims/localizer/outdoor_scenes/kenneth-thewissen-D76DklsG-5U-unsplash.jpg",0,17,4,0,1
"111",21859,0,111,1,"outdoor_scenes",400,300,0,"Stimuli/Experimental_stims/localizer/outdoor_scenes/andres-sanz-uILhNE1VcwA-unsplash.jpg",0,77,4,0,1
"112",21859,0,112,1,"outdoor_scenes",400,300,0,"Stimuli/Experimental_stims/localizer/outdoor_scenes/tomasz-filipek-CUWC-6MRcNg-unsplash.jpg",NA,NA,4,1,0
"113",21859,0,113,1,"outdoor_scenes",400,300,1,"Stimuli/Experimental_stims/localizer/outdoor_scenes/samuel-ferrara-IEHPDNk2-8w-unsplash.jpg",0,73,4,0,0
"114",21859,0,114,1,"outdoor_scenes",400,300,0,"Stimuli/Experimental_stims/localizer/outdoor_scenes/damian-patkowski-T-LfvX-7IVg-unsplash.jpg",1,85,4,0,0
"115",21859,0,115,1,"outdoor_scenes",400,300,0,"Stimuli/Experimental_stims/localizer/outdoor_scenes/mark-harpur-K2s_YE031CA-unsplash.jpg",1,62,4,0,0
"116",21859,0,116,1,"outdoor_scenes",400,300,0,"Stimuli/Experimental_stims/localizer/outdoor_scenes/erol-ahmed-d3pTF3r_hwY-unsplash.jpg",0,151,4,0,1
"117",21859,0,117,1,"outdoor_scenes",400,300,0,"Stimuli/Experimental_stims/localizer/outdoor_scenes/dave-hoefler-lsoogGC_5dg-unsplash.jpg",0,199,4,0,1
"118",21859,0,118,1,"outdoor_scenes",400,300,0,"Stimuli/Experimental_stims/localizer/outdoor_scenes/quentin-zwzeorQPepo-unsplash.jpg",0,4,4,0,1
"119",21859,0,119,1,"outdoor_scenes",400,300,0,"Stimuli/Experimental_stims/localizer/outdoor_scenes/michael-martinelli-mFbrMEVKCkc-unsplash.jpg",NA,NA,4,1,0
"120",21859,0,120,1,"outdoor_scenes",400,300,1,"Stimuli/Experimental_stims/localizer/outdoor_scenes/tim-swaan-eOpewngf68w-unsplash (1).jpg",1,218,4,0,1
"121",21859,0,121,1,"outdoor_scenes",400,300,0,"Stimuli/Experimental_stims/localizer/outdoor_scenes/jaanus-jagomagi-FddgewYQF2M-unsplash.jpg",0,126,4,0,1
"122",21859,0,122,1,"outdoor_scenes",400,300,0,"Stimuli/Experimental_stims/localizer/outdoor_scenes/simon-berger-UqCnDyc_3vA-unsplash.jpg",0,122,4,0,1
"123",21859,0,123,1,"outdoor_scenes",400,300,0,"Stimuli/Experimental_stims/localizer/outdoor_scenes/pascal-debrunner-1WQ5RZuH9xo-unsplash.jpg",1,82,4,0,0
"124",21859,0,124,1,"outdoor_scenes",400,300,0,"Stimuli/Experimental_stims/localizer/outdoor_scenes/nicolas-jehly-LzVB84KkZOE-unsplash.jpg",0,53,4,0,1
"125",21859,0,125,1,"outdoor_scenes",400,300,0,"Stimuli/Experimental_stims/localizer/outdoor_scenes/cosmic-timetraveler-pYyOZ8q7AII-unsplash.jpg",0,206,4,0,1
"126",21859,0,126,1,"outdoor_scenes",400,14000,0,"Stimuli/Experimental_stims/localizer/outdoor_scenes/quino-al-vmZ2DehWQ3Q-unsplash.jpg",1,12,4,0,0
"127",21859,0,127,1,"body_parts",400,300,0,"Stimuli/Experimental_stims/localizer/body_parts/anelya-okapova-V69kmOyZ3SU-unsplash.jpg",NA,NA,4,1,0
"128",21859,0,128,1,"body_parts",400,300,0,"Stimuli/Experimental_stims/localizer/body_parts/pure-julia-E9Q4bqYHtIM-unsplash.jpg",0,382,4,0,1
"129",21859,0,129,1,"body_parts",400,300,0,"Stimuli/Experimental_stims/localizer/body_parts/i-am_nah--S4OsO0c6Ts-unsplash.jpg",0,92,4,0,1
"130",21859,0,130,1,"body_parts",400,300,1,"Stimuli/Experimental_stims/localizer/body_parts/boyd-christiansen-uVj7kewrZ-o-unsplash.jpg",1,93,4,0,1
"131",21859,0,131,1,"body_parts",400,300,0,"Stimuli/Experimental_stims/localizer/body_parts/lucaxx-freire-CacZwMexYdk-unsplash.jpg",0,23,4,0,1
"132",21859,0,132,1,"body_parts",400,300,0,"Stimuli/Experimental_stims/localizer/body_parts/ben-hartley-RbrsejLGVZ8-unsplash.jpg",1,16,4,0,0
"133",21859,0,133,1,"body_parts",400,300,0,"Stimuli/Experimental_stims/localizer/body_parts/sincerely-media-QyzlAZjm0r0-unsplash.jpg",1,27,4,0,0
"134",21859,0,134,1,"body_parts",400,300,0,"Stimuli/Experimental_stims/localizer/body_parts/adrien-king-XzBluXxBoyQ-unsplash.jpg",1,105,4,0,0
"135",21859,0,135,1,"body_parts",400,300,0,"Stimuli/Experimental_stims/localizer/body_parts/ignacio-campo-tC9boyqy_40-unsplash.jpg",1,83,4,0,0
"136",21859,0,136,1,"body_parts",400,300,0,"Stimuli/Experimental_stims/localizer/body_parts/igordoon-primus-CdyHqfrbGIs-unsplash.jpg",0,51,4,0,1
"137",21859,0,137,1,"body_parts",400,300,0,"Stimuli/Experimental_stims/localizer/body_parts/freestocks-qw9LFf5T790-unsplash.jpg",0,10,4,0,1
"138",21859,0,138,1,"body_parts",400,300,0,"Stimuli/Experimental_stims/localizer/body_parts/charles-etoroma-1fo0biloDOc-unsplash.jpg",0,4,4,0,1
"139",21859,0,139,1,"body_parts",400,300,0,"Stimuli/Experimental_stims/localizer/body_parts/diana-polekhina-SwWjCbIIoFE-unsplash.jpg",1,108,4,0,0
"140",21859,0,140,1,"body_parts",400,300,0,"Stimuli/Experimental_stims/localizer/body_parts/xavier-foucrier-dLZUNHsT8vo-unsplash.jpg",1,136,4,0,0
"141",21859,0,141,1,"body_parts",400,300,1,"Stimuli/Experimental_stims/localizer/body_parts/matheus-frade-eyzdb1C3JDM-unsplash.jpg",0,173,4,0,0
"142",21859,0,142,1,"body_parts",400,300,0,"Stimuli/Experimental_stims/localizer/body_parts/nihal-karkala-LlOfbQD-IJ0-unsplash.jpg",0,73,4,0,1
"143",21859,0,143,1,"body_parts",400,300,0,"Stimuli/Experimental_stims/localizer/body_parts/femme-spirit-RGYBDUHYbyM-unsplash.jpg",1,136,4,0,0
"144",21859,0,144,1,"body_parts",400,300,0,"Stimuli/Experimental_stims/localizer/body_parts/jan-romero-DL4DDQb8yjc-unsplash.jpg",1,40,4,0,0
"145",21859,0,145,1,"body_parts",400,300,0,"Stimuli/Experimental_stims/localizer/body_parts/louisa-potter-zd29nBmLuig-unsplash.jpg",0,33,4,0,1
"146",21859,0,146,1,"body_parts",400,14000,0,"Stimuli/Experimental_stims/localizer/body_parts/juja-han-Z8-6EI2tYtw-unsplash.jpg",1,3,4,0,0
"147",21859,0,147,1,"outdoor_scenes",400,300,0,"Stimuli/Experimental_stims/localizer/outdoor_scenes/wai-siew-mTFyV8oNDzU-unsplash.jpg",NA,NA,4,1,0
"148",21859,0,148,1,"outdoor_scenes",400,300,0,"Stimuli/Experimental_stims/localizer/outdoor_scenes/gabriel-garcia-marengo-ht9aLtovtSo-unsplash.jpg",0,172,4,0,1
"149",21859,0,149,1,"outdoor_scenes",400,300,0,"Stimuli/Experimental_stims/localizer/outdoor_scenes/dawid-zawila--G3rw6Y02D0-unsplash.jpg",0,155,4,0,1
"150",21859,0,150,1,"outdoor_scenes",400,300,0,"Stimuli/Experimental_stims/localizer/outdoor_scenes/bruno-van-der-kraan-qez8mNJ3ilU-unsplash.jpg",0,106,4,0,1
"151",21859,0,151,1,"outdoor_scenes",400,300,0,"Stimuli/Experimental_stims/localizer/outdoor_scenes/wil-stewart-pHANr-CpbYM-unsplash.jpg",0,32,4,0,1
"152",21859,0,152,1,"outdoor_scenes",400,300,0,"Stimuli/Experimental_stims/localizer/outdoor_scenes/john-fowler-aaIN3y2zcMQ-unsplash.jpg",1,112,4,0,0
"153",21859,0,153,1,"outdoor_scenes",400,300,1,"Stimuli/Experimental_stims/localizer/outdoor_scenes/jeremy-cai-ucYWe5mzTMU-unsplash.jpg",1,45,4,0,1
"154",21859,0,154,1,"outdoor_scenes",400,300,0,"Stimuli/Experimental_stims/localizer/outdoor_scenes/luca-bravo-VowIFDxogG4-unsplash.jpg",1,182,4,0,0
"155",21859,0,155,1,"outdoor_scenes",400,300,0,"Stimuli/Experimental_stims/localizer/outdoor_scenes/keith-hardy-UVyavSwslOg-unsplash.jpg",1,112,4,0,0
"156",21859,0,156,1,"outdoor_scenes",400,300,0,"Stimuli/Experimental_stims/localizer/outdoor_scenes/neom-THlO6Mkf5uI-unsplash.jpg",1,81,4,0,0
"157",21859,0,157,1,"outdoor_scenes",400,300,0,"Stimuli/Experimental_stims/localizer/outdoor_scenes/antoine-beauvillain-qrPqGP-SG8w-unsplash.jpg",1,95,4,0,0
"158",21859,0,158,1,"outdoor_scenes",400,300,0,"Stimuli/Experimental_stims/localizer/outdoor_scenes/alice-donovan-rouse-pZ61ZA8QgcY-unsplash.jpg",1,73,4,0,0
"159",21859,0,159,1,"outdoor_scenes",400,300,0,"Stimuli/Experimental_stims/localizer/outdoor_scenes/chris-holgersson-zshyCr6HGw0-unsplash.jpg",1,131,4,0,0
"160",21859,0,160,1,"outdoor_scenes",400,300,0,"Stimuli/Experimental_stims/localizer/outdoor_scenes/nikola-majksner-hXNGeAFOgT4-unsplash.jpg",1,140,4,0,0
"161",21859,0,161,1,"outdoor_scenes",400,300,0,"Stimuli/Experimental_stims/localizer/outdoor_scenes/kace-rodriguez-p3OzJuT_Dks-unsplash.jpg",0,84,4,0,1
"162",21859,0,162,1,"outdoor_scenes",400,300,1,"Stimuli/Experimental_stims/localizer/outdoor_scenes/fabian-quintero-UWQP2mh5YJI-unsplash.jpg",0,77,4,0,0
"163",21859,0,163,1,"outdoor_scenes",400,300,0,"Stimuli/Experimental_stims/localizer/outdoor_scenes/chang-qing-2YQoKbyGvDc-unsplash.jpg",0,195,4,0,1
"164",21859,0,164,1,"outdoor_scenes",400,300,0,"Stimuli/Experimental_stims/localizer/outdoor_scenes/sean-oulashin-KMn4VEeEPR8-unsplash.jpg",1,153,4,0,0
"165",21859,0,165,1,"outdoor_scenes",400,300,0,"Stimuli/Experimental_stims/localizer/outdoor_scenes/ales-krivec-hsX9KpLLsIE-unsplash.jpg",1,184,4,0,0
"166",21859,0,166,1,"outdoor_scenes",400,14000,0,"Stimuli/Experimental_stims/localizer/outdoor_scenes/kalen-emsley-Bkci_8qcdvQ-unsplash.jpg",1,53,4,0,0
"167",21859,0,167,1,"objects",400,300,0,"Stimuli/Experimental_stims/localizer/objects/nordwood-themes-nDd3dIkkOLo-unsplash.jpg",NA,NA,4,1,0
"168",21859,0,168,1,"objects",400,300,1,"Stimuli/Experimental_stims/localizer/objects/nicolas-hippert-kfr_eSrR08M-unsplash.jpg",NA,NA,4,1,0
"169",21859,0,169,1,"objects",400,300,0,"Stimuli/Experimental_stims/localizer/objects/collab-media-eddtBBbaw0Y-unsplash.jpg",0,59,4,0,1
"170",21859,0,170,1,"objects",400,300,0,"Stimuli/Experimental_stims/localizer/objects/markus-spiske-ANrVtttbNss-unsplash.jpg",1,66,4,0,0
"171",21859,0,171,1,"objects",400,300,0,"Stimuli/Experimental_stims/localizer/objects/lance-reis-v0FYj9iioQg-unsplash.jpg",1,240,4,0,0
"172",21859,0,172,1,"objects",400,300,0,"Stimuli/Experimental_stims/localizer/objects/florian-klauer-mk7D-4UCfmg-unsplash.jpg",1,119,4,0,0
"173",21859,0,173,1,"objects",400,300,0,"Stimuli/Experimental_stims/localizer/objects/girl-with-red-hat-oJG9HOVKGMs-unsplash.jpg",1,111,4,0,0
"174",21859,0,174,1,"objects",400,300,0,"Stimuli/Experimental_stims/localizer/objects/girl-with-red-hat-Xxg-r574pLE-unsplash.jpg",1,25,4,0,0
"175",21859,0,175,1,"objects",400,300,0,"Stimuli/Experimental_stims/localizer/objects/petr-sidorov-3jm5TGqtULU-unsplash.jpg",0,99,4,0,1
"176",21859,0,176,1,"objects",400,300,0,"Stimuli/Experimental_stims/localizer/objects/alex-lvrs-2zDw14yCYqk-unsplash.jpg",1,41,4,0,0
"177",21859,0,177,1,"objects",400,300,0,"Stimuli/Experimental_stims/localizer/objects/muhammad-toqeer-NRJ9ipvz2iE-unsplash.jpg",1,19,4,0,0
"178",21859,0,178,1,"objects",400,300,0,"Stimuli/Experimental_stims/localizer/objects/mockup-graphics-v_a3DWpOFc0-unsplash.jpg",1,88,4,0,0
"179",21859,0,179,1,"objects",400,300,0,"Stimuli/Experimental_stims/localizer/objects/quino-al-4SNUcHPiC8c-unsplash.jpg",1,107,4,0,0
"180",21859,0,180,1,"objects",400,300,0,"Stimuli/Experimental_stims/localizer/objects/charlesdeluvio-RDjZh9dqlP4-unsplash.jpg",1,221,4,0,0
"181",21859,0,181,1,"objects",400,300,0,"Stimuli/Experimental_stims/localizer/objects/sam-moghadam-khamseh-xej3GOtAQ-o-unsplash.jpg",0,59,4,0,1
"182",21859,0,182,1,"objects",400,300,0,"Stimuli/Experimental_stims/localizer/objects/saif71-com-VIKdvmGUhq8-unsplash.jpg",0,88,4,0,1
"183",21859,0,183,1,"objects",400,300,0,"Stimuli/Experimental_stims/localizer/objects/namroud-gorguis-FZWivbri0Xk-unsplash.jpg",0,58,4,0,1
"184",21859,0,184,1,"objects",400,300,1,"Stimuli/Experimental_stims/localizer/objects/florian-klauer-nptLmg6jqDo-unsplash.jpg",1,9,4,0,1
"185",21859,0,185,1,"objects",400,300,0,"Stimuli/Experimental_stims/localizer/objects/carlos-felipe-ramirez-mesa-x9g65MOXsPY-unsplash.jpg",0,165,4,0,1
"186",21859,0,186,1,"objects",400,14000,0,"Stimuli/Experimental_stims/localizer/objects/dan-cristian-padure-ezoshbcxWrM-unsplash.jpg",0,24,4,0,1
"187",21859,0,187,1,"outdoor_scenes",400,300,0,"Stimuli/Experimental_stims/localizer/outdoor_scenes/sabeer-darr-Upz-tnx2v2s-unsplash.jpg",1,40,4,0,0
"188",21859,0,188,1,"outdoor_scenes",400,300,0,"Stimuli/Experimental_stims/localizer/outdoor_scenes/adam-kool-ndN00KmbJ1c-unsplash.jpg",1,53,4,0,0
"189",21859,0,189,1,"outdoor_scenes",400,300,0,"Stimuli/Experimental_stims/localizer/outdoor_scenes/jay-cai-F_laX9E8CUo-unsplash.jpg",0,269,4,0,1
"190",21859,0,190,1,"outdoor_scenes",400,300,0,"Stimuli/Experimental_stims/localizer/outdoor_scenes/john-mark-arnold-XNIjmb6Ax04-unsplash.jpg",1,16,4,0,0
"191",21859,0,191,1,"outdoor_scenes",400,300,1,"Stimuli/Experimental_stims/localizer/outdoor_scenes/willian-justen-de-vasconcellos-T_Qe4QlMIvQ-unsplash.jpg",0,172,4,0,0
"192",21859,0,192,1,"outdoor_scenes",400,300,0,"Stimuli/Experimental_stims/localizer/outdoor_scenes/ricardo-gomez-angel-dTSaC-S-7fs-unsplash.jpg",0,43,4,0,1
"193",21859,0,193,1,"outdoor_scenes",400,300,0,"Stimuli/Experimental_stims/localizer/outdoor_scenes/hendrik-cornelissen--qrcOR33ErA-unsplash.jpg",1,13,4,0,0
"194",21859,0,194,1,"outdoor_scenes",400,300,0,"Stimuli/Experimental_stims/localizer/outdoor_scenes/pietro-de-grandi-T7K4aEPoGGk-unsplash.jpg",1,10,4,0,0
"195",21859,0,195,1,"outdoor_scenes",400,300,0,"Stimuli/Experimental_stims/localizer/outdoor_scenes/cayetano-gil-rguHxZmOF5U-unsplash.jpg",1,174,4,0,0
"196",21859,0,196,1,"outdoor_scenes",400,300,0,"Stimuli/Experimental_stims/localizer/outdoor_scenes/federico-beccari-kRnkqSKZODQ-unsplash.jpg",1,324,4,0,0
"197",21859,0,197,1,"outdoor_scenes",400,300,0,"Stimuli/Experimental_stims/localizer/outdoor_scenes/sebastian-unrau-v4e3JI7DDHI-unsplash.jpg",1,103,4,0,0
"198",21859,0,198,1,"outdoor_scenes",400,300,0,"Stimuli/Experimental_stims/localizer/outdoor_scenes/derek-mack-CcRZ4k3c6gA-unsplash.jpg",1,14,4,0,0
"199",21859,0,199,1,"outdoor_scenes",400,300,0,"Stimuli/Experimental_stims/localizer/outdoor_scenes/jordan-heath-4z_SYrG5mgA-unsplash.jpg",1,268,4,0,0
"200",21859,0,200,1,"outdoor_scenes",400,300,0,"Stimuli/Experimental_stims/localizer/outdoor_scenes/john-lee-oMneOBYhJxY-unsplash.jpg",1,68,4,0,0
"201",21859,0,201,1,"outdoor_scenes",400,300,0,"Stimuli/Experimental_stims/localizer/outdoor_scenes/ryan-schroeder-Gg7uKdHFb_c-unsplash.jpg",1,756,4,0,0
"202",21859,0,202,1,"outdoor_scenes",400,300,0,"Stimuli/Experimental_stims/localizer/outdoor_scenes/quino-al-mBQIfKlvowM-unsplash.jpg",1,130,4,0,0
"203",21859,0,203,1,"outdoor_scenes",400,300,0,"Stimuli/Experimental_stims/localizer/outdoor_scenes/v2osk-1Z2niiBPg5A-unsplash.jpg",1,49,4,0,0
"204",21859,0,204,1,"outdoor_scenes",400,300,1,"Stimuli/Experimental_stims/localizer/outdoor_scenes/daniel-roe-lpjb_UMOyx8-unsplash.jpg",1,71,4,0,1
"205",21859,0,205,1,"outdoor_scenes",400,300,0,"Stimuli/Experimental_stims/localizer/outdoor_scenes/niko-photos-tGTVxeOr_Rs-unsplash.jpg",1,93,4,0,0
"206",21859,0,206,1,"outdoor_scenes",400,14000,0,"Stimuli/Experimental_stims/localizer/outdoor_scenes/jack-millard-zjyP-UYI-ko-unsplash.jpg",1,26,4,0,0
"207",21859,0,207,1,"objects",400,300,0,"Stimuli/Experimental_stims/localizer/objects/dario-mendez-hnJ2VNZzbns-unsplash.jpg",0,394,4,0,1
"208",21859,0,208,1,"objects",400,300,0,"Stimuli/Experimental_stims/localizer/objects/nicolas-hippert-SVgX47QIUlc-unsplash.jpg",0,314,4,0,1
"209",21859,0,209,1,"objects",400,300,0,"Stimuli/Experimental_stims/localizer/objects/ian-talmacs-ugqU0a4P18U-unsplash.jpg",0,269,4,0,1
"210",21859,0,210,1,"objects",400,300,0,"Stimuli/Experimental_stims/localizer/objects/designecologist-hvgd0ygXuQQ-unsplash.jpg",0,152,4,0,1
"211",21859,0,211,1,"objects",400,300,0,"Stimuli/Experimental_stims/localizer/objects/annie-spratt-fbAnIjhrOL4-unsplash.jpg",0,172,4,0,1
"212",21859,0,212,1,"objects",400,300,1,"Stimuli/Experimental_stims/localizer/objects/barrett-ward-0lMpQaXfOCg-unsplash.jpg",0,5,4,0,0
"213",21859,0,213,1,"objects",400,300,0,"Stimuli/Experimental_stims/localizer/objects/chris-briggs-FobzAZJGM9M-unsplash.jpg",0,46,4,0,1
"214",21859,0,214,1,"objects",400,300,0,"Stimuli/Experimental_stims/localizer/objects/carlos-felipe-ramirez-mesa-HW7bfB3ERSQ-unsplash.jpg",0,133,4,0,1
"215",21859,0,215,1,"objects",400,300,0,"Stimuli/Experimental_stims/localizer/objects/ryunosuke-kikuno-viEzuL1ouDs-unsplash.jpg",0,77,4,0,1
"216",21859,0,216,1,"objects",400,300,0,"Stimuli/Experimental_stims/localizer/objects/miti-MZPdB1DU4a4-unsplash.jpg",0,14,4,0,1
"217",21859,0,217,1,"objects",400,300,0,"Stimuli/Experimental_stims/localizer/objects/adriano-pucciarelli-Jl3S1yM8gi8-unsplash.jpg",1,67,4,0,0
"218",21859,0,218,1,"objects",400,300,0,"Stimuli/Experimental_stims/localizer/objects/jonny-caspari-wsvCC6UyKjs-unsplash.jpg",1,18,4,0,0
"219",21859,0,219,1,"objects",400,300,0,"Stimuli/Experimental_stims/localizer/objects/oriento-maVIpNNtmlQ-unsplash.jpg",1,5,4,0,0
"220",21859,0,220,1,"objects",400,300,0,"Stimuli/Experimental_stims/localizer/objects/ales-krivec-ZMZHcvIVgbg-unsplash.jpg",1,208,4,0,0
"221",21859,0,221,1,"objects",400,300,0,"Stimuli/Experimental_stims/localizer/objects/adriano-pucciarelli-BE7yaZnZX6o-unsplash.jpg",1,106,4,0,0
"222",21859,0,222,1,"objects",400,300,0,"Stimuli/Experimental_stims/localizer/objects/dario-mendez-WmF_XLF4-Rs-unsplash.jpg",1,109,4,0,0
"223",21859,0,223,1,"objects",400,300,1,"Stimuli/Experimental_stims/localizer/objects/jiangxulei1990-eIzzzwtkBjU-unsplash.jpg",1,12,4,0,1
"224",21859,0,224,1,"objects",400,300,0,"Stimuli/Experimental_stims/localizer/objects/yoann-siloine-_T4w3JDm6ug-unsplash.jpg",0,190,4,0,1
"225",21859,0,225,1,"objects",400,300,0,"Stimuli/Experimental_stims/localizer/objects/hipster-mum-XookgCxFw6Q-unsplash.jpg",1,79,4,0,0
"226",21859,0,226,1,"objects",400,14000,0,"Stimuli/Experimental_stims/localizer/objects/mulyadi-tWp0VSlSdMI-unsplash.jpg",1,197,4,0,0
"227",21859,0,227,1,"faces",400,300,0,"Stimuli/Experimental_stims/localizer/faces/nick-karvounis-JyO_szjGvUw-unsplash.jpg",NA,NA,4,1,0
"228",21859,0,228,1,"faces",400,300,1,"Stimuli/Experimental_stims/localizer/faces/sean-kong--1B_y4wGs-s-unsplash.jpg",0,328,4,0,0
"229",21859,0,229,1,"faces",400,300,0,"Stimuli/Experimental_stims/localizer/faces/janaya-dasiuk-_A2LZdUqHgA-unsplash.jpg",0,20,4,0,1
"230",21859,0,230,1,"faces",400,300,0,"Stimuli/Experimental_stims/localizer/faces/toa-heftiba-2O1EUSTRBrY-unsplash.jpg",1,43,4,0,0
"231",21859,0,231,1,"faces",400,300,0,"Stimuli/Experimental_stims/localizer/faces/ihor-saveliev-3POm-bxWIN8-unsplash.jpg",0,265,4,0,1
"232",21859,0,232,1,"faces",400,300,0,"Stimuli/Experimental_stims/localizer/faces/christian-buehner-DItYlc26zVI-unsplash.jpg",0,134,4,0,1
"233",21859,0,233,1,"faces",400,300,0,"Stimuli/Experimental_stims/localizer/faces/filipe-almeida-mnEWC72eWDM-unsplash.jpg",1,26,4,0,0
"234",21859,0,234,1,"faces",400,300,0,"Stimuli/Experimental_stims/localizer/faces/christian-ferrer-8vT-DgHZDG4-unsplash.jpg",0,44,4,0,1
"235",21859,0,235,1,"faces",400,300,0,"Stimuli/Experimental_stims/localizer/faces/prince-akachi-LWkFHEGpleE-unsplash.jpg",0,45,4,0,1
"236",21859,0,236,1,"faces",400,300,0,"Stimuli/Experimental_stims/localizer/faces/linkedin-sales-solutions-pAtA8xe_iVM-unsplash.jpg",1,13,4,0,0
"237",21859,0,237,1,"faces",400,300,0,"Stimuli/Experimental_stims/localizer/faces/juan-encalada-WC7KIHo13Fc-unsplash.jpg",0,2,4,0,1
"238",21859,0,238,1,"faces",400,300,0,"Stimuli/Experimental_stims/localizer/faces/christina-wocintechchat-com-0Zx1bDv5BNY-unsplash.jpg",0,148,4,0,1
"239",21859,0,239,1,"faces",400,300,0,"Stimuli/Experimental_stims/localizer/faces/ivan-dodig-R21SyyJDFgc-unsplash.jpg",0,344,4,0,1
"240",21859,0,240,1,"faces",400,300,0,"Stimuli/Experimental_stims/localizer/faces/etty-fidele-nF8eo2nX374-unsplash.jpg",0,191,4,0,1
"241",21859,0,241,1,"faces",400,300,0,"Stimuli/Experimental_stims/localizer/faces/binh-ly-k_4A59MzZTY-unsplash.jpg",0,177,4,0,1
"242",21859,0,242,1,"faces",400,300,0,"Stimuli/Experimental_stims/localizer/faces/ivana-cajina-_7LbC5J-jw4-unsplash.jpg",0,119,4,0,1
"243",21859,0,243,1,"faces",400,300,0,"Stimuli/Experimental_stims/localizer/faces/elijah-hiett-umfpFoKxIVg-unsplash.jpg",NA,NA,4,1,0
"244",21859,0,244,1,"faces",400,300,0,"Stimuli/Experimental_stims/localizer/faces/carlos-vaz-KP4bxnxAilU-unsplash.jpg",0,322,4,0,1
"245",21859,0,245,1,"faces",400,300,1,"Stimuli/Experimental_stims/localizer/faces/jimmy-fermin-bqe0J0b26RQ-unsplash.jpg",0,55,4,0,0
"246",21859,0,246,1,"faces",400,14000,0,"Stimuli/Experimental_stims/localizer/faces/mubariz-mehdizadeh-Py8F6-hRn5o-unsplash.jpg",0,230,4,0,1
