"success","ttype","start_time","trial_type","trial_index","time_elapsed","internal_node_id","age","PID","gender","rt","responses","view_history","repeat_instructions","key_press","response","index","stimulus_index","path","missed_checkup","run","task","isi","is_odd_ball","no_response","acc","duration","onset","left_chosen","chosen_stimulus","unchosen_stimulus","chosen_category","unchosen_category","chosen_rating","unchosen_rating","chosen_path","unchosen_path","pair_id","practice","scramble_screen_time","scramble_instructed_side","stim_type","iti","block","left_stimulus","right_stimulus","left_category","right_category","left_path","right_path","left_rating","right_rating","response_ends_trial","trial_duration","scramble_acc","scramble_no_response","warning","stimulus_id","item_id","outcome","response_rt","deliberation_reward_tally","choice_type","gain_left","left_item_id","right_item_id","higher_outcome_chosen","chosen_left","old_pair","pair_type","old_response","pair_acc","reward_type","outcome_response","outcome_rt","outcome_acc","category","choice","deliberated_stim","old_rating","new_rating"
"true","full_screen","d06222023hr1907","fullscreen","0","106246","0.0-0.0-0.0","1","1","1","","","","","","","","","","","","","","","","","","","","","","","","","","","","","","","","","","","","","","","","","","","","","","","","","","","","","","","","","","","","","","","","","","","","","","",""
"","get_id","","survey-text","1","111212","0.0-0.0-1.0","1","1","1","4959","{""Q0"":""1"",""Q1"":""1"",""Q2"":""1""}","","","","","","","","","","","","","","","","","","","","","","","","","","","","","","","","","","","","","","","","","","","","","","","","","","","","","","","","","","","","","","","","","","","","",""
"","ratings_instructions","","instructions","2","112451","0.0-1.0-0.0-0.0","1","1","1","1194","","[{""page_index"":0,""viewing_time"":1041},{""page_index"":1,""viewing_time"":153}]","","","","","","","","","","","","","","","","","","","","","","","","","","","","","","","","","","","","","","","","","","","","","","","","","","","","","","","","","","","","","","","","","","","",""
"","rating_comprehension_check","","survey-multi-choice","3","115101","0.0-1.0-0.0-1.0","1","1","1","2643","{""Q0"":""True"",""Q1"":""Mouse""}","","0","","","","","","","","","","","","","","","","","","","","","","","","","","","","","","","","","","","","","","","","","","","","","","","","","","","","","","","","","","","","","","","","","","",""
"","","","html-keyboard-response","4","115666","0.0-1.0-1.0","1","1","1","560","","","","83","","","","","","","","","","","","","","","","","","","","","","","","","","","","","","","","","","","","","","","","","","","","","","","","","","","","","","","","","","","","","","","","","",""
"","rating","","html-slider-response","5","117749","0.0-1.0-2.0","1","1","1","2077","","","","","50","0","7","Stimuli/Experimental_stims/outdoor_scenes/petr-vysohlid-9fqwGqGLUxc-unsplash.jpg","","","","","","","","","","","","","","","","","","","","","","","","","","","","","","","","","","","","","","","","","","","","","","","","","","","","","","","","","","","","","",""
"","rating","","html-slider-response","6","117909","0.0-1.0-3.0","1","1","1","155","","","","","50","1","2","Stimuli/Experimental_stims/outdoor_scenes/bruno-van-der-kraan-qez8mNJ3ilU-unsplash.jpg","","","","","","","","","","","","","","","","","","","","","","","","","","","","","","","","","","","","","","","","","","","","","","","","","","","","","","","","","","","","","",""
"","rating","","html-slider-response","7","118071","0.0-1.0-4.0","1","1","1","157","","","","","50","2","27","Stimuli/Experimental_stims/body_parts/jonathan-borba-hTwH8QFkPMs-unsplash.jpg","","","","","","","","","","","","","","","","","","","","","","","","","","","","","","","","","","","","","","","","","","","","","","","","","","","","","","","","","","","","","",""
"","rating","","html-slider-response","8","118233","0.0-1.0-5.0","1","1","1","157","","","","","50","3","35","Stimuli/Experimental_stims/body_parts/tucker-good-36skLT5jZcc-unsplash.jpg","","","","","","","","","","","","","","","","","","","","","","","","","","","","","","","","","","","","","","","","","","","","","","","","","","","","","","","","","","","","","",""
"","rating","","html-slider-response","9","118394","0.0-1.0-6.0","1","1","1","156","","","","","50","4","22","Stimuli/Experimental_stims/faces/olena-sergienko-0TSd6uCKTKc-unsplash.jpg","","","","","","","","","","","","","","","","","","","","","","","","","","","","","","","","","","","","","","","","","","","","","","","","","","","","","","","","","","","","","",""
"","rating","","html-slider-response","10","118631","0.0-1.0-7.0","1","1","1","230","","","","","50","5","21","Stimuli/Experimental_stims/faces/leilani-angel-K84vnnzxmTQ-unsplash.jpg","","","","","","","","","","","","","","","","","","","","","","","","","","","","","","","","","","","","","","","","","","","","","","","","","","","","","","","","","","","","","",""
"","rating","","html-slider-response","11","118791","0.0-1.0-8.0","1","1","1","155","","","","","50","6","47","Stimuli/Experimental_stims/objects/ronaldo-arthur-vidal-Cdz_lvnl37k-unsplash.jpg","","","","","","","","","","","","","","","","","","","","","","","","","","","","","","","","","","","","","","","","","","","","","","","","","","","","","","","","","","","","","",""
"","rating","","html-slider-response","12","118946","0.0-1.0-9.0","1","1","1","148","","","","","50","7","17","Stimuli/Experimental_stims/faces/freddy-kearney-o-ioeoATbIM-unsplash.jpg","","","","","","","","","","","","","","","","","","","","","","","","","","","","","","","","","","","","","","","","","","","","","","","","","","","","","","","","","","","","","",""
"","rating","","html-slider-response","13","119098","0.0-1.0-10.0","1","1","1","145","","","","","50","8","26","Stimuli/Experimental_stims/body_parts/engin-akyurt-x_3gyC42btc-unsplash.jpg","","","","","","","","","","","","","","","","","","","","","","","","","","","","","","","","","","","","","","","","","","","","","","","","","","","","","","","","","","","","","",""
"","rating","","html-slider-response","14","119253","0.0-1.0-11.0","1","1","1","149","","","","","50","9","1","Stimuli/Experimental_stims/outdoor_scenes/ashim-d-silva-S2Q5mdOrrVc-unsplash.jpg","","","","","","","","","","","","","","","","","","","","","","","","","","","","","","","","","","","","","","","","","","","","","","","","","","","","","","","","","","","","","",""
"","rating","","html-slider-response","15","119407","0.0-1.0-12.0","1","1","1","147","","","","","50","10","44","Stimuli/Experimental_stims/objects/jonathan-greenaway-Y4hGgeiFn3s-unsplash.jpg","","","","","","","","","","","","","","","","","","","","","","","","","","","","","","","","","","","","","","","","","","","","","","","","","","","","","","","","","","","","","",""
"","rating","","html-slider-response","16","119561","0.0-1.0-13.0","1","1","1","147","","","","","50","11","43","Stimuli/Experimental_stims/objects/jiangxulei1990-eIzzzwtkBjU-unsplash.jpg","","","","","","","","","","","","","","","","","","","","","","","","","","","","","","","","","","","","","","","","","","","","","","","","","","","","","","","","","","","","","",""
"","rating","","html-slider-response","17","119722","0.0-1.0-14.0","1","1","1","156","","","","","50","12","25","Stimuli/Experimental_stims/body_parts/engin-akyurt-Q2rfH3GW39c-unsplash.jpg","","","","","","","","","","","","","","","","","","","","","","","","","","","","","","","","","","","","","","","","","","","","","","","","","","","","","","","","","","","","","",""
"","rating","","html-slider-response","18","119893","0.0-1.0-15.0","1","1","1","166","","","","","50","13","12","Stimuli/Experimental_stims/faces/abstral-official-cyOKLSgkgCE-unsplash.jpg","","","","","","","","","","","","","","","","","","","","","","","","","","","","","","","","","","","","","","","","","","","","","","","","","","","","","","","","","","","","","",""
"","rating","","html-slider-response","19","120048","0.0-1.0-16.0","1","1","1","148","","","","","50","14","4","Stimuli/Experimental_stims/outdoor_scenes/jarrett-kow-1ZOyYPOBn7I-unsplash.jpg","","","","","","","","","","","","","","","","","","","","","","","","","","","","","","","","","","","","","","","","","","","","","","","","","","","","","","","","","","","","","",""
"","rating","","html-slider-response","20","120202","0.0-1.0-17.0","1","1","1","147","","","","","50","15","42","Stimuli/Experimental_stims/objects/jess-bailey-nOeVi8DsN8U-unsplash.jpg","","","","","","","","","","","","","","","","","","","","","","","","","","","","","","","","","","","","","","","","","","","","","","","","","","","","","","","","","","","","","",""
"","rating","","html-slider-response","21","120354","0.0-1.0-18.0","1","1","1","147","","","","","50","16","16","Stimuli/Experimental_stims/faces/erik-lucatero-d2MSDujJl2g-unsplash.jpg","","","","","","","","","","","","","","","","","","","","","","","","","","","","","","","","","","","","","","","","","","","","","","","","","","","","","","","","","","","","","",""
"","rating","","html-slider-response","22","120517","0.0-1.0-19.0","1","1","1","156","","","","","50","17","24","Stimuli/Experimental_stims/body_parts/callum-skelton-3KLMq7y46nA-unsplash.jpg","","","","","","","","","","","","","","","","","","","","","","","","","","","","","","","","","","","","","","","","","","","","","","","","","","","","","","","","","","","","","",""
"","rating","","html-slider-response","23","120670","0.0-1.0-20.0","1","1","1","147","","","","","50","18","10","Stimuli/Experimental_stims/outdoor_scenes/stephen-leonardi-gyIRjKPXupE-unsplash.jpg","","","","","","","","","","","","","","","","","","","","","","","","","","","","","","","","","","","","","","","","","","","","","","","","","","","","","","","","","","","","","",""
"","rating","","html-slider-response","24","120815","0.0-1.0-21.0","1","1","1","139","","","","","50","19","9","Stimuli/Experimental_stims/outdoor_scenes/sergey-pesterev-y-b_FOmJXdg-unsplash.jpg","","","","","","","","","","","","","","","","","","","","","","","","","","","","","","","","","","","","","","","","","","","","","","","","","","","","","","","","","","","","","",""
"","rating","","html-slider-response","25","120969","0.0-1.0-22.0","1","1","1","148","","","","","50","20","38","Stimuli/Experimental_stims/objects/andrew-petrov-TVJqDat4MAw-unsplash.jpg","","","","","","","","","","","","","","","","","","","","","","","","","","","","","","","","","","","","","","","","","","","","","","","","","","","","","","","","","","","","","",""
"","rating","","html-slider-response","26","121131","0.0-1.0-23.0","1","1","1","156","","","","","50","21","19","Stimuli/Experimental_stims/faces/jessica-radanavong-mrYkTuAesKE-unsplash.jpg","","","","","","","","","","","","","","","","","","","","","","","","","","","","","","","","","","","","","","","","","","","","","","","","","","","","","","","","","","","","","",""
"","rating","","html-slider-response","27","121284","0.0-1.0-24.0","1","1","1","147","","","","","50","22","0","Stimuli/Experimental_stims/outdoor_scenes/aleksandra-boguslawska-MS7KD9Ti7FQ-unsplash.jpg","","","","","","","","","","","","","","","","","","","","","","","","","","","","","","","","","","","","","","","","","","","","","","","","","","","","","","","","","","","","","",""
"","rating","","html-slider-response","28","121604","0.0-1.0-25.0","1","1","1","314","","","","","50","23","37","Stimuli/Experimental_stims/objects/alexander-andrews-VLGWE_SumrA-unsplash.jpg","","","","","","","","","","","","","","","","","","","","","","","","","","","","","","","","","","","","","","","","","","","","","","","","","","","","","","","","","","","","","",""
"","rating","","html-slider-response","29","121759","0.0-1.0-26.0","1","1","1","149","","","","","50","24","41","Stimuli/Experimental_stims/objects/insung-yoon-w2JtIQQXoRU-unsplash.jpg","","","","","","","","","","","","","","","","","","","","","","","","","","","","","","","","","","","","","","","","","","","","","","","","","","","","","","","","","","","","","",""
"","rating","","html-slider-response","30","121932","0.0-1.0-27.0","1","1","1","167","","","","","50","25","36","Stimuli/Experimental_stims/objects/alexander-andrews-JYGnB9gTCls-unsplash.jpg","","","","","","","","","","","","","","","","","","","","","","","","","","","","","","","","","","","","","","","","","","","","","","","","","","","","","","","","","","","","","",""
"","rating","","html-slider-response","31","122100","0.0-1.0-28.0","1","1","1","162","","","","","50","26","39","Stimuli/Experimental_stims/objects/art-lasovsky-8XddFc6NkBY-unsplash.jpg","","","","","","","","","","","","","","","","","","","","","","","","","","","","","","","","","","","","","","","","","","","","","","","","","","","","","","","","","","","","","",""
"","rating","","html-slider-response","32","122269","0.0-1.0-29.0","1","1","1","163","","","","","50","27","28","Stimuli/Experimental_stims/body_parts/klara-kulikova-TcUfF24fUMY-unsplash.jpg","","","","","","","","","","","","","","","","","","","","","","","","","","","","","","","","","","","","","","","","","","","","","","","","","","","","","","","","","","","","","",""
"","rating","","html-slider-response","33","122450","0.0-1.0-30.0","1","1","1","175","","","","","50","28","34","Stimuli/Experimental_stims/body_parts/sincerely-media-VN6DbKajo5s-unsplash.jpg","","","","","","","","","","","","","","","","","","","","","","","","","","","","","","","","","","","","","","","","","","","","","","","","","","","","","","","","","","","","","",""
"","rating","","html-slider-response","34","122613","0.0-1.0-31.0","1","1","1","159","","","","","50","29","20","Stimuli/Experimental_stims/faces/justin-chen-J7Cf1Gch49E-unsplash.jpg","","","","","","","","","","","","","","","","","","","","","","","","","","","","","","","","","","","","","","","","","","","","","","","","","","","","","","","","","","","","","",""
"","rating","","html-slider-response","35","122803","0.0-1.0-32.0","1","1","1","184","","","","","50","30","29","Stimuli/Experimental_stims/body_parts/lucaxx-freire-CacZwMexYdk-unsplash.jpg","","","","","","","","","","","","","","","","","","","","","","","","","","","","","","","","","","","","","","","","","","","","","","","","","","","","","","","","","","","","","",""
"","rating","","html-slider-response","36","122975","0.0-1.0-33.0","1","1","1","167","","","","","50","31","32","Stimuli/Experimental_stims/body_parts/pure-julia-9lVaya31sMk-unsplash.jpg","","","","","","","","","","","","","","","","","","","","","","","","","","","","","","","","","","","","","","","","","","","","","","","","","","","","","","","","","","","","","",""
"","rating","","html-slider-response","37","123135","0.0-1.0-34.0","1","1","1","155","","","","","50","32","30","Stimuli/Experimental_stims/body_parts/lucrezia-carnelos-kn6QrWtnAtY-unsplash.jpg","","","","","","","","","","","","","","","","","","","","","","","","","","","","","","","","","","","","","","","","","","","","","","","","","","","","","","","","","","","","","",""
"","rating","","html-slider-response","38","123306","0.0-1.0-35.0","1","1","1","166","","","","","50","33","5","Stimuli/Experimental_stims/outdoor_scenes/jeff-king-bJHWJeiHfHc-unsplash.jpg","","","","","","","","","","","","","","","","","","","","","","","","","","","","","","","","","","","","","","","","","","","","","","","","","","","","","","","","","","","","","",""
"","rating","","html-slider-response","39","123482","0.0-1.0-36.0","1","1","1","169","","","","","50","34","6","Stimuli/Experimental_stims/outdoor_scenes/meng-ji-8BH_M-53CyA-unsplash.jpg","","","","","","","","","","","","","","","","","","","","","","","","","","","","","","","","","","","","","","","","","","","","","","","","","","","","","","","","","","","","","",""
"","rating","","html-slider-response","40","123654","0.0-1.0-37.0","1","1","1","167","","","","","50","35","3","Stimuli/Experimental_stims/outdoor_scenes/henry-be-NLF6hTe4PAg-unsplash.jpg","","","","","","","","","","","","","","","","","","","","","","","","","","","","","","","","","","","","","","","","","","","","","","","","","","","","","","","","","","","","","",""
"","rating","","html-slider-response","41","123832","0.0-1.0-38.0","1","1","1","173","","","","","50","36","40","Stimuli/Experimental_stims/objects/fabian-blank-pElSkGRA2NU-unsplash.jpg","","","","","","","","","","","","","","","","","","","","","","","","","","","","","","","","","","","","","","","","","","","","","","","","","","","","","","","","","","","","","",""
"","rating","","html-slider-response","42","124000","0.0-1.0-39.0","1","1","1","162","","","","","50","37","31","Stimuli/Experimental_stims/body_parts/megan-menegay-UojxG_BJxnI-unsplash.jpg","","","","","","","","","","","","","","","","","","","","","","","","","","","","","","","","","","","","","","","","","","","","","","","","","","","","","","","","","","","","","",""
"","rating","","html-slider-response","43","124164","0.0-1.0-40.0","1","1","1","158","","","","","50","38","46","Stimuli/Experimental_stims/objects/mockup-graphics-PNsj6RiHAF4-unsplash.jpg","","","","","","","","","","","","","","","","","","","","","","","","","","","","","","","","","","","","","","","","","","","","","","","","","","","","","","","","","","","","","",""
"","rating","","html-slider-response","44","124332","0.0-1.0-41.0","1","1","1","162","","","","","50","39","13","Stimuli/Experimental_stims/faces/aiony-haust-jmATI5Q_YgY-unsplash.jpg","","","","","","","","","","","","","","","","","","","","","","","","","","","","","","","","","","","","","","","","","","","","","","","","","","","","","","","","","","","","","",""
"","rating","","html-slider-response","45","124510","0.0-1.0-42.0","1","1","1","172","","","","","50","40","33","Stimuli/Experimental_stims/body_parts/sincerely-media-7TBFwUQA6Xk-unsplash.jpg","","","","","","","","","","","","","","","","","","","","","","","","","","","","","","","","","","","","","","","","","","","","","","","","","","","","","","","","","","","","","",""
"","rating","","html-slider-response","46","124682","0.0-1.0-43.0","1","1","1","166","","","","","50","41","8","Stimuli/Experimental_stims/outdoor_scenes/samsommer-vddccTqwal8-unsplash.jpg","","","","","","","","","","","","","","","","","","","","","","","","","","","","","","","","","","","","","","","","","","","","","","","","","","","","","","","","","","","","","",""
"","rating","","html-slider-response","47","124852","0.0-1.0-44.0","1","1","1","164","","","","","50","42","23","Stimuli/Experimental_stims/faces/rikonavt-HQjfrvdTfak-unsplash.jpg","","","","","","","","","","","","","","","","","","","","","","","","","","","","","","","","","","","","","","","","","","","","","","","","","","","","","","","","","","","","","",""
"","rating","","html-slider-response","48","125016","0.0-1.0-45.0","1","1","1","159","","","","","50","43","18","Stimuli/Experimental_stims/faces/good-faces-xmSWVeGEnJw-unsplash.jpg","","","","","","","","","","","","","","","","","","","","","","","","","","","","","","","","","","","","","","","","","","","","","","","","","","","","","","","","","","","","","",""
"","rating","","html-slider-response","49","125178","0.0-1.0-46.0","1","1","1","158","","","","","50","44","11","Stimuli/Experimental_stims/outdoor_scenes/yuriy-bogdanov-W51VK3Obcj0-unsplash.jpg","","","","","","","","","","","","","","","","","","","","","","","","","","","","","","","","","","","","","","","","","","","","","","","","","","","","","","","","","","","","","",""
"","rating","","html-slider-response","50","125335","0.0-1.0-47.0","1","1","1","152","","","","","50","45","15","Stimuli/Experimental_stims/faces/daniel-rigdon-dXmXKPP2L4E-unsplash.jpg","","","","","","","","","","","","","","","","","","","","","","","","","","","","","","","","","","","","","","","","","","","","","","","","","","","","","","","","","","","","","",""
"","rating","","html-slider-response","51","125497","0.0-1.0-48.0","1","1","1","157","","","","","50","46","45","Stimuli/Experimental_stims/objects/kuiye-chen-NuOGFo4PudE-unsplash.jpg","","","","","","","","","","","","","","","","","","","","","","","","","","","","","","","","","","","","","","","","","","","","","","","","","","","","","","","","","","","","","",""
"","rating","","html-slider-response","52","125665","0.0-1.0-49.0","1","1","1","162","","","","","50","47","14","Stimuli/Experimental_stims/faces/art-hauntington-jzY0KRJopEI-unsplash.jpg","","","","","","","","","","","","","","","","","","","","","","","","","","","","","","","","","","","","","","","","","","","","","","","","","","","","","","","","","","","","","",""
"","localizer_instructions","","instructions","53","129495","0.0-2.0-0.0-0.0","1","1","1","3798","","[{""page_index"":0,""viewing_time"":1867},{""page_index"":1,""viewing_time"":1140},{""page_index"":2,""viewing_time"":791}]","","","","","","","","","","","","","","","","","","","","","","","","","","","","","","","","","","","","","","","","","","","","","","","","","","","","","","","","","","","","","","","","","","","",""
"","localizer_comprehension_check","","survey-multi-choice","54","137885","0.0-2.0-0.0-1.0","1","1","1","8384","{""Q0"":""True"",""Q1"":""Index finger"",""Q2"":""Middle finger""}","","1","","","","","","","","","","","","","","","","","","","","","","","","","","","","","","","","","","","","","","","","","","","","","","","","","","","","","","","","","","","","","","","","","","",""
"","missed_instruction_checkup","","html-keyboard-response","55","140396","0.0-2.0-0.0-2.0-0.0","1","1","1","2499","","","","50","","","","","1","","","","","","","","","","","","","","","","","","","","","","","","","","","","","","","","","","","","","","","","","","","","","","","","","","","","","","","","","","","","",""
"","localizer_instructions","","instructions","56","165601","0.0-2.0-0.1-0.1","1","1","1","25200","","[{""page_index"":0,""viewing_time"":7273},{""page_index"":1,""viewing_time"":16107},{""page_index"":2,""viewing_time"":1820}]","","","","","","","","","","","","","","","","","","","","","","","","","","","","","","","","","","","","","","","","","","","","","","","","","","","","","","","","","","","","","","","","","","","",""
"","localizer_comprehension_check","","survey-multi-choice","57","171579","0.0-2.0-0.1-1.1","1","1","1","5972","{""Q0"":""True"",""Q1"":""Middle finger"",""Q2"":""Index finger""}","","0","","","","","","","","","","","","","","","","","","","","","","","","","","","","","","","","","","","","","","","","","","","","","","","","","","","","","","","","","","","","","","","","","","",""
"","","","html-keyboard-response","58","172734","0.0-2.0-1.0","1","1","1","1149","","","","83","","","","","","","","","","","","","","","","","","","","","","","","","","","","","","","","","","","","","","","","","","","","","","","","","","","","","","","","","","","","","","","","","",""
"","localizer","","html-keyboard-response","59","173142","0.0-2.0-2.0-0.0","1","1","1","NaN","","","","null","NaN","0","","Stimuli/Practice_stims/Localizer/annie-spratt-g9KFpAfQ5bc-unsplash.jpg","","0","NaN","","0","1","0","0.4","0","","","","","","","","","","","","","","","","","","","","","","","","","","","","","","","","","","","","","","","","","","","","","","","","","","","","",""
"","iti_localizer","","html-keyboard-response","60","173458","0.0-2.0-2.0-1.0","1","1","1","null","","","","null","","0","","","","0","","","","","","0.3","0.4","","","","","","","","","","","","","","","","","","","","","","","","","","","","","","","","","","","","","","","","","","","","","","","","","","","","",""
"","localizer","","html-keyboard-response","61","173871","0.0-2.0-2.1-0.1","1","1","1","196","","","","50","0","0","","Stimuli/Practice_stims/Localizer/annie-spratt-g9KFpAfQ5bc-unsplash.jpg","","0","NaN","","0","0","1","0.4","0.7","","","","","","","","","","","","","","","","","","","","","","","","","","","","","","","","","","","","","","","","","","","","","","","","","","","","",""
"","iti_localizer","","html-keyboard-response","62","174187","0.0-2.0-2.1-1.1","1","1","1","null","","","","null","","0","","","","0","","","","","","0.3","1.1","","","","","","","","","","","","","","","","","","","","","","","","","","","","","","","","","","","","","","","","","","","","","","","","","","","","",""
"","localizer","","html-keyboard-response","63","174599","0.0-2.0-3.0-0.0","1","1","1","317","","","","50","0","1","","Stimuli/Practice_stims/Localizer/becca-tapert-sY5RjMB1KkE-unsplash.jpg","","0","NaN","","0","0","1","0.4","1.4000000000000001","","","","","","","","","","","","","","","","","","","","","","","","","","","","","","","","","","","","","","","","","","","","","","","","","","","","",""
"","iti_localizer","","html-keyboard-response","64","174910","0.0-2.0-3.0-1.0","1","1","1","null","","","","null","","1","","","","0","","","","","","0.3","1.8000000000000003","","","","","","","","","","","","","","","","","","","","","","","","","","","","","","","","","","","","","","","","","","","","","","","","","","","","",""
"","localizer","","html-keyboard-response","65","175319","0.0-2.0-4.0-0.0","1","1","1","91","","","","50","0","2","","Stimuli/Practice_stims/Localizer/charl-durand-bsfXvI25iNg-unsplash.jpg","","0","NaN","","1","0","0","0.4","2.1","","","","","","","","","","","","","","","","","","","","","","","","","","","","","","","","","","","","","","","","","","","","","","","","","","","","",""
"","iti_localizer","","html-keyboard-response","66","175632","0.0-2.0-4.0-1.0","1","1","1","null","","","","null","","2","","","","0","","","","","","0.3","2.5","","","","","","","","","","","","","","","","","","","","","","","","","","","","","","","","","","","","","","","","","","","","","","","","","","","","",""
"","localizer","","html-keyboard-response","67","176050","0.0-2.0-5.0-0.0","1","1","1","NaN","","","","null","NaN","3","","Stimuli/Practice_stims/Localizer/nizar-albusaidy-B2r2SWAf5CE-unsplash.jpg","","0","NaN","","0","1","0","0.4","2.8","","","","","","","","","","","","","","","","","","","","","","","","","","","","","","","","","","","","","","","","","","","","","","","","","","","","",""
"","iti_localizer","","html-keyboard-response","68","176358","0.0-2.0-5.0-1.0","1","1","1","null","","","","null","","3","","","","0","","","","","","0.3","3.1999999999999997","","","","","","","","","","","","","","","","","","","","","","","","","","","","","","","","","","","","","","","","","","","","","","","","","","","","",""
"","localizer","","html-keyboard-response","69","176768","0.0-2.0-5.1-0.1","1","1","1","294","","","","50","0","3","","Stimuli/Practice_stims/Localizer/nizar-albusaidy-B2r2SWAf5CE-unsplash.jpg","","0","NaN","","0","0","1","0.4","3.4999999999999996","","","","","","","","","","","","","","","","","","","","","","","","","","","","","","","","","","","","","","","","","","","","","","","","","","","","",""
"","iti_localizer","","html-keyboard-response","70","177080","0.0-2.0-5.1-1.1","1","1","1","null","","","","null","","3","","","","0","","","","","","0.3","3.8999999999999995","","","","","","","","","","","","","","","","","","","","","","","","","","","","","","","","","","","","","","","","","","","","","","","","","","","","",""
"","localizer","","html-keyboard-response","71","177494","0.0-2.0-6.0-0.0","1","1","1","251","","","","50","0","4","","Stimuli/Practice_stims/Localizer/randy-fath-epf1tdtIIkM-unsplash.jpg","","0","NaN","","1","0","0","0.4","4.199999999999999","","","","","","","","","","","","","","","","","","","","","","","","","","","","","","","","","","","","","","","","","","","","","","","","","","","","",""
"","iti_localizer","","html-keyboard-response","72","177808","0.0-2.0-6.0-1.0","1","1","1","null","","","","null","","4","","","","0","","","","","","0.3","4.6","","","","","","","","","","","","","","","","","","","","","","","","","","","","","","","","","","","","","","","","","","","","","","","","","","","","",""
"","localizer","","html-keyboard-response","73","178224","0.0-2.0-7.0-0.0","1","1","1","350","","","","50","0","5","","Stimuli/Practice_stims/Localizer/yassine-khalfalli-adsQ9d_Cx0c-unsplash.jpg","","0","NaN","","0","0","1","0.4","4.8999999999999995","","","","","","","","","","","","","","","","","","","","","","","","","","","","","","","","","","","","","","","","","","","","","","","","","","","","",""
"","iti_localizer","","html-keyboard-response","74","178538","0.0-2.0-7.0-1.0","1","1","1","null","","","","null","","5","","","","0","","","","","","0.3","5.3","","","","","","","","","","","","","","","","","","","","","","","","","","","","","","","","","","","","","","","","","","","","","","","","","","","","",""
"","practice_over","","html-keyboard-response","75","180636","0.0-2.0-7.0-2.0-0.0","1","1","1","2087","","","","83","","","","","","","","","","","","","","","","","","","","","","","","","","","","","","","","","","","","","","","","","","","","","","","","","","","","","","","","","","","","","","","","","",""
"","start_run","","html-keyboard-response","76","183265","0.0-2.0-7.0-2.0-1.0","1","1","1","2626","","","","84","","","","","","","","","","","","","","","","","","","","","","","","","","","","","","","","","","","","","","","","","","","","","","","","","","","","","","","","","","","","","","","","","",""
"","localizer","","html-keyboard-response","77","183675","0.0-2.0-8.0-0.0","1","1","1","NaN","","","","null","NaN","6","","Stimuli/Experimental_stims/localizer/objects/yoann-siloine-_T4w3JDm6ug-unsplash.jpg","","1","objects","","0","1","0","0.4","0","","","","","","","","","","","","","","","","","","","","","","","","","","","","","","","","","","","","","","","","","","","","","","","","","","","","",""
"","iti_localizer","","html-keyboard-response","78","183984","0.0-2.0-8.0-1.0","1","1","1","null","","","","null","","6","","","","1","","","","","","0.3","0.4","","","","","","","","","","","","","","","","","","","","","","","","","","","","","","","","","","","","","","","","","","","","","","","","","","","","",""
"","localizer","","html-keyboard-response","79","184399","0.0-2.0-9.0-0.0","1","1","1","NaN","","","","null","NaN","7","","Stimuli/Experimental_stims/localizer/objects/dan-cristian-padure-ezoshbcxWrM-unsplash.jpg","","1","objects","","0","1","0","0.4","0.7","","","","","","","","","","","","","","","","","","","","","","","","","","","","","","","","","","","","","","","","","","","","","","","","","","","","",""
"","iti_localizer","","html-keyboard-response","80","184714","0.0-2.0-9.0-1.0","1","1","1","null","","","","null","","7","","","","1","","","","","","0.3","1.1","","","","","","","","","","","","","","","","","","","","","","","","","","","","","","","","","","","","","","","","","","","","","","","","","","","","",""
"","localizer","","html-keyboard-response","81","185128","0.0-2.0-10.0-0.0","1","1","1","278","","","","50","0","8","","Stimuli/Experimental_stims/localizer/objects/mulyadi-tWp0VSlSdMI-unsplash.jpg","","1","objects","","0","0","1","0.4","1.4000000000000001","","","","","","","","","","","","","","","","","","","","","","","","","","","","","","","","","","","","","","","","","","","","","","","","","","","","",""
"","iti_localizer","","html-keyboard-response","82","185442","0.0-2.0-10.0-1.0","1","1","1","null","","","","null","","8","","","","1","","","","","","0.3","1.8000000000000003","","","","","","","","","","","","","","","","","","","","","","","","","","","","","","","","","","","","","","","","","","","","","","","","","","","","",""
"","localizer","","html-keyboard-response","83","185859","0.0-2.0-11.0-0.0","1","1","1","327","","","","50","0","9","","Stimuli/Experimental_stims/localizer/objects/thomas-stephan-ygW2Hn3PTSI-unsplash.jpg","","1","objects","","0","0","1","0.4","2.1","","","","","","","","","","","","","","","","","","","","","","","","","","","","","","","","","","","","","","","","","","","","","","","","","","","","",""
"","iti_localizer","","html-keyboard-response","84","186166","0.0-2.0-11.0-1.0","1","1","1","null","","","","null","","9","","","","1","","","","","","0.3","2.5","","","","","","","","","","","","","","","","","","","","","","","","","","","","","","","","","","","","","","","","","","","","","","","","","","","","",""
"","localizer","","html-keyboard-response","85","186575","0.0-2.0-12.0-0.0","1","1","1","313","","","","50","0","10","","Stimuli/Experimental_stims/localizer/objects/eugene-chystiakov-3neSwyntbQ8-unsplash.jpg","","1","objects","","0","0","1","0.4","2.8","","","","","","","","","","","","","","","","","","","","","","","","","","","","","","","","","","","","","","","","","","","","","","","","","","","","",""
"","iti_localizer","","html-keyboard-response","86","186889","0.0-2.0-12.0-1.0","1","1","1","null","","","","null","","10","","","","1","","","","","","0.3","3.1999999999999997","","","","","","","","","","","","","","","","","","","","","","","","","","","","","","","","","","","","","","","","","","","","","","","","","","","","",""
"","localizer","","html-keyboard-response","87","187306","0.0-2.0-13.0-0.0","1","1","1","336","","","","50","0","11","","Stimuli/Experimental_stims/localizer/objects/quino-al-4SNUcHPiC8c-unsplash.jpg","","1","objects","","0","0","1","0.4","3.4999999999999996","","","","","","","","","","","","","","","","","","","","","","","","","","","","","","","","","","","","","","","","","","","","","","","","","","","","",""
"","iti_localizer","","html-keyboard-response","88","187614","0.0-2.0-13.0-1.0","1","1","1","null","","","","null","","11","","","","1","","","","","","0.3","3.8999999999999995","","","","","","","","","","","","","","","","","","","","","","","","","","","","","","","","","","","","","","","","","","","","","","","","","","","","",""
"","localizer","","html-keyboard-response","89","188024","0.0-2.0-14.0-0.0","1","1","1","305","","","","50","0","12","","Stimuli/Experimental_stims/localizer/objects/kristina-skoreva-v6o0uSjFw7Q-unsplash.jpg","","1","objects","","0","0","1","0.4","4.199999999999999","","","","","","","","","","","","","","","","","","","","","","","","","","","","","","","","","","","","","","","","","","","","","","","","","","","","",""
"","iti_localizer","","html-keyboard-response","90","188333","0.0-2.0-14.0-1.0","1","1","1","null","","","","null","","12","","","","1","","","","","","0.3","4.6","","","","","","","","","","","","","","","","","","","","","","","","","","","","","","","","","","","","","","","","","","","","","","","","","","","","",""
"","localizer","","html-keyboard-response","91","188741","0.0-2.0-15.0-0.0","1","1","1","338","","","","50","0","13","","Stimuli/Experimental_stims/localizer/objects/designecologist-hvgd0ygXuQQ-unsplash.jpg","","1","objects","","0","0","1","0.4","4.8999999999999995","","","","","","","","","","","","","","","","","","","","","","","","","","","","","","","","","","","","","","","","","","","","","","","","","","","","",""
"","iti_localizer","","html-keyboard-response","92","189059","0.0-2.0-15.0-1.0","1","1","1","null","","","","null","","13","","","","1","","","","","","0.3","5.3","","","","","","","","","","","","","","","","","","","","","","","","","","","","","","","","","","","","","","","","","","","","","","","","","","","","",""
"","localizer","","html-keyboard-response","93","189470","0.0-2.0-16.0-0.0","1","1","1","314","","","","50","0","14","","Stimuli/Experimental_stims/localizer/objects/mae-mu-vbAEHCrvXZ0-unsplash.jpg","","1","objects","","0","0","1","0.4","5.6","","","","","","","","","","","","","","","","","","","","","","","","","","","","","","","","","","","","","","","","","","","","","","","","","","","","",""
"","iti_localizer","","html-keyboard-response","94","189784","0.0-2.0-16.0-1.0","1","1","1","null","","","","null","","14","","","","1","","","","","","0.3","6","","","","","","","","","","","","","","","","","","","","","","","","","","","","","","","","","","","","","","","","","","","","","","","","","","","","",""
"","localizer","","html-keyboard-response","95","190200","0.0-2.0-17.0-0.0","1","1","1","313","","","","50","0","15","","Stimuli/Experimental_stims/localizer/objects/namroud-gorguis-FZWivbri0Xk-unsplash.jpg","","1","objects","","1","0","0","0.4","6.3","","","","","","","","","","","","","","","","","","","","","","","","","","","","","","","","","","","","","","","","","","","","","","","","","","","","",""
"","iti_localizer","","html-keyboard-response","96","190510","0.0-2.0-17.0-1.0","1","1","1","null","","","","null","","15","","","","1","","","","","","0.3","6.7","","","","","","","","","","","","","","","","","","","","","","","","","","","","","","","","","","","","","","","","","","","","","","","","","","","","",""
"","localizer","","html-keyboard-response","97","190916","0.0-2.0-18.0-0.0","1","1","1","254","","","","50","0","16","","Stimuli/Experimental_stims/localizer/objects/muhammad-toqeer-NRJ9ipvz2iE-unsplash.jpg","","1","objects","","0","0","1","0.4","7","","","","","","","","","","","","","","","","","","","","","","","","","","","","","","","","","","","","","","","","","","","","","","","","","","","","",""
"","iti_localizer","","html-keyboard-response","98","191232","0.0-2.0-18.0-1.0","1","1","1","null","","","","null","","16","","","","1","","","","","","0.3","7.4","","","","","","","","","","","","","","","","","","","","","","","","","","","","","","","","","","","","","","","","","","","","","","","","","","","","",""
"","localizer","","html-keyboard-response","99","191649","0.0-2.0-19.0-0.0","1","1","1","248","","","","50","0","17","","Stimuli/Experimental_stims/localizer/objects/mae-mu-yl2d0CKW130-unsplash.jpg","","1","objects","","1","0","0","0.4","7.7","","","","","","","","","","","","","","","","","","","","","","","","","","","","","","","","","","","","","","","","","","","","","","","","","","","","",""
"","iti_localizer","","html-keyboard-response","100","191960","0.0-2.0-19.0-1.0","1","1","1","null","","","","null","","17","","","","1","","","","","","0.3","8.1","","","","","","","","","","","","","","","","","","","","","","","","","","","","","","","","","","","","","","","","","","","","","","","","","","","","",""
"","localizer","","html-keyboard-response","101","192373","0.0-2.0-20.0-0.0","1","1","1","245","","","","50","0","18","","Stimuli/Experimental_stims/localizer/objects/mockup-graphics-U6ZMEefFGx8-unsplash.jpg","","1","objects","","0","0","1","0.4","8.4","","","","","","","","","","","","","","","","","","","","","","","","","","","","","","","","","","","","","","","","","","","","","","","","","","","","",""
"","iti_localizer","","html-keyboard-response","102","192688","0.0-2.0-20.0-1.0","1","1","1","null","","","","null","","18","","","","1","","","","","","0.3","8.8","","","","","","","","","","","","","","","","","","","","","","","","","","","","","","","","","","","","","","","","","","","","","","","","","","","","",""
"","localizer","","html-keyboard-response","103","193094","0.0-2.0-21.0-0.0","1","1","1","297","","","","50","0","19","","Stimuli/Experimental_stims/localizer/objects/sam-moghadam-khamseh-kvmdsTrGOBM-unsplash.jpg","","1","objects","","0","0","1","0.4","9.100000000000001","","","","","","","","","","","","","","","","","","","","","","","","","","","","","","","","","","","","","","","","","","","","","","","","","","","","",""
"","iti_localizer","","html-keyboard-response","104","193407","0.0-2.0-21.0-1.0","1","1","1","null","","","","null","","19","","","","1","","","","","","0.3","9.500000000000002","","","","","","","","","","","","","","","","","","","","","","","","","","","","","","","","","","","","","","","","","","","","","","","","","","","","",""
"","localizer","","html-keyboard-response","105","193818","0.0-2.0-22.0-0.0","1","1","1","267","","","","50","0","20","","Stimuli/Experimental_stims/localizer/objects/saif71-com-VIKdvmGUhq8-unsplash.jpg","","1","objects","","0","0","1","0.4","9.800000000000002","","","","","","","","","","","","","","","","","","","","","","","","","","","","","","","","","","","","","","","","","","","","","","","","","","","","",""
"","iti_localizer","","html-keyboard-response","106","194130","0.0-2.0-22.0-1.0","1","1","1","null","","","","null","","20","","","","1","","","","","","0.3","10.200000000000003","","","","","","","","","","","","","","","","","","","","","","","","","","","","","","","","","","","","","","","","","","","","","","","","","","","","",""
"","localizer","","html-keyboard-response","107","194546","0.0-2.0-23.0-0.0","1","1","1","285","","","","50","0","21","","Stimuli/Experimental_stims/localizer/objects/florian-klauer-nptLmg6jqDo-unsplash.jpg","","1","objects","","0","0","1","0.4","10.500000000000004","","","","","","","","","","","","","","","","","","","","","","","","","","","","","","","","","","","","","","","","","","","","","","","","","","","","",""
"","iti_localizer","","html-keyboard-response","108","194855","0.0-2.0-23.0-1.0","1","1","1","null","","","","null","","21","","","","1","","","","","","0.3","10.900000000000004","","","","","","","","","","","","","","","","","","","","","","","","","","","","","","","","","","","","","","","","","","","","","","","","","","","","",""
"","localizer","","html-keyboard-response","109","195265","0.0-2.0-24.0-0.0","1","1","1","313","","","","50","0","22","","Stimuli/Experimental_stims/localizer/objects/ruslan-bardash-4kTbAMRAHtQ-unsplash.jpg","","1","objects","","0","0","1","0.4","11.200000000000005","","","","","","","","","","","","","","","","","","","","","","","","","","","","","","","","","","","","","","","","","","","","","","","","","","","","",""
"","iti_localizer","","html-keyboard-response","110","195575","0.0-2.0-24.0-1.0","1","1","1","null","","","","null","","22","","","","1","","","","","","0.3","11.600000000000005","","","","","","","","","","","","","","","","","","","","","","","","","","","","","","","","","","","","","","","","","","","","","","","","","","","","",""
"","localizer","","html-keyboard-response","111","195984","0.0-2.0-25.0-0.0","1","1","1","298","","","","50","0","23","","Stimuli/Experimental_stims/localizer/objects/mockup-graphics-paOhdpqcYuY-unsplash.jpg","","1","objects","","0","0","1","0.4","11.900000000000006","","","","","","","","","","","","","","","","","","","","","","","","","","","","","","","","","","","","","","","","","","","","","","","","","","","","",""
"","iti_localizer","","html-keyboard-response","112","196297","0.0-2.0-25.0-1.0","1","1","1","null","","","","null","","23","","","","1","","","","","","0.3","12.300000000000006","","","","","","","","","","","","","","","","","","","","","","","","","","","","","","","","","","","","","","","","","","","","","","","","","","","","",""
"","localizer","","html-keyboard-response","113","196712","0.0-2.0-26.0-0.0","1","1","1","299","","","","50","0","24","","Stimuli/Experimental_stims/localizer/objects/girl-with-red-hat-Xxg-r574pLE-unsplash.jpg","","1","objects","","0","0","1","0.4","12.600000000000007","","","","","","","","","","","","","","","","","","","","","","","","","","","","","","","","","","","","","","","","","","","","","","","","","","","","",""
"","iti_localizer","","html-keyboard-response","114","197024","0.0-2.0-26.0-1.0","1","1","1","null","","","","null","","24","","","","1","","","","","","0.3","13.000000000000007","","","","","","","","","","","","","","","","","","","","","","","","","","","","","","","","","","","","","","","","","","","","","","","","","","","","",""
"","localizer","","html-keyboard-response","115","197437","0.0-2.0-27.0-0.0","1","1","1","280","","","","50","0","25","","Stimuli/Experimental_stims/localizer/objects/markus-spiske-R_An1zMmGwg-unsplash.jpg","","1","objects","","0","0","1","0.4","13.300000000000008","","","","","","","","","","","","","","","","","","","","","","","","","","","","","","","","","","","","","","","","","","","","","","","","","","","","",""
"","iti_localizer","","html-keyboard-response","116","211451","0.0-2.0-27.0-1.0","1","1","1","null","","","","null","","25","","","","1","","","","","","14","13.700000000000008","","","","","","","","","","","","","","","","","","","","","","","","","","","","","","","","","","","","","","","","","","","","","","","","","","","","",""
"","localizer","","html-keyboard-response","117","211867","0.0-2.0-28.0-0.0","1","1","1","NaN","","","","null","NaN","26","","Stimuli/Experimental_stims/localizer/outdoor_scenes/sean-oulashin-KMn4VEeEPR8-unsplash.jpg","","1","outdoor_scenes","","0","1","0","0.4","27.70000000000001","","","","","","","","","","","","","","","","","","","","","","","","","","","","","","","","","","","","","","","","","","","","","","","","","","","","",""
"","iti_localizer","","html-keyboard-response","118","212174","0.0-2.0-28.0-1.0","1","1","1","null","","","","null","","26","","","","1","","","","","","0.3","28.10000000000001","","","","","","","","","","","","","","","","","","","","","","","","","","","","","","","","","","","","","","","","","","","","","","","","","","","","",""
"","localizer","","html-keyboard-response","119","212586","0.0-2.0-29.0-0.0","1","1","1","263","","","","50","0","27","","Stimuli/Experimental_stims/localizer/outdoor_scenes/carles-rabada-DD1fSz2HF1s-unsplash.jpg","","1","outdoor_scenes","","0","0","1","0.4","28.40000000000001","","","","","","","","","","","","","","","","","","","","","","","","","","","","","","","","","","","","","","","","","","","","","","","","","","","","",""
"","iti_localizer","","html-keyboard-response","120","212898","0.0-2.0-29.0-1.0","1","1","1","null","","","","null","","27","","","","1","","","","","","0.3","28.800000000000008","","","","","","","","","","","","","","","","","","","","","","","","","","","","","","","","","","","","","","","","","","","","","","","","","","","","",""
"","localizer","","html-keyboard-response","121","213310","0.0-2.0-30.0-0.0","1","1","1","177","","","","50","0","28","","Stimuli/Experimental_stims/localizer/outdoor_scenes/neom-THlO6Mkf5uI-unsplash.jpg","","1","outdoor_scenes","","0","0","1","0.4","29.10000000000001","","","","","","","","","","","","","","","","","","","","","","","","","","","","","","","","","","","","","","","","","","","","","","","","","","","","",""
"","iti_localizer","","html-keyboard-response","122","213625","0.0-2.0-30.0-1.0","1","1","1","null","","","","null","","28","","","","1","","","","","","0.3","29.500000000000007","","","","","","","","","","","","","","","","","","","","","","","","","","","","","","","","","","","","","","","","","","","","","","","","","","","","",""
"","localizer","","html-keyboard-response","123","214038","0.0-2.0-31.0-0.0","1","1","1","231","","","","50","0","29","","Stimuli/Experimental_stims/localizer/outdoor_scenes/chris-holgersson-zshyCr6HGw0-unsplash.jpg","","1","outdoor_scenes","","0","0","1","0.4","29.800000000000008","","","","","","","","","","","","","","","","","","","","","","","","","","","","","","","","","","","","","","","","","","","","","","","","","","","","",""
"","iti_localizer","","html-keyboard-response","124","214350","0.0-2.0-31.0-1.0","1","1","1","null","","","","null","","29","","","","1","","","","","","0.3","30.200000000000006","","","","","","","","","","","","","","","","","","","","","","","","","","","","","","","","","","","","","","","","","","","","","","","","","","","","",""
"","localizer","","html-keyboard-response","125","214759","0.0-2.0-32.0-0.0","1","1","1","252","","","","50","0","30","","Stimuli/Experimental_stims/localizer/outdoor_scenes/simon-berger-UqCnDyc_3vA-unsplash.jpg","","1","outdoor_scenes","","1","0","0","0.4","30.500000000000007","","","","","","","","","","","","","","","","","","","","","","","","","","","","","","","","","","","","","","","","","","","","","","","","","","","","",""
"","iti_localizer","","html-keyboard-response","126","215075","0.0-2.0-32.0-1.0","1","1","1","null","","","","null","","30","","","","1","","","","","","0.3","30.900000000000006","","","","","","","","","","","","","","","","","","","","","","","","","","","","","","","","","","","","","","","","","","","","","","","","","","","","",""
"","localizer","","html-keyboard-response","127","215490","0.0-2.0-33.0-0.0","1","1","1","177","","","","50","0","31","","Stimuli/Experimental_stims/localizer/outdoor_scenes/ryan-schroeder-Gg7uKdHFb_c-unsplash.jpg","","1","outdoor_scenes","","0","0","1","0.4","31.200000000000006","","","","","","","","","","","","","","","","","","","","","","","","","","","","","","","","","","","","","","","","","","","","","","","","","","","","",""
"","iti_localizer","","html-keyboard-response","128","215803","0.0-2.0-33.0-1.0","1","1","1","null","","","","null","","31","","","","1","","","","","","0.3","31.600000000000005","","","","","","","","","","","","","","","","","","","","","","","","","","","","","","","","","","","","","","","","","","","","","","","","","","","","",""
"","localizer","","html-keyboard-response","129","216218","0.0-2.0-34.0-0.0","1","1","1","262","","","","50","0","32","","Stimuli/Experimental_stims/localizer/outdoor_scenes/quino-al-mBQIfKlvowM-unsplash.jpg","","1","outdoor_scenes","","0","0","1","0.4","31.900000000000006","","","","","","","","","","","","","","","","","","","","","","","","","","","","","","","","","","","","","","","","","","","","","","","","","","","","",""
"","iti_localizer","","html-keyboard-response","130","216525","0.0-2.0-34.0-1.0","1","1","1","null","","","","null","","32","","","","1","","","","","","0.3","32.300000000000004","","","","","","","","","","","","","","","","","","","","","","","","","","","","","","","","","","","","","","","","","","","","","","","","","","","","",""
"","localizer","","html-keyboard-response","131","216938","0.0-2.0-35.0-0.0","1","1","1","297","","","","50","0","33","","Stimuli/Experimental_stims/localizer/outdoor_scenes/johny-goerend-U_diPCXCBxU-unsplash.jpg","","1","outdoor_scenes","","0","0","1","0.4","32.6","","","","","","","","","","","","","","","","","","","","","","","","","","","","","","","","","","","","","","","","","","","","","","","","","","","","",""
"","iti_localizer","","html-keyboard-response","132","217251","0.0-2.0-35.0-1.0","1","1","1","null","","","","null","","33","","","","1","","","","","","0.3","33","","","","","","","","","","","","","","","","","","","","","","","","","","","","","","","","","","","","","","","","","","","","","","","","","","","","",""
"","localizer","","html-keyboard-response","133","217659","0.0-2.0-36.0-0.0","1","1","1","289","","","","50","0","34","","Stimuli/Experimental_stims/localizer/outdoor_scenes/jay-cai-F_laX9E8CUo-unsplash.jpg","","1","outdoor_scenes","","1","0","0","0.4","33.3","","","","","","","","","","","","","","","","","","","","","","","","","","","","","","","","","","","","","","","","","","","","","","","","","","","","",""
"","iti_localizer","","html-keyboard-response","134","217968","0.0-2.0-36.0-1.0","1","1","1","null","","","","null","","34","","","","1","","","","","","0.3","33.699999999999996","","","","","","","","","","","","","","","","","","","","","","","","","","","","","","","","","","","","","","","","","","","","","","","","","","","","",""
"","localizer","","html-keyboard-response","135","218387","0.0-2.0-37.0-0.0","1","1","1","201","","","","50","0","35","","Stimuli/Experimental_stims/localizer/outdoor_scenes/kace-rodriguez-p3OzJuT_Dks-unsplash.jpg","","1","outdoor_scenes","","0","0","1","0.4","33.99999999999999","","","","","","","","","","","","","","","","","","","","","","","","","","","","","","","","","","","","","","","","","","","","","","","","","","","","",""
"","iti_localizer","","html-keyboard-response","136","218696","0.0-2.0-37.0-1.0","1","1","1","null","","","","null","","35","","","","1","","","","","","0.3","34.39999999999999","","","","","","","","","","","","","","","","","","","","","","","","","","","","","","","","","","","","","","","","","","","","","","","","","","","","",""
"","localizer","","html-keyboard-response","137","219111","0.0-2.0-38.0-0.0","1","1","1","200","","","","50","0","36","","Stimuli/Experimental_stims/localizer/outdoor_scenes/simon-berger-twukN12EN7c-unsplash.jpg","","1","outdoor_scenes","","0","0","1","0.4","34.69999999999999","","","","","","","","","","","","","","","","","","","","","","","","","","","","","","","","","","","","","","","","","","","","","","","","","","","","",""
"","iti_localizer","","html-keyboard-response","138","219421","0.0-2.0-38.0-1.0","1","1","1","null","","","","null","","36","","","","1","","","","","","0.3","35.09999999999999","","","","","","","","","","","","","","","","","","","","","","","","","","","","","","","","","","","","","","","","","","","","","","","","","","","","",""
"","localizer","","html-keyboard-response","139","219830","0.0-2.0-39.0-0.0","1","1","1","204","","","","50","0","37","","Stimuli/Experimental_stims/localizer/outdoor_scenes/michael-martinelli-mFbrMEVKCkc-unsplash.jpg","","1","outdoor_scenes","","0","0","1","0.4","35.399999999999984","","","","","","","","","","","","","","","","","","","","","","","","","","","","","","","","","","","","","","","","","","","","","","","","","","","","",""
"","iti_localizer","","html-keyboard-response","140","220144","0.0-2.0-39.0-1.0","1","1","1","null","","","","null","","37","","","","1","","","","","","0.3","35.79999999999998","","","","","","","","","","","","","","","","","","","","","","","","","","","","","","","","","","","","","","","","","","","","","","","","","","","","",""
"","localizer","","html-keyboard-response","141","220559","0.0-2.0-40.0-0.0","1","1","1","215","","","","50","0","38","","Stimuli/Experimental_stims/localizer/outdoor_scenes/gabriel-garcia-marengo-ht9aLtovtSo-unsplash.jpg","","1","outdoor_scenes","","0","0","1","0.4","36.09999999999998","","","","","","","","","","","","","","","","","","","","","","","","","","","","","","","","","","","","","","","","","","","","","","","","","","","","",""
"","iti_localizer","","html-keyboard-response","142","220873","0.0-2.0-40.0-1.0","1","1","1","null","","","","null","","38","","","","1","","","","","","0.3","36.49999999999998","","","","","","","","","","","","","","","","","","","","","","","","","","","","","","","","","","","","","","","","","","","","","","","","","","","","",""
"","localizer","","html-keyboard-response","143","221286","0.0-2.0-41.0-0.0","1","1","1","255","","","","50","0","39","","Stimuli/Experimental_stims/localizer/outdoor_scenes/darrell-cassell-hoCXpPUMCoE-unsplash.jpg","","1","outdoor_scenes","","0","0","1","0.4","36.799999999999976","","","","","","","","","","","","","","","","","","","","","","","","","","","","","","","","","","","","","","","","","","","","","","","","","","","","",""
"","iti_localizer","","html-keyboard-response","144","221601","0.0-2.0-41.0-1.0","1","1","1","null","","","","null","","39","","","","1","","","","","","0.3","37.199999999999974","","","","","","","","","","","","","","","","","","","","","","","","","","","","","","","","","","","","","","","","","","","","","","","","","","","","",""
"","localizer","","html-keyboard-response","145","222016","0.0-2.0-42.0-0.0","1","1","1","282","","","","50","0","40","","Stimuli/Experimental_stims/localizer/outdoor_scenes/nathan-dumlao-_PK7rviBLG0-unsplash.jpg","","1","outdoor_scenes","","0","0","1","0.4","37.49999999999997","","","","","","","","","","","","","","","","","","","","","","","","","","","","","","","","","","","","","","","","","","","","","","","","","","","","",""
"","iti_localizer","","html-keyboard-response","146","222328","0.0-2.0-42.0-1.0","1","1","1","null","","","","null","","40","","","","1","","","","","","0.3","37.89999999999997","","","","","","","","","","","","","","","","","","","","","","","","","","","","","","","","","","","","","","","","","","","","","","","","","","","","",""
"","localizer","","html-keyboard-response","147","222743","0.0-2.0-43.0-0.0","1","1","1","278","","","","50","0","41","","Stimuli/Experimental_stims/localizer/outdoor_scenes/quino-al-vmZ2DehWQ3Q-unsplash.jpg","","1","outdoor_scenes","","0","0","1","0.4","38.19999999999997","","","","","","","","","","","","","","","","","","","","","","","","","","","","","","","","","","","","","","","","","","","","","","","","","","","","",""
"","iti_localizer","","html-keyboard-response","148","223058","0.0-2.0-43.0-1.0","1","1","1","null","","","","null","","41","","","","1","","","","","","0.3","38.599999999999966","","","","","","","","","","","","","","","","","","","","","","","","","","","","","","","","","","","","","","","","","","","","","","","","","","","","",""
"","localizer","","html-keyboard-response","149","223472","0.0-2.0-44.0-0.0","1","1","1","250","","","","50","0","42","","Stimuli/Experimental_stims/localizer/outdoor_scenes/pietro-de-grandi-T7K4aEPoGGk-unsplash.jpg","","1","outdoor_scenes","","0","0","1","0.4","38.89999999999996","","","","","","","","","","","","","","","","","","","","","","","","","","","","","","","","","","","","","","","","","","","","","","","","","","","","",""
"","iti_localizer","","html-keyboard-response","150","223782","0.0-2.0-44.0-1.0","1","1","1","null","","","","null","","42","","","","1","","","","","","0.3","39.29999999999996","","","","","","","","","","","","","","","","","","","","","","","","","","","","","","","","","","","","","","","","","","","","","","","","","","","","",""
"","localizer","","html-keyboard-response","151","224191","0.0-2.0-45.0-0.0","1","1","1","340","","","","50","0","43","","Stimuli/Experimental_stims/localizer/outdoor_scenes/hendrik-cornelissen--qrcOR33ErA-unsplash.jpg","","1","outdoor_scenes","","0","0","1","0.4","39.59999999999996","","","","","","","","","","","","","","","","","","","","","","","","","","","","","","","","","","","","","","","","","","","","","","","","","","","","",""
"","iti_localizer","","html-keyboard-response","152","224502","0.0-2.0-45.0-1.0","1","1","1","null","","","","null","","43","","","","1","","","","","","0.3","39.99999999999996","","","","","","","","","","","","","","","","","","","","","","","","","","","","","","","","","","","","","","","","","","","","","","","","","","","","",""
"","localizer","","html-keyboard-response","153","224915","0.0-2.0-46.0-0.0","1","1","1","331","","","","50","0","44","","Stimuli/Experimental_stims/localizer/outdoor_scenes/eberhard-grossgasteiger-y2azHvupCVo-unsplash.jpg","","1","outdoor_scenes","","0","0","1","0.4","40.299999999999955","","","","","","","","","","","","","","","","","","","","","","","","","","","","","","","","","","","","","","","","","","","","","","","","","","","","",""
"","iti_localizer","","html-keyboard-response","154","225225","0.0-2.0-46.0-1.0","1","1","1","null","","","","null","","44","","","","1","","","","","","0.3","40.69999999999995","","","","","","","","","","","","","","","","","","","","","","","","","","","","","","","","","","","","","","","","","","","","","","","","","","","","",""
"","localizer","","html-keyboard-response","155","225640","0.0-2.0-47.0-0.0","1","1","1","252","","","","50","0","45","","Stimuli/Experimental_stims/localizer/outdoor_scenes/willian-justen-de-vasconcellos-T_Qe4QlMIvQ-unsplash.jpg","","1","outdoor_scenes","","0","0","1","0.4","40.99999999999995","","","","","","","","","","","","","","","","","","","","","","","","","","","","","","","","","","","","","","","","","","","","","","","","","","","","",""
"","iti_localizer","","html-keyboard-response","156","239658","0.0-2.0-47.0-1.0","1","1","1","null","","","","null","","45","","","","1","","","","","","14","41.39999999999995","","","","","","","","","","","","","","","","","","","","","","","","","","","","","","","","","","","","","","","","","","","","","","","","","","","","",""
"","localizer","","html-keyboard-response","157","240071","0.0-2.0-48.0-0.0","1","1","1","NaN","","","","null","NaN","46","","Stimuli/Experimental_stims/localizer/objects/charlesdeluvio-RDjZh9dqlP4-unsplash.jpg","","1","objects","","0","1","0","0.4","55.39999999999995","","","","","","","","","","","","","","","","","","","","","","","","","","","","","","","","","","","","","","","","","","","","","","","","","","","","",""
"","iti_localizer","","html-keyboard-response","158","240387","0.0-2.0-48.0-1.0","1","1","1","null","","","","null","","46","","","","1","","","","","","0.3","55.79999999999995","","","","","","","","","","","","","","","","","","","","","","","","","","","","","","","","","","","","","","","","","","","","","","","","","","","","",""
"","localizer","","html-keyboard-response","159","240801","0.0-2.0-49.0-0.0","1","1","1","NaN","","","","null","NaN","47","","Stimuli/Experimental_stims/localizer/objects/dario-mendez-hnJ2VNZzbns-unsplash.jpg","","1","objects","","0","1","0","0.4","56.099999999999945","","","","","","","","","","","","","","","","","","","","","","","","","","","","","","","","","","","","","","","","","","","","","","","","","","","","",""
"","iti_localizer","","html-keyboard-response","160","241114","0.0-2.0-49.0-1.0","1","1","1","null","","","","null","","47","","","","1","","","","","","0.3","56.49999999999994","","","","","","","","","","","","","","","","","","","","","","","","","","","","","","","","","","","","","","","","","","","","","","","","","","","","",""
"","localizer","","html-keyboard-response","161","241529","0.0-2.0-50.0-0.0","1","1","1","NaN","","","","null","NaN","48","","Stimuli/Experimental_stims/localizer/objects/paul-gaudriault-a-QH9MAAVNI-unsplash.jpg","","1","objects","","1","1","0","0.4","56.79999999999994","","","","","","","","","","","","","","","","","","","","","","","","","","","","","","","","","","","","","","","","","","","","","","","","","","","","",""
"","iti_localizer","","html-keyboard-response","162","241842","0.0-2.0-50.0-1.0","1","1","1","null","","","","null","","48","","","","1","","","","","","0.3","57.19999999999994","","","","","","","","","","","","","","","","","","","","","","","","","","","","","","","","","","","","","","","","","","","","","","","","","","","","",""
"","localizer","","html-keyboard-response","163","242260","0.0-2.0-51.0-0.0","1","1","1","347","","","","50","0","49","","Stimuli/Experimental_stims/localizer/objects/saif71-com-NnPiILRe7pY-unsplash.jpg","","1","objects","","0","0","1","0.4","57.499999999999936","","","","","","","","","","","","","","","","","","","","","","","","","","","","","","","","","","","","","","","","","","","","","","","","","","","","",""
"","iti_localizer","","html-keyboard-response","164","242568","0.0-2.0-51.0-1.0","1","1","1","null","","","","null","","49","","","","1","","","","","","0.3","57.899999999999935","","","","","","","","","","","","","","","","","","","","","","","","","","","","","","","","","","","","","","","","","","","","","","","","","","","","",""
"","localizer","","html-keyboard-response","165","242975","0.0-2.0-52.0-0.0","1","1","1","295","","","","50","0","50","","Stimuli/Experimental_stims/localizer/objects/gabriel-vasiliu-gZIxHz-YYyg-unsplash.jpg","","1","objects","","0","0","1","0.4","58.19999999999993","","","","","","","","","","","","","","","","","","","","","","","","","","","","","","","","","","","","","","","","","","","","","","","","","","","","",""
"","iti_localizer","","html-keyboard-response","166","243290","0.0-2.0-52.0-1.0","1","1","1","null","","","","null","","50","","","","1","","","","","","0.3","58.59999999999993","","","","","","","","","","","","","","","","","","","","","","","","","","","","","","","","","","","","","","","","","","","","","","","","","","","","",""
"","localizer","","html-keyboard-response","167","243704","0.0-2.0-53.0-0.0","1","1","1","252","","","","50","0","51","","Stimuli/Experimental_stims/localizer/objects/adriano-pucciarelli-BE7yaZnZX6o-unsplash.jpg","","1","objects","","0","0","1","0.4","58.89999999999993","","","","","","","","","","","","","","","","","","","","","","","","","","","","","","","","","","","","","","","","","","","","","","","","","","","","",""
"","iti_localizer","","html-keyboard-response","168","244017","0.0-2.0-53.0-1.0","1","1","1","null","","","","null","","51","","","","1","","","","","","0.3","59.299999999999926","","","","","","","","","","","","","","","","","","","","","","","","","","","","","","","","","","","","","","","","","","","","","","","","","","","","",""
"","localizer","","html-keyboard-response","169","244433","0.0-2.0-54.0-0.0","1","1","1","243","","","","50","0","52","","Stimuli/Experimental_stims/localizer/objects/raimond-klavins-ZdvDPXVvcKs-unsplash.jpg","","1","objects","","0","0","1","0.4","59.59999999999992","","","","","","","","","","","","","","","","","","","","","","","","","","","","","","","","","","","","","","","","","","","","","","","","","","","","",""
"","iti_localizer","","html-keyboard-response","170","244743","0.0-2.0-54.0-1.0","1","1","1","null","","","","null","","52","","","","1","","","","","","0.3","59.99999999999992","","","","","","","","","","","","","","","","","","","","","","","","","","","","","","","","","","","","","","","","","","","","","","","","","","","","",""
"","localizer","","html-keyboard-response","171","245151","0.0-2.0-55.0-0.0","1","1","1","321","","","","50","0","53","","Stimuli/Experimental_stims/localizer/objects/mae-mu-Rz5o0osnN6Q-unsplash.jpg","","1","objects","","0","0","1","0.4","60.29999999999992","","","","","","","","","","","","","","","","","","","","","","","","","","","","","","","","","","","","","","","","","","","","","","","","","","","","",""
"","iti_localizer","","html-keyboard-response","172","245468","0.0-2.0-55.0-1.0","1","1","1","null","","","","null","","53","","","","1","","","","","","0.3","60.69999999999992","","","","","","","","","","","","","","","","","","","","","","","","","","","","","","","","","","","","","","","","","","","","","","","","","","","","",""
"","localizer","","html-keyboard-response","173","245878","0.0-2.0-56.0-0.0","1","1","1","242","","","","50","0","54","","Stimuli/Experimental_stims/localizer/objects/mockup-graphics-v_a3DWpOFc0-unsplash.jpg","","1","objects","","0","0","1","0.4","60.999999999999915","","","","","","","","","","","","","","","","","","","","","","","","","","","","","","","","","","","","","","","","","","","","","","","","","","","","",""
"","iti_localizer","","html-keyboard-response","174","246190","0.0-2.0-56.0-1.0","1","1","1","null","","","","null","","54","","","","1","","","","","","0.3","61.39999999999991","","","","","","","","","","","","","","","","","","","","","","","","","","","","","","","","","","","","","","","","","","","","","","","","","","","","",""
"","localizer","","html-keyboard-response","175","246599","0.0-2.0-57.0-0.0","1","1","1","187","","","","50","0","55","","Stimuli/Experimental_stims/localizer/objects/leohoho-rngTKHXumy0-unsplash.jpg","","1","objects","","0","0","1","0.4","61.69999999999991","","","","","","","","","","","","","","","","","","","","","","","","","","","","","","","","","","","","","","","","","","","","","","","","","","","","",""
"","iti_localizer","","html-keyboard-response","176","246915","0.0-2.0-57.0-1.0","1","1","1","null","","","","null","","55","","","","1","","","","","","0.3","62.09999999999991","","","","","","","","","","","","","","","","","","","","","","","","","","","","","","","","","","","","","","","","","","","","","","","","","","","","",""
"","localizer","","html-keyboard-response","177","247325","0.0-2.0-58.0-0.0","1","1","1","355","","","","50","0","56","","Stimuli/Experimental_stims/localizer/objects/annie-spratt-fbAnIjhrOL4-unsplash.jpg","","1","objects","","0","0","1","0.4","62.399999999999906","","","","","","","","","","","","","","","","","","","","","","","","","","","","","","","","","","","","","","","","","","","","","","","","","","","","",""
"","iti_localizer","","html-keyboard-response","178","247639","0.0-2.0-58.0-1.0","1","1","1","null","","","","null","","56","","","","1","","","","","","0.3","62.799999999999905","","","","","","","","","","","","","","","","","","","","","","","","","","","","","","","","","","","","","","","","","","","","","","","","","","","","",""
"","localizer","","html-keyboard-response","179","248050","0.0-2.0-59.0-0.0","1","1","1","NaN","","","","null","NaN","57","","Stimuli/Experimental_stims/localizer/objects/florian-klauer-mk7D-4UCfmg-unsplash.jpg","","1","objects","","0","1","0","0.4","63.0999999999999","","","","","","","","","","","","","","","","","","","","","","","","","","","","","","","","","","","","","","","","","","","","","","","","","","","","",""
"","iti_localizer","","html-keyboard-response","180","248361","0.0-2.0-59.0-1.0","1","1","1","null","","","","null","","57","","","","1","","","","","","0.3","63.4999999999999","","","","","","","","","","","","","","","","","","","","","","","","","","","","","","","","","","","","","","","","","","","","","","","","","","","","",""
"","localizer","","html-keyboard-response","181","248778","0.0-2.0-60.0-0.0","1","1","1","286","","","","50","0","58","","Stimuli/Experimental_stims/localizer/objects/collab-media-eddtBBbaw0Y-unsplash.jpg","","1","objects","","0","0","1","0.4","63.7999999999999","","","","","","","","","","","","","","","","","","","","","","","","","","","","","","","","","","","","","","","","","","","","","","","","","","","","",""
"","iti_localizer","","html-keyboard-response","182","249085","0.0-2.0-60.0-1.0","1","1","1","null","","","","null","","58","","","","1","","","","","","0.3","64.1999999999999","","","","","","","","","","","","","","","","","","","","","","","","","","","","","","","","","","","","","","","","","","","","","","","","","","","","",""
"","localizer","","html-keyboard-response","183","249499","0.0-2.0-61.0-0.0","1","1","1","264","","","","50","0","59","","Stimuli/Experimental_stims/localizer/objects/nicolas-hippert-kfr_eSrR08M-unsplash.jpg","","1","objects","","0","0","1","0.4","64.4999999999999","","","","","","","","","","","","","","","","","","","","","","","","","","","","","","","","","","","","","","","","","","","","","","","","","","","","",""
"","iti_localizer","","html-keyboard-response","184","249808","0.0-2.0-61.0-1.0","1","1","1","null","","","","null","","59","","","","1","","","","","","0.3","64.8999999999999","","","","","","","","","","","","","","","","","","","","","","","","","","","","","","","","","","","","","","","","","","","","","","","","","","","","",""
"","localizer","","html-keyboard-response","185","250223","0.0-2.0-62.0-0.0","1","1","1","241","","","","50","0","60","","Stimuli/Experimental_stims/localizer/objects/mae-mu-_C5zsV_p-YI-unsplash.jpg","","1","objects","","0","0","1","0.4","65.1999999999999","","","","","","","","","","","","","","","","","","","","","","","","","","","","","","","","","","","","","","","","","","","","","","","","","","","","",""
"","iti_localizer","","html-keyboard-response","186","250539","0.0-2.0-62.0-1.0","1","1","1","null","","","","null","","60","","","","1","","","","","","0.3","65.59999999999991","","","","","","","","","","","","","","","","","","","","","","","","","","","","","","","","","","","","","","","","","","","","","","","","","","","","",""
"","localizer","","html-keyboard-response","187","250953","0.0-2.0-63.0-0.0","1","1","1","216","","","","50","0","61","","Stimuli/Experimental_stims/localizer/objects/charlesdeluvio-0v_1TPz1uXw-unsplash.jpg","","1","objects","","0","0","1","0.4","65.8999999999999","","","","","","","","","","","","","","","","","","","","","","","","","","","","","","","","","","","","","","","","","","","","","","","","","","","","",""
"","iti_localizer","","html-keyboard-response","188","251267","0.0-2.0-63.0-1.0","1","1","1","null","","","","null","","61","","","","1","","","","","","0.3","66.29999999999991","","","","","","","","","","","","","","","","","","","","","","","","","","","","","","","","","","","","","","","","","","","","","","","","","","","","",""
"","localizer","","html-keyboard-response","189","251682","0.0-2.0-64.0-0.0","1","1","1","300","","","","50","0","62","","Stimuli/Experimental_stims/localizer/objects/mourizal-zativa-YGElTTrAaHM-unsplash.jpg","","1","objects","","1","0","0","0.4","66.59999999999991","","","","","","","","","","","","","","","","","","","","","","","","","","","","","","","","","","","","","","","","","","","","","","","","","","","","",""
"","iti_localizer","","html-keyboard-response","190","251995","0.0-2.0-64.0-1.0","1","1","1","null","","","","null","","62","","","","1","","","","","","0.3","66.99999999999991","","","","","","","","","","","","","","","","","","","","","","","","","","","","","","","","","","","","","","","","","","","","","","","","","","","","",""
"","localizer","","html-keyboard-response","191","252410","0.0-2.0-65.0-0.0","1","1","1","317","","","","50","0","63","","Stimuli/Experimental_stims/localizer/objects/recha-oktaviani-t__61ap00Mc-unsplash.jpg","","1","objects","","0","0","1","0.4","67.29999999999991","","","","","","","","","","","","","","","","","","","","","","","","","","","","","","","","","","","","","","","","","","","","","","","","","","","","",""
"","iti_localizer","","html-keyboard-response","192","252723","0.0-2.0-65.0-1.0","1","1","1","null","","","","null","","63","","","","1","","","","","","0.3","67.69999999999992","","","","","","","","","","","","","","","","","","","","","","","","","","","","","","","","","","","","","","","","","","","","","","","","","","","","",""
"","localizer","","html-keyboard-response","193","253135","0.0-2.0-66.0-0.0","1","1","1","305","","","","50","0","64","","Stimuli/Experimental_stims/localizer/objects/lance-reis-v0FYj9iioQg-unsplash.jpg","","1","objects","","0","0","1","0.4","67.99999999999991","","","","","","","","","","","","","","","","","","","","","","","","","","","","","","","","","","","","","","","","","","","","","","","","","","","","",""
"","iti_localizer","","html-keyboard-response","194","253451","0.0-2.0-66.0-1.0","1","1","1","null","","","","null","","64","","","","1","","","","","","0.3","68.39999999999992","","","","","","","","","","","","","","","","","","","","","","","","","","","","","","","","","","","","","","","","","","","","","","","","","","","","",""
"","localizer","","html-keyboard-response","195","253858","0.0-2.0-67.0-0.0","1","1","1","294","","","","50","0","65","","Stimuli/Experimental_stims/localizer/objects/nordwood-themes-E9tFH39iRPE-unsplash.jpg","","1","objects","","0","0","1","0.4","68.69999999999992","","","","","","","","","","","","","","","","","","","","","","","","","","","","","","","","","","","","","","","","","","","","","","","","","","","","",""
"","iti_localizer","","html-keyboard-response","196","267876","0.0-2.0-67.0-1.0","1","1","1","null","","","","null","","65","","","","1","","","","","","14","69.09999999999992","","","","","","","","","","","","","","","","","","","","","","","","","","","","","","","","","","","","","","","","","","","","","","","","","","","","",""
"","localizer","","html-keyboard-response","197","268291","0.0-2.0-68.0-0.0","1","1","1","NaN","","","","null","NaN","66","","Stimuli/Experimental_stims/localizer/faces/ayo-ogunseinde-6W4F62sN_yI-unsplash.jpg","","1","faces","","0","1","0","0.4","83.09999999999992","","","","","","","","","","","","","","","","","","","","","","","","","","","","","","","","","","","","","","","","","","","","","","","","","","","","",""
"","iti_localizer","","html-keyboard-response","198","268602","0.0-2.0-68.0-1.0","1","1","1","null","","","","null","","66","","","","1","","","","","","0.3","83.49999999999993","","","","","","","","","","","","","","","","","","","","","","","","","","","","","","","","","","","","","","","","","","","","","","","","","","","","",""
"","localizer","","html-keyboard-response","199","269015","0.0-2.0-69.0-0.0","1","1","1","262","","","","50","0","67","","Stimuli/Experimental_stims/localizer/faces/danie-franco-A6O7pgc7vHg-unsplash.jpg","","1","faces","","0","0","1","0.4","83.79999999999993","","","","","","","","","","","","","","","","","","","","","","","","","","","","","","","","","","","","","","","","","","","","","","","","","","","","",""
"","iti_localizer","","html-keyboard-response","200","269331","0.0-2.0-69.0-1.0","1","1","1","null","","","","null","","67","","","","1","","","","","","0.3","84.19999999999993","","","","","","","","","","","","","","","","","","","","","","","","","","","","","","","","","","","","","","","","","","","","","","","","","","","","",""
"","localizer","","html-keyboard-response","201","269745","0.0-2.0-70.0-0.0","1","1","1","176","","","","50","0","68","","Stimuli/Experimental_stims/localizer/faces/aatik-tasneem-7omHUGhhmZ0-unsplash.jpg","","1","faces","","0","0","1","0.4","84.49999999999993","","","","","","","","","","","","","","","","","","","","","","","","","","","","","","","","","","","","","","","","","","","","","","","","","","","","",""
"","iti_localizer","","html-keyboard-response","202","270057","0.0-2.0-70.0-1.0","1","1","1","null","","","","null","","68","","","","1","","","","","","0.3","84.89999999999993","","","","","","","","","","","","","","","","","","","","","","","","","","","","","","","","","","","","","","","","","","","","","","","","","","","","",""
"","localizer","","html-keyboard-response","203","270471","0.0-2.0-71.0-0.0","1","1","1","166","","","","50","0","69","","Stimuli/Experimental_stims/localizer/faces/stephanie-nakagawa-ADSKIn0ScDg-unsplash.jpg","","1","faces","","0","0","1","0.4","85.19999999999993","","","","","","","","","","","","","","","","","","","","","","","","","","","","","","","","","","","","","","","","","","","","","","","","","","","","",""
"","iti_localizer","","html-keyboard-response","204","270783","0.0-2.0-71.0-1.0","1","1","1","null","","","","null","","69","","","","1","","","","","","0.3","85.59999999999994","","","","","","","","","","","","","","","","","","","","","","","","","","","","","","","","","","","","","","","","","","","","","","","","","","","","",""
"","localizer","","html-keyboard-response","205","271191","0.0-2.0-72.0-0.0","1","1","1","145","","","","50","0","70","","Stimuli/Experimental_stims/localizer/faces/olena-sergienko-XttWKETqCCQ-unsplash.jpg","","1","faces","","0","0","1","0.4","85.89999999999993","","","","","","","","","","","","","","","","","","","","","","","","","","","","","","","","","","","","","","","","","","","","","","","","","","","","",""
"","iti_localizer","","html-keyboard-response","206","271506","0.0-2.0-72.0-1.0","1","1","1","null","","","","null","","70","","","","1","","","","","","0.3","86.29999999999994","","","","","","","","","","","","","","","","","","","","","","","","","","","","","","","","","","","","","","","","","","","","","","","","","","","","",""
"","localizer","","html-keyboard-response","207","271919","0.0-2.0-73.0-0.0","1","1","1","197","","","","50","0","71","","Stimuli/Experimental_stims/localizer/faces/alexis-chloe-TYDkKEgc0Fg-unsplash.jpg","","1","faces","","0","0","1","0.4","86.59999999999994","","","","","","","","","","","","","","","","","","","","","","","","","","","","","","","","","","","","","","","","","","","","","","","","","","","","",""
"","iti_localizer","","html-keyboard-response","208","272231","0.0-2.0-73.0-1.0","1","1","1","null","","","","null","","71","","","","1","","","","","","0.3","86.99999999999994","","","","","","","","","","","","","","","","","","","","","","","","","","","","","","","","","","","","","","","","","","","","","","","","","","","","",""
"","localizer","","html-keyboard-response","209","272639","0.0-2.0-74.0-0.0","1","1","1","172","","","","50","0","72","","Stimuli/Experimental_stims/localizer/faces/terricks-noah-n9R0MN3XGvY-unsplash.jpg","","1","faces","","1","0","0","0.4","87.29999999999994","","","","","","","","","","","","","","","","","","","","","","","","","","","","","","","","","","","","","","","","","","","","","","","","","","","","",""
"","iti_localizer","","html-keyboard-response","210","272956","0.0-2.0-74.0-1.0","1","1","1","null","","","","null","","72","","","","1","","","","","","0.3","87.69999999999995","","","","","","","","","","","","","","","","","","","","","","","","","","","","","","","","","","","","","","","","","","","","","","","","","","","","",""
"","localizer","","html-keyboard-response","211","273370","0.0-2.0-75.0-0.0","1","1","1","298","","","","50","0","73","","Stimuli/Experimental_stims/localizer/faces/brooke-cagle-Nm70URdtf3c-unsplash (1).jpg","","1","faces","","0","0","1","0.4","87.99999999999994","","","","","","","","","","","","","","","","","","","","","","","","","","","","","","","","","","","","","","","","","","","","","","","","","","","","",""
"","iti_localizer","","html-keyboard-response","212","273682","0.0-2.0-75.0-1.0","1","1","1","null","","","","null","","73","","","","1","","","","","","0.3","88.39999999999995","","","","","","","","","","","","","","","","","","","","","","","","","","","","","","","","","","","","","","","","","","","","","","","","","","","","",""
"","localizer","","html-keyboard-response","213","274098","0.0-2.0-76.0-0.0","1","1","1","237","","","","50","0","74","","Stimuli/Experimental_stims/localizer/faces/jeffery-erhunse-vp9mRauo68c-unsplash.jpg","","1","faces","","0","0","1","0.4","88.69999999999995","","","","","","","","","","","","","","","","","","","","","","","","","","","","","","","","","","","","","","","","","","","","","","","","","","","","",""
"","iti_localizer","","html-keyboard-response","214","274410","0.0-2.0-76.0-1.0","1","1","1","null","","","","null","","74","","","","1","","","","","","0.3","89.09999999999995","","","","","","","","","","","","","","","","","","","","","","","","","","","","","","","","","","","","","","","","","","","","","","","","","","","","",""
"","localizer","","html-keyboard-response","215","274823","0.0-2.0-77.0-0.0","1","1","1","245","","","","50","0","75","","Stimuli/Experimental_stims/localizer/faces/mathias-huysmans-U4JDjYmjn1g-unsplash.jpg","","1","faces","","1","0","0","0.4","89.39999999999995","","","","","","","","","","","","","","","","","","","","","","","","","","","","","","","","","","","","","","","","","","","","","","","","","","","","",""
"","iti_localizer","","html-keyboard-response","216","275137","0.0-2.0-77.0-1.0","1","1","1","null","","","","null","","75","","","","1","","","","","","0.3","89.79999999999995","","","","","","","","","","","","","","","","","","","","","","","","","","","","","","","","","","","","","","","","","","","","","","","","","","","","",""
"","localizer","","html-keyboard-response","217","275546","0.0-2.0-78.0-0.0","1","1","1","130","","","","50","0","76","","Stimuli/Experimental_stims/localizer/faces/hisu-lee-2qvxIr_DXGo-unsplash.jpg","","1","faces","","0","0","1","0.4","90.09999999999995","","","","","","","","","","","","","","","","","","","","","","","","","","","","","","","","","","","","","","","","","","","","","","","","","","","","",""
"","iti_localizer","","html-keyboard-response","218","275859","0.0-2.0-78.0-1.0","1","1","1","null","","","","null","","76","","","","1","","","","","","0.3","90.49999999999996","","","","","","","","","","","","","","","","","","","","","","","","","","","","","","","","","","","","","","","","","","","","","","","","","","","","",""
"","localizer","","html-keyboard-response","219","276273","0.0-2.0-79.0-0.0","1","1","1","214","","","","50","0","77","","Stimuli/Experimental_stims/localizer/faces/icons8-team-6LZuSzSwso0-unsplash.jpg","","1","faces","","0","0","1","0.4","90.79999999999995","","","","","","","","","","","","","","","","","","","","","","","","","","","","","","","","","","","","","","","","","","","","","","","","","","","","",""
"","iti_localizer","","html-keyboard-response","220","276584","0.0-2.0-79.0-1.0","1","1","1","null","","","","null","","77","","","","1","","","","","","0.3","91.19999999999996","","","","","","","","","","","","","","","","","","","","","","","","","","","","","","","","","","","","","","","","","","","","","","","","","","","","",""
"","localizer","","html-keyboard-response","221","276992","0.0-2.0-80.0-0.0","1","1","1","281","","","","50","0","78","","Stimuli/Experimental_stims/localizer/faces/christopher-campbell-rDEOVtE7vOs-unsplash.jpg","","1","faces","","0","0","1","0.4","91.49999999999996","","","","","","","","","","","","","","","","","","","","","","","","","","","","","","","","","","","","","","","","","","","","","","","","","","","","",""
"","iti_localizer","","html-keyboard-response","222","277306","0.0-2.0-80.0-1.0","1","1","1","null","","","","null","","78","","","","1","","","","","","0.3","91.89999999999996","","","","","","","","","","","","","","","","","","","","","","","","","","","","","","","","","","","","","","","","","","","","","","","","","","","","",""
"","localizer","","html-keyboard-response","223","277718","0.0-2.0-81.0-0.0","1","1","1","301","","","","50","0","79","","Stimuli/Experimental_stims/localizer/faces/elijah-hiett-umfpFoKxIVg-unsplash.jpg","","1","faces","","0","0","1","0.4","92.19999999999996","","","","","","","","","","","","","","","","","","","","","","","","","","","","","","","","","","","","","","","","","","","","","","","","","","","","",""
"","iti_localizer","","html-keyboard-response","224","278034","0.0-2.0-81.0-1.0","1","1","1","null","","","","null","","79","","","","1","","","","","","0.3","92.59999999999997","","","","","","","","","","","","","","","","","","","","","","","","","","","","","","","","","","","","","","","","","","","","","","","","","","","","",""
"","localizer","","html-keyboard-response","225","278447","0.0-2.0-82.0-0.0","1","1","1","342","","","","50","0","80","","Stimuli/Experimental_stims/localizer/faces/foto-sushi-6anudmpILw4-unsplash.jpg","","1","faces","","0","0","1","0.4","92.89999999999996","","","","","","","","","","","","","","","","","","","","","","","","","","","","","","","","","","","","","","","","","","","","","","","","","","","","",""
"","iti_localizer","","html-keyboard-response","226","278759","0.0-2.0-82.0-1.0","1","1","1","null","","","","null","","80","","","","1","","","","","","0.3","93.29999999999997","","","","","","","","","","","","","","","","","","","","","","","","","","","","","","","","","","","","","","","","","","","","","","","","","","","","",""
"","localizer","","html-keyboard-response","227","279170","0.0-2.0-83.0-0.0","1","1","1","354","","","","50","0","81","","Stimuli/Experimental_stims/localizer/faces/whereslugo-zl_fPgiwduo-unsplash.jpg","","1","faces","","0","0","1","0.4","93.59999999999997","","","","","","","","","","","","","","","","","","","","","","","","","","","","","","","","","","","","","","","","","","","","","","","","","","","","",""
"","iti_localizer","","html-keyboard-response","228","279480","0.0-2.0-83.0-1.0","1","1","1","null","","","","null","","81","","","","1","","","","","","0.3","93.99999999999997","","","","","","","","","","","","","","","","","","","","","","","","","","","","","","","","","","","","","","","","","","","","","","","","","","","","",""
"","localizer","","html-keyboard-response","229","279889","0.0-2.0-84.0-0.0","1","1","1","327","","","","50","0","82","","Stimuli/Experimental_stims/localizer/faces/jakob-owens-lkMJcGDZLVs-unsplash.jpg","","1","faces","","0","0","1","0.4","94.29999999999997","","","","","","","","","","","","","","","","","","","","","","","","","","","","","","","","","","","","","","","","","","","","","","","","","","","","",""
"","iti_localizer","","html-keyboard-response","230","280202","0.0-2.0-84.0-1.0","1","1","1","null","","","","null","","82","","","","1","","","","","","0.3","94.69999999999997","","","","","","","","","","","","","","","","","","","","","","","","","","","","","","","","","","","","","","","","","","","","","","","","","","","","",""
"","localizer","","html-keyboard-response","231","280613","0.0-2.0-85.0-0.0","1","1","1","NaN","","","","null","NaN","83","","Stimuli/Experimental_stims/localizer/faces/imansyah-muhamad-putera-n4KewLKFOZw-unsplash.jpg","","1","faces","","0","1","0","0.4","94.99999999999997","","","","","","","","","","","","","","","","","","","","","","","","","","","","","","","","","","","","","","","","","","","","","","","","","","","","",""
"","iti_localizer","","html-keyboard-response","232","280931","0.0-2.0-85.0-1.0","1","1","1","null","","","","null","","83","","","","1","","","","","","0.3","95.39999999999998","","","","","","","","","","","","","","","","","","","","","","","","","","","","","","","","","","","","","","","","","","","","","","","","","","","","",""
"","localizer","","html-keyboard-response","233","281345","0.0-2.0-86.0-0.0","1","1","1","NaN","","","","null","NaN","84","","Stimuli/Experimental_stims/localizer/faces/jurica-koletic-7YVZYZeITc8-unsplash.jpg","","1","faces","","0","1","0","0.4","95.69999999999997","","","","","","","","","","","","","","","","","","","","","","","","","","","","","","","","","","","","","","","","","","","","","","","","","","","","",""
"","iti_localizer","","html-keyboard-response","234","281655","0.0-2.0-86.0-1.0","1","1","1","null","","","","null","","84","","","","1","","","","","","0.3","96.09999999999998","","","","","","","","","","","","","","","","","","","","","","","","","","","","","","","","","","","","","","","","","","","","","","","","","","","","",""
"","localizer","","html-keyboard-response","235","282064","0.0-2.0-87.0-0.0","1","1","1","NaN","","","","null","NaN","85","","Stimuli/Experimental_stims/localizer/faces/katsiaryna-endruszkiewicz-BteCp6aq4GI-unsplash.jpg","","1","faces","","0","1","0","0.4","96.39999999999998","","","","","","","","","","","","","","","","","","","","","","","","","","","","","","","","","","","","","","","","","","","","","","","","","","","","",""
"","iti_localizer","","html-keyboard-response","236","296076","0.0-2.0-87.0-1.0","1","1","1","null","","","","null","","85","","","","1","","","","","","14","96.79999999999998","","","","","","","","","","","","","","","","","","","","","","","","","","","","","","","","","","","","","","","","","","","","","","","","","","","","",""
"","localizer","","html-keyboard-response","237","296491","0.0-2.0-88.0-0.0","1","1","1","376","","","","50","0","86","","Stimuli/Experimental_stims/localizer/body_parts/nick-page-jAGdpOGvLAA-unsplash.jpg","","1","body_parts","","0","0","1","0.4","110.79999999999998","","","","","","","","","","","","","","","","","","","","","","","","","","","","","","","","","","","","","","","","","","","","","","","","","","","","",""
"","iti_localizer","","html-keyboard-response","238","296803","0.0-2.0-88.0-1.0","1","1","1","null","","","","null","","86","","","","1","","","","","","0.3","111.19999999999999","","","","","","","","","","","","","","","","","","","","","","","","","","","","","","","","","","","","","","","","","","","","","","","","","","","","",""
"","localizer","","html-keyboard-response","239","297216","0.0-2.0-89.0-0.0","1","1","1","223","","","","50","0","87","","Stimuli/Experimental_stims/localizer/body_parts/liv-bruce-M0oVPGsWk1E-unsplash.jpg","","1","body_parts","","0","0","1","0.4","111.49999999999999","","","","","","","","","","","","","","","","","","","","","","","","","","","","","","","","","","","","","","","","","","","","","","","","","","","","",""
"","iti_localizer","","html-keyboard-response","240","297531","0.0-2.0-89.0-1.0","1","1","1","null","","","","null","","87","","","","1","","","","","","0.3","111.89999999999999","","","","","","","","","","","","","","","","","","","","","","","","","","","","","","","","","","","","","","","","","","","","","","","","","","","","",""
"","localizer","","html-keyboard-response","241","297943","0.0-2.0-90.0-0.0","1","1","1","13","","","","50","0","88","","Stimuli/Experimental_stims/localizer/body_parts/bady-abbas-N-VEeMnm7gE-unsplash.jpg","","1","body_parts","","0","0","1","0.4","112.19999999999999","","","","","","","","","","","","","","","","","","","","","","","","","","","","","","","","","","","","","","","","","","","","","","","","","","","","",""
"","iti_localizer","","html-keyboard-response","242","298256","0.0-2.0-90.0-1.0","1","1","1","null","","","","null","","88","","","","1","","","","","","0.3","112.6","","","","","","","","","","","","","","","","","","","","","","","","","","","","","","","","","","","","","","","","","","","","","","","","","","","","",""
"","localizer","","html-keyboard-response","243","298663","0.0-2.0-91.0-0.0","1","1","1","1","","","","50","0","89","","Stimuli/Experimental_stims/localizer/body_parts/toan-nguyen-VIeLuUFzesg-unsplash.jpg","","1","body_parts","","0","0","1","0.4","112.89999999999999","","","","","","","","","","","","","","","","","","","","","","","","","","","","","","","","","","","","","","","","","","","","","","","","","","","","",""
"","iti_localizer","","html-keyboard-response","244","298979","0.0-2.0-91.0-1.0","1","1","1","null","","","","null","","89","","","","1","","","","","","0.3","113.3","","","","","","","","","","","","","","","","","","","","","","","","","","","","","","","","","","","","","","","","","","","","","","","","","","","","",""
"","localizer","","html-keyboard-response","245","299393","0.0-2.0-92.0-0.0","1","1","1","28","","","","50","0","90","","Stimuli/Experimental_stims/localizer/body_parts/shashi-chaturvedula-EyklrWNBxSM-unsplash.jpg","","1","body_parts","","0","0","1","0.4","113.6","","","","","","","","","","","","","","","","","","","","","","","","","","","","","","","","","","","","","","","","","","","","","","","","","","","","",""
"","iti_localizer","","html-keyboard-response","246","299709","0.0-2.0-92.0-1.0","1","1","1","null","","","","null","","90","","","","1","","","","","","0.3","114","","","","","","","","","","","","","","","","","","","","","","","","","","","","","","","","","","","","","","","","","","","","","","","","","","","","",""
"","localizer","","html-keyboard-response","247","300121","0.0-2.0-93.0-0.0","1","1","1","329","","","","50","0","91","","Stimuli/Experimental_stims/localizer/body_parts/lilartsy-1KkhQ8uL28g-unsplash.jpg","","1","body_parts","","0","0","1","0.4","114.3","","","","","","","","","","","","","","","","","","","","","","","","","","","","","","","","","","","","","","","","","","","","","","","","","","","","",""
"","iti_localizer","","html-keyboard-response","248","300436","0.0-2.0-93.0-1.0","1","1","1","null","","","","null","","91","","","","1","","","","","","0.3","114.7","","","","","","","","","","","","","","","","","","","","","","","","","","","","","","","","","","","","","","","","","","","","","","","","","","","","",""
"","localizer","","html-keyboard-response","249","300849","0.0-2.0-94.0-0.0","1","1","1","122","","","","50","0","92","","Stimuli/Experimental_stims/localizer/body_parts/juan-manuel-sanchez-lTuA_3LKGL8-unsplash.jpg","","1","body_parts","","0","0","1","0.4","115","","","","","","","","","","","","","","","","","","","","","","","","","","","","","","","","","","","","","","","","","","","","","","","","","","","","",""
"","iti_localizer","","html-keyboard-response","250","301166","0.0-2.0-94.0-1.0","1","1","1","null","","","","null","","92","","","","1","","","","","","0.3","115.4","","","","","","","","","","","","","","","","","","","","","","","","","","","","","","","","","","","","","","","","","","","","","","","","","","","","",""
"","localizer","","html-keyboard-response","251","301577","0.0-2.0-95.0-0.0","1","1","1","NaN","","","","null","NaN","93","","Stimuli/Experimental_stims/localizer/body_parts/louisa-potter-zd29nBmLuig-unsplash.jpg","","1","body_parts","","1","1","0","0.4","115.7","","","","","","","","","","","","","","","","","","","","","","","","","","","","","","","","","","","","","","","","","","","","","","","","","","","","",""
"","iti_localizer","","html-keyboard-response","252","301886","0.0-2.0-95.0-1.0","1","1","1","null","","","","null","","93","","","","1","","","","","","0.3","116.10000000000001","","","","","","","","","","","","","","","","","","","","","","","","","","","","","","","","","","","","","","","","","","","","","","","","","","","","",""
"","localizer","","html-keyboard-response","253","302296","0.0-2.0-96.0-0.0","1","1","1","212","","","","50","0","94","","Stimuli/Experimental_stims/localizer/body_parts/mary-winchester-Sfs21Re13BU-unsplash.jpg","","1","body_parts","","0","0","1","0.4","116.4","","","","","","","","","","","","","","","","","","","","","","","","","","","","","","","","","","","","","","","","","","","","","","","","","","","","",""
"","iti_localizer","","html-keyboard-response","254","302610","0.0-2.0-96.0-1.0","1","1","1","null","","","","null","","94","","","","1","","","","","","0.3","116.80000000000001","","","","","","","","","","","","","","","","","","","","","","","","","","","","","","","","","","","","","","","","","","","","","","","","","","","","",""
"","localizer","","html-keyboard-response","255","303028","0.0-2.0-97.0-0.0","1","1","1","255","","","","50","0","95","","Stimuli/Experimental_stims/localizer/body_parts/priscilla-du-preez-e6fcNpur53A-unsplash.jpg","","1","body_parts","","0","0","1","0.4","117.10000000000001","","","","","","","","","","","","","","","","","","","","","","","","","","","","","","","","","","","","","","","","","","","","","","","","","","","","",""
"","iti_localizer","","html-keyboard-response","256","303340","0.0-2.0-97.0-1.0","1","1","1","null","","","","null","","95","","","","1","","","","","","0.3","117.50000000000001","","","","","","","","","","","","","","","","","","","","","","","","","","","","","","","","","","","","","","","","","","","","","","","","","","","","",""
"","localizer","","html-keyboard-response","257","303753","0.0-2.0-98.0-0.0","1","1","1","236","","","","50","0","96","","Stimuli/Experimental_stims/localizer/body_parts/ira-vishnevskaya-8DQAvdCby1I-unsplash.jpg","","1","body_parts","","0","0","1","0.4","117.80000000000001","","","","","","","","","","","","","","","","","","","","","","","","","","","","","","","","","","","","","","","","","","","","","","","","","","","","",""
"","iti_localizer","","html-keyboard-response","258","304068","0.0-2.0-98.0-1.0","1","1","1","null","","","","null","","96","","","","1","","","","","","0.3","118.20000000000002","","","","","","","","","","","","","","","","","","","","","","","","","","","","","","","","","","","","","","","","","","","","","","","","","","","","",""
"","localizer","","html-keyboard-response","259","304481","0.0-2.0-99.0-0.0","1","1","1","265","","","","50","0","97","","Stimuli/Experimental_stims/localizer/body_parts/jesus-boscan-T9iiLRtHTAw-unsplash.jpg","","1","body_parts","","0","0","1","0.4","118.50000000000001","","","","","","","","","","","","","","","","","","","","","","","","","","","","","","","","","","","","","","","","","","","","","","","","","","","","",""
"","iti_localizer","","html-keyboard-response","260","304795","0.0-2.0-99.0-1.0","1","1","1","null","","","","null","","97","","","","1","","","","","","0.3","118.90000000000002","","","","","","","","","","","","","","","","","","","","","","","","","","","","","","","","","","","","","","","","","","","","","","","","","","","","",""
