"success","ttype","start_time","trial_type","trial_index","time_elapsed","internal_node_id","age","PID","gender","rt","responses","view_history","repeat_instructions","key_press","response","index","stimulus_index","path","start_time_elapsed","run","task","isi","is_odd_ball","no_response","acc","duration","onset","duration_time_elapsed","onset_time_elapsed","trial_duration","left_chosen","chosen_stimulus","unchosen_stimulus","chosen_category","unchosen_category","chosen_rating","unchosen_rating","chosen_path","unchosen_path","pair_id","practice","scramble_screen_time","scramble_instructed_side","stim_type","iti","block","left_stimulus","right_stimulus","left_category","right_category","left_path","right_path","left_rating","right_rating","scramble_acc","scramble_no_response","warning","missed_checkup","stimulus_id","item_id","outcome","response_rt","deliberation_reward_tally","choice_type","gain_left","left_item_id","right_item_id","higher_outcome_chosen","chosen_left","old_pair","pair_type","old_response","pair_acc","reward_type","outcome_response","outcome_rt","outcome_acc","category","choice","deliberated_stim","old_rating","new_rating"
"true","full_screen","d08172023hr1804","fullscreen","0","4180","0.0-0.0-0.0","33","17620","Female","","","","","","","","","","","","","","","","","","","","","","","","","","","","","","","","","","","","","","","","","","","","","","","","","","","","","","","","","","","","","","","","","","","","","","","","",""
"","get_id","","survey-text","1","12852","0.0-0.0-1.0","33","17620","Female","8658","{""Q0"":""33"",""Q1"":""Female""}","","","","","","","","","","","","","","","","","","","","","","","","","","","","","","","","","","","","","","","","","","","","","","","","","","","","","","","","","","","","","","","","","","","","","","",""
"","ratings_instructions","","instructions","2","23222","0.0-1.0-0.0-0.0","33","17620","Female","7830","","[{""page_index"":0,""viewing_time"":5475},{""page_index"":1,""viewing_time"":2354}]","","","","","","","","","","","","","","","","","","","","","","","","","","","","","","","","","","","","","","","","","","","","","","","","","","","","","","","","","","","","","","","","","","","","","",""
"","rating_comprehension_check","","survey-multi-choice","3","30303","0.0-1.0-0.0-1.0","33","17620","Female","7061","{""Q0"":""True"",""Q1"":""Mouse""}","","0","","","","","","","","","","","","","","","","","","","","","","","","","","","","","","","","","","","","","","","","","","","","","","","","","","","","","","","","","","","","","","","","","","","","",""
"","","","html-keyboard-response","4","33462","0.0-1.0-1.0","33","17620","Female","3144","","","","68","","","","","","","","","","","","","","","","","","","","","","","","","","","","","","","","","","","","","","","","","","","","","","","","","","","","","","","","","","","","","","","","","","","",""
"","rating","","html-slider-response","5","42486","0.0-1.0-2.0","33","17620","Female","9001","","","","","68","0","38","Stimuli/Experimental_stims/objects/art-lasovsky-8XddFc6NkBY-unsplash.jpg","","","","","","","","","","","","","","","","","","","","","","","","","","","","","","","","","","","","","","","","","","","","","","","","","","","","","","","","","","","","","","","",""
"","rating","","html-slider-response","6","44232","0.0-1.0-3.0","33","17620","Female","1730","","","","","73","1","24","Stimuli/Experimental_stims/body_parts/clay-banks-LjqARJaJotc-unsplash.jpg","","","","","","","","","","","","","","","","","","","","","","","","","","","","","","","","","","","","","","","","","","","","","","","","","","","","","","","","","","","","","","","",""
"","rating","","html-slider-response","7","46013","0.0-1.0-4.0","33","17620","Female","1759","","","","","64","2","13","Stimuli/Experimental_stims/faces/daniel-rigdon-dXmXKPP2L4E-unsplash.jpg","","","","","","","","","","","","","","","","","","","","","","","","","","","","","","","","","","","","","","","","","","","","","","","","","","","","","","","","","","","","","","","",""
"","rating","","html-slider-response","8","47221","0.0-1.0-5.0","33","17620","Female","1189","","","","","59","3","2","Stimuli/Experimental_stims/outdoor_scenes/bruno-van-der-kraan-qez8mNJ3ilU-unsplash.jpg","","","","","","","","","","","","","","","","","","","","","","","","","","","","","","","","","","","","","","","","","","","","","","","","","","","","","","","","","","","","","","","",""
"","rating","","html-slider-response","9","48661","0.0-1.0-6.0","33","17620","Female","1427","","","","","63","4","36","Stimuli/Experimental_stims/objects/alexander-andrews-JYGnB9gTCls-unsplash.jpg","","","","","","","","","","","","","","","","","","","","","","","","","","","","","","","","","","","","","","","","","","","","","","","","","","","","","","","","","","","","","","","",""
"","rating","","html-slider-response","10","50800","0.0-1.0-7.0","33","17620","Female","2125","","","","","55","5","7","Stimuli/Experimental_stims/outdoor_scenes/petr-vysohlid-9fqwGqGLUxc-unsplash.jpg","","","","","","","","","","","","","","","","","","","","","","","","","","","","","","","","","","","","","","","","","","","","","","","","","","","","","","","","","","","","","","","",""
"","rating","","html-slider-response","11","52144","0.0-1.0-8.0","33","17620","Female","1331","","","","","66","6","28","Stimuli/Experimental_stims/body_parts/ira-vishnevskaya-8DQAvdCby1I-unsplash.jpg","","","","","","","","","","","","","","","","","","","","","","","","","","","","","","","","","","","","","","","","","","","","","","","","","","","","","","","","","","","","","","","",""
"","rating","","html-slider-response","12","54183","0.0-1.0-9.0","33","17620","Female","2025","","","","","61","7","14","Stimuli/Experimental_stims/faces/david-siglin-UuW4psOb388-unsplash.jpg","","","","","","","","","","","","","","","","","","","","","","","","","","","","","","","","","","","","","","","","","","","","","","","","","","","","","","","","","","","","","","","",""
"","rating","","html-slider-response","13","55564","0.0-1.0-10.0","33","17620","Female","1364","","","","","47","8","23","Stimuli/Experimental_stims/faces/rikonavt-HQjfrvdTfak-unsplash.jpg","","","","","","","","","","","","","","","","","","","","","","","","","","","","","","","","","","","","","","","","","","","","","","","","","","","","","","","","","","","","","","","",""
"","rating","","html-slider-response","14","57217","0.0-1.0-11.0","33","17620","Female","1637","","","","","62","9","39","Stimuli/Experimental_stims/objects/charlesdeluvio-1-nx1QR5dTE-unsplash.jpg","","","","","","","","","","","","","","","","","","","","","","","","","","","","","","","","","","","","","","","","","","","","","","","","","","","","","","","","","","","","","","","",""
"","rating","","html-slider-response","15","59335","0.0-1.0-12.0","33","17620","Female","2096","","","","","66","10","11","Stimuli/Experimental_stims/outdoor_scenes/stephen-leonardi-gyIRjKPXupE-unsplash.jpg","","","","","","","","","","","","","","","","","","","","","","","","","","","","","","","","","","","","","","","","","","","","","","","","","","","","","","","","","","","","","","","",""
"","rating","","html-slider-response","16","62472","0.0-1.0-13.0","33","17620","Female","3125","","","","","67","11","16","Stimuli/Experimental_stims/faces/freddy-kearney-o-ioeoATbIM-unsplash.jpg","","","","","","","","","","","","","","","","","","","","","","","","","","","","","","","","","","","","","","","","","","","","","","","","","","","","","","","","","","","","","","","",""
"","rating","","html-slider-response","17","63880","0.0-1.0-14.0","33","17620","Female","1395","","","","","58","12","46","Stimuli/Experimental_stims/objects/mockup-graphics-PNsj6RiHAF4-unsplash.jpg","","","","","","","","","","","","","","","","","","","","","","","","","","","","","","","","","","","","","","","","","","","","","","","","","","","","","","","","","","","","","","","",""
"","rating","","html-slider-response","18","65819","0.0-1.0-15.0","33","17620","Female","1926","","","","","66","13","20","Stimuli/Experimental_stims/faces/justin-chen-J7Cf1Gch49E-unsplash.jpg","","","","","","","","","","","","","","","","","","","","","","","","","","","","","","","","","","","","","","","","","","","","","","","","","","","","","","","","","","","","","","","",""
"","rating","","html-slider-response","19","67182","0.0-1.0-16.0","33","17620","Female","1353","","","","","70","14","18","Stimuli/Experimental_stims/faces/jessica-radanavong-mrYkTuAesKE-unsplash.jpg","","","","","","","","","","","","","","","","","","","","","","","","","","","","","","","","","","","","","","","","","","","","","","","","","","","","","","","","","","","","","","","",""
"","rating","","html-slider-response","20","69936","0.0-1.0-17.0","33","17620","Female","2743","","","","","67","15","42","Stimuli/Experimental_stims/objects/jess-bailey-nOeVi8DsN8U-unsplash.jpg","","","","","","","","","","","","","","","","","","","","","","","","","","","","","","","","","","","","","","","","","","","","","","","","","","","","","","","","","","","","","","","",""
"","rating","","html-slider-response","21","71462","0.0-1.0-18.0","33","17620","Female","1512","","","","","70","16","5","Stimuli/Experimental_stims/outdoor_scenes/jeff-king-bJHWJeiHfHc-unsplash.jpg","","","","","","","","","","","","","","","","","","","","","","","","","","","","","","","","","","","","","","","","","","","","","","","","","","","","","","","","","","","","","","","",""
"","rating","","html-slider-response","22","72952","0.0-1.0-19.0","33","17620","Female","1480","","","","","74","17","25","Stimuli/Experimental_stims/body_parts/engin-akyurt-Q2rfH3GW39c-unsplash.jpg","","","","","","","","","","","","","","","","","","","","","","","","","","","","","","","","","","","","","","","","","","","","","","","","","","","","","","","","","","","","","","","",""
"","rating","","html-slider-response","23","74407","0.0-1.0-20.0","33","17620","Female","1439","","","","","70","18","29","Stimuli/Experimental_stims/body_parts/manuel-schinner-ZwjFuJ7ebpk-unsplash.jpg","","","","","","","","","","","","","","","","","","","","","","","","","","","","","","","","","","","","","","","","","","","","","","","","","","","","","","","","","","","","","","","",""
"","rating","","html-slider-response","24","75841","0.0-1.0-21.0","33","17620","Female","1418","","","","","62","19","47","Stimuli/Experimental_stims/objects/ronaldo-arthur-vidal-Cdz_lvnl37k-unsplash.jpg","","","","","","","","","","","","","","","","","","","","","","","","","","","","","","","","","","","","","","","","","","","","","","","","","","","","","","","","","","","","","","","",""
"","rating","","html-slider-response","25","77431","0.0-1.0-22.0","33","17620","Female","1575","","","","","42","20","4","Stimuli/Experimental_stims/outdoor_scenes/jarrett-kow-1ZOyYPOBn7I-unsplash.jpg","","","","","","","","","","","","","","","","","","","","","","","","","","","","","","","","","","","","","","","","","","","","","","","","","","","","","","","","","","","","","","","",""
"","rating","","html-slider-response","26","78629","0.0-1.0-23.0","33","17620","Female","1188","","","","","50","21","31","Stimuli/Experimental_stims/body_parts/sincerely-media-VN6DbKajo5s-unsplash.jpg","","","","","","","","","","","","","","","","","","","","","","","","","","","","","","","","","","","","","","","","","","","","","","","","","","","","","","","","","","","","","","","",""
"","rating","","html-slider-response","27","80061","0.0-1.0-24.0","33","17620","Female","1422","","","","","57","22","44","Stimuli/Experimental_stims/objects/kuiye-chen-NuOGFo4PudE-unsplash.jpg","","","","","","","","","","","","","","","","","","","","","","","","","","","","","","","","","","","","","","","","","","","","","","","","","","","","","","","","","","","","","","","",""
"","rating","","html-slider-response","28","83222","0.0-1.0-25.0","33","17620","Female","3151","","","","","62","23","37","Stimuli/Experimental_stims/objects/alexander-andrews-VLGWE_SumrA-unsplash.jpg","","","","","","","","","","","","","","","","","","","","","","","","","","","","","","","","","","","","","","","","","","","","","","","","","","","","","","","","","","","","","","","",""
"","rating","","html-slider-response","29","85009","0.0-1.0-26.0","33","17620","Female","1765","","","","","51","24","10","Stimuli/Experimental_stims/outdoor_scenes/shannon-kunkle-dM8INmkyDas-unsplash.jpg","","","","","","","","","","","","","","","","","","","","","","","","","","","","","","","","","","","","","","","","","","","","","","","","","","","","","","","","","","","","","","","",""
"","rating","","html-slider-response","30","86442","0.0-1.0-27.0","33","17620","Female","1421","","","","","51","25","40","Stimuli/Experimental_stims/objects/fabian-blank-pElSkGRA2NU-unsplash.jpg","","","","","","","","","","","","","","","","","","","","","","","","","","","","","","","","","","","","","","","","","","","","","","","","","","","","","","","","","","","","","","","",""
"","rating","","html-slider-response","31","87883","0.0-1.0-28.0","33","17620","Female","1429","","","","","51","26","9","Stimuli/Experimental_stims/outdoor_scenes/sergey-pesterev-y-b_FOmJXdg-unsplash.jpg","","","","","","","","","","","","","","","","","","","","","","","","","","","","","","","","","","","","","","","","","","","","","","","","","","","","","","","","","","","","","","","",""
"","rating","","html-slider-response","32","89228","0.0-1.0-29.0","33","17620","Female","1332","","","","","51","27","41","Stimuli/Experimental_stims/objects/insung-yoon-w2JtIQQXoRU-unsplash.jpg","","","","","","","","","","","","","","","","","","","","","","","","","","","","","","","","","","","","","","","","","","","","","","","","","","","","","","","","","","","","","","","",""
"","rating","","html-slider-response","33","90531","0.0-1.0-30.0","33","17620","Female","1291","","","","","51","28","8","Stimuli/Experimental_stims/outdoor_scenes/samsommer-vddccTqwal8-unsplash.jpg","","","","","","","","","","","","","","","","","","","","","","","","","","","","","","","","","","","","","","","","","","","","","","","","","","","","","","","","","","","","","","","",""
"","rating","","html-slider-response","34","91927","0.0-1.0-31.0","33","17620","Female","1387","","","","","51","29","3","Stimuli/Experimental_stims/outdoor_scenes/henry-be-NLF6hTe4PAg-unsplash.jpg","","","","","","","","","","","","","","","","","","","","","","","","","","","","","","","","","","","","","","","","","","","","","","","","","","","","","","","","","","","","","","","",""
"","rating","","html-slider-response","35","93562","0.0-1.0-32.0","33","17620","Female","1626","","","","","51","30","27","Stimuli/Experimental_stims/body_parts/heike-mintel-i_Gns0ELnLw-unsplash.jpg","","","","","","","","","","","","","","","","","","","","","","","","","","","","","","","","","","","","","","","","","","","","","","","","","","","","","","","","","","","","","","","",""
"","rating","","html-slider-response","36","94689","0.0-1.0-33.0","33","17620","Female","1117","","","","","51","31","19","Stimuli/Experimental_stims/faces/joel-mott-LaK153ghdig-unsplash.jpg","","","","","","","","","","","","","","","","","","","","","","","","","","","","","","","","","","","","","","","","","","","","","","","","","","","","","","","","","","","","","","","",""
"","rating","","html-slider-response","37","96066","0.0-1.0-34.0","33","17620","Female","1364","","","","","51","32","45","Stimuli/Experimental_stims/objects/leohoho-rngTKHXumy0-unsplash.jpg","","","","","","","","","","","","","","","","","","","","","","","","","","","","","","","","","","","","","","","","","","","","","","","","","","","","","","","","","","","","","","","",""
"","rating","","html-slider-response","38","97519","0.0-1.0-35.0","33","17620","Female","1443","","","","","51","33","30","Stimuli/Experimental_stims/body_parts/mika-korhonen-Xodzxosar18-unsplash.jpg","","","","","","","","","","","","","","","","","","","","","","","","","","","","","","","","","","","","","","","","","","","","","","","","","","","","","","","","","","","","","","","",""
"","rating","","html-slider-response","39","98698","0.0-1.0-36.0","33","17620","Female","1168","","","","","51","34","21","Stimuli/Experimental_stims/faces/leilani-angel-K84vnnzxmTQ-unsplash.jpg","","","","","","","","","","","","","","","","","","","","","","","","","","","","","","","","","","","","","","","","","","","","","","","","","","","","","","","","","","","","","","","",""
"","rating","","html-slider-response","40","99988","0.0-1.0-37.0","33","17620","Female","1279","","","","","51","35","34","Stimuli/Experimental_stims/body_parts/wagner-santos-mBWMvIuVnso-unsplash.jpg","","","","","","","","","","","","","","","","","","","","","","","","","","","","","","","","","","","","","","","","","","","","","","","","","","","","","","","","","","","","","","","",""
"","rating","","html-slider-response","41","101772","0.0-1.0-38.0","33","17620","Female","1770","","","","","51","36","35","Stimuli/Experimental_stims/body_parts/wc-so-KH4AAPjb-tI-unsplash.jpg","","","","","","","","","","","","","","","","","","","","","","","","","","","","","","","","","","","","","","","","","","","","","","","","","","","","","","","","","","","","","","","",""
"","rating","","html-slider-response","42","103010","0.0-1.0-39.0","33","17620","Female","1229","","","","","51","37","15","Stimuli/Experimental_stims/faces/erik-lucatero-d2MSDujJl2g-unsplash.jpg","","","","","","","","","","","","","","","","","","","","","","","","","","","","","","","","","","","","","","","","","","","","","","","","","","","","","","","","","","","","","","","",""
"","rating","","html-slider-response","43","104309","0.0-1.0-40.0","33","17620","Female","1287","","","","","51","38","1","Stimuli/Experimental_stims/outdoor_scenes/ashim-d-silva-S2Q5mdOrrVc-unsplash.jpg","","","","","","","","","","","","","","","","","","","","","","","","","","","","","","","","","","","","","","","","","","","","","","","","","","","","","","","","","","","","","","","",""
"","rating","","html-slider-response","44","105564","0.0-1.0-41.0","33","17620","Female","1240","","","","","51","39","22","Stimuli/Experimental_stims/faces/ravi-patel-VMGAbeeJTKo-unsplash.jpg","","","","","","","","","","","","","","","","","","","","","","","","","","","","","","","","","","","","","","","","","","","","","","","","","","","","","","","","","","","","","","","",""
"","rating","","html-slider-response","45","106861","0.0-1.0-42.0","33","17620","Female","1284","","","","","51","40","26","Stimuli/Experimental_stims/body_parts/engin-akyurt-x_3gyC42btc-unsplash.jpg","","","","","","","","","","","","","","","","","","","","","","","","","","","","","","","","","","","","","","","","","","","","","","","","","","","","","","","","","","","","","","","",""
"","rating","","html-slider-response","46","108251","0.0-1.0-43.0","33","17620","Female","1378","","","","","51","41","0","Stimuli/Experimental_stims/outdoor_scenes/aleksandra-boguslawska-MS7KD9Ti7FQ-unsplash.jpg","","","","","","","","","","","","","","","","","","","","","","","","","","","","","","","","","","","","","","","","","","","","","","","","","","","","","","","","","","","","","","","",""
"","rating","","html-slider-response","47","109538","0.0-1.0-44.0","33","17620","Female","1278","","","","","51","42","43","Stimuli/Experimental_stims/objects/jonathan-greenaway-Y4hGgeiFn3s-unsplash.jpg","","","","","","","","","","","","","","","","","","","","","","","","","","","","","","","","","","","","","","","","","","","","","","","","","","","","","","","","","","","","","","","",""
"","rating","","html-slider-response","48","110749","0.0-1.0-45.0","33","17620","Female","1200","","","","","51","43","32","Stimuli/Experimental_stims/body_parts/towfiqu-barbhuiya-3AsiVDsZnHg-unsplash.jpg","","","","","","","","","","","","","","","","","","","","","","","","","","","","","","","","","","","","","","","","","","","","","","","","","","","","","","","","","","","","","","","",""
"","rating","","html-slider-response","49","112417","0.0-1.0-46.0","33","17620","Female","1655","","","","","51","44","17","Stimuli/Experimental_stims/faces/good-faces-xmSWVeGEnJw-unsplash.jpg","","","","","","","","","","","","","","","","","","","","","","","","","","","","","","","","","","","","","","","","","","","","","","","","","","","","","","","","","","","","","","","",""
"","rating","","html-slider-response","50","113684","0.0-1.0-47.0","33","17620","Female","1252","","","","","51","45","6","Stimuli/Experimental_stims/outdoor_scenes/meng-ji-8BH_M-53CyA-unsplash.jpg","","","","","","","","","","","","","","","","","","","","","","","","","","","","","","","","","","","","","","","","","","","","","","","","","","","","","","","","","","","","","","","",""
"","rating","","html-slider-response","51","115125","0.0-1.0-48.0","33","17620","Female","1428","","","","","51","46","33","Stimuli/Experimental_stims/body_parts/tucker-good-36skLT5jZcc-unsplash.jpg","","","","","","","","","","","","","","","","","","","","","","","","","","","","","","","","","","","","","","","","","","","","","","","","","","","","","","","","","","","","","","","",""
"","rating","","html-slider-response","52","116272","0.0-1.0-49.0","33","17620","Female","1136","","","","","51","47","12","Stimuli/Experimental_stims/faces/aiony-haust-jmATI5Q_YgY-unsplash.jpg","","","","","","","","","","","","","","","","","","","","","","","","","","","","","","","","","","","","","","","","","","","","","","","","","","","","","","","","","","","","","","","",""
"","localizer_instructions","","instructions","53","127289","0.0-2.0-0.0-0.0","33","17620","Female","10913","","[{""page_index"":0,""viewing_time"":323},{""page_index"":1,""viewing_time"":8571},{""page_index"":2,""viewing_time"":2018}]","","","","","","","","","","","","","","","","","","","","","","","","","","","","","","","","","","","","","","","","","","","","","","","","","","","","","","","","","","","","","","","","","","","","","",""
"","localizer_comprehension_check","","survey-multi-choice","54","133953","0.0-2.0-0.0-1.0","33","17620","Female","6642","{""Q0"":""True"",""Q1"":""K"",""Q2"":""D""}","","0","","","","","","","","","","","","","","","","","","","","","","","","","","","","","","","","","","","","","","","","","","","","","","","","","","","","","","","","","","","","","","","","","","","","",""
"","","","html-keyboard-response","55","137792","0.0-2.0-1.0","33","17620","Female","3820","","","","68","","","","","","","","","","","","","","","","","","","","","","","","","","","","","","","","","","","","","","","","","","","","","","","","","","","","","","","","","","","","","","","","","","","",""
"","localizer","","html-keyboard-response","56","138212","0.0-2.0-2.0-0.0","33","17620","Female","NaN","","","","null","NaN","0","","Stimuli/Practice_stims/Localizer/annie-spratt-g9KFpAfQ5bc-unsplash.jpg","137792","0","NaN","","0","1","0","400","0","420","0","","","","","","","","","","","","","","","","","","","","","","","","","","","","","","","","","","","","","","","","","","","","","","","","","","","","",""
"","iti_localizer","","html-keyboard-response","57","138523","0.0-2.0-2.0-1.0","33","17620","Female","null","","","","null","","0","","","138212","0","","","","","","300","400","311","420","300","","","","","","","","","","","","","","","","","","","","","","","","","","","","","","","","","","","","","","","","","","","","","","","","","","","",""
"","localizer","","html-keyboard-response","58","138934","0.0-2.0-2.1-0.1","33","17620","Female","NaN","","","","null","NaN","0","","Stimuli/Practice_stims/Localizer/annie-spratt-g9KFpAfQ5bc-unsplash.jpg","138523","0","NaN","","0","1","0","400","700","411","731","","","","","","","","","","","","","","","","","","","","","","","","","","","","","","","","","","","","","","","","","","","","","","","","","","","","",""
"","iti_localizer","","html-keyboard-response","59","139384","0.0-2.0-2.1-1.1","33","17620","Female","null","","","","null","","0","","","138934","0","","","","","","300","1100","450","1142","300","","","","","","","","","","","","","","","","","","","","","","","","","","","","","","","","","","","","","","","","","","","","","","","","","","","",""
"","localizer","","html-keyboard-response","60","139809","0.0-2.0-2.2-0.2","33","17620","Female","319","","","","68","0","0","","Stimuli/Practice_stims/Localizer/annie-spratt-g9KFpAfQ5bc-unsplash.jpg","139384","0","NaN","","0","0","1","400","1400","425","1592","","","","","","","","","","","","","","","","","","","","","","","","","","","","","","","","","","","","","","","","","","","","","","","","","","","","",""
"","iti_localizer","","html-keyboard-response","61","140140","0.0-2.0-2.2-1.2","33","17620","Female","null","","","","null","","0","","","139809","0","","","","","","300","1800","331","2017","300","","","","","","","","","","","","","","","","","","","","","","","","","","","","","","","","","","","","","","","","","","","","","","","","","","","",""
"","localizer","","html-keyboard-response","62","140619","0.0-2.0-3.0-0.0","33","17620","Female","65","","","","68","0","1","","Stimuli/Practice_stims/Localizer/becca-tapert-sY5RjMB1KkE-unsplash.jpg","140140","0","NaN","","0","0","1","400","2100","479","2348","","","","","","","","","","","","","","","","","","","","","","","","","","","","","","","","","","","","","","","","","","","","","","","","","","","","",""
"","iti_localizer","","html-keyboard-response","63","140961","0.0-2.0-3.0-1.0","33","17620","Female","null","","","","null","","1","","","140619","0","","","","","","300","2500","342","2827","300","","","","","","","","","","","","","","","","","","","","","","","","","","","","","","","","","","","","","","","","","","","","","","","","","","","",""
"","localizer","","html-keyboard-response","64","141461","0.0-2.0-4.0-0.0","33","17620","Female","110","","","","75","1","2","","Stimuli/Practice_stims/Localizer/charl-durand-bsfXvI25iNg-unsplash.jpg","140961","0","NaN","","1","0","1","400","2800","500","3169","","","","","","","","","","","","","","","","","","","","","","","","","","","","","","","","","","","","","","","","","","","","","","","","","","","","",""
"","iti_localizer","","html-keyboard-response","65","141780","0.0-2.0-4.0-1.0","33","17620","Female","null","","","","null","","2","","","141461","0","","","","","","300","3200","319","3669","300","","","","","","","","","","","","","","","","","","","","","","","","","","","","","","","","","","","","","","","","","","","","","","","","","","","",""
"","localizer","","html-keyboard-response","66","142213","0.0-2.0-5.0-0.0","33","17620","Female","201","","","","68","0","3","","Stimuli/Practice_stims/Localizer/nizar-albusaidy-B2r2SWAf5CE-unsplash.jpg","141780","0","NaN","","0","0","1","400","3500","433","3988","","","","","","","","","","","","","","","","","","","","","","","","","","","","","","","","","","","","","","","","","","","","","","","","","","","","",""
"","iti_localizer","","html-keyboard-response","67","142641","0.0-2.0-5.0-1.0","33","17620","Female","null","","","","null","","3","","","142213","0","","","","","","300","3900","428","4421","300","","","","","","","","","","","","","","","","","","","","","","","","","","","","","","","","","","","","","","","","","","","","","","","","","","","",""
"","localizer","","html-keyboard-response","68","143086","0.0-2.0-6.0-0.0","33","17620","Female","73","","","","68","0","4","","Stimuli/Practice_stims/Localizer/randy-fath-epf1tdtIIkM-unsplash.jpg","142641","0","NaN","","1","0","0","400","4200","445","4849","","","","","","","","","","","","","","","","","","","","","","","","","","","","","","","","","","","","","","","","","","","","","","","","","","","","",""
"","iti_localizer","","html-keyboard-response","69","143395","0.0-2.0-6.0-1.0","33","17620","Female","null","","","","null","","4","","","143086","0","","","","","","300","4600","309","5294","300","","","","","","","","","","","","","","","","","","","","","","","","","","","","","","","","","","","","","","","","","","","","","","","","","","","",""
"","localizer","","html-keyboard-response","70","143901","0.0-2.0-7.0-0.0","33","17620","Female","129","","","","68","0","5","","Stimuli/Practice_stims/Localizer/yassine-khalfalli-adsQ9d_Cx0c-unsplash.jpg","143395","0","NaN","","0","0","1","400","4900","506","5603","","","","","","","","","","","","","","","","","","","","","","","","","","","","","","","","","","","","","","","","","","","","","","","","","","","","",""
"","iti_localizer","","html-keyboard-response","71","144217","0.0-2.0-7.0-1.0","33","17620","Female","null","","","","null","","5","","","143901","0","","","","","","300","5300","316","6109","300","","","","","","","","","","","","","","","","","","","","","","","","","","","","","","","","","","","","","","","","","","","","","","","","","","","",""
"","practice_over","","html-keyboard-response","72","144860","0.0-2.0-7.0-2.0-0.0","33","17620","Female","631","","","","68","","","","","","","","","","","","","","","","","","","","","","","","","","","","","","","","","","","","","","","","","","","","","","","","","","","","","","","","","","","","","","","","","","","",""
"","start_run","","html-keyboard-response","73","147025","0.0-2.0-7.0-2.0-1.0","33","17620","Female","2159","","","","84","","","","","","","","","","","","","","","","","","","","","","","","","","","","","","","","","","","","","","","","","","","","","","","","","","","","","","","","","","","","","","","","","","","",""
"","localizer","","html-keyboard-response","74","147453","0.0-2.0-8.0-0.0","33","17620","Female","NaN","","","","null","NaN","6","","Stimuli/Experimental_stims/localizer/faces/christina-wocintechchat-com-0Zx1bDv5BNY-unsplash.jpg","147025","1","faces","","0","1","0","400","0","428","0","","","","","","","","","","","","","","","","","","","","","","","","","","","","","","","","","","","","","","","","","","","","","","","","","","","","",""
"","iti_localizer","","html-keyboard-response","75","147806","0.0-2.0-8.0-1.0","33","17620","Female","null","","","","null","","6","","","147453","1","","","","","","300","400","353","428","300","","","","","","","","","","","","","","","","","","","","","","","","","","","","","","","","","","","","","","","","","","","","","","","","","","","",""
"","localizer","","html-keyboard-response","76","148223","0.0-2.0-9.0-0.0","33","17620","Female","156","","","","68","0","7","","Stimuli/Experimental_stims/localizer/faces/jeffery-erhunse-BQMZ5ligqps-unsplash.jpg","147806","1","faces","","0","0","1","400","700","417","781","","","","","","","","","","","","","","","","","","","","","","","","","","","","","","","","","","","","","","","","","","","","","","","","","","","","",""
"","iti_localizer","","html-keyboard-response","77","148540","0.0-2.0-9.0-1.0","33","17620","Female","null","","","","null","","7","","","148223","1","","","","","","300","1100","317","1198","300","","","","","","","","","","","","","","","","","","","","","","","","","","","","","","","","","","","","","","","","","","","","","","","","","","","",""
"","localizer","","html-keyboard-response","78","148947","0.0-2.0-10.0-0.0","33","17620","Female","31","","","","68","0","8","","Stimuli/Experimental_stims/localizer/faces/matheus-ferrero-W7b3eDUb_2I-unsplash.jpg","148540","1","faces","","0","0","1","400","1400","407","1515","","","","","","","","","","","","","","","","","","","","","","","","","","","","","","","","","","","","","","","","","","","","","","","","","","","","",""
"","iti_localizer","","html-keyboard-response","79","149265","0.0-2.0-10.0-1.0","33","17620","Female","null","","","","null","","8","","","148947","1","","","","","","300","1800","318","1922","300","","","","","","","","","","","","","","","","","","","","","","","","","","","","","","","","","","","","","","","","","","","","","","","","","","","",""
"","localizer","","html-keyboard-response","80","149674","0.0-2.0-11.0-0.0","33","17620","Female","122","","","","68","0","9","","Stimuli/Experimental_stims/localizer/faces/jurica-koletic-7YVZYZeITc8-unsplash.jpg","149265","1","faces","","1","0","0","400","2100","409","2240","","","","","","","","","","","","","","","","","","","","","","","","","","","","","","","","","","","","","","","","","","","","","","","","","","","","",""
"","iti_localizer","","html-keyboard-response","81","150194","0.0-2.0-11.0-1.0","33","17620","Female","null","","","","null","","9","","","149674","1","","","","","","300","2500","520","2649","300","","","","","","","","","","","","","","","","","","","","","","","","","","","","","","","","","","","","","","","","","","","","","","","","","","","",""
"","localizer","","html-keyboard-response","82","150619","0.0-2.0-12.0-0.0","33","17620","Female","167","","","","68","0","10","","Stimuli/Experimental_stims/localizer/faces/drew-hays-agGIKYs4mYs-unsplash.jpg","150194","1","faces","","0","0","1","400","2800","425","3169","","","","","","","","","","","","","","","","","","","","","","","","","","","","","","","","","","","","","","","","","","","","","","","","","","","","",""
"","iti_localizer","","html-keyboard-response","83","150938","0.0-2.0-12.0-1.0","33","17620","Female","null","","","","null","","10","","","150619","1","","","","","","300","3200","319","3594","300","","","","","","","","","","","","","","","","","","","","","","","","","","","","","","","","","","","","","","","","","","","","","","","","","","","",""
"","localizer","","html-keyboard-response","84","151435","0.0-2.0-13.0-0.0","33","17620","Female","97","","","","68","0","11","","Stimuli/Experimental_stims/localizer/faces/rui-silvestre-hAMJpesMeDE-unsplash.jpg","150938","1","faces","","0","0","1","400","3500","497","3913","","","","","","","","","","","","","","","","","","","","","","","","","","","","","","","","","","","","","","","","","","","","","","","","","","","","",""
"","iti_localizer","","html-keyboard-response","85","151749","0.0-2.0-13.0-1.0","33","17620","Female","null","","","","null","","11","","","151435","1","","","","","","300","3900","314","4410","300","","","","","","","","","","","","","","","","","","","","","","","","","","","","","","","","","","","","","","","","","","","","","","","","","","","",""
"","localizer","","html-keyboard-response","86","152171","0.0-2.0-14.0-0.0","33","17620","Female","16","","","","68","0","12","","Stimuli/Experimental_stims/localizer/faces/sean-kong--1B_y4wGs-s-unsplash.jpg","151749","1","faces","","0","0","1","400","4200","422","4724","","","","","","","","","","","","","","","","","","","","","","","","","","","","","","","","","","","","","","","","","","","","","","","","","","","","",""
"","iti_localizer","","html-keyboard-response","87","152490","0.0-2.0-14.0-1.0","33","17620","Female","null","","","","null","","12","","","152171","1","","","","","","300","4600","319","5146","300","","","","","","","","","","","","","","","","","","","","","","","","","","","","","","","","","","","","","","","","","","","","","","","","","","","",""
"","localizer","","html-keyboard-response","88","153132","0.0-2.0-15.0-0.0","33","17620","Female","627","","","","68","0","13","","Stimuli/Experimental_stims/localizer/faces/vince-fleming-j3lf-Jn6deo-unsplash.jpg","152490","1","faces","","0","0","1","400","4900","642","5465","","","","","","","","","","","","","","","","","","","","","","","","","","","","","","","","","","","","","","","","","","","","","","","","","","","","",""
"","iti_localizer","","html-keyboard-response","89","153604","0.0-2.0-15.0-1.0","33","17620","Female","null","","","","null","","13","","","153132","1","","","","","","300","5300","472","6107","300","","","","","","","","","","","","","","","","","","","","","","","","","","","","","","","","","","","","","","","","","","","","","","","","","","","",""
"","localizer","","html-keyboard-response","90","154013","0.0-2.0-16.0-0.0","33","17620","Female","107","","","","68","0","14","","Stimuli/Experimental_stims/localizer/faces/tyler-nix-ZGa9d1a_4tA-unsplash.jpg","153604","1","faces","","0","0","1","400","5600","409","6579","","","","","","","","","","","","","","","","","","","","","","","","","","","","","","","","","","","","","","","","","","","","","","","","","","","","",""
"","iti_localizer","","html-keyboard-response","91","154410","0.0-2.0-16.0-1.0","33","17620","Female","null","","","","null","","14","","","154013","1","","","","","","300","6000","397","6988","300","","","","","","","","","","","","","","","","","","","","","","","","","","","","","","","","","","","","","","","","","","","","","","","","","","","",""
"","localizer","","html-keyboard-response","92","154884","0.0-2.0-17.0-0.0","33","17620","Female","110","","","","68","0","15","","Stimuli/Experimental_stims/localizer/faces/abstral-official-cyOKLSgkgCE-unsplash.jpg","154410","1","faces","","0","0","1","400","6300","474","7385","","","","","","","","","","","","","","","","","","","","","","","","","","","","","","","","","","","","","","","","","","","","","","","","","","","","",""
"","iti_localizer","","html-keyboard-response","93","155199","0.0-2.0-17.0-1.0","33","17620","Female","null","","","","null","","15","","","154884","1","","","","","","300","6700","315","7859","300","","","","","","","","","","","","","","","","","","","","","","","","","","","","","","","","","","","","","","","","","","","","","","","","","","","",""
"","localizer","","html-keyboard-response","94","155658","0.0-2.0-18.0-0.0","33","17620","Female","243","","","","68","0","16","","Stimuli/Experimental_stims/localizer/faces/ethan-haddox-__ng3cRXmFE-unsplash.jpg","155199","1","faces","","0","0","1","400","7000","459","8174","","","","","","","","","","","","","","","","","","","","","","","","","","","","","","","","","","","","","","","","","","","","","","","","","","","","",""
"","iti_localizer","","html-keyboard-response","95","155974","0.0-2.0-18.0-1.0","33","17620","Female","null","","","","null","","16","","","155658","1","","","","","","300","7400","316","8633","300","","","","","","","","","","","","","","","","","","","","","","","","","","","","","","","","","","","","","","","","","","","","","","","","","","","",""
"","localizer","","html-keyboard-response","96","156462","0.0-2.0-19.0-0.0","33","17620","Female","93","","","","68","0","17","","Stimuli/Experimental_stims/localizer/faces/foto-sushi-6anudmpILw4-unsplash.jpg","155974","1","faces","","0","0","1","400","7700","488","8949","","","","","","","","","","","","","","","","","","","","","","","","","","","","","","","","","","","","","","","","","","","","","","","","","","","","",""
"","iti_localizer","","html-keyboard-response","97","156781","0.0-2.0-19.0-1.0","33","17620","Female","null","","","","null","","17","","","156462","1","","","","","","300","8100","319","9437","300","","","","","","","","","","","","","","","","","","","","","","","","","","","","","","","","","","","","","","","","","","","","","","","","","","","",""
"","localizer","","html-keyboard-response","98","157204","0.0-2.0-20.0-0.0","33","17620","Female","31","","","","68","0","18","","Stimuli/Experimental_stims/localizer/faces/christian-ferrer-8vT-DgHZDG4-unsplash.jpg","156781","1","faces","","0","0","1","400","8400","423","9756","","","","","","","","","","","","","","","","","","","","","","","","","","","","","","","","","","","","","","","","","","","","","","","","","","","","",""
"","iti_localizer","","html-keyboard-response","99","157529","0.0-2.0-20.0-1.0","33","17620","Female","null","","","","null","","18","","","157204","1","","","","","","300","8800","325","10179","300","","","","","","","","","","","","","","","","","","","","","","","","","","","","","","","","","","","","","","","","","","","","","","","","","","","",""
"","localizer","","html-keyboard-response","100","158003","0.0-2.0-21.0-0.0","33","17620","Female","2","","","","68","0","19","","Stimuli/Experimental_stims/localizer/faces/stephanie-nakagawa-ADSKIn0ScDg-unsplash.jpg","157529","1","faces","","0","0","1","400","9100","474","10504","","","","","","","","","","","","","","","","","","","","","","","","","","","","","","","","","","","","","","","","","","","","","","","","","","","","",""
"","iti_localizer","","html-keyboard-response","101","158322","0.0-2.0-21.0-1.0","33","17620","Female","null","","","","null","","19","","","158003","1","","","","","","300","9500","319","10978","300","","","","","","","","","","","","","","","","","","","","","","","","","","","","","","","","","","","","","","","","","","","","","","","","","","","",""
"","localizer","","html-keyboard-response","102","158741","0.0-2.0-22.0-0.0","33","17620","Female","328","","","","75","1","20","","Stimuli/Experimental_stims/localizer/faces/toa-heftiba-2O1EUSTRBrY-unsplash.jpg","158322","1","faces","","1","0","1","400","9800","419","11297","","","","","","","","","","","","","","","","","","","","","","","","","","","","","","","","","","","","","","","","","","","","","","","","","","","","",""
"","iti_localizer","","html-keyboard-response","103","159063","0.0-2.0-22.0-1.0","33","17620","Female","null","","","","null","","20","","","158741","1","","","","","","300","10200","322","11716","300","","","","","","","","","","","","","","","","","","","","","","","","","","","","","","","","","","","","","","","","","","","","","","","","","","","",""
"","localizer","","html-keyboard-response","104","159498","0.0-2.0-23.0-0.0","33","17620","Female","366","","","","75","1","21","","Stimuli/Experimental_stims/localizer/faces/darshan-patel-QJEVpydulGs-unsplash.jpg","159063","1","faces","","0","0","0","400","10500","435","12038","","","","","","","","","","","","","","","","","","","","","","","","","","","","","","","","","","","","","","","","","","","","","","","","","","","","",""
"","iti_localizer","","html-keyboard-response","105","159825","0.0-2.0-23.0-1.0","33","17620","Female","null","","","","null","","21","","","159498","1","","","","","","300","10900","327","12473","300","","","","","","","","","","","","","","","","","","","","","","","","","","","","","","","","","","","","","","","","","","","","","","","","","","","",""
"","localizer","","html-keyboard-response","106","160242","0.0-2.0-24.0-0.0","33","17620","Female","187","","","","75","1","22","","Stimuli/Experimental_stims/localizer/faces/mubariz-mehdizadeh-o-wlIFT4zE4-unsplash.jpg","159825","1","faces","","0","0","0","400","11200","417","12800","","","","","","","","","","","","","","","","","","","","","","","","","","","","","","","","","","","","","","","","","","","","","","","","","","","","",""
"","iti_localizer","","html-keyboard-response","107","160558","0.0-2.0-24.0-1.0","33","17620","Female","null","","","","null","","22","","","160242","1","","","","","","300","11600","316","13217","300","","","","","","","","","","","","","","","","","","","","","","","","","","","","","","","","","","","","","","","","","","","","","","","","","","","",""
"","localizer","","html-keyboard-response","108","160966","0.0-2.0-25.0-0.0","33","17620","Female","154","","","","75","1","23","","Stimuli/Experimental_stims/localizer/faces/midas-hofstra-tidSLv-UaNs-unsplash.jpg","160558","1","faces","","0","0","0","400","11900","408","13533","","","","","","","","","","","","","","","","","","","","","","","","","","","","","","","","","","","","","","","","","","","","","","","","","","","","",""
"","iti_localizer","","html-keyboard-response","109","161283","0.0-2.0-25.0-1.0","33","17620","Female","null","","","","null","","23","","","160966","1","","","","","","300","12300","317","13941","300","","","","","","","","","","","","","","","","","","","","","","","","","","","","","","","","","","","","","","","","","","","","","","","","","","","",""
"","localizer","","html-keyboard-response","110","161702","0.0-2.0-26.0-0.0","33","17620","Female","152","","","","75","1","24","","Stimuli/Experimental_stims/localizer/faces/toa-heftiba-O3ymvT7Wf9U-unsplash.jpg","161283","1","faces","","0","0","0","400","12600","419","14258","","","","","","","","","","","","","","","","","","","","","","","","","","","","","","","","","","","","","","","","","","","","","","","","","","","","",""
"","iti_localizer","","html-keyboard-response","111","162024","0.0-2.0-26.0-1.0","33","17620","Female","null","","","","null","","24","","","161702","1","","","","","","300","13000","322","14677","300","","","","","","","","","","","","","","","","","","","","","","","","","","","","","","","","","","","","","","","","","","","","","","","","","","","",""
"","localizer","","html-keyboard-response","112","162450","0.0-2.0-27.0-0.0","33","17620","Female","NaN","","","","null","NaN","25","","Stimuli/Experimental_stims/localizer/faces/katsiaryna-endruszkiewicz-BteCp6aq4GI-unsplash.jpg","162024","1","faces","","0","1","0","400","13300","426","14999","","","","","","","","","","","","","","","","","","","","","","","","","","","","","","","","","","","","","","","","","","","","","","","","","","","","",""
"","iti_localizer","","html-keyboard-response","113","176702","0.0-2.0-27.0-1.0","33","17620","Female","null","","","","null","","25","","","162450","1","","","","","","14000","13700","14252","15425","14000","","","","","","","","","","","","","","","","","","","","","","","","","","","","","","","","","","","","","","","","","","","","","","","","","","","",""
"","localizer","","html-keyboard-response","114","177127","0.0-2.0-28.0-0.0","33","17620","Female","NaN","","","","null","NaN","26","","Stimuli/Experimental_stims/localizer/outdoor_scenes/jaanus-jagomagi-FddgewYQF2M-unsplash.jpg","176702","1","outdoor_scenes","","0","1","0","400","27700","425","29677","","","","","","","","","","","","","","","","","","","","","","","","","","","","","","","","","","","","","","","","","","","","","","","","","","","","",""
"","iti_localizer","","html-keyboard-response","115","177477","0.0-2.0-28.0-1.0","33","17620","Female","null","","","","null","","26","","","177127","1","","","","","","300","28100","350","30102","300","","","","","","","","","","","","","","","","","","","","","","","","","","","","","","","","","","","","","","","","","","","","","","","","","","","",""
"","localizer","","html-keyboard-response","116","177890","0.0-2.0-29.0-0.0","33","17620","Female","NaN","","","","null","NaN","27","","Stimuli/Experimental_stims/localizer/outdoor_scenes/v2osk-1Z2niiBPg5A-unsplash.jpg","177477","1","outdoor_scenes","","1","1","0","400","28400","413","30452","","","","","","","","","","","","","","","","","","","","","","","","","","","","","","","","","","","","","","","","","","","","","","","","","","","","",""
"","iti_localizer","","html-keyboard-response","117","178203","0.0-2.0-29.0-1.0","33","17620","Female","null","","","","null","","27","","","177890","1","","","","","","300","28800","313","30865","300","","","","","","","","","","","","","","","","","","","","","","","","","","","","","","","","","","","","","","","","","","","","","","","","","","","",""
"","localizer","","html-keyboard-response","118","178619","0.0-2.0-30.0-0.0","33","17620","Female","NaN","","","","null","NaN","28","","Stimuli/Experimental_stims/localizer/outdoor_scenes/wai-siew-mTFyV8oNDzU-unsplash.jpg","178203","1","outdoor_scenes","","0","1","0","400","29100","416","31178","","","","","","","","","","","","","","","","","","","","","","","","","","","","","","","","","","","","","","","","","","","","","","","","","","","","",""
"","iti_localizer","","html-keyboard-response","119","178934","0.0-2.0-30.0-1.0","33","17620","Female","null","","","","null","","28","","","178619","1","","","","","","300","29500","315","31594","300","","","","","","","","","","","","","","","","","","","","","","","","","","","","","","","","","","","","","","","","","","","","","","","","","","","",""
"","localizer","","html-keyboard-response","120","179578","0.0-2.0-31.0-0.0","33","17620","Female","NaN","","","","null","NaN","29","","Stimuli/Experimental_stims/localizer/outdoor_scenes/jay-cai-F_laX9E8CUo-unsplash.jpg","178934","1","outdoor_scenes","","0","1","0","400","29800","644","31909","","","","","","","","","","","","","","","","","","","","","","","","","","","","","","","","","","","","","","","","","","","","","","","","","","","","",""
"","iti_localizer","","html-keyboard-response","121","179896","0.0-2.0-31.0-1.0","33","17620","Female","null","","","","null","","29","","","179578","1","","","","","","300","30200","318","32553","300","","","","","","","","","","","","","","","","","","","","","","","","","","","","","","","","","","","","","","","","","","","","","","","","","","","",""
"","localizer","","html-keyboard-response","122","180415","0.0-2.0-32.0-0.0","33","17620","Female","NaN","","","","null","NaN","30","","Stimuli/Experimental_stims/localizer/outdoor_scenes/jeremy-cai-ucYWe5mzTMU-unsplash.jpg","179896","1","outdoor_scenes","","0","1","0","400","30500","519","32871","","","","","","","","","","","","","","","","","","","","","","","","","","","","","","","","","","","","","","","","","","","","","","","","","","","","",""
"","iti_localizer","","html-keyboard-response","123","180734","0.0-2.0-32.0-1.0","33","17620","Female","null","","","","null","","30","","","180415","1","","","","","","300","30900","319","33390","300","","","","","","","","","","","","","","","","","","","","","","","","","","","","","","","","","","","","","","","","","","","","","","","","","","","",""
"","localizer","","html-keyboard-response","124","181159","0.0-2.0-33.0-0.0","33","17620","Female","NaN","","","","null","NaN","31","","Stimuli/Experimental_stims/localizer/outdoor_scenes/erol-ahmed-d3pTF3r_hwY-unsplash.jpg","180734","1","outdoor_scenes","","0","1","0","400","31200","425","33709","","","","","","","","","","","","","","","","","","","","","","","","","","","","","","","","","","","","","","","","","","","","","","","","","","","","",""
"","iti_localizer","","html-keyboard-response","125","181544","0.0-2.0-33.0-1.0","33","17620","Female","null","","","","null","","31","","","181159","1","","","","","","300","31600","385","34134","300","","","","","","","","","","","","","","","","","","","","","","","","","","","","","","","","","","","","","","","","","","","","","","","","","","","",""
"","localizer","","html-keyboard-response","126","181972","0.0-2.0-34.0-0.0","33","17620","Female","NaN","","","","null","NaN","32","","Stimuli/Experimental_stims/localizer/outdoor_scenes/quino-al-vmZ2DehWQ3Q-unsplash.jpg","181544","1","outdoor_scenes","","0","1","0","400","31900","428","34519","","","","","","","","","","","","","","","","","","","","","","","","","","","","","","","","","","","","","","","","","","","","","","","","","","","","",""
"","iti_localizer","","html-keyboard-response","127","182287","0.0-2.0-34.0-1.0","33","17620","Female","null","","","","null","","32","","","181972","1","","","","","","300","32300","315","34947","300","","","","","","","","","","","","","","","","","","","","","","","","","","","","","","","","","","","","","","","","","","","","","","","","","","","",""
"","localizer","","html-keyboard-response","128","182713","0.0-2.0-35.0-0.0","33","17620","Female","NaN","","","","null","NaN","33","","Stimuli/Experimental_stims/localizer/outdoor_scenes/kenneth-thewissen-D76DklsG-5U-unsplash.jpg","182287","1","outdoor_scenes","","0","1","0","400","32600","426","35262","","","","","","","","","","","","","","","","","","","","","","","","","","","","","","","","","","","","","","","","","","","","","","","","","","","","",""
"","iti_localizer","","html-keyboard-response","129","183039","0.0-2.0-35.0-1.0","33","17620","Female","null","","","","null","","33","","","182713","1","","","","","","300","33000","326","35688","300","","","","","","","","","","","","","","","","","","","","","","","","","","","","","","","","","","","","","","","","","","","","","","","","","","","",""
"","localizer","","html-keyboard-response","130","183462","0.0-2.0-36.0-0.0","33","17620","Female","NaN","","","","null","NaN","34","","Stimuli/Experimental_stims/localizer/outdoor_scenes/johny-goerend-U_diPCXCBxU-unsplash.jpg","183039","1","outdoor_scenes","","0","1","0","400","33300","423","36014","","","","","","","","","","","","","","","","","","","","","","","","","","","","","","","","","","","","","","","","","","","","","","","","","","","","",""
"","iti_localizer","","html-keyboard-response","131","183807","0.0-2.0-36.0-1.0","33","17620","Female","null","","","","null","","34","","","183462","1","","","","","","300","33700","345","36437","300","","","","","","","","","","","","","","","","","","","","","","","","","","","","","","","","","","","","","","","","","","","","","","","","","","","",""
"","localizer","","html-keyboard-response","132","184220","0.0-2.0-37.0-0.0","33","17620","Female","NaN","","","","null","NaN","35","","Stimuli/Experimental_stims/localizer/outdoor_scenes/ken-cheung-KonWFWUaAuk-unsplash.jpg","183807","1","outdoor_scenes","","0","1","0","400","34000","413","36782","","","","","","","","","","","","","","","","","","","","","","","","","","","","","","","","","","","","","","","","","","","","","","","","","","","","",""
"","iti_localizer","","html-keyboard-response","133","184540","0.0-2.0-37.0-1.0","33","17620","Female","null","","","","null","","35","","","184220","1","","","","","","300","34400","320","37195","300","","","","","","","","","","","","","","","","","","","","","","","","","","","","","","","","","","","","","","","","","","","","","","","","","","","",""
"","localizer","","html-keyboard-response","134","184978","0.0-2.0-38.0-0.0","33","17620","Female","NaN","","","","null","NaN","36","","Stimuli/Experimental_stims/localizer/outdoor_scenes/alessio-furlan-Vw3a0HgE7AM-unsplash.jpg","184540","1","outdoor_scenes","","0","1","0","400","34700","438","37515","","","","","","","","","","","","","","","","","","","","","","","","","","","","","","","","","","","","","","","","","","","","","","","","","","","","",""
"","iti_localizer","","html-keyboard-response","135","185453","0.0-2.0-38.0-1.0","33","17620","Female","null","","","","null","","36","","","184978","1","","","","","","300","35100","475","37953","300","","","","","","","","","","","","","","","","","","","","","","","","","","","","","","","","","","","","","","","","","","","","","","","","","","","",""
"","localizer","","html-keyboard-response","136","185891","0.0-2.0-39.0-0.0","33","17620","Female","NaN","","","","null","NaN","37","","Stimuli/Experimental_stims/localizer/outdoor_scenes/ricardo-gomez-angel-dTSaC-S-7fs-unsplash.jpg","185453","1","outdoor_scenes","","0","1","0","400","35400","438","38428","","","","","","","","","","","","","","","","","","","","","","","","","","","","","","","","","","","","","","","","","","","","","","","","","","","","",""
"","iti_localizer","","html-keyboard-response","137","186206","0.0-2.0-39.0-1.0","33","17620","Female","null","","","","null","","37","","","185891","1","","","","","","300","35800","315","38866","300","","","","","","","","","","","","","","","","","","","","","","","","","","","","","","","","","","","","","","","","","","","","","","","","","","","",""
"","localizer","","html-keyboard-response","138","186638","0.0-2.0-40.0-0.0","33","17620","Female","NaN","","","","null","NaN","38","","Stimuli/Experimental_stims/localizer/outdoor_scenes/samuel-ferrara-IEHPDNk2-8w-unsplash.jpg","186206","1","outdoor_scenes","","0","1","0","400","36100","432","39181","","","","","","","","","","","","","","","","","","","","","","","","","","","","","","","","","","","","","","","","","","","","","","","","","","","","",""
"","iti_localizer","","html-keyboard-response","139","186963","0.0-2.0-40.0-1.0","33","17620","Female","null","","","","null","","38","","","186638","1","","","","","","300","36500","325","39613","300","","","","","","","","","","","","","","","","","","","","","","","","","","","","","","","","","","","","","","","","","","","","","","","","","","","",""
"","localizer","","html-keyboard-response","140","187387","0.0-2.0-41.0-0.0","33","17620","Female","NaN","","","","null","NaN","39","","Stimuli/Experimental_stims/localizer/outdoor_scenes/pietro-de-grandi-T7K4aEPoGGk-unsplash.jpg","186963","1","outdoor_scenes","","0","1","0","400","36800","424","39938","","","","","","","","","","","","","","","","","","","","","","","","","","","","","","","","","","","","","","","","","","","","","","","","","","","","",""
"","iti_localizer","","html-keyboard-response","141","187707","0.0-2.0-41.0-1.0","33","17620","Female","null","","","","null","","39","","","187387","1","","","","","","300","37200","320","40362","300","","","","","","","","","","","","","","","","","","","","","","","","","","","","","","","","","","","","","","","","","","","","","","","","","","","",""
"","localizer","","html-keyboard-response","142","188122","0.0-2.0-42.0-0.0","33","17620","Female","NaN","","","","null","NaN","40","","Stimuli/Experimental_stims/localizer/outdoor_scenes/tomasz-filipek-CUWC-6MRcNg-unsplash.jpg","187707","1","outdoor_scenes","","0","1","0","400","37500","415","40682","","","","","","","","","","","","","","","","","","","","","","","","","","","","","","","","","","","","","","","","","","","","","","","","","","","","",""
"","iti_localizer","","html-keyboard-response","143","188498","0.0-2.0-42.0-1.0","33","17620","Female","null","","","","null","","40","","","188122","1","","","","","","300","37900","376","41097","300","","","","","","","","","","","","","","","","","","","","","","","","","","","","","","","","","","","","","","","","","","","","","","","","","","","",""
"","localizer","","html-keyboard-response","144","188917","0.0-2.0-43.0-0.0","33","17620","Female","NaN","","","","null","NaN","41","","Stimuli/Experimental_stims/localizer/outdoor_scenes/cayetano-gil-rguHxZmOF5U-unsplash.jpg","188498","1","outdoor_scenes","","0","1","0","400","38200","419","41473","","","","","","","","","","","","","","","","","","","","","","","","","","","","","","","","","","","","","","","","","","","","","","","","","","","","",""
"","iti_localizer","","html-keyboard-response","145","189233","0.0-2.0-43.0-1.0","33","17620","Female","null","","","","null","","41","","","188917","1","","","","","","300","38600","316","41892","300","","","","","","","","","","","","","","","","","","","","","","","","","","","","","","","","","","","","","","","","","","","","","","","","","","","",""
"","localizer","","html-keyboard-response","146","189688","0.0-2.0-44.0-0.0","33","17620","Female","NaN","","","","null","NaN","42","","Stimuli/Experimental_stims/localizer/outdoor_scenes/nikola-majksner-hXNGeAFOgT4-unsplash.jpg","189233","1","outdoor_scenes","","0","1","0","400","38900","455","42208","","","","","","","","","","","","","","","","","","","","","","","","","","","","","","","","","","","","","","","","","","","","","","","","","","","","",""
"","iti_localizer","","html-keyboard-response","147","190010","0.0-2.0-44.0-1.0","33","17620","Female","null","","","","null","","42","","","189688","1","","","","","","300","39300","322","42663","300","","","","","","","","","","","","","","","","","","","","","","","","","","","","","","","","","","","","","","","","","","","","","","","","","","","",""
"","localizer","","html-keyboard-response","148","190539","0.0-2.0-45.0-0.0","33","17620","Female","NaN","","","","null","NaN","43","","Stimuli/Experimental_stims/localizer/outdoor_scenes/wil-stewart-pHANr-CpbYM-unsplash.jpg","190010","1","outdoor_scenes","","1","1","0","400","39600","529","42985","","","","","","","","","","","","","","","","","","","","","","","","","","","","","","","","","","","","","","","","","","","","","","","","","","","","",""
"","iti_localizer","","html-keyboard-response","149","190857","0.0-2.0-45.0-1.0","33","17620","Female","null","","","","null","","43","","","190539","1","","","","","","300","40000","318","43514","300","","","","","","","","","","","","","","","","","","","","","","","","","","","","","","","","","","","","","","","","","","","","","","","","","","","",""
"","localizer","","html-keyboard-response","150","191275","0.0-2.0-46.0-0.0","33","17620","Female","NaN","","","","null","NaN","44","","Stimuli/Experimental_stims/localizer/outdoor_scenes/chang-qing-2YQoKbyGvDc-unsplash.jpg","190857","1","outdoor_scenes","","0","1","0","400","40300","418","43832","","","","","","","","","","","","","","","","","","","","","","","","","","","","","","","","","","","","","","","","","","","","","","","","","","","","",""
"","iti_localizer","","html-keyboard-response","151","191673","0.0-2.0-46.0-1.0","33","17620","Female","null","","","","null","","44","","","191275","1","","","","","","300","40700","398","44250","300","","","","","","","","","","","","","","","","","","","","","","","","","","","","","","","","","","","","","","","","","","","","","","","","","","","",""
"","localizer","","html-keyboard-response","152","192099","0.0-2.0-47.0-0.0","33","17620","Female","NaN","","","","null","NaN","45","","Stimuli/Experimental_stims/localizer/outdoor_scenes/solotravelgoals-7kLufxYoqWk-unsplash.jpg","191673","1","outdoor_scenes","","0","1","0","400","41000","426","44648","","","","","","","","","","","","","","","","","","","","","","","","","","","","","","","","","","","","","","","","","","","","","","","","","","","","",""
"","iti_localizer","","html-keyboard-response","153","206127","0.0-2.0-47.0-1.0","33","17620","Female","null","","","","null","","45","","","192099","1","","","","","","14000","41400","14028","45074","14000","","","","","","","","","","","","","","","","","","","","","","","","","","","","","","","","","","","","","","","","","","","","","","","","","","","",""
"","localizer","","html-keyboard-response","154","206554","0.0-2.0-48.0-0.0","33","17620","Female","NaN","","","","null","NaN","46","","Stimuli/Experimental_stims/localizer/body_parts/jeremy-bishop-mLd3hAaH2ns-unsplash.jpg","206127","1","body_parts","","0","1","0","400","55400","427","59102","","","","","","","","","","","","","","","","","","","","","","","","","","","","","","","","","","","","","","","","","","","","","","","","","","","","",""
"","iti_localizer","","html-keyboard-response","155","206894","0.0-2.0-48.0-1.0","33","17620","Female","null","","","","null","","46","","","206554","1","","","","","","300","55800","340","59529","300","","","","","","","","","","","","","","","","","","","","","","","","","","","","","","","","","","","","","","","","","","","","","","","","","","","",""
"","localizer","","html-keyboard-response","156","207321","0.0-2.0-49.0-0.0","33","17620","Female","NaN","","","","null","NaN","47","","Stimuli/Experimental_stims/localizer/body_parts/lilartsy-1KkhQ8uL28g-unsplash.jpg","206894","1","body_parts","","0","1","0","400","56100","427","59869","","","","","","","","","","","","","","","","","","","","","","","","","","","","","","","","","","","","","","","","","","","","","","","","","","","","",""
"","iti_localizer","","html-keyboard-response","157","207637","0.0-2.0-49.0-1.0","33","17620","Female","null","","","","null","","47","","","207321","1","","","","","","300","56500","316","60296","300","","","","","","","","","","","","","","","","","","","","","","","","","","","","","","","","","","","","","","","","","","","","","","","","","","","",""
"","localizer","","html-keyboard-response","158","208053","0.0-2.0-50.0-0.0","33","17620","Female","NaN","","","","null","NaN","48","","Stimuli/Experimental_stims/localizer/body_parts/toa-heftiba-qxvWnfHb3-M-unsplash.jpg","207637","1","body_parts","","0","1","0","400","56800","416","60612","","","","","","","","","","","","","","","","","","","","","","","","","","","","","","","","","","","","","","","","","","","","","","","","","","","","",""
"","iti_localizer","","html-keyboard-response","159","208361","0.0-2.0-50.0-1.0","33","17620","Female","null","","","","null","","48","","","208053","1","","","","","","300","57200","308","61028","300","","","","","","","","","","","","","","","","","","","","","","","","","","","","","","","","","","","","","","","","","","","","","","","","","","","",""
"","localizer","","html-keyboard-response","160","208781","0.0-2.0-51.0-0.0","33","17620","Female","143","","","","68","0","49","","Stimuli/Experimental_stims/localizer/body_parts/callum-skelton-3KLMq7y46nA-unsplash.jpg","208361","1","body_parts","","1","0","0","400","57500","420","61336","","","","","","","","","","","","","","","","","","","","","","","","","","","","","","","","","","","","","","","","","","","","","","","","","","","","",""
"","iti_localizer","","html-keyboard-response","161","209099","0.0-2.0-51.0-1.0","33","17620","Female","null","","","","null","","49","","","208781","1","","","","","","300","57900","318","61756","300","","","","","","","","","","","","","","","","","","","","","","","","","","","","","","","","","","","","","","","","","","","","","","","","","","","",""
"","localizer","","html-keyboard-response","162","209556","0.0-2.0-52.0-0.0","33","17620","Female","121","","","","68","0","50","","Stimuli/Experimental_stims/localizer/body_parts/ant-rozetsky-bXQd8JXx0vs-unsplash.jpg","209099","1","body_parts","","0","0","1","400","58200","457","62074","","","","","","","","","","","","","","","","","","","","","","","","","","","","","","","","","","","","","","","","","","","","","","","","","","","","",""
"","iti_localizer","","html-keyboard-response","163","209871","0.0-2.0-52.0-1.0","33","17620","Female","null","","","","null","","50","","","209556","1","","","","","","300","58600","315","62531","300","","","","","","","","","","","","","","","","","","","","","","","","","","","","","","","","","","","","","","","","","","","","","","","","","","","",""
"","localizer","","html-keyboard-response","164","210285","0.0-2.0-53.0-0.0","33","17620","Female","206","","","","68","0","51","","Stimuli/Experimental_stims/localizer/body_parts/boyd-christiansen-uVj7kewrZ-o-unsplash.jpg","209871","1","body_parts","","0","0","1","400","58900","414","62846","","","","","","","","","","","","","","","","","","","","","","","","","","","","","","","","","","","","","","","","","","","","","","","","","","","","",""
"","iti_localizer","","html-keyboard-response","165","210635","0.0-2.0-53.0-1.0","33","17620","Female","null","","","","null","","51","","","210285","1","","","","","","300","59300","350","63260","300","","","","","","","","","","","","","","","","","","","","","","","","","","","","","","","","","","","","","","","","","","","","","","","","","","","",""
"","localizer","","html-keyboard-response","166","211050","0.0-2.0-54.0-0.0","33","17620","Female","NaN","","","","null","NaN","52","","Stimuli/Experimental_stims/localizer/body_parts/helen-ast-l2iY5Sh0mTg-unsplash.jpg","210635","1","body_parts","","0","1","0","400","59600","415","63610","","","","","","","","","","","","","","","","","","","","","","","","","","","","","","","","","","","","","","","","","","","","","","","","","","","","",""
"","iti_localizer","","html-keyboard-response","167","211485","0.0-2.0-54.0-1.0","33","17620","Female","null","","","","null","","52","","","211050","1","","","","","","300","60000","435","64025","300","","","","","","","","","","","","","","","","","","","","","","","","","","","","","","","","","","","","","","","","","","","","","","","","","","","",""
"","localizer","","html-keyboard-response","168","211904","0.0-2.0-55.0-0.0","33","17620","Female","NaN","","","","null","NaN","53","","Stimuli/Experimental_stims/localizer/body_parts/pure-julia-E9Q4bqYHtIM-unsplash.jpg","211485","1","body_parts","","0","1","0","400","60300","419","64460","","","","","","","","","","","","","","","","","","","","","","","","","","","","","","","","","","","","","","","","","","","","","","","","","","","","",""
"","iti_localizer","","html-keyboard-response","169","212224","0.0-2.0-55.0-1.0","33","17620","Female","null","","","","null","","53","","","211904","1","","","","","","300","60700","320","64879","300","","","","","","","","","","","","","","","","","","","","","","","","","","","","","","","","","","","","","","","","","","","","","","","","","","","",""
"","localizer","","html-keyboard-response","170","212720","0.0-2.0-56.0-0.0","33","17620","Female","NaN","","","","null","NaN","54","","Stimuli/Experimental_stims/localizer/body_parts/sina-rezakhani-d1gQi0Jl05U-unsplash (1).jpg","212224","1","body_parts","","0","1","0","400","61000","496","65199","","","","","","","","","","","","","","","","","","","","","","","","","","","","","","","","","","","","","","","","","","","","","","","","","","","","",""
"","iti_localizer","","html-keyboard-response","171","213102","0.0-2.0-56.0-1.0","33","17620","Female","null","","","","null","","54","","","212720","1","","","","","","300","61400","382","65695","300","","","","","","","","","","","","","","","","","","","","","","","","","","","","","","","","","","","","","","","","","","","","","","","","","","","",""
"","localizer","","html-keyboard-response","172","213521","0.0-2.0-57.0-0.0","33","17620","Female","NaN","","","","null","NaN","55","","Stimuli/Experimental_stims/localizer/body_parts/megan-menegay-UojxG_BJxnI-unsplash.jpg","213102","1","body_parts","","0","1","0","400","61700","419","66077","","","","","","","","","","","","","","","","","","","","","","","","","","","","","","","","","","","","","","","","","","","","","","","","","","","","",""
"","iti_localizer","","html-keyboard-response","173","213862","0.0-2.0-57.0-1.0","33","17620","Female","null","","","","null","","55","","","213521","1","","","","","","300","62100","341","66496","300","","","","","","","","","","","","","","","","","","","","","","","","","","","","","","","","","","","","","","","","","","","","","","","","","","","",""
"","localizer","","html-keyboard-response","174","214304","0.0-2.0-58.0-0.0","33","17620","Female","329","","","","68","0","56","","Stimuli/Experimental_stims/localizer/body_parts/sincerely-media-7TBFwUQA6Xk-unsplash.jpg","213862","1","body_parts","","0","0","1","400","62400","442","66837","","","","","","","","","","","","","","","","","","","","","","","","","","","","","","","","","","","","","","","","","","","","","","","","","","","","",""
"","iti_localizer","","html-keyboard-response","175","214624","0.0-2.0-58.0-1.0","33","17620","Female","null","","","","null","","56","","","214304","1","","","","","","300","62800","320","67279","300","","","","","","","","","","","","","","","","","","","","","","","","","","","","","","","","","","","","","","","","","","","","","","","","","","","",""
"","localizer","","html-keyboard-response","176","215310","0.0-2.0-59.0-0.0","33","17620","Female","137","","","","68","0","57","","Stimuli/Experimental_stims/localizer/body_parts/sincerely-media-pdynOoM7xmA-unsplash.jpg","214624","1","body_parts","","0","0","1","400","63100","686","67599","","","","","","","","","","","","","","","","","","","","","","","","","","","","","","","","","","","","","","","","","","","","","","","","","","","","",""
"","iti_localizer","","html-keyboard-response","177","215714","0.0-2.0-59.0-1.0","33","17620","Female","null","","","","null","","57","","","215310","1","","","","","","300","63500","404","68285","300","","","","","","","","","","","","","","","","","","","","","","","","","","","","","","","","","","","","","","","","","","","","","","","","","","","",""
"","localizer","","html-keyboard-response","178","216124","0.0-2.0-60.0-0.0","33","17620","Female","150","","","","68","0","58","","Stimuli/Experimental_stims/localizer/body_parts/adrien-king-XzBluXxBoyQ-unsplash.jpg","215714","1","body_parts","","0","0","1","400","63800","410","68689","","","","","","","","","","","","","","","","","","","","","","","","","","","","","","","","","","","","","","","","","","","","","","","","","","","","",""
"","iti_localizer","","html-keyboard-response","179","216612","0.0-2.0-60.0-1.0","33","17620","Female","null","","","","null","","58","","","216124","1","","","","","","300","64200","488","69099","300","","","","","","","","","","","","","","","","","","","","","","","","","","","","","","","","","","","","","","","","","","","","","","","","","","","",""
"","localizer","","html-keyboard-response","180","217034","0.0-2.0-61.0-0.0","33","17620","Female","NaN","","","","null","NaN","59","","Stimuli/Experimental_stims/localizer/body_parts/nattalia-nunez-MB9sdDfZMSg-unsplash.jpg","216612","1","body_parts","","1","1","0","400","64500","422","69587","","","","","","","","","","","","","","","","","","","","","","","","","","","","","","","","","","","","","","","","","","","","","","","","","","","","",""
"","iti_localizer","","html-keyboard-response","181","217383","0.0-2.0-61.0-1.0","33","17620","Female","null","","","","null","","59","","","217034","1","","","","","","300","64900","349","70009","300","","","","","","","","","","","","","","","","","","","","","","","","","","","","","","","","","","","","","","","","","","","","","","","","","","","",""
"","localizer","","html-keyboard-response","182","217888","0.0-2.0-62.0-0.0","33","17620","Female","NaN","","","","null","NaN","60","","Stimuli/Experimental_stims/localizer/body_parts/louis-hansel-FjKTMRTQYAs-unsplash.jpg","217383","1","body_parts","","0","1","0","400","65200","505","70358","","","","","","","","","","","","","","","","","","","","","","","","","","","","","","","","","","","","","","","","","","","","","","","","","","","","",""
"","iti_localizer","","html-keyboard-response","183","218204","0.0-2.0-62.0-1.0","33","17620","Female","null","","","","null","","60","","","217888","1","","","","","","300","65600","316","70863","300","","","","","","","","","","","","","","","","","","","","","","","","","","","","","","","","","","","","","","","","","","","","","","","","","","","",""
"","localizer","","html-keyboard-response","184","218620","0.0-2.0-63.0-0.0","33","17620","Female","369","","","","68","0","61","","Stimuli/Experimental_stims/localizer/body_parts/jonathan-borba-hTwH8QFkPMs-unsplash.jpg","218204","1","body_parts","","0","0","1","400","65900","416","71179","","","","","","","","","","","","","","","","","","","","","","","","","","","","","","","","","","","","","","","","","","","","","","","","","","","","",""
"","iti_localizer","","html-keyboard-response","185","218937","0.0-2.0-63.0-1.0","33","17620","Female","null","","","","null","","61","","","218620","1","","","","","","300","66300","317","71595","300","","","","","","","","","","","","","","","","","","","","","","","","","","","","","","","","","","","","","","","","","","","","","","","","","","","",""
"","localizer","","html-keyboard-response","186","219365","0.0-2.0-64.0-0.0","33","17620","Female","203","","","","68","0","62","","Stimuli/Experimental_stims/localizer/body_parts/hu-chen-tCbTGNwrFNM-unsplash.jpg","218937","1","body_parts","","0","0","1","400","66600","428","71912","","","","","","","","","","","","","","","","","","","","","","","","","","","","","","","","","","","","","","","","","","","","","","","","","","","","",""
"","iti_localizer","","html-keyboard-response","187","219689","0.0-2.0-64.0-1.0","33","17620","Female","null","","","","null","","62","","","219365","1","","","","","","300","67000","324","72340","300","","","","","","","","","","","","","","","","","","","","","","","","","","","","","","","","","","","","","","","","","","","","","","","","","","","",""
"","localizer","","html-keyboard-response","188","220162","0.0-2.0-65.0-0.0","33","17620","Female","NaN","","","","null","NaN","63","","Stimuli/Experimental_stims/localizer/body_parts/danie-franco-jyyNiSEcCl4-unsplash.jpg","219689","1","body_parts","","0","1","0","400","67300","473","72664","","","","","","","","","","","","","","","","","","","","","","","","","","","","","","","","","","","","","","","","","","","","","","","","","","","","",""
"","iti_localizer","","html-keyboard-response","189","220473","0.0-2.0-65.0-1.0","33","17620","Female","null","","","","null","","63","","","220162","1","","","","","","300","67700","311","73137","300","","","","","","","","","","","","","","","","","","","","","","","","","","","","","","","","","","","","","","","","","","","","","","","","","","","",""
"","localizer","","html-keyboard-response","190","220890","0.0-2.0-66.0-0.0","33","17620","Female","NaN","","","","null","NaN","64","","Stimuli/Experimental_stims/localizer/body_parts/natalie-grainger-8uB5kFKWWkk-unsplash.jpg","220473","1","body_parts","","0","1","0","400","68000","417","73448","","","","","","","","","","","","","","","","","","","","","","","","","","","","","","","","","","","","","","","","","","","","","","","","","","","","",""
"","iti_localizer","","html-keyboard-response","191","221211","0.0-2.0-66.0-1.0","33","17620","Female","null","","","","null","","64","","","220890","1","","","","","","300","68400","321","73865","300","","","","","","","","","","","","","","","","","","","","","","","","","","","","","","","","","","","","","","","","","","","","","","","","","","","",""
"","localizer","","html-keyboard-response","192","221652","0.0-2.0-67.0-0.0","33","17620","Female","NaN","","","","null","NaN","65","","Stimuli/Experimental_stims/localizer/body_parts/apostolos-vamvouras-g5wKHRu2QW0-unsplash.jpg","221211","1","body_parts","","0","1","0","400","68700","441","74186","","","","","","","","","","","","","","","","","","","","","","","","","","","","","","","","","","","","","","","","","","","","","","","","","","","","",""
"","iti_localizer","","html-keyboard-response","193","235754","0.0-2.0-67.0-1.0","33","17620","Female","null","","","","null","","65","","","221652","1","","","","","","14000","69100","14102","74627","14000","","","","","","","","","","","","","","","","","","","","","","","","","","","","","","","","","","","","","","","","","","","","","","","","","","","",""
"","localizer","","html-keyboard-response","194","236173","0.0-2.0-68.0-0.0","33","17620","Female","175","","","","68","0","66","","Stimuli/Experimental_stims/localizer/objects/quaritsch-photography-lZ8onQ1wuY8-unsplash.jpg","235754","1","objects","","1","0","0","400","83100","419","88729","","","","","","","","","","","","","","","","","","","","","","","","","","","","","","","","","","","","","","","","","","","","","","","","","","","","",""
"","iti_localizer","","html-keyboard-response","195","236486","0.0-2.0-68.0-1.0","33","17620","Female","null","","","","null","","66","","","236173","1","","","","","","300","83500","313","89148","300","","","","","","","","","","","","","","","","","","","","","","","","","","","","","","","","","","","","","","","","","","","","","","","","","","","",""
"","localizer","","html-keyboard-response","196","236919","0.0-2.0-69.0-0.0","33","17620","Female","0","","","","68","0","67","","Stimuli/Experimental_stims/localizer/objects/ana-9GmAaEMMKho-unsplash.jpg","236486","1","objects","","0","0","1","400","83800","433","89461","","","","","","","","","","","","","","","","","","","","","","","","","","","","","","","","","","","","","","","","","","","","","","","","","","","","",""
"","iti_localizer","","html-keyboard-response","197","237228","0.0-2.0-69.0-1.0","33","17620","Female","null","","","","null","","67","","","236919","1","","","","","","300","84200","309","89894","300","","","","","","","","","","","","","","","","","","","","","","","","","","","","","","","","","","","","","","","","","","","","","","","","","","","",""
"","localizer","","html-keyboard-response","198","237648","0.0-2.0-70.0-0.0","33","17620","Female","104","","","","68","0","68","","Stimuli/Experimental_stims/localizer/objects/nordwood-themes-nDd3dIkkOLo-unsplash.jpg","237228","1","objects","","0","0","1","400","84500","420","90203","","","","","","","","","","","","","","","","","","","","","","","","","","","","","","","","","","","","","","","","","","","","","","","","","","","","",""
"","iti_localizer","","html-keyboard-response","199","237972","0.0-2.0-70.0-1.0","33","17620","Female","null","","","","null","","68","","","237648","1","","","","","","300","84900","324","90623","300","","","","","","","","","","","","","","","","","","","","","","","","","","","","","","","","","","","","","","","","","","","","","","","","","","","",""
"","localizer","","html-keyboard-response","200","238391","0.0-2.0-71.0-0.0","33","17620","Female","1","","","","68","0","69","","Stimuli/Experimental_stims/localizer/objects/kelly-jean-cKjbI0Y00X0-unsplash.jpg","237972","1","objects","","0","0","1","400","85200","419","90947","","","","","","","","","","","","","","","","","","","","","","","","","","","","","","","","","","","","","","","","","","","","","","","","","","","","",""
"","iti_localizer","","html-keyboard-response","201","238719","0.0-2.0-71.0-1.0","33","17620","Female","null","","","","null","","69","","","238391","1","","","","","","300","85600","328","91366","300","","","","","","","","","","","","","","","","","","","","","","","","","","","","","","","","","","","","","","","","","","","","","","","","","","","",""
"","localizer","","html-keyboard-response","202","239146","0.0-2.0-72.0-0.0","33","17620","Female","NaN","","","","null","NaN","70","","Stimuli/Experimental_stims/localizer/objects/florian-klauer-nptLmg6jqDo-unsplash.jpg","238719","1","objects","","0","1","0","400","85900","427","91694","","","","","","","","","","","","","","","","","","","","","","","","","","","","","","","","","","","","","","","","","","","","","","","","","","","","",""
"","iti_localizer","","html-keyboard-response","203","239515","0.0-2.0-72.0-1.0","33","17620","Female","null","","","","null","","70","","","239146","1","","","","","","300","86300","369","92121","300","","","","","","","","","","","","","","","","","","","","","","","","","","","","","","","","","","","","","","","","","","","","","","","","","","","",""
"","localizer","","html-keyboard-response","204","239934","0.0-2.0-73.0-0.0","33","17620","Female","NaN","","","","null","NaN","71","","Stimuli/Experimental_stims/localizer/objects/nicolas-hippert-SVgX47QIUlc-unsplash.jpg","239515","1","objects","","0","1","0","400","86600","419","92490","","","","","","","","","","","","","","","","","","","","","","","","","","","","","","","","","","","","","","","","","","","","","","","","","","","","",""
"","iti_localizer","","html-keyboard-response","205","240258","0.0-2.0-73.0-1.0","33","17620","Female","null","","","","null","","71","","","239934","1","","","","","","300","87000","324","92909","300","","","","","","","","","","","","","","","","","","","","","","","","","","","","","","","","","","","","","","","","","","","","","","","","","","","",""
"","localizer","","html-keyboard-response","206","240704","0.0-2.0-74.0-0.0","33","17620","Female","155","","","","68","0","72","","Stimuli/Experimental_stims/localizer/objects/florian-klauer-mk7D-4UCfmg-unsplash.jpg","240258","1","objects","","0","0","1","400","87300","446","93233","","","","","","","","","","","","","","","","","","","","","","","","","","","","","","","","","","","","","","","","","","","","","","","","","","","","",""
"","iti_localizer","","html-keyboard-response","207","241030","0.0-2.0-74.0-1.0","33","17620","Female","null","","","","null","","72","","","240704","1","","","","","","300","87700","326","93679","300","","","","","","","","","","","","","","","","","","","","","","","","","","","","","","","","","","","","","","","","","","","","","","","","","","","",""
"","localizer","","html-keyboard-response","208","241443","0.0-2.0-75.0-0.0","33","17620","Female","94","","","","68","0","73","","Stimuli/Experimental_stims/localizer/objects/alex-lvrs-2zDw14yCYqk-unsplash.jpg","241030","1","objects","","0","0","1","400","88000","413","94005","","","","","","","","","","","","","","","","","","","","","","","","","","","","","","","","","","","","","","","","","","","","","","","","","","","","",""
"","iti_localizer","","html-keyboard-response","209","241758","0.0-2.0-75.0-1.0","33","17620","Female","null","","","","null","","73","","","241443","1","","","","","","300","88400","315","94418","300","","","","","","","","","","","","","","","","","","","","","","","","","","","","","","","","","","","","","","","","","","","","","","","","","","","",""
"","localizer","","html-keyboard-response","210","242316","0.0-2.0-76.0-0.0","33","17620","Female","55","","","","68","0","74","","Stimuli/Experimental_stims/localizer/objects/hipster-mum-XookgCxFw6Q-unsplash.jpg","241758","1","objects","","0","0","1","400","88700","558","94733","","","","","","","","","","","","","","","","","","","","","","","","","","","","","","","","","","","","","","","","","","","","","","","","","","","","",""
"","iti_localizer","","html-keyboard-response","211","242659","0.0-2.0-76.0-1.0","33","17620","Female","null","","","","null","","74","","","242316","1","","","","","","300","89100","343","95291","300","","","","","","","","","","","","","","","","","","","","","","","","","","","","","","","","","","","","","","","","","","","","","","","","","","","",""
"","localizer","","html-keyboard-response","212","243078","0.0-2.0-77.0-0.0","33","17620","Female","367","","","","68","0","75","","Stimuli/Experimental_stims/localizer/objects/ian-talmacs-ugqU0a4P18U-unsplash.jpg","242659","1","objects","","0","0","1","400","89400","419","95634","","","","","","","","","","","","","","","","","","","","","","","","","","","","","","","","","","","","","","","","","","","","","","","","","","","","",""
"","iti_localizer","","html-keyboard-response","213","243399","0.0-2.0-77.0-1.0","33","17620","Female","null","","","","null","","75","","","243078","1","","","","","","300","89800","321","96053","300","","","","","","","","","","","","","","","","","","","","","","","","","","","","","","","","","","","","","","","","","","","","","","","","","","","",""
"","localizer","","html-keyboard-response","214","243837","0.0-2.0-78.0-0.0","33","17620","Female","14","","","","68","0","76","","Stimuli/Experimental_stims/localizer/objects/chris-briggs-FobzAZJGM9M-unsplash.jpg","243399","1","objects","","0","0","1","400","90100","438","96374","","","","","","","","","","","","","","","","","","","","","","","","","","","","","","","","","","","","","","","","","","","","","","","","","","","","",""
"","iti_localizer","","html-keyboard-response","215","244174","0.0-2.0-78.0-1.0","33","17620","Female","null","","","","null","","76","","","243837","1","","","","","","300","90500","337","96812","300","","","","","","","","","","","","","","","","","","","","","","","","","","","","","","","","","","","","","","","","","","","","","","","","","","","",""
"","localizer","","html-keyboard-response","216","244655","0.0-2.0-79.0-0.0","33","17620","Female","33","","","","68","0","77","","Stimuli/Experimental_stims/localizer/objects/recha-oktaviani-t__61ap00Mc-unsplash.jpg","244174","1","objects","","0","0","1","400","90800","481","97149","","","","","","","","","","","","","","","","","","","","","","","","","","","","","","","","","","","","","","","","","","","","","","","","","","","","",""
"","iti_localizer","","html-keyboard-response","217","244965","0.0-2.0-79.0-1.0","33","17620","Female","null","","","","null","","77","","","244655","1","","","","","","300","91200","310","97630","300","","","","","","","","","","","","","","","","","","","","","","","","","","","","","","","","","","","","","","","","","","","","","","","","","","","",""
"","localizer","","html-keyboard-response","218","245413","0.0-2.0-80.0-0.0","33","17620","Female","126","","","","68","0","78","","Stimuli/Experimental_stims/localizer/objects/jonny-caspari-wsvCC6UyKjs-unsplash.jpg","244965","1","objects","","0","0","1","400","91500","448","97940","","","","","","","","","","","","","","","","","","","","","","","","","","","","","","","","","","","","","","","","","","","","","","","","","","","","",""
"","iti_localizer","","html-keyboard-response","219","245800","0.0-2.0-80.0-1.0","33","17620","Female","null","","","","null","","78","","","245413","1","","","","","","300","91900","387","98388","300","","","","","","","","","","","","","","","","","","","","","","","","","","","","","","","","","","","","","","","","","","","","","","","","","","","",""
"","localizer","","html-keyboard-response","220","246239","0.0-2.0-81.0-0.0","33","17620","Female","82","","","","68","0","79","","Stimuli/Experimental_stims/localizer/objects/markus-spiske-ANrVtttbNss-unsplash.jpg","245800","1","objects","","0","0","1","400","92200","439","98775","","","","","","","","","","","","","","","","","","","","","","","","","","","","","","","","","","","","","","","","","","","","","","","","","","","","",""
"","iti_localizer","","html-keyboard-response","221","246554","0.0-2.0-81.0-1.0","33","17620","Female","null","","","","null","","79","","","246239","1","","","","","","300","92600","315","99214","300","","","","","","","","","","","","","","","","","","","","","","","","","","","","","","","","","","","","","","","","","","","","","","","","","","","",""
"","localizer","","html-keyboard-response","222","246967","0.0-2.0-82.0-0.0","33","17620","Female","54","","","","68","0","80","","Stimuli/Experimental_stims/localizer/objects/ignat-dolomanov-kFBDVnmskPA-unsplash.jpg","246554","1","objects","","0","0","1","400","92900","413","99529","","","","","","","","","","","","","","","","","","","","","","","","","","","","","","","","","","","","","","","","","","","","","","","","","","","","",""
"","iti_localizer","","html-keyboard-response","223","247338","0.0-2.0-82.0-1.0","33","17620","Female","null","","","","null","","80","","","246967","1","","","","","","300","93300","371","99942","300","","","","","","","","","","","","","","","","","","","","","","","","","","","","","","","","","","","","","","","","","","","","","","","","","","","",""
"","localizer","","html-keyboard-response","224","247786","0.0-2.0-83.0-0.0","33","17620","Female","126","","","","68","0","81","","Stimuli/Experimental_stims/localizer/objects/mockup-graphics-Pj2PY-E-LfM-unsplash.jpg","247338","1","objects","","0","0","1","400","93600","448","100313","","","","","","","","","","","","","","","","","","","","","","","","","","","","","","","","","","","","","","","","","","","","","","","","","","","","",""
"","iti_localizer","","html-keyboard-response","225","248105","0.0-2.0-83.0-1.0","33","17620","Female","null","","","","null","","81","","","247786","1","","","","","","300","94000","319","100761","300","","","","","","","","","","","","","","","","","","","","","","","","","","","","","","","","","","","","","","","","","","","","","","","","","","","",""
"","localizer","","html-keyboard-response","226","248515","0.0-2.0-84.0-0.0","33","17620","Female","294","","","","68","0","82","","Stimuli/Experimental_stims/localizer/objects/lance-reis-v0FYj9iioQg-unsplash.jpg","248105","1","objects","","0","0","1","400","94300","410","101080","","","","","","","","","","","","","","","","","","","","","","","","","","","","","","","","","","","","","","","","","","","","","","","","","","","","",""
"","iti_localizer","","html-keyboard-response","227","248828","0.0-2.0-84.0-1.0","33","17620","Female","null","","","","null","","82","","","248515","1","","","","","","300","94700","313","101490","300","","","","","","","","","","","","","","","","","","","","","","","","","","","","","","","","","","","","","","","","","","","","","","","","","","","",""
"","localizer","","html-keyboard-response","228","249357","0.0-2.0-85.0-0.0","33","17620","Female","138","","","","68","0","83","","Stimuli/Experimental_stims/localizer/objects/mockup-graphics-U6ZMEefFGx8-unsplash.jpg","248828","1","objects","","0","0","1","400","95000","529","101803","","","","","","","","","","","","","","","","","","","","","","","","","","","","","","","","","","","","","","","","","","","","","","","","","","","","",""
"","iti_localizer","","html-keyboard-response","229","250062","0.0-2.0-85.0-1.0","33","17620","Female","null","","","","null","","83","","","249357","1","","","","","","300","95400","705","102332","300","","","","","","","","","","","","","","","","","","","","","","","","","","","","","","","","","","","","","","","","","","","","","","","","","","","",""
"","localizer","","html-keyboard-response","230","250492","0.0-2.0-86.0-0.0","33","17620","Female","NaN","","","","null","NaN","84","","Stimuli/Experimental_stims/localizer/objects/engin-akyurt-bbbKzTmY2Gg-unsplash.jpg","250062","1","objects","","1","1","0","400","95700","430","103037","","","","","","","","","","","","","","","","","","","","","","","","","","","","","","","","","","","","","","","","","","","","","","","","","","","","",""
"","iti_localizer","","html-keyboard-response","231","250886","0.0-2.0-86.0-1.0","33","17620","Female","null","","","","null","","84","","","250492","1","","","","","","300","96100","394","103467","300","","","","","","","","","","","","","","","","","","","","","","","","","","","","","","","","","","","","","","","","","","","","","","","","","","","",""
"","localizer","","html-keyboard-response","232","251315","0.0-2.0-87.0-0.0","33","17620","Female","83","","","","68","0","85","","Stimuli/Experimental_stims/localizer/objects/eugene-chystiakov-3neSwyntbQ8-unsplash.jpg","250886","1","objects","","0","0","1","400","96400","429","103861","","","","","","","","","","","","","","","","","","","","","","","","","","","","","","","","","","","","","","","","","","","","","","","","","","","","",""
"","iti_localizer","","html-keyboard-response","233","265338","0.0-2.0-87.0-1.0","33","17620","Female","null","","","","null","","85","","","251315","1","","","","","","14000","96800","14023","104290","14000","","","","","","","","","","","","","","","","","","","","","","","","","","","","","","","","","","","","","","","","","","","","","","","","","","","",""
"","localizer","","html-keyboard-response","234","265760","0.0-2.0-88.0-0.0","33","17620","Female","NaN","","","","null","NaN","86","","Stimuli/Experimental_stims/localizer/body_parts/bady-abbas-N-VEeMnm7gE-unsplash.jpg","265338","1","body_parts","","0","1","0","400","110800","422","118313","","","","","","","","","","","","","","","","","","","","","","","","","","","","","","","","","","","","","","","","","","","","","","","","","","","","",""
"","iti_localizer","","html-keyboard-response","235","266078","0.0-2.0-88.0-1.0","33","17620","Female","null","","","","null","","86","","","265760","1","","","","","","300","111200","318","118735","300","","","","","","","","","","","","","","","","","","","","","","","","","","","","","","","","","","","","","","","","","","","","","","","","","","","",""
"","localizer","","html-keyboard-response","236","266514","0.0-2.0-89.0-0.0","33","17620","Female","NaN","","","","null","NaN","87","","Stimuli/Experimental_stims/localizer/body_parts/sincerely-media-QyzlAZjm0r0-unsplash.jpg","266078","1","body_parts","","1","1","0","400","111500","436","119053","","","","","","","","","","","","","","","","","","","","","","","","","","","","","","","","","","","","","","","","","","","","","","","","","","","","",""
"","iti_localizer","","html-keyboard-response","237","266834","0.0-2.0-89.0-1.0","33","17620","Female","null","","","","null","","87","","","266514","1","","","","","","300","111900","320","119489","300","","","","","","","","","","","","","","","","","","","","","","","","","","","","","","","","","","","","","","","","","","","","","","","","","","","",""
"","localizer","","html-keyboard-response","238","267252","0.0-2.0-90.0-0.0","33","17620","Female","NaN","","","","null","NaN","88","","Stimuli/Experimental_stims/localizer/body_parts/jeremy-yap-TfJEi17kA0w-unsplash.jpg","266834","1","body_parts","","0","1","0","400","112200","418","119809","","","","","","","","","","","","","","","","","","","","","","","","","","","","","","","","","","","","","","","","","","","","","","","","","","","","",""
"","iti_localizer","","html-keyboard-response","239","267571","0.0-2.0-90.0-1.0","33","17620","Female","null","","","","null","","88","","","267252","1","","","","","","300","112600","319","120227","300","","","","","","","","","","","","","","","","","","","","","","","","","","","","","","","","","","","","","","","","","","","","","","","","","","","",""
"","localizer","","html-keyboard-response","240","267982","0.0-2.0-91.0-0.0","33","17620","Female","NaN","","","","null","NaN","89","","Stimuli/Experimental_stims/localizer/body_parts/matheus-frade-eyzdb1C3JDM-unsplash.jpg","267571","1","body_parts","","0","1","0","400","112900","411","120546","","","","","","","","","","","","","","","","","","","","","","","","","","","","","","","","","","","","","","","","","","","","","","","","","","","","",""
"","iti_localizer","","html-keyboard-response","241","268308","0.0-2.0-91.0-1.0","33","17620","Female","null","","","","null","","89","","","267982","1","","","","","","300","113300","326","120957","300","","","","","","","","","","","","","","","","","","","","","","","","","","","","","","","","","","","","","","","","","","","","","","","","","","","",""
"","localizer","","html-keyboard-response","242","268729","0.0-2.0-92.0-0.0","33","17620","Female","NaN","","","","null","NaN","90","","Stimuli/Experimental_stims/localizer/body_parts/priscilla-du-preez-e6fcNpur53A-unsplash.jpg","268308","1","body_parts","","0","1","0","400","113600","421","121283","","","","","","","","","","","","","","","","","","","","","","","","","","","","","","","","","","","","","","","","","","","","","","","","","","","","",""
"","iti_localizer","","html-keyboard-response","243","269042","0.0-2.0-92.0-1.0","33","17620","Female","null","","","","null","","90","","","268729","1","","","","","","300","114000","313","121704","300","","","","","","","","","","","","","","","","","","","","","","","","","","","","","","","","","","","","","","","","","","","","","","","","","","","",""
"","localizer","","html-keyboard-response","244","269460","0.0-2.0-93.0-0.0","33","17620","Female","NaN","","","","null","NaN","91","","Stimuli/Experimental_stims/localizer/body_parts/nihal-karkala-LlOfbQD-IJ0-unsplash.jpg","269042","1","body_parts","","0","1","0","400","114300","418","122017","","","","","","","","","","","","","","","","","","","","","","","","","","","","","","","","","","","","","","","","","","","","","","","","","","","","",""
"","iti_localizer","","html-keyboard-response","245","269775","0.0-2.0-93.0-1.0","33","17620","Female","null","","","","null","","91","","","269460","1","","","","","","300","114700","315","122435","300","","","","","","","","","","","","","","","","","","","","","","","","","","","","","","","","","","","","","","","","","","","","","","","","","","","",""
"","localizer","","html-keyboard-response","246","270193","0.0-2.0-94.0-0.0","33","17620","Female","NaN","","","","null","NaN","92","","Stimuli/Experimental_stims/localizer/body_parts/niu-niu-5HzOtV-FSlw-unsplash.jpg","269775","1","body_parts","","0","1","0","400","115000","418","122750","","","","","","","","","","","","","","","","","","","","","","","","","","","","","","","","","","","","","","","","","","","","","","","","","","","","",""
"","iti_localizer","","html-keyboard-response","247","270512","0.0-2.0-94.0-1.0","33","17620","Female","null","","","","null","","92","","","270193","1","","","","","","300","115400","319","123168","300","","","","","","","","","","","","","","","","","","","","","","","","","","","","","","","","","","","","","","","","","","","","","","","","","","","",""
