"success","ttype","start_time","trial_type","trial_index","time_elapsed","internal_node_id","age","PID","gender","rt","responses","view_history","repeat_instructions","key_press","response","index","stimulus_index","path","start_time_elapsed","run","task","isi","is_odd_ball","no_response","acc","duration","onset","duration_time_elapsed","onset_time_elapsed","trial_duration","missed_checkup","left_chosen","chosen_stimulus","unchosen_stimulus","chosen_category","unchosen_category","chosen_rating","unchosen_rating","chosen_path","unchosen_path","pair_id","practice","scramble_screen_time","scramble_instructed_side","stim_type","iti","block","left_stimulus","right_stimulus","left_category","right_category","left_path","right_path","left_rating","right_rating","warning","scramble_acc","scramble_no_response","stimulus_id","item_id","outcome","response_rt","deliberation_reward_tally"
"true","full_screen","d08172023hr1453","fullscreen","0","4302","0.0-0.0-0.0","24","65907","female","","","","","","","","","","","","","","","","","","","","","","","","","","","","","","","","","","","","","","","","","","","","","","","","","","","","","",""
"","get_id","","survey-text","1","11536","0.0-0.0-1.0","24","65907","female","7229","{""Q0"":""24"",""Q1"":""female""}","","","","","","","","","","","","","","","","","","","","","","","","","","","","","","","","","","","","","","","","","","","","","","","","","","","",""
"","ratings_instructions","","instructions","2","21739","0.0-1.0-0.0-0.0","24","65907","female","8679","","[{""page_index"":0,""viewing_time"":5647},{""page_index"":1,""viewing_time"":3032}]","","","","","","","","","","","","","","","","","","","","","","","","","","","","","","","","","","","","","","","","","","","","","","","","","","",""
"","rating_comprehension_check","","survey-multi-choice","3","27906","0.0-1.0-0.0-1.0","24","65907","female","6160","{""Q0"":""True"",""Q1"":""Mouse""}","","0","","","","","","","","","","","","","","","","","","","","","","","","","","","","","","","","","","","","","","","","","","","","","","","","","",""
"","","","html-keyboard-response","4","37549","0.0-1.0-1.0","24","65907","female","9638","","","","68","","","","","","","","","","","","","","","","","","","","","","","","","","","","","","","","","","","","","","","","","","","","","","","","",""
"","rating","","html-slider-response","5","45092","0.0-1.0-2.0","24","65907","female","7536","","","","","81","0","23","Stimuli/Experimental_stims/faces/rikonavt-HQjfrvdTfak-unsplash.jpg","","","","","","","","","","","","","","","","","","","","","","","","","","","","","","","","","","","","","","","","","","","","",""
"","rating","","html-slider-response","6","48228","0.0-1.0-3.0","24","65907","female","3130","","","","","72","1","17","Stimuli/Experimental_stims/faces/good-faces-xmSWVeGEnJw-unsplash.jpg","","","","","","","","","","","","","","","","","","","","","","","","","","","","","","","","","","","","","","","","","","","","",""
"","rating","","html-slider-response","7","51834","0.0-1.0-4.0","24","65907","female","3602","","","","","81","2","10","Stimuli/Experimental_stims/outdoor_scenes/shannon-kunkle-dM8INmkyDas-unsplash.jpg","","","","","","","","","","","","","","","","","","","","","","","","","","","","","","","","","","","","","","","","","","","","",""
"","rating","","html-slider-response","8","55059","0.0-1.0-5.0","24","65907","female","3219","","","","","61","3","37","Stimuli/Experimental_stims/objects/alexander-andrews-VLGWE_SumrA-unsplash.jpg","","","","","","","","","","","","","","","","","","","","","","","","","","","","","","","","","","","","","","","","","","","","",""
"","rating","","html-slider-response","9","57873","0.0-1.0-6.0","24","65907","female","2808","","","","","65","4","12","Stimuli/Experimental_stims/faces/aiony-haust-jmATI5Q_YgY-unsplash.jpg","","","","","","","","","","","","","","","","","","","","","","","","","","","","","","","","","","","","","","","","","","","","",""
"","rating","","html-slider-response","10","60577","0.0-1.0-7.0","24","65907","female","2700","","","","","74","5","13","Stimuli/Experimental_stims/faces/daniel-rigdon-dXmXKPP2L4E-unsplash.jpg","","","","","","","","","","","","","","","","","","","","","","","","","","","","","","","","","","","","","","","","","","","","",""
"","rating","","html-slider-response","11","63379","0.0-1.0-8.0","24","65907","female","2797","","","","","74","6","46","Stimuli/Experimental_stims/objects/mockup-graphics-PNsj6RiHAF4-unsplash.jpg","","","","","","","","","","","","","","","","","","","","","","","","","","","","","","","","","","","","","","","","","","","","",""
"","rating","","html-slider-response","12","66555","0.0-1.0-9.0","24","65907","female","3171","","","","","68","7","0","Stimuli/Experimental_stims/outdoor_scenes/aleksandra-boguslawska-MS7KD9Ti7FQ-unsplash.jpg","","","","","","","","","","","","","","","","","","","","","","","","","","","","","","","","","","","","","","","","","","","","",""
"","rating","","html-slider-response","13","69889","0.0-1.0-10.0","24","65907","female","3328","","","","","31","8","42","Stimuli/Experimental_stims/objects/jess-bailey-nOeVi8DsN8U-unsplash.jpg","","","","","","","","","","","","","","","","","","","","","","","","","","","","","","","","","","","","","","","","","","","","",""
"","rating","","html-slider-response","14","73405","0.0-1.0-11.0","24","65907","female","3510","","","","","96","9","29","Stimuli/Experimental_stims/body_parts/manuel-schinner-ZwjFuJ7ebpk-unsplash.jpg","","","","","","","","","","","","","","","","","","","","","","","","","","","","","","","","","","","","","","","","","","","","",""
"","rating","","html-slider-response","15","77344","0.0-1.0-12.0","24","65907","female","3934","","","","","37","10","45","Stimuli/Experimental_stims/objects/leohoho-rngTKHXumy0-unsplash.jpg","","","","","","","","","","","","","","","","","","","","","","","","","","","","","","","","","","","","","","","","","","","","",""
"","rating","","html-slider-response","16","81690","0.0-1.0-13.0","24","65907","female","4341","","","","","32","11","16","Stimuli/Experimental_stims/faces/freddy-kearney-o-ioeoATbIM-unsplash.jpg","","","","","","","","","","","","","","","","","","","","","","","","","","","","","","","","","","","","","","","","","","","","",""
"","rating","","html-slider-response","17","85434","0.0-1.0-14.0","24","65907","female","3738","","","","","31","12","35","Stimuli/Experimental_stims/body_parts/wc-so-KH4AAPjb-tI-unsplash.jpg","","","","","","","","","","","","","","","","","","","","","","","","","","","","","","","","","","","","","","","","","","","","",""
"","rating","","html-slider-response","18","88801","0.0-1.0-15.0","24","65907","female","3362","","","","","29","13","8","Stimuli/Experimental_stims/outdoor_scenes/samsommer-vddccTqwal8-unsplash.jpg","","","","","","","","","","","","","","","","","","","","","","","","","","","","","","","","","","","","","","","","","","","","",""
"","rating","","html-slider-response","19","92810","0.0-1.0-16.0","24","65907","female","4004","","","","","42","14","18","Stimuli/Experimental_stims/faces/jessica-radanavong-mrYkTuAesKE-unsplash.jpg","","","","","","","","","","","","","","","","","","","","","","","","","","","","","","","","","","","","","","","","","","","","",""
"","rating","","html-slider-response","20","96975","0.0-1.0-17.0","24","65907","female","4161","","","","","66","15","6","Stimuli/Experimental_stims/outdoor_scenes/meng-ji-8BH_M-53CyA-unsplash.jpg","","","","","","","","","","","","","","","","","","","","","","","","","","","","","","","","","","","","","","","","","","","","",""
"","rating","","html-slider-response","21","102677","0.0-1.0-18.0","24","65907","female","5694","","","","","74","16","2","Stimuli/Experimental_stims/outdoor_scenes/bruno-van-der-kraan-qez8mNJ3ilU-unsplash.jpg","","","","","","","","","","","","","","","","","","","","","","","","","","","","","","","","","","","","","","","","","","","","",""
"","rating","","html-slider-response","22","107715","0.0-1.0-19.0","24","65907","female","5034","","","","","93","17","33","Stimuli/Experimental_stims/body_parts/tucker-good-36skLT5jZcc-unsplash.jpg","","","","","","","","","","","","","","","","","","","","","","","","","","","","","","","","","","","","","","","","","","","","",""
"","rating","","html-slider-response","23","111314","0.0-1.0-20.0","24","65907","female","3593","","","","","27","18","25","Stimuli/Experimental_stims/body_parts/engin-akyurt-Q2rfH3GW39c-unsplash.jpg","","","","","","","","","","","","","","","","","","","","","","","","","","","","","","","","","","","","","","","","","","","","",""
"","rating","","html-slider-response","24","116053","0.0-1.0-21.0","24","65907","female","4734","","","","","38","19","4","Stimuli/Experimental_stims/outdoor_scenes/jarrett-kow-1ZOyYPOBn7I-unsplash.jpg","","","","","","","","","","","","","","","","","","","","","","","","","","","","","","","","","","","","","","","","","","","","",""
"","rating","","html-slider-response","25","119412","0.0-1.0-22.0","24","65907","female","3353","","","","","61","20","11","Stimuli/Experimental_stims/outdoor_scenes/stephen-leonardi-gyIRjKPXupE-unsplash.jpg","","","","","","","","","","","","","","","","","","","","","","","","","","","","","","","","","","","","","","","","","","","","",""
"","rating","","html-slider-response","26","122482","0.0-1.0-23.0","24","65907","female","3065","","","","","39","21","47","Stimuli/Experimental_stims/objects/ronaldo-arthur-vidal-Cdz_lvnl37k-unsplash.jpg","","","","","","","","","","","","","","","","","","","","","","","","","","","","","","","","","","","","","","","","","","","","",""
"","rating","","html-slider-response","27","128659","0.0-1.0-24.0","24","65907","female","6171","","","","","31","22","39","Stimuli/Experimental_stims/objects/charlesdeluvio-1-nx1QR5dTE-unsplash.jpg","","","","","","","","","","","","","","","","","","","","","","","","","","","","","","","","","","","","","","","","","","","","",""
"","rating","","html-slider-response","28","132017","0.0-1.0-25.0","24","65907","female","3353","","","","","64","23","3","Stimuli/Experimental_stims/outdoor_scenes/henry-be-NLF6hTe4PAg-unsplash.jpg","","","","","","","","","","","","","","","","","","","","","","","","","","","","","","","","","","","","","","","","","","","","",""
"","rating","","html-slider-response","29","136692","0.0-1.0-26.0","24","65907","female","4669","","","","","27","24","34","Stimuli/Experimental_stims/body_parts/wagner-santos-mBWMvIuVnso-unsplash.jpg","","","","","","","","","","","","","","","","","","","","","","","","","","","","","","","","","","","","","","","","","","","","",""
"","rating","","html-slider-response","30","139883","0.0-1.0-27.0","24","65907","female","3186","","","","","76","25","27","Stimuli/Experimental_stims/body_parts/heike-mintel-i_Gns0ELnLw-unsplash.jpg","","","","","","","","","","","","","","","","","","","","","","","","","","","","","","","","","","","","","","","","","","","","",""
"","rating","","html-slider-response","31","143028","0.0-1.0-28.0","24","65907","female","3139","","","","","37","26","43","Stimuli/Experimental_stims/objects/jonathan-greenaway-Y4hGgeiFn3s-unsplash.jpg","","","","","","","","","","","","","","","","","","","","","","","","","","","","","","","","","","","","","","","","","","","","",""
"","rating","","html-slider-response","32","147667","0.0-1.0-29.0","24","65907","female","4634","","","","","67","27","40","Stimuli/Experimental_stims/objects/fabian-blank-pElSkGRA2NU-unsplash.jpg","","","","","","","","","","","","","","","","","","","","","","","","","","","","","","","","","","","","","","","","","","","","",""
"","rating","","html-slider-response","33","150642","0.0-1.0-30.0","24","65907","female","2972","","","","","44","28","38","Stimuli/Experimental_stims/objects/art-lasovsky-8XddFc6NkBY-unsplash.jpg","","","","","","","","","","","","","","","","","","","","","","","","","","","","","","","","","","","","","","","","","","","","",""
"","rating","","html-slider-response","34","153882","0.0-1.0-31.0","24","65907","female","3234","","","","","38","29","9","Stimuli/Experimental_stims/outdoor_scenes/sergey-pesterev-y-b_FOmJXdg-unsplash.jpg","","","","","","","","","","","","","","","","","","","","","","","","","","","","","","","","","","","","","","","","","","","","",""
"","rating","","html-slider-response","35","157497","0.0-1.0-32.0","24","65907","female","3610","","","","","69","30","19","Stimuli/Experimental_stims/faces/joel-mott-LaK153ghdig-unsplash.jpg","","","","","","","","","","","","","","","","","","","","","","","","","","","","","","","","","","","","","","","","","","","","",""
"","rating","","html-slider-response","36","160725","0.0-1.0-33.0","24","65907","female","3222","","","","","57","31","24","Stimuli/Experimental_stims/body_parts/clay-banks-LjqARJaJotc-unsplash.jpg","","","","","","","","","","","","","","","","","","","","","","","","","","","","","","","","","","","","","","","","","","","","",""
"","rating","","html-slider-response","37","163075","0.0-1.0-34.0","24","65907","female","2344","","","","","80","32","14","Stimuli/Experimental_stims/faces/david-siglin-UuW4psOb388-unsplash.jpg","","","","","","","","","","","","","","","","","","","","","","","","","","","","","","","","","","","","","","","","","","","","",""
"","rating","","html-slider-response","38","165185","0.0-1.0-35.0","24","65907","female","2102","","","","","59","33","44","Stimuli/Experimental_stims/objects/kuiye-chen-NuOGFo4PudE-unsplash.jpg","","","","","","","","","","","","","","","","","","","","","","","","","","","","","","","","","","","","","","","","","","","","",""
"","rating","","html-slider-response","39","167363","0.0-1.0-36.0","24","65907","female","2174","","","","","37","34","15","Stimuli/Experimental_stims/faces/erik-lucatero-d2MSDujJl2g-unsplash.jpg","","","","","","","","","","","","","","","","","","","","","","","","","","","","","","","","","","","","","","","","","","","","",""
"","rating","","html-slider-response","40","170181","0.0-1.0-37.0","24","65907","female","2813","","","","","30","35","1","Stimuli/Experimental_stims/outdoor_scenes/ashim-d-silva-S2Q5mdOrrVc-unsplash.jpg","","","","","","","","","","","","","","","","","","","","","","","","","","","","","","","","","","","","","","","","","","","","",""
"","rating","","html-slider-response","41","172918","0.0-1.0-38.0","24","65907","female","2728","","","","","42","36","22","Stimuli/Experimental_stims/faces/ravi-patel-VMGAbeeJTKo-unsplash.jpg","","","","","","","","","","","","","","","","","","","","","","","","","","","","","","","","","","","","","","","","","","","","",""
"","rating","","html-slider-response","42","175803","0.0-1.0-39.0","24","65907","female","2879","","","","","38","37","26","Stimuli/Experimental_stims/body_parts/engin-akyurt-x_3gyC42btc-unsplash.jpg","","","","","","","","","","","","","","","","","","","","","","","","","","","","","","","","","","","","","","","","","","","","",""
"","rating","","html-slider-response","43","179105","0.0-1.0-40.0","24","65907","female","3293","","","","","35","38","31","Stimuli/Experimental_stims/body_parts/sincerely-media-VN6DbKajo5s-unsplash.jpg","","","","","","","","","","","","","","","","","","","","","","","","","","","","","","","","","","","","","","","","","","","","",""
"","rating","","html-slider-response","44","182371","0.0-1.0-41.0","24","65907","female","3260","","","","","34","39","36","Stimuli/Experimental_stims/objects/alexander-andrews-JYGnB9gTCls-unsplash.jpg","","","","","","","","","","","","","","","","","","","","","","","","","","","","","","","","","","","","","","","","","","","","",""
"","rating","","html-slider-response","45","185293","0.0-1.0-42.0","24","65907","female","2917","","","","","39","40","28","Stimuli/Experimental_stims/body_parts/ira-vishnevskaya-8DQAvdCby1I-unsplash.jpg","","","","","","","","","","","","","","","","","","","","","","","","","","","","","","","","","","","","","","","","","","","","",""
"","rating","","html-slider-response","46","189025","0.0-1.0-43.0","24","65907","female","3725","","","","","61","41","20","Stimuli/Experimental_stims/faces/justin-chen-J7Cf1Gch49E-unsplash.jpg","","","","","","","","","","","","","","","","","","","","","","","","","","","","","","","","","","","","","","","","","","","","",""
"","rating","","html-slider-response","47","192356","0.0-1.0-44.0","24","65907","female","3327","","","","","72","42","41","Stimuli/Experimental_stims/objects/insung-yoon-w2JtIQQXoRU-unsplash.jpg","","","","","","","","","","","","","","","","","","","","","","","","","","","","","","","","","","","","","","","","","","","","",""
"","rating","","html-slider-response","48","195605","0.0-1.0-45.0","24","65907","female","3244","","","","","66","43","7","Stimuli/Experimental_stims/outdoor_scenes/petr-vysohlid-9fqwGqGLUxc-unsplash.jpg","","","","","","","","","","","","","","","","","","","","","","","","","","","","","","","","","","","","","","","","","","","","",""
"","rating","","html-slider-response","49","198883","0.0-1.0-46.0","24","65907","female","3274","","","","","76","44","5","Stimuli/Experimental_stims/outdoor_scenes/jeff-king-bJHWJeiHfHc-unsplash.jpg","","","","","","","","","","","","","","","","","","","","","","","","","","","","","","","","","","","","","","","","","","","","",""
"","rating","","html-slider-response","50","202067","0.0-1.0-47.0","24","65907","female","3178","","","","","38","45","30","Stimuli/Experimental_stims/body_parts/mika-korhonen-Xodzxosar18-unsplash.jpg","","","","","","","","","","","","","","","","","","","","","","","","","","","","","","","","","","","","","","","","","","","","",""
"","rating","","html-slider-response","51","204892","0.0-1.0-48.0","24","65907","female","2821","","","","","38","46","32","Stimuli/Experimental_stims/body_parts/towfiqu-barbhuiya-3AsiVDsZnHg-unsplash.jpg","","","","","","","","","","","","","","","","","","","","","","","","","","","","","","","","","","","","","","","","","","","","",""
"","rating","","html-slider-response","52","207668","0.0-1.0-49.0","24","65907","female","2771","","","","","40","47","21","Stimuli/Experimental_stims/faces/leilani-angel-K84vnnzxmTQ-unsplash.jpg","","","","","","","","","","","","","","","","","","","","","","","","","","","","","","","","","","","","","","","","","","","","",""
"","localizer_instructions","","instructions","53","257071","0.0-2.0-0.0-0.0","24","65907","female","49356","","[{""page_index"":0,""viewing_time"":20753},{""page_index"":1,""viewing_time"":11081},{""page_index"":2,""viewing_time"":17522}]","","","","","","","","","","","","","","","","","","","","","","","","","","","","","","","","","","","","","","","","","","","","","","","","","","",""
"","localizer_comprehension_check","","survey-multi-choice","54","273839","0.0-2.0-0.0-1.0","24","65907","female","16760","{""Q0"":""True"",""Q1"":""K"",""Q2"":""D""}","","0","","","","","","","","","","","","","","","","","","","","","","","","","","","","","","","","","","","","","","","","","","","","","","","","","",""
"","","","html-keyboard-response","55","277425","0.0-2.0-1.0","24","65907","female","3581","","","","68","","","","","","","","","","","","","","","","","","","","","","","","","","","","","","","","","","","","","","","","","","","","","","","","",""
"","localizer","","html-keyboard-response","56","277830","0.0-2.0-2.0-0.0","24","65907","female","NaN","","","","null","NaN","0","","Stimuli/Practice_stims/Localizer/annie-spratt-g9KFpAfQ5bc-unsplash.jpg","277425","0","NaN","","0","1","0","400","0","405","0","","","","","","","","","","","","","","","","","","","","","","","","","","","","","","","","","",""
"","iti_localizer","","html-keyboard-response","57","278141","0.0-2.0-2.0-1.0","24","65907","female","null","","","","null","","0","","","277830","0","","","","","","300","400","311","405","300","","","","","","","","","","","","","","","","","","","","","","","","","","","","","","","","",""
"","localizer","","html-keyboard-response","58","278549","0.0-2.0-2.1-0.1","24","65907","female","NaN","","","","null","NaN","0","","Stimuli/Practice_stims/Localizer/annie-spratt-g9KFpAfQ5bc-unsplash.jpg","278141","0","NaN","","0","1","0","400","700","408","716","","","","","","","","","","","","","","","","","","","","","","","","","","","","","","","","","",""
"","iti_localizer","","html-keyboard-response","59","278854","0.0-2.0-2.1-1.1","24","65907","female","null","","","","null","","0","","","278549","0","","","","","","300","1100","305","1124","300","","","","","","","","","","","","","","","","","","","","","","","","","","","","","","","","",""
"","localizer","","html-keyboard-response","60","279259","0.0-2.0-2.2-0.2","24","65907","female","NaN","","","","null","NaN","0","","Stimuli/Practice_stims/Localizer/annie-spratt-g9KFpAfQ5bc-unsplash.jpg","278854","0","NaN","","0","1","0","400","1400","405","1429","","","","","","","","","","","","","","","","","","","","","","","","","","","","","","","","","",""
"","iti_localizer","","html-keyboard-response","61","279564","0.0-2.0-2.2-1.2","24","65907","female","null","","","","null","","0","","","279259","0","","","","","","300","1800","305","1834","300","","","","","","","","","","","","","","","","","","","","","","","","","","","","","","","","",""
"","localizer","","html-keyboard-response","62","279970","0.0-2.0-2.3-0.3","24","65907","female","NaN","","","","null","NaN","0","","Stimuli/Practice_stims/Localizer/annie-spratt-g9KFpAfQ5bc-unsplash.jpg","279564","0","NaN","","0","1","0","400","2100","406","2139","","","","","","","","","","","","","","","","","","","","","","","","","","","","","","","","","",""
"","iti_localizer","","html-keyboard-response","63","280275","0.0-2.0-2.3-1.3","24","65907","female","null","","","","null","","0","","","279970","0","","","","","","300","2500","305","2545","300","","","","","","","","","","","","","","","","","","","","","","","","","","","","","","","","",""
"","localizer","","html-keyboard-response","64","280681","0.0-2.0-2.4-0.4","24","65907","female","17","","","","68","0","0","","Stimuli/Practice_stims/Localizer/annie-spratt-g9KFpAfQ5bc-unsplash.jpg","280275","0","NaN","","0","0","1","400","2800","406","2850","","","","","","","","","","","","","","","","","","","","","","","","","","","","","","","","","",""
"","iti_localizer","","html-keyboard-response","65","280987","0.0-2.0-2.4-1.4","24","65907","female","null","","","","null","","0","","","280681","0","","","","","","300","3200","306","3256","300","","","","","","","","","","","","","","","","","","","","","","","","","","","","","","","","",""
"","localizer","","html-keyboard-response","66","281394","0.0-2.0-3.0-0.0","24","65907","female","266","","","","68","0","1","","Stimuli/Practice_stims/Localizer/becca-tapert-sY5RjMB1KkE-unsplash.jpg","280987","0","NaN","","0","0","1","400","3500","407","3562","","","","","","","","","","","","","","","","","","","","","","","","","","","","","","","","","",""
"","iti_localizer","","html-keyboard-response","67","281699","0.0-2.0-3.0-1.0","24","65907","female","null","","","","null","","1","","","281394","0","","","","","","300","3900","305","3969","300","","","","","","","","","","","","","","","","","","","","","","","","","","","","","","","","",""
"","localizer","","html-keyboard-response","68","282105","0.0-2.0-4.0-0.0","24","65907","female","376","","","","68","0","2","","Stimuli/Practice_stims/Localizer/charl-durand-bsfXvI25iNg-unsplash.jpg","281699","0","NaN","","1","0","0","400","4200","406","4274","","","","","","","","","","","","","","","","","","","","","","","","","","","","","","","","","",""
"","iti_localizer","","html-keyboard-response","69","282410","0.0-2.0-4.0-1.0","24","65907","female","null","","","","null","","2","","","282105","0","","","","","","300","4600","305","4680","300","","","","","","","","","","","","","","","","","","","","","","","","","","","","","","","","",""
"","localizer","","html-keyboard-response","70","282815","0.0-2.0-5.0-0.0","24","65907","female","NaN","","","","null","NaN","3","","Stimuli/Practice_stims/Localizer/nizar-albusaidy-B2r2SWAf5CE-unsplash.jpg","282410","0","NaN","","0","1","0","400","4900","405","4985","","","","","","","","","","","","","","","","","","","","","","","","","","","","","","","","","",""
"","iti_localizer","","html-keyboard-response","71","283120","0.0-2.0-5.0-1.0","24","65907","female","null","","","","null","","3","","","282815","0","","","","","","300","5300","305","5390","300","","","","","","","","","","","","","","","","","","","","","","","","","","","","","","","","",""
"","localizer","","html-keyboard-response","72","283525","0.0-2.0-5.1-0.1","24","65907","female","300","","","","68","0","3","","Stimuli/Practice_stims/Localizer/nizar-albusaidy-B2r2SWAf5CE-unsplash.jpg","283120","0","NaN","","0","0","1","400","5600","405","5695","","","","","","","","","","","","","","","","","","","","","","","","","","","","","","","","","",""
"","iti_localizer","","html-keyboard-response","73","283830","0.0-2.0-5.1-1.1","24","65907","female","null","","","","null","","3","","","283525","0","","","","","","300","6000","305","6100","300","","","","","","","","","","","","","","","","","","","","","","","","","","","","","","","","",""
"","localizer","","html-keyboard-response","74","284235","0.0-2.0-6.0-0.0","24","65907","female","254","","","","68","0","4","","Stimuli/Practice_stims/Localizer/randy-fath-epf1tdtIIkM-unsplash.jpg","283830","0","NaN","","1","0","0","400","6300","405","6405","","","","","","","","","","","","","","","","","","","","","","","","","","","","","","","","","",""
"","iti_localizer","","html-keyboard-response","75","284541","0.0-2.0-6.0-1.0","24","65907","female","null","","","","null","","4","","","284235","0","","","","","","300","6700","306","6810","300","","","","","","","","","","","","","","","","","","","","","","","","","","","","","","","","",""
"","localizer","","html-keyboard-response","76","284948","0.0-2.0-7.0-0.0","24","65907","female","168","","","","75","1","5","","Stimuli/Practice_stims/Localizer/yassine-khalfalli-adsQ9d_Cx0c-unsplash.jpg","284541","0","NaN","","0","0","0","400","7000","407","7116","","","","","","","","","","","","","","","","","","","","","","","","","","","","","","","","","",""
"","iti_localizer","","html-keyboard-response","77","285255","0.0-2.0-7.0-1.0","24","65907","female","null","","","","null","","5","","","284948","0","","","","","","300","7400","307","7523","300","","","","","","","","","","","","","","","","","","","","","","","","","","","","","","","","",""
"","practice_over","","html-keyboard-response","78","285650","0.0-2.0-7.0-2.0-0.0","24","65907","female","392","","","","68","","","","","","","","","","","","","","","","","","","","","","","","","","","","","","","","","","","","","","","","","","","","","","","","",""
"","start_run","","html-keyboard-response","79","288235","0.0-2.0-7.0-2.0-1.0","24","65907","female","2581","","","","84","","","","","","","","","","","","","","","","","","","","","","","","","","","","","","","","","","","","","","","","","","","","","","","","",""
"","localizer","","html-keyboard-response","80","288641","0.0-2.0-8.0-0.0","24","65907","female","NaN","","","","null","NaN","6","","Stimuli/Experimental_stims/localizer/faces/allef-vinicius-C_1jjFJioWg-unsplash.jpg","288235","1","faces","","0","1","0","400","0","406","0","","","","","","","","","","","","","","","","","","","","","","","","","","","","","","","","","",""
"","iti_localizer","","html-keyboard-response","81","288947","0.0-2.0-8.0-1.0","24","65907","female","null","","","","null","","6","","","288641","1","","","","","","300","400","306","406","300","","","","","","","","","","","","","","","","","","","","","","","","","","","","","","","","",""
"","localizer","","html-keyboard-response","82","289355","0.0-2.0-9.0-0.0","24","65907","female","236","","","","68","0","7","","Stimuli/Experimental_stims/localizer/faces/ayo-ogunseinde-sibVwORYqs0-unsplash.jpg","288947","1","faces","","1","0","0","400","700","408","712","","","","","","","","","","","","","","","","","","","","","","","","","","","","","","","","","",""
"","iti_localizer","","html-keyboard-response","83","289659","0.0-2.0-9.0-1.0","24","65907","female","null","","","","null","","7","","","289355","1","","","","","","300","1100","304","1120","300","","","","","","","","","","","","","","","","","","","","","","","","","","","","","","","","",""
"","localizer","","html-keyboard-response","84","290065","0.0-2.0-10.0-0.0","24","65907","female","300","","","","75","1","8","","Stimuli/Experimental_stims/localizer/faces/abstral-official-cyOKLSgkgCE-unsplash.jpg","289659","1","faces","","0","0","0","400","1400","406","1424","","","","","","","","","","","","","","","","","","","","","","","","","","","","","","","","","",""
"","iti_localizer","","html-keyboard-response","85","290370","0.0-2.0-10.0-1.0","24","65907","female","null","","","","null","","8","","","290065","1","","","","","","300","1800","305","1830","300","","","","","","","","","","","","","","","","","","","","","","","","","","","","","","","","",""
"","localizer","","html-keyboard-response","86","290776","0.0-2.0-11.0-0.0","24","65907","female","171","","","","68","0","9","","Stimuli/Experimental_stims/localizer/faces/hisu-lee-2qvxIr_DXGo-unsplash.jpg","290370","1","faces","","0","0","1","400","2100","406","2135","","","","","","","","","","","","","","","","","","","","","","","","","","","","","","","","","",""
"","iti_localizer","","html-keyboard-response","87","291082","0.0-2.0-11.0-1.0","24","65907","female","null","","","","null","","9","","","290776","1","","","","","","300","2500","306","2541","300","","","","","","","","","","","","","","","","","","","","","","","","","","","","","","","","",""
"","localizer","","html-keyboard-response","88","291488","0.0-2.0-12.0-0.0","24","65907","female","309","","","","68","0","10","","Stimuli/Experimental_stims/localizer/faces/austin-wade-X6Uj51n5CE8-unsplash.jpg","291082","1","faces","","0","0","1","400","2800","406","2847","","","","","","","","","","","","","","","","","","","","","","","","","","","","","","","","","",""
"","iti_localizer","","html-keyboard-response","89","291793","0.0-2.0-12.0-1.0","24","65907","female","null","","","","null","","10","","","291488","1","","","","","","300","3200","305","3253","300","","","","","","","","","","","","","","","","","","","","","","","","","","","","","","","","",""
"","localizer","","html-keyboard-response","90","292199","0.0-2.0-13.0-0.0","24","65907","female","292","","","","68","0","11","","Stimuli/Experimental_stims/localizer/faces/darshan-patel-QJEVpydulGs-unsplash.jpg","291793","1","faces","","0","0","1","400","3500","406","3558","","","","","","","","","","","","","","","","","","","","","","","","","","","","","","","","","",""
"","iti_localizer","","html-keyboard-response","91","292504","0.0-2.0-13.0-1.0","24","65907","female","null","","","","null","","11","","","292199","1","","","","","","300","3900","305","3964","300","","","","","","","","","","","","","","","","","","","","","","","","","","","","","","","","",""
"","localizer","","html-keyboard-response","92","292909","0.0-2.0-14.0-0.0","24","65907","female","165","","","","68","0","12","","Stimuli/Experimental_stims/localizer/faces/aleksandar-popovski-Jy4ELSGPHTc-unsplash.jpg","292504","1","faces","","0","0","1","400","4200","405","4269","","","","","","","","","","","","","","","","","","","","","","","","","","","","","","","","","",""
"","iti_localizer","","html-keyboard-response","93","293216","0.0-2.0-14.0-1.0","24","65907","female","null","","","","null","","12","","","292909","1","","","","","","300","4600","307","4674","300","","","","","","","","","","","","","","","","","","","","","","","","","","","","","","","","",""
"","localizer","","html-keyboard-response","94","293621","0.0-2.0-15.0-0.0","24","65907","female","99","","","","68","0","13","","Stimuli/Experimental_stims/localizer/faces/ethan-haddox-__ng3cRXmFE-unsplash.jpg","293216","1","faces","","0","0","1","400","4900","405","4981","","","","","","","","","","","","","","","","","","","","","","","","","","","","","","","","","",""
"","iti_localizer","","html-keyboard-response","95","293927","0.0-2.0-15.0-1.0","24","65907","female","null","","","","null","","13","","","293621","1","","","","","","300","5300","306","5386","300","","","","","","","","","","","","","","","","","","","","","","","","","","","","","","","","",""
"","localizer","","html-keyboard-response","96","294334","0.0-2.0-16.0-0.0","24","65907","female","65","","","","68","0","14","","Stimuli/Experimental_stims/localizer/faces/jake-nackos-IF9TK5Uy-KI-unsplash.jpg","293927","1","faces","","0","0","1","400","5600","407","5692","","","","","","","","","","","","","","","","","","","","","","","","","","","","","","","","","",""
"","iti_localizer","","html-keyboard-response","97","294640","0.0-2.0-16.0-1.0","24","65907","female","null","","","","null","","14","","","294334","1","","","","","","300","6000","306","6099","300","","","","","","","","","","","","","","","","","","","","","","","","","","","","","","","","",""
"","localizer","","html-keyboard-response","98","295047","0.0-2.0-17.0-0.0","24","65907","female","40","","","","68","0","15","","Stimuli/Experimental_stims/localizer/faces/mubariz-mehdizadeh-o-wlIFT4zE4-unsplash.jpg","294640","1","faces","","0","0","1","400","6300","407","6405","","","","","","","","","","","","","","","","","","","","","","","","","","","","","","","","","",""
"","iti_localizer","","html-keyboard-response","99","295351","0.0-2.0-17.0-1.0","24","65907","female","null","","","","null","","15","","","295047","1","","","","","","300","6700","304","6812","300","","","","","","","","","","","","","","","","","","","","","","","","","","","","","","","","",""
"","localizer","","html-keyboard-response","100","295756","0.0-2.0-18.0-0.0","24","65907","female","39","","","","68","0","16","","Stimuli/Experimental_stims/localizer/faces/stephanie-nakagawa-ADSKIn0ScDg-unsplash.jpg","295351","1","faces","","0","0","1","400","7000","405","7116","","","","","","","","","","","","","","","","","","","","","","","","","","","","","","","","","",""
"","iti_localizer","","html-keyboard-response","101","296062","0.0-2.0-18.0-1.0","24","65907","female","null","","","","null","","16","","","295756","1","","","","","","300","7400","306","7521","300","","","","","","","","","","","","","","","","","","","","","","","","","","","","","","","","",""
"","localizer","","html-keyboard-response","102","296469","0.0-2.0-19.0-0.0","24","65907","female","NaN","","","","null","NaN","17","","Stimuli/Experimental_stims/localizer/faces/foto-sushi-6anudmpILw4-unsplash.jpg","296062","1","faces","","0","1","0","400","7700","407","7827","","","","","","","","","","","","","","","","","","","","","","","","","","","","","","","","","",""
"","iti_localizer","","html-keyboard-response","103","296774","0.0-2.0-19.0-1.0","24","65907","female","null","","","","null","","17","","","296469","1","","","","","","300","8100","305","8234","300","","","","","","","","","","","","","","","","","","","","","","","","","","","","","","","","",""
"","localizer","","html-keyboard-response","104","297182","0.0-2.0-20.0-0.0","24","65907","female","31","","","","68","0","18","","Stimuli/Experimental_stims/localizer/faces/samuel-dixon--fQ5XNOcqFQ-unsplash.jpg","296774","1","faces","","0","0","1","400","8400","408","8539","","","","","","","","","","","","","","","","","","","","","","","","","","","","","","","","","",""
"","iti_localizer","","html-keyboard-response","105","297487","0.0-2.0-20.0-1.0","24","65907","female","null","","","","null","","18","","","297182","1","","","","","","300","8800","305","8947","300","","","","","","","","","","","","","","","","","","","","","","","","","","","","","","","","",""
"","localizer","","html-keyboard-response","106","297893","0.0-2.0-21.0-0.0","24","65907","female","85","","","","68","0","19","","Stimuli/Experimental_stims/localizer/faces/jeffery-erhunse-vp9mRauo68c-unsplash.jpg","297487","1","faces","","0","0","1","400","9100","406","9252","","","","","","","","","","","","","","","","","","","","","","","","","","","","","","","","","",""
"","iti_localizer","","html-keyboard-response","107","298198","0.0-2.0-21.0-1.0","24","65907","female","null","","","","null","","19","","","297893","1","","","","","","300","9500","305","9658","300","","","","","","","","","","","","","","","","","","","","","","","","","","","","","","","","",""
"","localizer","","html-keyboard-response","108","298604","0.0-2.0-22.0-0.0","24","65907","female","71","","","","68","0","20","","Stimuli/Experimental_stims/localizer/faces/ayo-ogunseinde-6W4F62sN_yI-unsplash.jpg","298198","1","faces","","0","0","1","400","9800","406","9963","","","","","","","","","","","","","","","","","","","","","","","","","","","","","","","","","",""
"","iti_localizer","","html-keyboard-response","109","298908","0.0-2.0-22.0-1.0","24","65907","female","null","","","","null","","20","","","298604","1","","","","","","300","10200","304","10369","300","","","","","","","","","","","","","","","","","","","","","","","","","","","","","","","","",""
"","localizer","","html-keyboard-response","110","299313","0.0-2.0-23.0-0.0","24","65907","female","98","","","","68","0","21","","Stimuli/Experimental_stims/localizer/faces/whereslugo-zl_fPgiwduo-unsplash.jpg","298908","1","faces","","0","0","1","400","10500","405","10673","","","","","","","","","","","","","","","","","","","","","","","","","","","","","","","","","",""
"","iti_localizer","","html-keyboard-response","111","299618","0.0-2.0-23.0-1.0","24","65907","female","null","","","","null","","21","","","299313","1","","","","","","300","10900","305","11078","300","","","","","","","","","","","","","","","","","","","","","","","","","","","","","","","","",""
"","localizer","","html-keyboard-response","112","300028","0.0-2.0-24.0-0.0","24","65907","female","98","","","","68","0","22","","Stimuli/Experimental_stims/localizer/faces/chanvre-quebec-mXu1SpzHq6w-unsplash.jpg","299618","1","faces","","0","0","1","400","11200","410","11383","","","","","","","","","","","","","","","","","","","","","","","","","","","","","","","","","",""
"","iti_localizer","","html-keyboard-response","113","300336","0.0-2.0-24.0-1.0","24","65907","female","null","","","","null","","22","","","300028","1","","","","","","300","11600","308","11793","300","","","","","","","","","","","","","","","","","","","","","","","","","","","","","","","","",""
"","localizer","","html-keyboard-response","114","300743","0.0-2.0-25.0-0.0","24","65907","female","135","","","","68","0","23","","Stimuli/Experimental_stims/localizer/faces/ian-dooley-d1UPkiFd04A-unsplash.jpg","300336","1","faces","","0","0","1","400","11900","407","12101","","","","","","","","","","","","","","","","","","","","","","","","","","","","","","","","","",""
"","iti_localizer","","html-keyboard-response","115","301048","0.0-2.0-25.0-1.0","24","65907","female","null","","","","null","","23","","","300743","1","","","","","","300","12300","305","12508","300","","","","","","","","","","","","","","","","","","","","","","","","","","","","","","","","",""
"","localizer","","html-keyboard-response","116","301454","0.0-2.0-26.0-0.0","24","65907","female","142","","","","68","0","24","","Stimuli/Experimental_stims/localizer/faces/matheus-ferrero-W7b3eDUb_2I-unsplash.jpg","301048","1","faces","","1","0","0","400","12600","406","12813","","","","","","","","","","","","","","","","","","","","","","","","","","","","","","","","","",""
"","iti_localizer","","html-keyboard-response","117","301758","0.0-2.0-26.0-1.0","24","65907","female","null","","","","null","","24","","","301454","1","","","","","","300","13000","304","13219","300","","","","","","","","","","","","","","","","","","","","","","","","","","","","","","","","",""
"","localizer","","html-keyboard-response","118","302164","0.0-2.0-27.0-0.0","24","65907","female","80","","","","75","1","25","","Stimuli/Experimental_stims/localizer/faces/jeffery-erhunse-BQMZ5ligqps-unsplash.jpg","301758","1","faces","","0","0","0","400","13300","406","13523","","","","","","","","","","","","","","","","","","","","","","","","","","","","","","","","","",""
"","iti_localizer","","html-keyboard-response","119","316173","0.0-2.0-27.0-1.0","24","65907","female","null","","","","null","","25","","","302164","1","","","","","","14000","13700","14009","13929","14000","","","","","","","","","","","","","","","","","","","","","","","","","","","","","","","","",""
"","localizer","","html-keyboard-response","120","316579","0.0-2.0-28.0-0.0","24","65907","female","NaN","","","","null","NaN","26","","Stimuli/Experimental_stims/localizer/body_parts/jeremy-bishop-mLd3hAaH2ns-unsplash.jpg","316173","1","body_parts","","0","1","0","400","27700","406","27938","","","","","","","","","","","","","","","","","","","","","","","","","","","","","","","","","",""
"","iti_localizer","","html-keyboard-response","121","316884","0.0-2.0-28.0-1.0","24","65907","female","null","","","","null","","26","","","316579","1","","","","","","300","28100","305","28344","300","","","","","","","","","","","","","","","","","","","","","","","","","","","","","","","","",""
"","localizer","","html-keyboard-response","122","317289","0.0-2.0-29.0-0.0","24","65907","female","NaN","","","","null","NaN","27","","Stimuli/Experimental_stims/localizer/body_parts/sincerely-media-3DZHTq_i7Qk-unsplash.jpg","316884","1","body_parts","","0","1","0","400","28400","405","28649","","","","","","","","","","","","","","","","","","","","","","","","","","","","","","","","","",""
"","iti_localizer","","html-keyboard-response","123","317594","0.0-2.0-29.0-1.0","24","65907","female","null","","","","null","","27","","","317289","1","","","","","","300","28800","305","29054","300","","","","","","","","","","","","","","","","","","","","","","","","","","","","","","","","",""
"","localizer","","html-keyboard-response","124","318000","0.0-2.0-30.0-0.0","24","65907","female","36","","","","68","0","28","","Stimuli/Experimental_stims/localizer/body_parts/nick-page-jAGdpOGvLAA-unsplash.jpg","317594","1","body_parts","","0","0","1","400","29100","406","29359","","","","","","","","","","","","","","","","","","","","","","","","","","","","","","","","","",""
"","iti_localizer","","html-keyboard-response","125","318305","0.0-2.0-30.0-1.0","24","65907","female","null","","","","null","","28","","","318000","1","","","","","","300","29500","305","29765","300","","","","","","","","","","","","","","","","","","","","","","","","","","","","","","","","",""
"","localizer","","html-keyboard-response","126","318711","0.0-2.0-31.0-0.0","24","65907","female","108","","","","68","0","29","","Stimuli/Experimental_stims/localizer/body_parts/priscilla-du-preez-e6fcNpur53A-unsplash.jpg","318305","1","body_parts","","1","0","0","400","29800","406","30070","","","","","","","","","","","","","","","","","","","","","","","","","","","","","","","","","",""
"","iti_localizer","","html-keyboard-response","127","319017","0.0-2.0-31.0-1.0","24","65907","female","null","","","","null","","29","","","318711","1","","","","","","300","30200","306","30476","300","","","","","","","","","","","","","","","","","","","","","","","","","","","","","","","","",""
"","localizer","","html-keyboard-response","128","319422","0.0-2.0-32.0-0.0","24","65907","female","52","","","","75","1","30","","Stimuli/Experimental_stims/localizer/body_parts/lilartsy-1KkhQ8uL28g-unsplash.jpg","319017","1","body_parts","","0","0","0","400","30500","405","30782","","","","","","","","","","","","","","","","","","","","","","","","","","","","","","","","","",""
"","iti_localizer","","html-keyboard-response","129","319729","0.0-2.0-32.0-1.0","24","65907","female","null","","","","null","","30","","","319422","1","","","","","","300","30900","307","31187","300","","","","","","","","","","","","","","","","","","","","","","","","","","","","","","","","",""
"","localizer","","html-keyboard-response","130","320138","0.0-2.0-33.0-0.0","24","65907","female","44","","","","68","0","31","","Stimuli/Experimental_stims/localizer/body_parts/sippakorn-yamkasikorn-32_sJlJa5gA-unsplash.jpg","319729","1","body_parts","","0","0","1","400","31200","409","31494","","","","","","","","","","","","","","","","","","","","","","","","","","","","","","","","","",""
"","iti_localizer","","html-keyboard-response","131","320443","0.0-2.0-33.0-1.0","24","65907","female","null","","","","null","","31","","","320138","1","","","","","","300","31600","305","31903","300","","","","","","","","","","","","","","","","","","","","","","","","","","","","","","","","",""
"","localizer","","html-keyboard-response","132","320850","0.0-2.0-34.0-0.0","24","65907","female","65","","","","68","0","32","","Stimuli/Experimental_stims/localizer/body_parts/meghan-thompson-U1b8OB0QpIo-unsplash.jpg","320443","1","body_parts","","0","0","1","400","31900","407","32208","","","","","","","","","","","","","","","","","","","","","","","","","","","","","","","","","",""
"","iti_localizer","","html-keyboard-response","133","321159","0.0-2.0-34.0-1.0","24","65907","female","null","","","","null","","32","","","320850","1","","","","","","300","32300","309","32615","300","","","","","","","","","","","","","","","","","","","","","","","","","","","","","","","","",""
"","localizer","","html-keyboard-response","134","321565","0.0-2.0-35.0-0.0","24","65907","female","77","","","","68","0","33","","Stimuli/Experimental_stims/localizer/body_parts/semen-zhuravlev-_XxH_mV8dnk-unsplash (1).jpg","321159","1","body_parts","","0","0","1","400","32600","406","32924","","","","","","","","","","","","","","","","","","","","","","","","","","","","","","","","","",""
"","iti_localizer","","html-keyboard-response","135","321870","0.0-2.0-35.0-1.0","24","65907","female","null","","","","null","","33","","","321565","1","","","","","","300","33000","305","33330","300","","","","","","","","","","","","","","","","","","","","","","","","","","","","","","","","",""
"","localizer","","html-keyboard-response","136","322275","0.0-2.0-36.0-0.0","24","65907","female","57","","","","68","0","34","","Stimuli/Experimental_stims/localizer/body_parts/betzy-arosemena-YHdgnygtVCQ-unsplash.jpg","321870","1","body_parts","","0","0","1","400","33300","405","33635","","","","","","","","","","","","","","","","","","","","","","","","","","","","","","","","","",""
"","iti_localizer","","html-keyboard-response","137","322581","0.0-2.0-36.0-1.0","24","65907","female","null","","","","null","","34","","","322275","1","","","","","","300","33700","306","34040","300","","","","","","","","","","","","","","","","","","","","","","","","","","","","","","","","",""
"","localizer","","html-keyboard-response","138","322986","0.0-2.0-37.0-0.0","24","65907","female","95","","","","68","0","35","","Stimuli/Experimental_stims/localizer/body_parts/davidcohen-qghuLqyh3nE-unsplash.jpg","322581","1","body_parts","","0","0","1","400","34000","405","34346","","","","","","","","","","","","","","","","","","","","","","","","","","","","","","","","","",""
"","iti_localizer","","html-keyboard-response","139","323292","0.0-2.0-37.0-1.0","24","65907","female","null","","","","null","","35","","","322986","1","","","","","","300","34400","306","34751","300","","","","","","","","","","","","","","","","","","","","","","","","","","","","","","","","",""
"","localizer","","html-keyboard-response","140","323698","0.0-2.0-38.0-0.0","24","65907","female","116","","","","68","0","36","","Stimuli/Experimental_stims/localizer/body_parts/niu-niu-5HzOtV-FSlw-unsplash.jpg","323292","1","body_parts","","0","0","1","400","34700","406","35057","","","","","","","","","","","","","","","","","","","","","","","","","","","","","","","","","",""
"","iti_localizer","","html-keyboard-response","141","324003","0.0-2.0-38.0-1.0","24","65907","female","null","","","","null","","36","","","323698","1","","","","","","300","35100","305","35463","300","","","","","","","","","","","","","","","","","","","","","","","","","","","","","","","","",""
"","localizer","","html-keyboard-response","142","324408","0.0-2.0-39.0-0.0","24","65907","female","89","","","","68","0","37","","Stimuli/Experimental_stims/localizer/body_parts/liv-bruce-M0oVPGsWk1E-unsplash.jpg","324003","1","body_parts","","0","0","1","400","35400","405","35768","","","","","","","","","","","","","","","","","","","","","","","","","","","","","","","","","",""
"","iti_localizer","","html-keyboard-response","143","324713","0.0-2.0-39.0-1.0","24","65907","female","null","","","","null","","37","","","324408","1","","","","","","300","35800","305","36173","300","","","","","","","","","","","","","","","","","","","","","","","","","","","","","","","","",""
"","localizer","","html-keyboard-response","144","325119","0.0-2.0-40.0-0.0","24","65907","female","102","","","","68","0","38","","Stimuli/Experimental_stims/localizer/body_parts/nick-page-WTNmgJtwzGI-unsplash.jpg","324713","1","body_parts","","0","0","1","400","36100","406","36478","","","","","","","","","","","","","","","","","","","","","","","","","","","","","","","","","",""
"","iti_localizer","","html-keyboard-response","145","325423","0.0-2.0-40.0-1.0","24","65907","female","null","","","","null","","38","","","325119","1","","","","","","300","36500","304","36884","300","","","","","","","","","","","","","","","","","","","","","","","","","","","","","","","","",""
"","localizer","","html-keyboard-response","146","325830","0.0-2.0-41.0-0.0","24","65907","female","44","","","","68","0","39","","Stimuli/Experimental_stims/localizer/body_parts/billie-5OXE3KjDEfI-unsplash.jpg","325423","1","body_parts","","0","0","1","400","36800","407","37188","","","","","","","","","","","","","","","","","","","","","","","","","","","","","","","","","",""
"","iti_localizer","","html-keyboard-response","147","326135","0.0-2.0-41.0-1.0","24","65907","female","null","","","","null","","39","","","325830","1","","","","","","300","37200","305","37595","300","","","","","","","","","","","","","","","","","","","","","","","","","","","","","","","","",""
"","localizer","","html-keyboard-response","148","326540","0.0-2.0-42.0-0.0","24","65907","female","143","","","","68","0","40","","Stimuli/Experimental_stims/localizer/body_parts/apostolos-vamvouras-g5wKHRu2QW0-unsplash.jpg","326135","1","body_parts","","0","0","1","400","37500","405","37900","","","","","","","","","","","","","","","","","","","","","","","","","","","","","","","","","",""
"","iti_localizer","","html-keyboard-response","149","326846","0.0-2.0-42.0-1.0","24","65907","female","null","","","","null","","40","","","326540","1","","","","","","300","37900","306","38305","300","","","","","","","","","","","","","","","","","","","","","","","","","","","","","","","","",""
"","localizer","","html-keyboard-response","150","327252","0.0-2.0-43.0-0.0","24","65907","female","112","","","","68","0","41","","Stimuli/Experimental_stims/localizer/body_parts/david-fanuel-qnV8X7OViNY-unsplash.jpg","326846","1","body_parts","","0","0","1","400","38200","406","38611","","","","","","","","","","","","","","","","","","","","","","","","","","","","","","","","","",""
"","iti_localizer","","html-keyboard-response","151","327556","0.0-2.0-43.0-1.0","24","65907","female","null","","","","null","","41","","","327252","1","","","","","","300","38600","304","39017","300","","","","","","","","","","","","","","","","","","","","","","","","","","","","","","","","",""
"","localizer","","html-keyboard-response","152","327962","0.0-2.0-44.0-0.0","24","65907","female","41","","","","68","0","42","","Stimuli/Experimental_stims/localizer/body_parts/nattalia-nunez-MB9sdDfZMSg-unsplash.jpg","327556","1","body_parts","","0","0","1","400","38900","406","39321","","","","","","","","","","","","","","","","","","","","","","","","","","","","","","","","","",""
"","iti_localizer","","html-keyboard-response","153","328267","0.0-2.0-44.0-1.0","24","65907","female","null","","","","null","","42","","","327962","1","","","","","","300","39300","305","39727","300","","","","","","","","","","","","","","","","","","","","","","","","","","","","","","","","",""
"","localizer","","html-keyboard-response","154","328673","0.0-2.0-45.0-0.0","24","65907","female","52","","","","68","0","43","","Stimuli/Experimental_stims/localizer/body_parts/carlos-henrique-NAOJKwZswbs-unsplash.jpg","328267","1","body_parts","","0","0","1","400","39600","406","40032","","","","","","","","","","","","","","","","","","","","","","","","","","","","","","","","","",""
"","iti_localizer","","html-keyboard-response","155","328979","0.0-2.0-45.0-1.0","24","65907","female","null","","","","null","","43","","","328673","1","","","","","","300","40000","306","40438","300","","","","","","","","","","","","","","","","","","","","","","","","","","","","","","","","",""
"","localizer","","html-keyboard-response","156","329384","0.0-2.0-46.0-0.0","24","65907","female","41","","","","68","0","44","","Stimuli/Experimental_stims/localizer/body_parts/jeremy-yap-TfJEi17kA0w-unsplash.jpg","328979","1","body_parts","","1","0","0","400","40300","405","40744","","","","","","","","","","","","","","","","","","","","","","","","","","","","","","","","","",""
"","iti_localizer","","html-keyboard-response","157","329690","0.0-2.0-46.0-1.0","24","65907","female","null","","","","null","","44","","","329384","1","","","","","","300","40700","306","41149","300","","","","","","","","","","","","","","","","","","","","","","","","","","","","","","","","",""
"","localizer","","html-keyboard-response","158","330098","0.0-2.0-47.0-0.0","24","65907","female","203","","","","75","1","45","","Stimuli/Experimental_stims/localizer/body_parts/danie-franco-jyyNiSEcCl4-unsplash.jpg","329690","1","body_parts","","0","0","0","400","41000","408","41455","","","","","","","","","","","","","","","","","","","","","","","","","","","","","","","","","",""
"","iti_localizer","","html-keyboard-response","159","344108","0.0-2.0-47.0-1.0","24","65907","female","null","","","","null","","45","","","330098","1","","","","","","14000","41400","14010","41863","14000","","","","","","","","","","","","","","","","","","","","","","","","","","","","","","","","",""
"","localizer","","html-keyboard-response","160","344514","0.0-2.0-48.0-0.0","24","65907","female","NaN","","","","null","NaN","46","","Stimuli/Experimental_stims/localizer/objects/chris-briggs-x9TCnxNBofE-unsplash.jpg","344108","1","objects","","0","1","0","400","55400","406","55873","","","","","","","","","","","","","","","","","","","","","","","","","","","","","","","","","",""
"","iti_localizer","","html-keyboard-response","161","344819","0.0-2.0-48.0-1.0","24","65907","female","null","","","","null","","46","","","344514","1","","","","","","300","55800","305","56279","300","","","","","","","","","","","","","","","","","","","","","","","","","","","","","","","","",""
"","localizer","","html-keyboard-response","162","345228","0.0-2.0-49.0-0.0","24","65907","female","171","","","","68","0","47","","Stimuli/Experimental_stims/localizer/objects/quino-al-8gWEAAXJjtI-unsplash.jpg","344819","1","objects","","0","0","1","400","56100","409","56584","","","","","","","","","","","","","","","","","","","","","","","","","","","","","","","","","",""
"","iti_localizer","","html-keyboard-response","163","345533","0.0-2.0-49.0-1.0","24","65907","female","null","","","","null","","47","","","345228","1","","","","","","300","56500","305","56993","300","","","","","","","","","","","","","","","","","","","","","","","","","","","","","","","","",""
"","localizer","","html-keyboard-response","164","345938","0.0-2.0-50.0-0.0","24","65907","female","87","","","","68","0","48","","Stimuli/Experimental_stims/localizer/objects/recha-oktaviani-t__61ap00Mc-unsplash.jpg","345533","1","objects","","0","0","1","400","56800","405","57298","","","","","","","","","","","","","","","","","","","","","","","","","","","","","","","","","",""
"","iti_localizer","","html-keyboard-response","165","346248","0.0-2.0-50.0-1.0","24","65907","female","null","","","","null","","48","","","345938","1","","","","","","300","57200","310","57703","300","","","","","","","","","","","","","","","","","","","","","","","","","","","","","","","","",""
"","localizer","","html-keyboard-response","166","346654","0.0-2.0-51.0-0.0","24","65907","female","29","","","","68","0","49","","Stimuli/Experimental_stims/localizer/objects/kelly-jean-cKjbI0Y00X0-unsplash.jpg","346248","1","objects","","1","0","0","400","57500","406","58013","","","","","","","","","","","","","","","","","","","","","","","","","","","","","","","","","",""
"","iti_localizer","","html-keyboard-response","167","346958","0.0-2.0-51.0-1.0","24","65907","female","null","","","","null","","49","","","346654","1","","","","","","300","57900","304","58419","300","","","","","","","","","","","","","","","","","","","","","","","","","","","","","","","","",""
"","localizer","","html-keyboard-response","168","347364","0.0-2.0-52.0-0.0","24","65907","female","112","","","","75","1","50","","Stimuli/Experimental_stims/localizer/objects/mockup-graphics-Pj2PY-E-LfM-unsplash.jpg","346958","1","objects","","0","0","0","400","58200","406","58723","","","","","","","","","","","","","","","","","","","","","","","","","","","","","","","","","",""
"","iti_localizer","","html-keyboard-response","169","347669","0.0-2.0-52.0-1.0","24","65907","female","null","","","","null","","50","","","347364","1","","","","","","300","58600","305","59129","300","","","","","","","","","","","","","","","","","","","","","","","","","","","","","","","","",""
"","localizer","","html-keyboard-response","170","348074","0.0-2.0-53.0-0.0","24","65907","female","73","","","","68","0","51","","Stimuli/Experimental_stims/localizer/objects/andrew-petrov-TVJqDat4MAw-unsplash.jpg","347669","1","objects","","0","0","1","400","58900","405","59434","","","","","","","","","","","","","","","","","","","","","","","","","","","","","","","","","",""
"","iti_localizer","","html-keyboard-response","171","348379","0.0-2.0-53.0-1.0","24","65907","female","null","","","","null","","51","","","348074","1","","","","","","300","59300","305","59839","300","","","","","","","","","","","","","","","","","","","","","","","","","","","","","","","","",""
"","localizer","","html-keyboard-response","172","348787","0.0-2.0-54.0-0.0","24","65907","female","38","","","","68","0","52","","Stimuli/Experimental_stims/localizer/objects/ignat-dolomanov-kFBDVnmskPA-unsplash.jpg","348379","1","objects","","0","0","1","400","59600","408","60144","","","","","","","","","","","","","","","","","","","","","","","","","","","","","","","","","",""
"","iti_localizer","","html-keyboard-response","173","349092","0.0-2.0-54.0-1.0","24","65907","female","null","","","","null","","52","","","348787","1","","","","","","300","60000","305","60552","300","","","","","","","","","","","","","","","","","","","","","","","","","","","","","","","","",""
"","localizer","","html-keyboard-response","174","349499","0.0-2.0-55.0-0.0","24","65907","female","82","","","","68","0","53","","Stimuli/Experimental_stims/localizer/objects/ana-9GmAaEMMKho-unsplash.jpg","349092","1","objects","","0","0","1","400","60300","407","60857","","","","","","","","","","","","","","","","","","","","","","","","","","","","","","","","","",""
"","iti_localizer","","html-keyboard-response","175","349804","0.0-2.0-55.0-1.0","24","65907","female","null","","","","null","","53","","","349499","1","","","","","","300","60700","305","61264","300","","","","","","","","","","","","","","","","","","","","","","","","","","","","","","","","",""
"","localizer","","html-keyboard-response","176","350212","0.0-2.0-56.0-0.0","24","65907","female","74","","","","68","0","54","","Stimuli/Experimental_stims/localizer/objects/yossy-made-yulian-WaEqwDSIeTY-unsplash.jpg","349804","1","objects","","0","0","1","400","61000","408","61569","","","","","","","","","","","","","","","","","","","","","","","","","","","","","","","","","",""
"","iti_localizer","","html-keyboard-response","177","350518","0.0-2.0-56.0-1.0","24","65907","female","null","","","","null","","54","","","350212","1","","","","","","300","61400","306","61977","300","","","","","","","","","","","","","","","","","","","","","","","","","","","","","","","","",""
"","localizer","","html-keyboard-response","178","350923","0.0-2.0-57.0-0.0","24","65907","female","71","","","","68","0","55","","Stimuli/Experimental_stims/localizer/objects/mockup-graphics-U6ZMEefFGx8-unsplash.jpg","350518","1","objects","","0","0","1","400","61700","405","62283","","","","","","","","","","","","","","","","","","","","","","","","","","","","","","","","","",""
"","iti_localizer","","html-keyboard-response","179","351230","0.0-2.0-57.0-1.0","24","65907","female","null","","","","null","","55","","","350923","1","","","","","","300","62100","307","62688","300","","","","","","","","","","","","","","","","","","","","","","","","","","","","","","","","",""
"","localizer","","html-keyboard-response","180","351636","0.0-2.0-58.0-0.0","24","65907","female","72","","","","68","0","56","","Stimuli/Experimental_stims/localizer/objects/raimond-klavins-ZdvDPXVvcKs-unsplash.jpg","351230","1","objects","","0","0","1","400","62400","406","62995","","","","","","","","","","","","","","","","","","","","","","","","","","","","","","","","","",""
"","iti_localizer","","html-keyboard-response","181","351941","0.0-2.0-58.0-1.0","24","65907","female","null","","","","null","","56","","","351636","1","","","","","","300","62800","305","63401","300","","","","","","","","","","","","","","","","","","","","","","","","","","","","","","","","",""
"","localizer","","html-keyboard-response","182","352346","0.0-2.0-59.0-0.0","24","65907","female","91","","","","68","0","57","","Stimuli/Experimental_stims/localizer/objects/sam-moghadam-khamseh-L_7MQsHl_aU-unsplash.jpg","351941","1","objects","","0","0","1","400","63100","405","63706","","","","","","","","","","","","","","","","","","","","","","","","","","","","","","","","","",""
"","iti_localizer","","html-keyboard-response","183","352651","0.0-2.0-59.0-1.0","24","65907","female","null","","","","null","","57","","","352346","1","","","","","","300","63500","305","64111","300","","","","","","","","","","","","","","","","","","","","","","","","","","","","","","","","",""
"","localizer","","html-keyboard-response","184","353057","0.0-2.0-60.0-0.0","24","65907","female","82","","","","68","0","58","","Stimuli/Experimental_stims/localizer/objects/engin-akyurt-bbbKzTmY2Gg-unsplash.jpg","352651","1","objects","","0","0","1","400","63800","406","64416","","","","","","","","","","","","","","","","","","","","","","","","","","","","","","","","","",""
"","iti_localizer","","html-keyboard-response","185","353362","0.0-2.0-60.0-1.0","24","65907","female","null","","","","null","","58","","","353057","1","","","","","","300","64200","305","64822","300","","","","","","","","","","","","","","","","","","","","","","","","","","","","","","","","",""
"","localizer","","html-keyboard-response","186","353767","0.0-2.0-61.0-0.0","24","65907","female","83","","","","68","0","59","","Stimuli/Experimental_stims/localizer/objects/eugene-chystiakov-3neSwyntbQ8-unsplash.jpg","353362","1","objects","","1","0","0","400","64500","405","65127","","","","","","","","","","","","","","","","","","","","","","","","","","","","","","","","","",""
"","iti_localizer","","html-keyboard-response","187","354072","0.0-2.0-61.0-1.0","24","65907","female","null","","","","null","","59","","","353767","1","","","","","","300","64900","305","65532","300","","","","","","","","","","","","","","","","","","","","","","","","","","","","","","","","",""
"","localizer","","html-keyboard-response","188","354478","0.0-2.0-62.0-0.0","24","65907","female","184","","","","75","1","60","","Stimuli/Experimental_stims/localizer/objects/mae-mu-yl2d0CKW130-unsplash.jpg","354072","1","objects","","0","0","0","400","65200","406","65837","","","","","","","","","","","","","","","","","","","","","","","","","","","","","","","","","",""
"","iti_localizer","","html-keyboard-response","189","354783","0.0-2.0-62.0-1.0","24","65907","female","null","","","","null","","60","","","354478","1","","","","","","300","65600","305","66243","300","","","","","","","","","","","","","","","","","","","","","","","","","","","","","","","","",""
"","localizer","","html-keyboard-response","190","355192","0.0-2.0-63.0-0.0","24","65907","female","144","","","","68","0","61","","Stimuli/Experimental_stims/localizer/objects/sam-moghadam-khamseh-kvmdsTrGOBM-unsplash.jpg","354783","1","objects","","0","0","1","400","65900","409","66548","","","","","","","","","","","","","","","","","","","","","","","","","","","","","","","","","",""
"","iti_localizer","","html-keyboard-response","191","355497","0.0-2.0-63.0-1.0","24","65907","female","null","","","","null","","61","","","355192","1","","","","","","300","66300","305","66957","300","","","","","","","","","","","","","","","","","","","","","","","","","","","","","","","","",""
"","localizer","","html-keyboard-response","192","355902","0.0-2.0-64.0-0.0","24","65907","female","141","","","","68","0","62","","Stimuli/Experimental_stims/localizer/objects/nordwood-themes-E9tFH39iRPE-unsplash.jpg","355497","1","objects","","0","0","1","400","66600","405","67262","","","","","","","","","","","","","","","","","","","","","","","","","","","","","","","","","",""
"","iti_localizer","","html-keyboard-response","193","356211","0.0-2.0-64.0-1.0","24","65907","female","null","","","","null","","62","","","355902","1","","","","","","300","67000","309","67667","300","","","","","","","","","","","","","","","","","","","","","","","","","","","","","","","","",""
"","localizer","","html-keyboard-response","194","356617","0.0-2.0-65.0-0.0","24","65907","female","105","","","","68","0","63","","Stimuli/Experimental_stims/localizer/objects/mockup-graphics-aUkYaG12Dgs-unsplash.jpg","356211","1","objects","","0","0","1","400","67300","406","67976","","","","","","","","","","","","","","","","","","","","","","","","","","","","","","","","","",""
"","iti_localizer","","html-keyboard-response","195","356922","0.0-2.0-65.0-1.0","24","65907","female","null","","","","null","","63","","","356617","1","","","","","","300","67700","305","68382","300","","","","","","","","","","","","","","","","","","","","","","","","","","","","","","","","",""
"","localizer","","html-keyboard-response","196","357327","0.0-2.0-66.0-0.0","24","65907","female","61","","","","68","0","64","","Stimuli/Experimental_stims/localizer/objects/maria-lupan-Rlakka_pZMU-unsplash.jpg","356922","1","objects","","0","0","1","400","68000","405","68687","","","","","","","","","","","","","","","","","","","","","","","","","","","","","","","","","",""
"","iti_localizer","","html-keyboard-response","197","357631","0.0-2.0-66.0-1.0","24","65907","female","null","","","","null","","64","","","357327","1","","","","","","300","68400","304","69092","300","","","","","","","","","","","","","","","","","","","","","","","","","","","","","","","","",""
"","localizer","","html-keyboard-response","198","358037","0.0-2.0-67.0-0.0","24","65907","female","48","","","","68","0","65","","Stimuli/Experimental_stims/localizer/objects/quaritsch-photography-lZ8onQ1wuY8-unsplash.jpg","357631","1","objects","","0","0","1","400","68700","406","69396","","","","","","","","","","","","","","","","","","","","","","","","","","","","","","","","","",""
"","iti_localizer","","html-keyboard-response","199","372042","0.0-2.0-67.0-1.0","24","65907","female","null","","","","null","","65","","","358037","1","","","","","","14000","69100","14005","69802","14000","","","","","","","","","","","","","","","","","","","","","","","","","","","","","","","","",""
"","localizer","","html-keyboard-response","200","372449","0.0-2.0-68.0-0.0","24","65907","female","NaN","","","","null","NaN","66","","Stimuli/Experimental_stims/localizer/faces/brooke-cagle-Nm70URdtf3c-unsplash (1).jpg","372042","1","faces","","0","1","0","400","83100","407","83807","","","","","","","","","","","","","","","","","","","","","","","","","","","","","","","","","",""
"","iti_localizer","","html-keyboard-response","201","372754","0.0-2.0-68.0-1.0","24","65907","female","null","","","","null","","66","","","372449","1","","","","","","300","83500","305","84214","300","","","","","","","","","","","","","","","","","","","","","","","","","","","","","","","","",""
"","localizer","","html-keyboard-response","202","373160","0.0-2.0-69.0-0.0","24","65907","female","146","","","","68","0","67","","Stimuli/Experimental_stims/localizer/faces/joseph-gonzalez-iFgRcqHznqg-unsplash.jpg","372754","1","faces","","0","0","1","400","83800","406","84519","","","","","","","","","","","","","","","","","","","","","","","","","","","","","","","","","",""
"","iti_localizer","","html-keyboard-response","203","373465","0.0-2.0-69.0-1.0","24","65907","female","null","","","","null","","67","","","373160","1","","","","","","300","84200","305","84925","300","","","","","","","","","","","","","","","","","","","","","","","","","","","","","","","","",""
"","localizer","","html-keyboard-response","204","373871","0.0-2.0-70.0-0.0","24","65907","female","13","","","","68","0","68","","Stimuli/Experimental_stims/localizer/faces/pavel-anoshin-d0peGya6R5Y-unsplash.jpg","373465","1","faces","","0","0","1","400","84500","406","85230","","","","","","","","","","","","","","","","","","","","","","","","","","","","","","","","","",""
"","iti_localizer","","html-keyboard-response","205","374177","0.0-2.0-70.0-1.0","24","65907","female","null","","","","null","","68","","","373871","1","","","","","","300","84900","306","85636","300","","","","","","","","","","","","","","","","","","","","","","","","","","","","","","","","",""
"","localizer","","html-keyboard-response","206","374583","0.0-2.0-71.0-0.0","24","65907","female","NaN","","","","null","NaN","69","","Stimuli/Experimental_stims/localizer/faces/alexis-chloe-TYDkKEgc0Fg-unsplash.jpg","374177","1","faces","","0","1","0","400","85200","406","85942","","","","","","","","","","","","","","","","","","","","","","","","","","","","","","","","","",""
"","iti_localizer","","html-keyboard-response","207","374889","0.0-2.0-71.0-1.0","24","65907","female","null","","","","null","","69","","","374583","1","","","","","","300","85600","306","86348","300","","","","","","","","","","","","","","","","","","","","","","","","","","","","","","","","",""
"","localizer","","html-keyboard-response","208","375297","0.0-2.0-72.0-0.0","24","65907","female","20","","","","68","0","70","","Stimuli/Experimental_stims/localizer/faces/aiony-haust-K0DxxljcRv0-unsplash.jpg","374889","1","faces","","1","0","0","400","85900","408","86654","","","","","","","","","","","","","","","","","","","","","","","","","","","","","","","","","",""
"","iti_localizer","","html-keyboard-response","209","375602","0.0-2.0-72.0-1.0","24","65907","female","null","","","","null","","70","","","375297","1","","","","","","300","86300","305","87062","300","","","","","","","","","","","","","","","","","","","","","","","","","","","","","","","","",""
"","localizer","","html-keyboard-response","210","376007","0.0-2.0-73.0-0.0","24","65907","female","146","","","","75","1","71","","Stimuli/Experimental_stims/localizer/faces/olena-sergienko-0TSd6uCKTKc-unsplash.jpg","375602","1","faces","","0","0","0","400","86600","405","87367","","","","","","","","","","","","","","","","","","","","","","","","","","","","","","","","","",""
"","iti_localizer","","html-keyboard-response","211","376312","0.0-2.0-73.0-1.0","24","65907","female","null","","","","null","","71","","","376007","1","","","","","","300","87000","305","87772","300","","","","","","","","","","","","","","","","","","","","","","","","","","","","","","","","",""
"","localizer","","html-keyboard-response","212","376718","0.0-2.0-74.0-0.0","24","65907","female","13","","","","68","0","72","","Stimuli/Experimental_stims/localizer/faces/aatik-tasneem-7omHUGhhmZ0-unsplash.jpg","376312","1","faces","","0","0","1","400","87300","406","88077","","","","","","","","","","","","","","","","","","","","","","","","","","","","","","","","","",""
"","iti_localizer","","html-keyboard-response","213","377023","0.0-2.0-74.0-1.0","24","65907","female","null","","","","null","","72","","","376718","1","","","","","","300","87700","305","88483","300","","","","","","","","","","","","","","","","","","","","","","","","","","","","","","","","",""
"","localizer","","html-keyboard-response","214","377428","0.0-2.0-75.0-0.0","24","65907","female","NaN","","","","null","NaN","73","","Stimuli/Experimental_stims/localizer/faces/tyler-nix-ZGa9d1a_4tA-unsplash.jpg","377023","1","faces","","0","1","0","400","88000","405","88788","","","","","","","","","","","","","","","","","","","","","","","","","","","","","","","","","",""
"","iti_localizer","","html-keyboard-response","215","377733","0.0-2.0-75.0-1.0","24","65907","female","null","","","","null","","73","","","377428","1","","","","","","300","88400","305","89193","300","","","","","","","","","","","","","","","","","","","","","","","","","","","","","","","","",""
"","localizer","","html-keyboard-response","216","378139","0.0-2.0-76.0-0.0","24","65907","female","11","","","","68","0","74","","Stimuli/Experimental_stims/localizer/faces/imansyah-muhamad-putera-n4KewLKFOZw-unsplash.jpg","377733","1","faces","","0","0","1","400","88700","406","89498","","","","","","","","","","","","","","","","","","","","","","","","","","","","","","","","","",""
"","iti_localizer","","html-keyboard-response","217","378444","0.0-2.0-76.0-1.0","24","65907","female","null","","","","null","","74","","","378139","1","","","","","","300","89100","305","89904","300","","","","","","","","","","","","","","","","","","","","","","","","","","","","","","","","",""
"","localizer","","html-keyboard-response","218","378850","0.0-2.0-77.0-0.0","24","65907","female","NaN","","","","null","NaN","75","","Stimuli/Experimental_stims/localizer/faces/philip-martin-5aGUyCW_PJw-unsplash.jpg","378444","1","faces","","0","1","0","400","89400","406","90209","","","","","","","","","","","","","","","","","","","","","","","","","","","","","","","","","",""
"","iti_localizer","","html-keyboard-response","219","379157","0.0-2.0-77.0-1.0","24","65907","female","null","","","","null","","75","","","378850","1","","","","","","300","89800","307","90615","300","","","","","","","","","","","","","","","","","","","","","","","","","","","","","","","","",""
"","localizer","","html-keyboard-response","220","379564","0.0-2.0-78.0-0.0","24","65907","female","NaN","","","","null","NaN","76","","Stimuli/Experimental_stims/localizer/faces/vince-fleming-j3lf-Jn6deo-unsplash.jpg","379157","1","faces","","0","1","0","400","90100","407","90922","","","","","","","","","","","","","","","","","","","","","","","","","","","","","","","","","",""
"","iti_localizer","","html-keyboard-response","221","379869","0.0-2.0-78.0-1.0","24","65907","female","null","","","","null","","76","","","379564","1","","","","","","300","90500","305","91329","300","","","","","","","","","","","","","","","","","","","","","","","","","","","","","","","","",""
"","localizer","","html-keyboard-response","222","380276","0.0-2.0-79.0-0.0","24","65907","female","NaN","","","","null","NaN","77","","Stimuli/Experimental_stims/localizer/faces/hassan-khan-EGVccebWodM-unsplash.jpg","379869","1","faces","","0","1","0","400","90800","407","91634","","","","","","","","","","","","","","","","","","","","","","","","","","","","","","","","","",""
"","iti_localizer","","html-keyboard-response","223","380580","0.0-2.0-79.0-1.0","24","65907","female","null","","","","null","","77","","","380276","1","","","","","","300","91200","304","92041","300","","","","","","","","","","","","","","","","","","","","","","","","","","","","","","","","",""
"","localizer","","html-keyboard-response","224","380985","0.0-2.0-80.0-0.0","24","65907","female","17","","","","68","0","78","","Stimuli/Experimental_stims/localizer/faces/toa-heftiba-O3ymvT7Wf9U-unsplash.jpg","380580","1","faces","","0","0","1","400","91500","405","92345","","","","","","","","","","","","","","","","","","","","","","","","","","","","","","","","","",""
"","iti_localizer","","html-keyboard-response","225","381292","0.0-2.0-80.0-1.0","24","65907","female","null","","","","null","","78","","","380985","1","","","","","","300","91900","307","92750","300","","","","","","","","","","","","","","","","","","","","","","","","","","","","","","","","",""
"","localizer","","html-keyboard-response","226","381697","0.0-2.0-81.0-0.0","24","65907","female","4","","","","68","0","79","","Stimuli/Experimental_stims/localizer/faces/jurica-koletic-7YVZYZeITc8-unsplash.jpg","381292","1","faces","","0","0","1","400","92200","405","93057","","","","","","","","","","","","","","","","","","","","","","","","","","","","","","","","","",""
"","iti_localizer","","html-keyboard-response","227","382003","0.0-2.0-81.0-1.0","24","65907","female","null","","","","null","","79","","","381697","1","","","","","","300","92600","306","93462","300","","","","","","","","","","","","","","","","","","","","","","","","","","","","","","","","",""
"","localizer","","html-keyboard-response","228","382408","0.0-2.0-82.0-0.0","24","65907","female","77","","","","68","0","80","","Stimuli/Experimental_stims/localizer/faces/rui-silvestre-hAMJpesMeDE-unsplash.jpg","382003","1","faces","","0","0","1","400","92900","405","93768","","","","","","","","","","","","","","","","","","","","","","","","","","","","","","","","","",""
"","iti_localizer","","html-keyboard-response","229","382714","0.0-2.0-82.0-1.0","24","65907","female","null","","","","null","","80","","","382408","1","","","","","","300","93300","306","94173","300","","","","","","","","","","","","","","","","","","","","","","","","","","","","","","","","",""
"","localizer","","html-keyboard-response","230","383119","0.0-2.0-83.0-0.0","24","65907","female","84","","","","68","0","81","","Stimuli/Experimental_stims/localizer/faces/ben-scott-tWb7IsL9CnY-unsplash.jpg","382714","1","faces","","1","0","0","400","93600","405","94479","","","","","","","","","","","","","","","","","","","","","","","","","","","","","","","","","",""
"","iti_localizer","","html-keyboard-response","231","383426","0.0-2.0-83.0-1.0","24","65907","female","null","","","","null","","81","","","383119","1","","","","","","300","94000","307","94884","300","","","","","","","","","","","","","","","","","","","","","","","","","","","","","","","","",""
"","localizer","","html-keyboard-response","232","383831","0.0-2.0-84.0-0.0","24","65907","female","125","","","","75","1","82","","Stimuli/Experimental_stims/localizer/faces/mathias-huysmans-U4JDjYmjn1g-unsplash.jpg","383426","1","faces","","0","0","0","400","94300","405","95191","","","","","","","","","","","","","","","","","","","","","","","","","","","","","","","","","",""
"","iti_localizer","","html-keyboard-response","233","384139","0.0-2.0-84.0-1.0","24","65907","female","null","","","","null","","82","","","383831","1","","","","","","300","94700","308","95596","300","","","","","","","","","","","","","","","","","","","","","","","","","","","","","","","","",""
"","localizer","","html-keyboard-response","234","384545","0.0-2.0-85.0-0.0","24","65907","female","114","","","","68","0","83","","Stimuli/Experimental_stims/localizer/faces/james-marty-h1BuNJZzpC8-unsplash.jpg","384139","1","faces","","0","0","1","400","95000","406","95904","","","","","","","","","","","","","","","","","","","","","","","","","","","","","","","","","",""
"","iti_localizer","","html-keyboard-response","235","384850","0.0-2.0-85.0-1.0","24","65907","female","null","","","","null","","83","","","384545","1","","","","","","300","95400","305","96310","300","","","","","","","","","","","","","","","","","","","","","","","","","","","","","","","","",""
"","localizer","","html-keyboard-response","236","385255","0.0-2.0-86.0-0.0","24","65907","female","99","","","","68","0","84","","Stimuli/Experimental_stims/localizer/faces/drew-hays-agGIKYs4mYs-unsplash.jpg","384850","1","faces","","0","0","1","400","95700","405","96615","","","","","","","","","","","","","","","","","","","","","","","","","","","","","","","","","",""
"","iti_localizer","","html-keyboard-response","237","385561","0.0-2.0-86.0-1.0","24","65907","female","null","","","","null","","84","","","385255","1","","","","","","300","96100","306","97020","300","","","","","","","","","","","","","","","","","","","","","","","","","","","","","","","","",""
"","localizer","","html-keyboard-response","238","385967","0.0-2.0-87.0-0.0","24","65907","female","36","","","","68","0","85","","Stimuli/Experimental_stims/localizer/faces/jakob-owens-lkMJcGDZLVs-unsplash.jpg","385561","1","faces","","0","0","1","400","96400","406","97326","","","","","","","","","","","","","","","","","","","","","","","","","","","","","","","","","",""
"","iti_localizer","","html-keyboard-response","239","399971","0.0-2.0-87.0-1.0","24","65907","female","null","","","","null","","85","","","385967","1","","","","","","14000","96800","14004","97732","14000","","","","","","","","","","","","","","","","","","","","","","","","","","","","","","","","",""
"","localizer","","html-keyboard-response","240","400376","0.0-2.0-88.0-0.0","24","65907","female","NaN","","","","null","NaN","86","","Stimuli/Experimental_stims/localizer/body_parts/marcel-fagin-OUYg0Q3ec-Y-unsplash.jpg","399971","1","body_parts","","0","1","0","400","110800","405","111736","","","","","","","","","","","","","","","","","","","","","","","","","","","","","","","","","",""
"","iti_localizer","","html-keyboard-response","241","400682","0.0-2.0-88.0-1.0","24","65907","female","null","","","","null","","86","","","400376","1","","","","","","300","111200","306","112141","300","","","","","","","","","","","","","","","","","","","","","","","","","","","","","","","","",""
"","localizer","","html-keyboard-response","242","401091","0.0-2.0-89.0-0.0","24","65907","female","163","","","","68","0","87","","Stimuli/Experimental_stims/localizer/body_parts/helen-ast-l2iY5Sh0mTg-unsplash.jpg","400682","1","body_parts","","0","0","1","400","111500","409","112447","","","","","","","","","","","","","","","","","","","","","","","","","","","","","","","","","",""
"","iti_localizer","","html-keyboard-response","243","401396","0.0-2.0-89.0-1.0","24","65907","female","null","","","","null","","87","","","401091","1","","","","","","300","111900","305","112856","300","","","","","","","","","","","","","","","","","","","","","","","","","","","","","","","","",""
"","localizer","","html-keyboard-response","244","401803","0.0-2.0-90.0-0.0","24","65907","female","26","","","","68","0","88","","Stimuli/Experimental_stims/localizer/body_parts/luisa-denu-o5EU_lUB1rg-unsplash.jpg","401396","1","body_parts","","0","0","1","400","112200","407","113161","","","","","","","","","","","","","","","","","","","","","","","","","","","","","","","","","",""
"","iti_localizer","","html-keyboard-response","245","402107","0.0-2.0-90.0-1.0","24","65907","female","null","","","","null","","88","","","401803","1","","","","","","300","112600","304","113568","300","","","","","","","","","","","","","","","","","","","","","","","","","","","","","","","","",""
"","localizer","","html-keyboard-response","246","402512","0.0-2.0-91.0-0.0","24","65907","female","NaN","","","","null","NaN","89","","Stimuli/Experimental_stims/localizer/body_parts/megan-menegay-UojxG_BJxnI-unsplash.jpg","402107","1","body_parts","","0","1","0","400","112900","405","113872","","","","","","","","","","","","","","","","","","","","","","","","","","","","","","","","","",""
"","iti_localizer","","html-keyboard-response","247","402817","0.0-2.0-91.0-1.0","24","65907","female","null","","","","null","","89","","","402512","1","","","","","","300","113300","305","114277","300","","","","","","","","","","","","","","","","","","","","","","","","","","","","","","","","",""
"","localizer","","html-keyboard-response","248","403222","0.0-2.0-92.0-0.0","24","65907","female","52","","","","68","0","90","","Stimuli/Experimental_stims/localizer/body_parts/sincerely-media-9Zf6yh7RYbQ-unsplash.jpg","402817","1","body_parts","","0","0","1","400","113600","405","114582","","","","","","","","","","","","","","","","","","","","","","","","","","","","","","","","","",""
"","iti_localizer","","html-keyboard-response","249","403528","0.0-2.0-92.0-1.0","24","65907","female","null","","","","null","","90","","","403222","1","","","","","","300","114000","306","114987","300","","","","","","","","","","","","","","","","","","","","","","","","","","","","","","","","",""
"","localizer","","html-keyboard-response","250","403934","0.0-2.0-93.0-0.0","24","65907","female","39","","","","68","0","91","","Stimuli/Experimental_stims/localizer/body_parts/sandra-seitamaa-YCc_YAAhY3I-unsplash.jpg","403528","1","body_parts","","1","0","0","400","114300","406","115293","","","","","","","","","","","","","","","","","","","","","","","","","","","","","","","","","",""
"","iti_localizer","","html-keyboard-response","251","404239","0.0-2.0-93.0-1.0","24","65907","female","null","","","","null","","91","","","403934","1","","","","","","300","114700","305","115699","300","","","","","","","","","","","","","","","","","","","","","","","","","","","","","","","","",""
"","localizer","","html-keyboard-response","252","404644","0.0-2.0-94.0-0.0","24","65907","female","70","","","","75","1","92","","Stimuli/Experimental_stims/localizer/body_parts/jonathan-borba-hTwH8QFkPMs-unsplash.jpg","404239","1","body_parts","","0","0","0","400","115000","405","116004","","","","","","","","","","","","","","","","","","","","","","","","","","","","","","","","","",""
"","iti_localizer","","html-keyboard-response","253","404949","0.0-2.0-94.0-1.0","24","65907","female","null","","","","null","","92","","","404644","1","","","","","","300","115400","305","116409","300","","","","","","","","","","","","","","","","","","","","","","","","","","","","","","","","",""
"","localizer","","html-keyboard-response","254","405354","0.0-2.0-95.0-0.0","24","65907","female","NaN","","","","null","NaN","93","","Stimuli/Experimental_stims/localizer/body_parts/bady-abbas-N-VEeMnm7gE-unsplash.jpg","404949","1","body_parts","","0","1","0","400","115700","405","116714","","","","","","","","","","","","","","","","","","","","","","","","","","","","","","","","","",""
"","iti_localizer","","html-keyboard-response","255","405658","0.0-2.0-95.0-1.0","24","65907","female","null","","","","null","","93","","","405354","1","","","","","","300","116100","304","117119","300","","","","","","","","","","","","","","","","","","","","","","","","","","","","","","","","",""
"","localizer","","html-keyboard-response","256","406064","0.0-2.0-96.0-0.0","24","65907","female","NaN","","","","null","NaN","94","","Stimuli/Experimental_stims/localizer/body_parts/sydney-herron-b2W04fGuS70-unsplash.jpg","405658","1","body_parts","","0","1","0","400","116400","406","117423","","","","","","","","","","","","","","","","","","","","","","","","","","","","","","","","","",""
"","iti_localizer","","html-keyboard-response","257","406372","0.0-2.0-96.0-1.0","24","65907","female","null","","","","null","","94","","","406064","1","","","","","","300","116800","308","117829","300","","","","","","","","","","","","","","","","","","","","","","","","","","","","","","","","",""
"","localizer","","html-keyboard-response","258","406778","0.0-2.0-97.0-0.0","24","65907","female","NaN","","","","null","NaN","95","","Stimuli/Experimental_stims/localizer/body_parts/matthew-wheeler-2_UxqsaDMmo-unsplash.jpg","406372","1","body_parts","","0","1","0","400","117100","406","118137","","","","","","","","","","","","","","","","","","","","","","","","","","","","","","","","","",""
"","iti_localizer","","html-keyboard-response","259","407084","0.0-2.0-97.0-1.0","24","65907","female","null","","","","null","","95","","","406778","1","","","","","","300","117500","306","118543","300","","","","","","","","","","","","","","","","","","","","","","","","","","","","","","","","",""
"","localizer","","html-keyboard-response","260","407489","0.0-2.0-98.0-0.0","24","65907","female","NaN","","","","null","NaN","96","","Stimuli/Experimental_stims/localizer/body_parts/sincerely-media-Q7qRyaurQfo-unsplash.jpg","407084","1","body_parts","","0","1","0","400","117800","405","118849","","","","","","","","","","","","","","","","","","","","","","","","","","","","","","","","","",""
"","iti_localizer","","html-keyboard-response","261","407793","0.0-2.0-98.0-1.0","24","65907","female","null","","","","null","","96","","","407489","1","","","","","","300","118200","304","119254","300","","","","","","","","","","","","","","","","","","","","","","","","","","","","","","","","",""
"","localizer","","html-keyboard-response","262","408200","0.0-2.0-99.0-0.0","24","65907","female","NaN","","","","null","NaN","97","","Stimuli/Experimental_stims/localizer/body_parts/sincerely-media-pdynOoM7xmA-unsplash.jpg","407793","1","body_parts","","0","1","0","400","118500","407","119558","","","","","","","","","","","","","","","","","","","","","","","","","","","","","","","","","",""
"","iti_localizer","","html-keyboard-response","263","408507","0.0-2.0-99.0-1.0","24","65907","female","null","","","","null","","97","","","408200","1","","","","","","300","118900","307","119965","300","","","","","","","","","","","","","","","","","","","","","","","","","","","","","","","","",""
"","localizer","","html-keyboard-response","264","408913","0.0-2.0-100.0-0.0","24","65907","female","12","","","","68","0","98","","Stimuli/Experimental_stims/localizer/body_parts/nadine-shaabana-ypyaaEf2ntM-unsplash.jpg","408507","1","body_parts","","0","0","1","400","119200","406","120272","","","","","","","","","","","","","","","","","","","","","","","","","","","","","","","","","",""
"","iti_localizer","","html-keyboard-response","265","409218","0.0-2.0-100.0-1.0","24","65907","female","null","","","","null","","98","","","408913","1","","","","","","300","119600","305","120678","300","","","","","","","","","","","","","","","","","","","","","","","","","","","","","","","","",""
"","localizer","","html-keyboard-response","266","409623","0.0-2.0-101.0-0.0","24","65907","female","10","","","","68","0","99","","Stimuli/Experimental_stims/localizer/body_parts/louis-hansel-FjKTMRTQYAs-unsplash.jpg","409218","1","body_parts","","0","0","1","400","119900","405","120983","","","","","","","","","","","","","","","","","","","","","","","","","","","","","","","","","",""
"","iti_localizer","","html-keyboard-response","267","409928","0.0-2.0-101.0-1.0","24","65907","female","null","","","","null","","99","","","409623","1","","","","","","300","120300","305","121388","300","","","","","","","","","","","","","","","","","","","","","","","","","","","","","","","","",""
"","localizer","","html-keyboard-response","268","410336","0.0-2.0-102.0-0.0","24","65907","female","84","","","","68","0","100","","Stimuli/Experimental_stims/localizer/body_parts/pure-julia-9lVaya31sMk-unsplash.jpg","409928","1","body_parts","","0","0","1","400","120600","408","121693","","","","","","","","","","","","","","","","","","","","","","","","","","","","","","","","","",""
"","iti_localizer","","html-keyboard-response","269","410642","0.0-2.0-102.0-1.0","24","65907","female","null","","","","null","","100","","","410336","1","","","","","","300","121000","306","122101","300","","","","","","","","","","","","","","","","","","","","","","","","","","","","","","","","",""
"","localizer","","html-keyboard-response","270","411048","0.0-2.0-103.0-0.0","24","65907","female","12","","","","68","0","101","","Stimuli/Experimental_stims/localizer/body_parts/sincerely-media-7TBFwUQA6Xk-unsplash.jpg","410642","1","body_parts","","0","0","1","400","121300","406","122407","","","","","","","","","","","","","","","","","","","","","","","","","","","","","","","","","",""
"","iti_localizer","","html-keyboard-response","271","411353","0.0-2.0-103.0-1.0","24","65907","female","null","","","","null","","101","","","411048","1","","","","","","300","121700","305","122813","300","","","","","","","","","","","","","","","","","","","","","","","","","","","","","","","","",""
"","localizer","","html-keyboard-response","272","411758","0.0-2.0-104.0-0.0","24","65907","female","6","","","","68","0","102","","Stimuli/Experimental_stims/localizer/body_parts/bady-abbas-pIySu25o0bM-unsplash.jpg","411353","1","body_parts","","0","0","1","400","122000","405","123118","","","","","","","","","","","","","","","","","","","","","","","","","","","","","","","","","",""
"","iti_localizer","","html-keyboard-response","273","412064","0.0-2.0-104.0-1.0","24","65907","female","null","","","","null","","102","","","411758","1","","","","","","300","122400","306","123523","300","","","","","","","","","","","","","","","","","","","","","","","","","","","","","","","","",""
"","localizer","","html-keyboard-response","274","412471","0.0-2.0-105.0-0.0","24","65907","female","39","","","","68","0","103","","Stimuli/Experimental_stims/localizer/body_parts/hu-chen-tCbTGNwrFNM-unsplash.jpg","412064","1","body_parts","","0","0","1","400","122700","407","123829","","","","","","","","","","","","","","","","","","","","","","","","","","","","","","","","","",""
"","iti_localizer","","html-keyboard-response","275","412775","0.0-2.0-105.0-1.0","24","65907","female","null","","","","null","","103","","","412471","1","","","","","","300","123100","304","124236","300","","","","","","","","","","","","","","","","","","","","","","","","","","","","","","","","",""
"","localizer","","html-keyboard-response","276","413181","0.0-2.0-106.0-0.0","24","65907","female","16","","","","68","0","104","","Stimuli/Experimental_stims/localizer/body_parts/sina-rezakhani-d1gQi0Jl05U-unsplash (1).jpg","412775","1","body_parts","","0","0","1","400","123400","406","124540","","","","","","","","","","","","","","","","","","","","","","","","","","","","","","","","","",""
"","iti_localizer","","html-keyboard-response","277","413486","0.0-2.0-106.0-1.0","24","65907","female","null","","","","null","","104","","","413181","1","","","","","","300","123800","305","124946","300","","","","","","","","","","","","","","","","","","","","","","","","","","","","","","","","",""
"","localizer","","html-keyboard-response","278","413892","0.0-2.0-107.0-0.0","24","65907","female","NaN","","","","null","NaN","105","","Stimuli/Experimental_stims/localizer/body_parts/ant-rozetsky-bXQd8JXx0vs-unsplash.jpg","413486","1","body_parts","","1","1","0","400","124100","406","125251","","","","","","","","","","","","","","","","","","","","","","","","","","","","","","","","","",""
"","iti_localizer","","html-keyboard-response","279","427900","0.0-2.0-107.0-1.0","24","65907","female","null","","","","null","","105","","","413892","1","","","","","","14000","124500","14008","125657","14000","","","","","","","","","","","","","","","","","","","","","","","","","","","","","","","","",""
"","localizer","","html-keyboard-response","280","428306","0.0-2.0-108.0-0.0","24","65907","female","NaN","","","","null","NaN","106","","Stimuli/Experimental_stims/localizer/outdoor_scenes/samsommer-vddccTqwal8-unsplash.jpg","427900","1","outdoor_scenes","","0","1","0","400","138500","406","139665","","","","","","","","","","","","","","","","","","","","","","","","","","","","","","","","","",""
"","iti_localizer","","html-keyboard-response","281","428611","0.0-2.0-108.0-1.0","24","65907","female","null","","","","null","","106","","","428306","1","","","","","","300","138900","305","140071","300","","","","","","","","","","","","","","","","","","","","","","","","","","","","","","","","",""
"","localizer","","html-keyboard-response","282","429017","0.0-2.0-109.0-0.0","24","65907","female","325","","","","68","0","107","","Stimuli/Experimental_stims/localizer/outdoor_scenes/ken-cheung-KonWFWUaAuk-unsplash.jpg","428611","1","outdoor_scenes","","0","0","1","400","139200","406","140376","","","","","","","","","","","","","","","","","","","","","","","","","","","","","","","","","",""
"","iti_localizer","","html-keyboard-response","283","429322","0.0-2.0-109.0-1.0","24","65907","female","null","","","","null","","107","","","429017","1","","","","","","300","139600","305","140782","300","","","","","","","","","","","","","","","","","","","","","","","","","","","","","","","","",""
"","localizer","","html-keyboard-response","284","429727","0.0-2.0-110.0-0.0","24","65907","female","86","","","","68","0","108","","Stimuli/Experimental_stims/localizer/outdoor_scenes/rod-sot-X_vbB7wfv5k-unsplash.jpg","429322","1","outdoor_scenes","","0","0","1","400","139900","405","141087","","","","","","","","","","","","","","","","","","","","","","","","","","","","","","","","","",""
"","iti_localizer","","html-keyboard-response","285","430032","0.0-2.0-110.0-1.0","24","65907","female","null","","","","null","","108","","","429727","1","","","","","","300","140300","305","141492","300","","","","","","","","","","","","","","","","","","","","","","","","","","","","","","","","",""
"","localizer","","html-keyboard-response","286","430437","0.0-2.0-111.0-0.0","24","65907","female","40","","","","68","0","109","","Stimuli/Experimental_stims/localizer/outdoor_scenes/kenneth-thewissen-D76DklsG-5U-unsplash.jpg","430032","1","outdoor_scenes","","0","0","1","400","140600","405","141797","","","","","","","","","","","","","","","","","","","","","","","","","","","","","","","","","",""
"","iti_localizer","","html-keyboard-response","287","430742","0.0-2.0-111.0-1.0","24","65907","female","null","","","","null","","109","","","430437","1","","","","","","300","141000","305","142202","300","","","","","","","","","","","","","","","","","","","","","","","","","","","","","","","","",""
"","localizer","","html-keyboard-response","288","431149","0.0-2.0-112.0-0.0","24","65907","female","65","","","","68","0","110","","Stimuli/Experimental_stims/localizer/outdoor_scenes/andres-sanz-uILhNE1VcwA-unsplash.jpg","430742","1","outdoor_scenes","","0","0","1","400","141300","407","142507","","","","","","","","","","","","","","","","","","","","","","","","","","","","","","","","","",""
"","iti_localizer","","html-keyboard-response","289","431456","0.0-2.0-112.0-1.0","24","65907","female","null","","","","null","","110","","","431149","1","","","","","","300","141700","307","142914","300","","","","","","","","","","","","","","","","","","","","","","","","","","","","","","","","",""
