"success","ttype","start_time","trial_type","trial_index","time_elapsed","internal_node_id","age","PID","gender","rt","responses","view_history","repeat_instructions","key_press","response","index","stimulus_index","path","run","task","isi","is_odd_ball","no_response","acc","duration","onset","left_chosen","chosen_stimulus","unchosen_stimulus","chosen_category","unchosen_category","chosen_rating","unchosen_rating","chosen_path","unchosen_path","pair_id","practice","scramble_screen_time","scramble_instructed_side","stim_type","iti","block","left_stimulus","right_stimulus","left_category","right_category","left_path","right_path","left_rating","right_rating","response_ends_trial","trial_duration","scramble_acc","scramble_no_response","warning","stimulus_id","item_id","outcome","response_rt","deliberation_reward_tally","choice_type","gain_left","left_item_id","right_item_id","higher_outcome_chosen","chosen_left","old_pair","pair_type","old_response","pair_acc","reward_type","outcome_response","outcome_rt","outcome_acc"
"true","full_screen","d06262023hr1808","fullscreen","0","12531","0.0-0.0-0.0","NaN","90251","","","","","","","","","","","","","","","","","","","","","","","","","","","","","","","","","","","","","","","","","","","","","","","","","","","","","","","","","","","","","","","","","",""
"","get_id","","survey-text","1","20810","0.0-0.0-1.0","NaN","90251","","8273","{""Q0"":""22"",""Q1"":""male""}","","","","","","","","","","","","","","","","","","","","","","","","","","","","","","","","","","","","","","","","","","","","","","","","","","","","","","","","","","","","","","",""
"","ratings_instructions","","instructions","2","22593","0.0-1.0-0.0-0.0","NaN","90251","","1536","","[{""page_index"":0,""viewing_time"":1282},{""page_index"":1,""viewing_time"":254}]","","","","","","","","","","","","","","","","","","","","","","","","","","","","","","","","","","","","","","","","","","","","","","","","","","","","","","","","","","","","","",""
"","rating_comprehension_check","","survey-multi-choice","3","25077","0.0-1.0-0.0-1.0","NaN","90251","","2478","{""Q0"":""True"",""Q1"":""Mouse""}","","0","","","","","","","","","","","","","","","","","","","","","","","","","","","","","","","","","","","","","","","","","","","","","","","","","","","","","","","","","","","","",""
"","","","html-keyboard-response","4","25984","0.0-1.0-1.0","NaN","90251","","903","","","","68","","","","","","","","","","","","","","","","","","","","","","","","","","","","","","","","","","","","","","","","","","","","","","","","","","","","","","","","","","","",""
"","rating","","html-slider-response","5","27464","0.0-1.0-2.0","NaN","90251","","1474","","","","","50","0","23","Stimuli/Experimental_stims/faces/rikonavt-HQjfrvdTfak-unsplash.jpg","","","","","","","","","","","","","","","","","","","","","","","","","","","","","","","","","","","","","","","","","","","","","","","","","","","","","","","",""
"","rating","","html-slider-response","6","27622","0.0-1.0-3.0","NaN","90251","","152","","","","","50","1","17","Stimuli/Experimental_stims/faces/good-faces-xmSWVeGEnJw-unsplash.jpg","","","","","","","","","","","","","","","","","","","","","","","","","","","","","","","","","","","","","","","","","","","","","","","","","","","","","","","",""
"","rating","","html-slider-response","7","27790","0.0-1.0-4.0","NaN","90251","","162","","","","","50","2","10","Stimuli/Experimental_stims/outdoor_scenes/shannon-kunkle-dM8INmkyDas-unsplash.jpg","","","","","","","","","","","","","","","","","","","","","","","","","","","","","","","","","","","","","","","","","","","","","","","","","","","","","","","",""
"","rating","","html-slider-response","8","28045","0.0-1.0-5.0","NaN","90251","","250","","","","","50","3","37","Stimuli/Experimental_stims/objects/alexander-andrews-VLGWE_SumrA-unsplash.jpg","","","","","","","","","","","","","","","","","","","","","","","","","","","","","","","","","","","","","","","","","","","","","","","","","","","","","","","",""
"","rating","","html-slider-response","9","28222","0.0-1.0-6.0","NaN","90251","","173","","","","","50","4","12","Stimuli/Experimental_stims/faces/aiony-haust-jmATI5Q_YgY-unsplash.jpg","","","","","","","","","","","","","","","","","","","","","","","","","","","","","","","","","","","","","","","","","","","","","","","","","","","","","","","",""
"","rating","","html-slider-response","10","28391","0.0-1.0-7.0","NaN","90251","","164","","","","","50","5","13","Stimuli/Experimental_stims/faces/daniel-rigdon-dXmXKPP2L4E-unsplash.jpg","","","","","","","","","","","","","","","","","","","","","","","","","","","","","","","","","","","","","","","","","","","","","","","","","","","","","","","",""
"","rating","","html-slider-response","11","28567","0.0-1.0-8.0","NaN","90251","","172","","","","","50","6","46","Stimuli/Experimental_stims/objects/mockup-graphics-PNsj6RiHAF4-unsplash.jpg","","","","","","","","","","","","","","","","","","","","","","","","","","","","","","","","","","","","","","","","","","","","","","","","","","","","","","","",""
"","rating","","html-slider-response","12","28738","0.0-1.0-9.0","NaN","90251","","165","","","","","50","7","0","Stimuli/Experimental_stims/outdoor_scenes/aleksandra-boguslawska-MS7KD9Ti7FQ-unsplash.jpg","","","","","","","","","","","","","","","","","","","","","","","","","","","","","","","","","","","","","","","","","","","","","","","","","","","","","","","",""
"","rating","","html-slider-response","13","28916","0.0-1.0-10.0","NaN","90251","","172","","","","","50","8","42","Stimuli/Experimental_stims/objects/jess-bailey-nOeVi8DsN8U-unsplash.jpg","","","","","","","","","","","","","","","","","","","","","","","","","","","","","","","","","","","","","","","","","","","","","","","","","","","","","","","",""
"","rating","","html-slider-response","14","29082","0.0-1.0-11.0","NaN","90251","","162","","","","","50","9","29","Stimuli/Experimental_stims/body_parts/manuel-schinner-ZwjFuJ7ebpk-unsplash.jpg","","","","","","","","","","","","","","","","","","","","","","","","","","","","","","","","","","","","","","","","","","","","","","","","","","","","","","","",""
"","rating","","html-slider-response","15","29251","0.0-1.0-12.0","NaN","90251","","164","","","","","50","10","45","Stimuli/Experimental_stims/objects/leohoho-rngTKHXumy0-unsplash.jpg","","","","","","","","","","","","","","","","","","","","","","","","","","","","","","","","","","","","","","","","","","","","","","","","","","","","","","","",""
"","rating","","html-slider-response","16","29429","0.0-1.0-13.0","NaN","90251","","172","","","","","50","11","16","Stimuli/Experimental_stims/faces/freddy-kearney-o-ioeoATbIM-unsplash.jpg","","","","","","","","","","","","","","","","","","","","","","","","","","","","","","","","","","","","","","","","","","","","","","","","","","","","","","","",""
"","rating","","html-slider-response","17","29598","0.0-1.0-14.0","NaN","90251","","163","","","","","50","12","35","Stimuli/Experimental_stims/body_parts/wc-so-KH4AAPjb-tI-unsplash.jpg","","","","","","","","","","","","","","","","","","","","","","","","","","","","","","","","","","","","","","","","","","","","","","","","","","","","","","","",""
"","rating","","html-slider-response","18","29776","0.0-1.0-15.0","NaN","90251","","173","","","","","50","13","8","Stimuli/Experimental_stims/outdoor_scenes/samsommer-vddccTqwal8-unsplash.jpg","","","","","","","","","","","","","","","","","","","","","","","","","","","","","","","","","","","","","","","","","","","","","","","","","","","","","","","",""
"","rating","","html-slider-response","19","29953","0.0-1.0-16.0","NaN","90251","","172","","","","","50","14","18","Stimuli/Experimental_stims/faces/jessica-radanavong-mrYkTuAesKE-unsplash.jpg","","","","","","","","","","","","","","","","","","","","","","","","","","","","","","","","","","","","","","","","","","","","","","","","","","","","","","","",""
"","rating","","html-slider-response","20","30134","0.0-1.0-17.0","NaN","90251","","175","","","","","50","15","6","Stimuli/Experimental_stims/outdoor_scenes/meng-ji-8BH_M-53CyA-unsplash.jpg","","","","","","","","","","","","","","","","","","","","","","","","","","","","","","","","","","","","","","","","","","","","","","","","","","","","","","","",""
"","rating","","html-slider-response","21","30324","0.0-1.0-18.0","NaN","90251","","185","","","","","50","16","2","Stimuli/Experimental_stims/outdoor_scenes/bruno-van-der-kraan-qez8mNJ3ilU-unsplash.jpg","","","","","","","","","","","","","","","","","","","","","","","","","","","","","","","","","","","","","","","","","","","","","","","","","","","","","","","",""
"","rating","","html-slider-response","22","30488","0.0-1.0-19.0","NaN","90251","","160","","","","","50","17","33","Stimuli/Experimental_stims/body_parts/tucker-good-36skLT5jZcc-unsplash.jpg","","","","","","","","","","","","","","","","","","","","","","","","","","","","","","","","","","","","","","","","","","","","","","","","","","","","","","","",""
"","rating","","html-slider-response","23","30670","0.0-1.0-20.0","NaN","90251","","176","","","","","50","18","25","Stimuli/Experimental_stims/body_parts/engin-akyurt-Q2rfH3GW39c-unsplash.jpg","","","","","","","","","","","","","","","","","","","","","","","","","","","","","","","","","","","","","","","","","","","","","","","","","","","","","","","",""
"","rating","","html-slider-response","24","30848","0.0-1.0-21.0","NaN","90251","","173","","","","","50","19","4","Stimuli/Experimental_stims/outdoor_scenes/jarrett-kow-1ZOyYPOBn7I-unsplash.jpg","","","","","","","","","","","","","","","","","","","","","","","","","","","","","","","","","","","","","","","","","","","","","","","","","","","","","","","",""
"","rating","","html-slider-response","25","31025","0.0-1.0-22.0","NaN","90251","","172","","","","","50","20","11","Stimuli/Experimental_stims/outdoor_scenes/stephen-leonardi-gyIRjKPXupE-unsplash.jpg","","","","","","","","","","","","","","","","","","","","","","","","","","","","","","","","","","","","","","","","","","","","","","","","","","","","","","","",""
"","rating","","html-slider-response","26","31215","0.0-1.0-23.0","NaN","90251","","185","","","","","50","21","47","Stimuli/Experimental_stims/objects/ronaldo-arthur-vidal-Cdz_lvnl37k-unsplash.jpg","","","","","","","","","","","","","","","","","","","","","","","","","","","","","","","","","","","","","","","","","","","","","","","","","","","","","","","",""
"","rating","","html-slider-response","27","31406","0.0-1.0-24.0","NaN","90251","","185","","","","","50","22","39","Stimuli/Experimental_stims/objects/charlesdeluvio-1-nx1QR5dTE-unsplash.jpg","","","","","","","","","","","","","","","","","","","","","","","","","","","","","","","","","","","","","","","","","","","","","","","","","","","","","","","",""
"","rating","","html-slider-response","28","31575","0.0-1.0-25.0","NaN","90251","","162","","","","","50","23","3","Stimuli/Experimental_stims/outdoor_scenes/henry-be-NLF6hTe4PAg-unsplash.jpg","","","","","","","","","","","","","","","","","","","","","","","","","","","","","","","","","","","","","","","","","","","","","","","","","","","","","","","",""
"","rating","","html-slider-response","29","31752","0.0-1.0-26.0","NaN","90251","","172","","","","","50","24","34","Stimuli/Experimental_stims/body_parts/wagner-santos-mBWMvIuVnso-unsplash.jpg","","","","","","","","","","","","","","","","","","","","","","","","","","","","","","","","","","","","","","","","","","","","","","","","","","","","","","","",""
"","rating","","html-slider-response","30","31930","0.0-1.0-27.0","NaN","90251","","172","","","","","50","25","27","Stimuli/Experimental_stims/body_parts/heike-mintel-i_Gns0ELnLw-unsplash.jpg","","","","","","","","","","","","","","","","","","","","","","","","","","","","","","","","","","","","","","","","","","","","","","","","","","","","","","","",""
"","rating","","html-slider-response","31","32110","0.0-1.0-28.0","NaN","90251","","175","","","","","50","26","43","Stimuli/Experimental_stims/objects/jonathan-greenaway-Y4hGgeiFn3s-unsplash.jpg","","","","","","","","","","","","","","","","","","","","","","","","","","","","","","","","","","","","","","","","","","","","","","","","","","","","","","","",""
"","rating","","html-slider-response","32","32295","0.0-1.0-29.0","NaN","90251","","181","","","","","50","27","40","Stimuli/Experimental_stims/objects/fabian-blank-pElSkGRA2NU-unsplash.jpg","","","","","","","","","","","","","","","","","","","","","","","","","","","","","","","","","","","","","","","","","","","","","","","","","","","","","","","",""
"","rating","","html-slider-response","33","32478","0.0-1.0-30.0","NaN","90251","","177","","","","","50","28","38","Stimuli/Experimental_stims/objects/art-lasovsky-8XddFc6NkBY-unsplash.jpg","","","","","","","","","","","","","","","","","","","","","","","","","","","","","","","","","","","","","","","","","","","","","","","","","","","","","","","",""
"","rating","","html-slider-response","34","32668","0.0-1.0-31.0","NaN","90251","","185","","","","","50","29","9","Stimuli/Experimental_stims/outdoor_scenes/sergey-pesterev-y-b_FOmJXdg-unsplash.jpg","","","","","","","","","","","","","","","","","","","","","","","","","","","","","","","","","","","","","","","","","","","","","","","","","","","","","","","",""
"","rating","","html-slider-response","35","32846","0.0-1.0-32.0","NaN","90251","","173","","","","","50","30","19","Stimuli/Experimental_stims/faces/joel-mott-LaK153ghdig-unsplash.jpg","","","","","","","","","","","","","","","","","","","","","","","","","","","","","","","","","","","","","","","","","","","","","","","","","","","","","","","",""
"","rating","","html-slider-response","36","33036","0.0-1.0-33.0","NaN","90251","","185","","","","","50","31","24","Stimuli/Experimental_stims/body_parts/clay-banks-LjqARJaJotc-unsplash.jpg","","","","","","","","","","","","","","","","","","","","","","","","","","","","","","","","","","","","","","","","","","","","","","","","","","","","","","","",""
"","rating","","html-slider-response","37","33213","0.0-1.0-34.0","NaN","90251","","173","","","","","50","32","14","Stimuli/Experimental_stims/faces/david-siglin-UuW4psOb388-unsplash.jpg","","","","","","","","","","","","","","","","","","","","","","","","","","","","","","","","","","","","","","","","","","","","","","","","","","","","","","","",""
"","rating","","html-slider-response","38","33394","0.0-1.0-35.0","NaN","90251","","176","","","","","50","33","44","Stimuli/Experimental_stims/objects/kuiye-chen-NuOGFo4PudE-unsplash.jpg","","","","","","","","","","","","","","","","","","","","","","","","","","","","","","","","","","","","","","","","","","","","","","","","","","","","","","","",""
"","rating","","html-slider-response","39","33572","0.0-1.0-36.0","NaN","90251","","172","","","","","50","34","15","Stimuli/Experimental_stims/faces/erik-lucatero-d2MSDujJl2g-unsplash.jpg","","","","","","","","","","","","","","","","","","","","","","","","","","","","","","","","","","","","","","","","","","","","","","","","","","","","","","","",""
"","rating","","html-slider-response","40","33762","0.0-1.0-37.0","NaN","90251","","185","","","","","50","35","1","Stimuli/Experimental_stims/outdoor_scenes/ashim-d-silva-S2Q5mdOrrVc-unsplash.jpg","","","","","","","","","","","","","","","","","","","","","","","","","","","","","","","","","","","","","","","","","","","","","","","","","","","","","","","",""
"","rating","","html-slider-response","41","33941","0.0-1.0-38.0","NaN","90251","","174","","","","","50","36","22","Stimuli/Experimental_stims/faces/ravi-patel-VMGAbeeJTKo-unsplash.jpg","","","","","","","","","","","","","","","","","","","","","","","","","","","","","","","","","","","","","","","","","","","","","","","","","","","","","","","",""
"","rating","","html-slider-response","42","34109","0.0-1.0-39.0","NaN","90251","","161","","","","","50","37","26","Stimuli/Experimental_stims/body_parts/engin-akyurt-x_3gyC42btc-unsplash.jpg","","","","","","","","","","","","","","","","","","","","","","","","","","","","","","","","","","","","","","","","","","","","","","","","","","","","","","","",""
"","rating","","html-slider-response","43","34283","0.0-1.0-40.0","NaN","90251","","170","","","","","50","38","31","Stimuli/Experimental_stims/body_parts/sincerely-media-VN6DbKajo5s-unsplash.jpg","","","","","","","","","","","","","","","","","","","","","","","","","","","","","","","","","","","","","","","","","","","","","","","","","","","","","","","",""
"","rating","","html-slider-response","44","34464","0.0-1.0-41.0","NaN","90251","","176","","","","","50","39","36","Stimuli/Experimental_stims/objects/alexander-andrews-JYGnB9gTCls-unsplash.jpg","","","","","","","","","","","","","","","","","","","","","","","","","","","","","","","","","","","","","","","","","","","","","","","","","","","","","","","",""
"","rating","","html-slider-response","45","34644","0.0-1.0-42.0","NaN","90251","","175","","","","","50","40","28","Stimuli/Experimental_stims/body_parts/ira-vishnevskaya-8DQAvdCby1I-unsplash.jpg","","","","","","","","","","","","","","","","","","","","","","","","","","","","","","","","","","","","","","","","","","","","","","","","","","","","","","","",""
"","rating","","html-slider-response","46","34812","0.0-1.0-43.0","NaN","90251","","163","","","","","50","41","20","Stimuli/Experimental_stims/faces/justin-chen-J7Cf1Gch49E-unsplash.jpg","","","","","","","","","","","","","","","","","","","","","","","","","","","","","","","","","","","","","","","","","","","","","","","","","","","","","","","",""
"","rating","","html-slider-response","47","34989","0.0-1.0-44.0","NaN","90251","","172","","","","","50","42","41","Stimuli/Experimental_stims/objects/insung-yoon-w2JtIQQXoRU-unsplash.jpg","","","","","","","","","","","","","","","","","","","","","","","","","","","","","","","","","","","","","","","","","","","","","","","","","","","","","","","",""
"","rating","","html-slider-response","48","35170","0.0-1.0-45.0","NaN","90251","","175","","","","","50","43","7","Stimuli/Experimental_stims/outdoor_scenes/petr-vysohlid-9fqwGqGLUxc-unsplash.jpg","","","","","","","","","","","","","","","","","","","","","","","","","","","","","","","","","","","","","","","","","","","","","","","","","","","","","","","",""
"","rating","","html-slider-response","49","35336","0.0-1.0-46.0","NaN","90251","","160","","","","","50","44","5","Stimuli/Experimental_stims/outdoor_scenes/jeff-king-bJHWJeiHfHc-unsplash.jpg","","","","","","","","","","","","","","","","","","","","","","","","","","","","","","","","","","","","","","","","","","","","","","","","","","","","","","","",""
"","rating","","html-slider-response","50","35526","0.0-1.0-47.0","NaN","90251","","184","","","","","50","45","30","Stimuli/Experimental_stims/body_parts/mika-korhonen-Xodzxosar18-unsplash.jpg","","","","","","","","","","","","","","","","","","","","","","","","","","","","","","","","","","","","","","","","","","","","","","","","","","","","","","","",""
"","rating","","html-slider-response","51","35716","0.0-1.0-48.0","NaN","90251","","185","","","","","50","46","32","Stimuli/Experimental_stims/body_parts/towfiqu-barbhuiya-3AsiVDsZnHg-unsplash.jpg","","","","","","","","","","","","","","","","","","","","","","","","","","","","","","","","","","","","","","","","","","","","","","","","","","","","","","","",""
"","rating","","html-slider-response","52","35906","0.0-1.0-49.0","NaN","90251","","185","","","","","50","47","21","Stimuli/Experimental_stims/faces/leilani-angel-K84vnnzxmTQ-unsplash.jpg","","","","","","","","","","","","","","","","","","","","","","","","","","","","","","","","","","","","","","","","","","","","","","","","","","","","","","","",""
"","localizer_instructions","","instructions","53","37926","0.0-2.0-0.0-0.0","NaN","90251","","1988","","[{""page_index"":0,""viewing_time"":1106},{""page_index"":1,""viewing_time"":288},{""page_index"":2,""viewing_time"":594}]","","","","","","","","","","","","","","","","","","","","","","","","","","","","","","","","","","","","","","","","","","","","","","","","","","","","","","","","","","","","","",""
"","localizer_comprehension_check","","survey-multi-choice","54","41345","0.0-2.0-0.0-1.0","NaN","90251","","3413","{""Q0"":""True"",""Q1"":""K"",""Q2"":""D""}","","0","","","","","","","","","","","","","","","","","","","","","","","","","","","","","","","","","","","","","","","","","","","","","","","","","","","","","","","","","","","","",""
"","","","html-keyboard-response","55","59252","0.0-2.0-1.0","NaN","90251","","17903","","","","68","","","","","","","","","","","","","","","","","","","","","","","","","","","","","","","","","","","","","","","","","","","","","","","","","","","","","","","","","","","",""
"","localizer","","html-keyboard-response","56","59565","0.0-2.0-2.0-0.0","NaN","90251","","NaN","","","","null","NaN","0","","Stimuli/Practice_stims/Localizer/annie-spratt-g9KFpAfQ5bc-unsplash.jpg","0","NaN","","0","1","0","0.3","0","","","","","","","","","","","","","","","","","","","","","","","","","","","","","","","","","","","","","","","","","","","","","","","",""
"","iti_localizer","","html-keyboard-response","57","59972","0.0-2.0-2.0-1.0","NaN","90251","","null","","","","null","","0","","","0","","","","","","0.4","0.3","","","","","","","","","","","","","","","","","","","","","","","","","","","","","","","","","","","","","","","","","","","","","","","",""
"","localizer","","html-keyboard-response","58","60283","0.0-2.0-2.1-0.1","NaN","90251","","NaN","","","","null","NaN","0","","Stimuli/Practice_stims/Localizer/annie-spratt-g9KFpAfQ5bc-unsplash.jpg","0","NaN","","0","1","0","0.3","0.7","","","","","","","","","","","","","","","","","","","","","","","","","","","","","","","","","","","","","","","","","","","","","","","",""
"","iti_localizer","","html-keyboard-response","59","60696","0.0-2.0-2.1-1.1","NaN","90251","","null","","","","null","","0","","","0","","","","","","0.4","1","","","","","","","","","","","","","","","","","","","","","","","","","","","","","","","","","","","","","","","","","","","","","","","",""
"","localizer","","html-keyboard-response","60","61008","0.0-2.0-2.2-0.2","NaN","90251","","NaN","","","","null","NaN","0","","Stimuli/Practice_stims/Localizer/annie-spratt-g9KFpAfQ5bc-unsplash.jpg","0","NaN","","0","1","0","0.3","1.4","","","","","","","","","","","","","","","","","","","","","","","","","","","","","","","","","","","","","","","","","","","","","","","",""
"","iti_localizer","","html-keyboard-response","61","61420","0.0-2.0-2.2-1.2","NaN","90251","","null","","","","null","","0","","","0","","","","","","0.4","1.7","","","","","","","","","","","","","","","","","","","","","","","","","","","","","","","","","","","","","","","","","","","","","","","",""
"","localizer","","html-keyboard-response","62","61733","0.0-2.0-2.3-0.3","NaN","90251","","286","","","","68","0","0","","Stimuli/Practice_stims/Localizer/annie-spratt-g9KFpAfQ5bc-unsplash.jpg","0","NaN","","0","0","1","0.3","2.1","","","","","","","","","","","","","","","","","","","","","","","","","","","","","","","","","","","","","","","","","","","","","","","",""
"","iti_localizer","","html-keyboard-response","63","62140","0.0-2.0-2.3-1.3","NaN","90251","","null","","","","null","","0","","","0","","","","","","0.4","2.4","","","","","","","","","","","","","","","","","","","","","","","","","","","","","","","","","","","","","","","","","","","","","","","",""
"","localizer","","html-keyboard-response","64","62457","0.0-2.0-3.0-0.0","NaN","90251","","NaN","","","","null","NaN","1","","Stimuli/Practice_stims/Localizer/becca-tapert-sY5RjMB1KkE-unsplash.jpg","0","NaN","","0","1","0","0.3","2.8","","","","","","","","","","","","","","","","","","","","","","","","","","","","","","","","","","","","","","","","","","","","","","","",""
"","iti_localizer","","html-keyboard-response","65","62867","0.0-2.0-3.0-1.0","NaN","90251","","null","","","","null","","1","","","0","","","","","","0.4","3.0999999999999996","","","","","","","","","","","","","","","","","","","","","","","","","","","","","","","","","","","","","","","","","","","","","","","",""
"","localizer","","html-keyboard-response","66","63179","0.0-2.0-3.1-0.1","NaN","90251","","NaN","","","","null","NaN","1","","Stimuli/Practice_stims/Localizer/becca-tapert-sY5RjMB1KkE-unsplash.jpg","0","NaN","","0","1","0","0.3","3.4999999999999996","","","","","","","","","","","","","","","","","","","","","","","","","","","","","","","","","","","","","","","","","","","","","","","",""
"","iti_localizer","","html-keyboard-response","67","63591","0.0-2.0-3.1-1.1","NaN","90251","","null","","","","null","","1","","","0","","","","","","0.4","3.7999999999999994","","","","","","","","","","","","","","","","","","","","","","","","","","","","","","","","","","","","","","","","","","","","","","","",""
"","localizer","","html-keyboard-response","68","63901","0.0-2.0-3.2-0.2","NaN","90251","","NaN","","","","null","NaN","1","","Stimuli/Practice_stims/Localizer/becca-tapert-sY5RjMB1KkE-unsplash.jpg","0","NaN","","0","1","0","0.3","4.199999999999999","","","","","","","","","","","","","","","","","","","","","","","","","","","","","","","","","","","","","","","","","","","","","","","",""
"","iti_localizer","","html-keyboard-response","69","64310","0.0-2.0-3.2-1.2","NaN","90251","","null","","","","null","","1","","","0","","","","","","0.4","4.499999999999999","","","","","","","","","","","","","","","","","","","","","","","","","","","","","","","","","","","","","","","","","","","","","","","",""
"","localizer","","html-keyboard-response","70","64621","0.0-2.0-3.3-0.3","NaN","90251","","NaN","","","","null","NaN","1","","Stimuli/Practice_stims/Localizer/becca-tapert-sY5RjMB1KkE-unsplash.jpg","0","NaN","","0","1","0","0.3","4.8999999999999995","","","","","","","","","","","","","","","","","","","","","","","","","","","","","","","","","","","","","","","","","","","","","","","",""
"","iti_localizer","","html-keyboard-response","71","65031","0.0-2.0-3.3-1.3","NaN","90251","","null","","","","null","","1","","","0","","","","","","0.4","5.199999999999999","","","","","","","","","","","","","","","","","","","","","","","","","","","","","","","","","","","","","","","","","","","","","","","",""
"","localizer","","html-keyboard-response","72","65343","0.0-2.0-3.4-0.4","NaN","90251","","242","","","","68","0","1","","Stimuli/Practice_stims/Localizer/becca-tapert-sY5RjMB1KkE-unsplash.jpg","0","NaN","","0","0","1","0.3","5.6","","","","","","","","","","","","","","","","","","","","","","","","","","","","","","","","","","","","","","","","","","","","","","","",""
"","iti_localizer","","html-keyboard-response","73","65760","0.0-2.0-3.4-1.4","NaN","90251","","null","","","","null","","1","","","0","","","","","","0.4","5.8999999999999995","","","","","","","","","","","","","","","","","","","","","","","","","","","","","","","","","","","","","","","","","","","","","","","",""
"","localizer","","html-keyboard-response","74","66068","0.0-2.0-4.0-0.0","NaN","90251","","NaN","","","","null","NaN","2","","Stimuli/Practice_stims/Localizer/charl-durand-bsfXvI25iNg-unsplash.jpg","0","NaN","","1","1","0","0.3","6.3","","","","","","","","","","","","","","","","","","","","","","","","","","","","","","","","","","","","","","","","","","","","","","","",""
"","iti_localizer","","html-keyboard-response","75","66480","0.0-2.0-4.0-1.0","NaN","90251","","null","","","","null","","2","","","0","","","","","","0.4","6.6","","","","","","","","","","","","","","","","","","","","","","","","","","","","","","","","","","","","","","","","","","","","","","","",""
"","localizer","","html-keyboard-response","76","66792","0.0-2.0-4.1-0.1","NaN","90251","","176","","","","75","1","2","","Stimuli/Practice_stims/Localizer/charl-durand-bsfXvI25iNg-unsplash.jpg","0","NaN","","1","0","1","0.3","7","","","","","","","","","","","","","","","","","","","","","","","","","","","","","","","","","","","","","","","","","","","","","","","",""
"","iti_localizer","","html-keyboard-response","77","67208","0.0-2.0-4.1-1.1","NaN","90251","","null","","","","null","","2","","","0","","","","","","0.4","7.3","","","","","","","","","","","","","","","","","","","","","","","","","","","","","","","","","","","","","","","","","","","","","","","",""
"","localizer","","html-keyboard-response","78","67518","0.0-2.0-5.0-0.0","NaN","90251","","249","","","","68","0","3","","Stimuli/Practice_stims/Localizer/nizar-albusaidy-B2r2SWAf5CE-unsplash.jpg","0","NaN","","0","0","1","0.3","7.7","","","","","","","","","","","","","","","","","","","","","","","","","","","","","","","","","","","","","","","","","","","","","","","",""
"","iti_localizer","","html-keyboard-response","79","67937","0.0-2.0-5.0-1.0","NaN","90251","","null","","","","null","","3","","","0","","","","","","0.4","8","","","","","","","","","","","","","","","","","","","","","","","","","","","","","","","","","","","","","","","","","","","","","","","",""
"","localizer","","html-keyboard-response","80","68246","0.0-2.0-6.0-0.0","NaN","90251","","NaN","","","","null","NaN","4","","Stimuli/Practice_stims/Localizer/randy-fath-epf1tdtIIkM-unsplash.jpg","0","NaN","","1","1","0","0.3","8.4","","","","","","","","","","","","","","","","","","","","","","","","","","","","","","","","","","","","","","","","","","","","","","","",""
"","iti_localizer","","html-keyboard-response","81","68654","0.0-2.0-6.0-1.0","NaN","90251","","null","","","","null","","4","","","0","","","","","","0.4","8.700000000000001","","","","","","","","","","","","","","","","","","","","","","","","","","","","","","","","","","","","","","","","","","","","","","","",""
"","localizer","","html-keyboard-response","82","68966","0.0-2.0-6.1-0.1","NaN","90251","","NaN","","","","null","NaN","4","","Stimuli/Practice_stims/Localizer/randy-fath-epf1tdtIIkM-unsplash.jpg","0","NaN","","1","1","0","0.3","9.100000000000001","","","","","","","","","","","","","","","","","","","","","","","","","","","","","","","","","","","","","","","","","","","","","","","",""
"","iti_localizer","","html-keyboard-response","83","69376","0.0-2.0-6.1-1.1","NaN","90251","","null","","","","null","","4","","","0","","","","","","0.4","9.400000000000002","","","","","","","","","","","","","","","","","","","","","","","","","","","","","","","","","","","","","","","","","","","","","","","",""
"","localizer","","html-keyboard-response","84","69688","0.0-2.0-6.2-0.2","NaN","90251","","NaN","","","","null","NaN","4","","Stimuli/Practice_stims/Localizer/randy-fath-epf1tdtIIkM-unsplash.jpg","0","NaN","","1","1","0","0.3","9.800000000000002","","","","","","","","","","","","","","","","","","","","","","","","","","","","","","","","","","","","","","","","","","","","","","","",""
"","iti_localizer","","html-keyboard-response","85","70103","0.0-2.0-6.2-1.2","NaN","90251","","null","","","","null","","4","","","0","","","","","","0.4","10.100000000000003","","","","","","","","","","","","","","","","","","","","","","","","","","","","","","","","","","","","","","","","","","","","","","","",""
"","localizer","","html-keyboard-response","86","70412","0.0-2.0-6.3-0.3","NaN","90251","","NaN","","","","null","NaN","4","","Stimuli/Practice_stims/Localizer/randy-fath-epf1tdtIIkM-unsplash.jpg","0","NaN","","1","1","0","0.3","10.500000000000004","","","","","","","","","","","","","","","","","","","","","","","","","","","","","","","","","","","","","","","","","","","","","","","",""
"","iti_localizer","","html-keyboard-response","87","70825","0.0-2.0-6.3-1.3","NaN","90251","","null","","","","null","","4","","","0","","","","","","0.4","10.800000000000004","","","","","","","","","","","","","","","","","","","","","","","","","","","","","","","","","","","","","","","","","","","","","","","",""
"","localizer","","html-keyboard-response","88","71133","0.0-2.0-6.4-0.4","NaN","90251","","NaN","","","","null","NaN","4","","Stimuli/Practice_stims/Localizer/randy-fath-epf1tdtIIkM-unsplash.jpg","0","NaN","","1","1","0","0.3","11.200000000000005","","","","","","","","","","","","","","","","","","","","","","","","","","","","","","","","","","","","","","","","","","","","","","","",""
"","iti_localizer","","html-keyboard-response","89","71545","0.0-2.0-6.4-1.4","NaN","90251","","null","","","","null","","4","","","0","","","","","","0.4","11.500000000000005","","","","","","","","","","","","","","","","","","","","","","","","","","","","","","","","","","","","","","","","","","","","","","","",""
"","localizer","","html-keyboard-response","90","71856","0.0-2.0-6.5-0.5","NaN","90251","","15","","","","75","1","4","","Stimuli/Practice_stims/Localizer/randy-fath-epf1tdtIIkM-unsplash.jpg","0","NaN","","1","0","1","0.3","11.900000000000006","","","","","","","","","","","","","","","","","","","","","","","","","","","","","","","","","","","","","","","","","","","","","","","",""
"","iti_localizer","","html-keyboard-response","91","72273","0.0-2.0-6.5-1.5","NaN","90251","","null","","","","null","","4","","","0","","","","","","0.4","12.200000000000006","","","","","","","","","","","","","","","","","","","","","","","","","","","","","","","","","","","","","","","","","","","","","","","",""
"","localizer","","html-keyboard-response","92","72582","0.0-2.0-7.0-0.0","NaN","90251","","NaN","","","","null","NaN","5","","Stimuli/Practice_stims/Localizer/yassine-khalfalli-adsQ9d_Cx0c-unsplash.jpg","0","NaN","","0","1","0","0.3","12.600000000000007","","","","","","","","","","","","","","","","","","","","","","","","","","","","","","","","","","","","","","","","","","","","","","","",""
"","iti_localizer","","html-keyboard-response","93","72988","0.0-2.0-7.0-1.0","NaN","90251","","null","","","","null","","5","","","0","","","","","","0.4","12.900000000000007","","","","","","","","","","","","","","","","","","","","","","","","","","","","","","","","","","","","","","","","","","","","","","","",""
"","localizer","","html-keyboard-response","94","73302","0.0-2.0-7.1-0.1","NaN","90251","","NaN","","","","null","NaN","5","","Stimuli/Practice_stims/Localizer/yassine-khalfalli-adsQ9d_Cx0c-unsplash.jpg","0","NaN","","0","1","0","0.3","13.300000000000008","","","","","","","","","","","","","","","","","","","","","","","","","","","","","","","","","","","","","","","","","","","","","","","",""
"","iti_localizer","","html-keyboard-response","95","73720","0.0-2.0-7.1-1.1","NaN","90251","","null","","","","null","","5","","","0","","","","","","0.4","13.600000000000009","","","","","","","","","","","","","","","","","","","","","","","","","","","","","","","","","","","","","","","","","","","","","","","",""
"","localizer","","html-keyboard-response","96","74028","0.0-2.0-7.2-0.2","NaN","90251","","298","","","","68","0","5","","Stimuli/Practice_stims/Localizer/yassine-khalfalli-adsQ9d_Cx0c-unsplash.jpg","0","NaN","","0","0","1","0.3","14.000000000000009","","","","","","","","","","","","","","","","","","","","","","","","","","","","","","","","","","","","","","","","","","","","","","","",""
"","iti_localizer","","html-keyboard-response","97","74440","0.0-2.0-7.2-1.2","NaN","90251","","null","","","","null","","5","","","0","","","","","","0.4","14.30000000000001","","","","","","","","","","","","","","","","","","","","","","","","","","","","","","","","","","","","","","","","","","","","","","","",""
"","practice_over","","html-keyboard-response","98","125573","0.0-2.0-7.2-2.2-0.2","NaN","90251","","51130","","","","68","","","","","","","","","","","","","","","","","","","","","","","","","","","","","","","","","","","","","","","","","","","","","","","","","","","","","","","","","","","",""
"","start_run","","html-keyboard-response","99","127437","0.0-2.0-7.2-2.2-1.2","NaN","90251","","1859","","","","84","","","","","","","","","","","","","","","","","","","","","","","","","","","","","","","","","","","","","","","","","","","","","","","","","","","","","","","","","","","",""
"","localizer","","html-keyboard-response","100","127753","0.0-2.0-8.0-0.0","NaN","90251","","NaN","","","","null","NaN","6","","Stimuli/Experimental_stims/localizer/body_parts/jonathan-borba-hTwH8QFkPMs-unsplash.jpg","1","body_parts","","0","1","0","0.3","0","","","","","","","","","","","","","","","","","","","","","","","","","","","","","","","","","","","","","","","","","","","","","","","",""
"","iti_localizer","","html-keyboard-response","101","128164","0.0-2.0-8.0-1.0","NaN","90251","","null","","","","null","","6","","","1","","","","","","0.4","0.3","","","","","","","","","","","","","","","","","","","","","","","","","","","","","","","","","","","","","","","","","","","","","","","",""
"","localizer","","html-keyboard-response","102","128479","0.0-2.0-9.0-0.0","NaN","90251","","67","","","","68","0","7","","Stimuli/Experimental_stims/localizer/body_parts/freestocks-qw9LFf5T790-unsplash.jpg","1","body_parts","","0","0","1","0.3","0.7","","","","","","","","","","","","","","","","","","","","","","","","","","","","","","","","","","","","","","","","","","","","","","","",""
"","iti_localizer","","html-keyboard-response","103","128888","0.0-2.0-9.0-1.0","NaN","90251","","null","","","","null","","7","","","1","","","","","","0.4","1","","","","","","","","","","","","","","","","","","","","","","","","","","","","","","","","","","","","","","","","","","","","","","","",""
"","localizer","","html-keyboard-response","104","129201","0.0-2.0-10.0-0.0","NaN","90251","","NaN","","","","null","NaN","8","","Stimuli/Experimental_stims/localizer/body_parts/manki-kim-ZtwwncrD4A0-unsplash.jpg","1","body_parts","","0","1","0","0.3","1.4","","","","","","","","","","","","","","","","","","","","","","","","","","","","","","","","","","","","","","","","","","","","","","","",""
"","iti_localizer","","html-keyboard-response","105","129616","0.0-2.0-10.0-1.0","NaN","90251","","null","","","","null","","8","","","1","","","","","","0.4","1.7","","","","","","","","","","","","","","","","","","","","","","","","","","","","","","","","","","","","","","","","","","","","","","","",""
"","localizer","","html-keyboard-response","106","129929","0.0-2.0-11.0-0.0","NaN","90251","","282","","","","68","0","9","","Stimuli/Experimental_stims/localizer/body_parts/matthew-wheeler-2_UxqsaDMmo-unsplash.jpg","1","body_parts","","0","0","1","0.3","2.1","","","","","","","","","","","","","","","","","","","","","","","","","","","","","","","","","","","","","","","","","","","","","","","",""
"","iti_localizer","","html-keyboard-response","107","130345","0.0-2.0-11.0-1.0","NaN","90251","","null","","","","null","","9","","","1","","","","","","0.4","2.4","","","","","","","","","","","","","","","","","","","","","","","","","","","","","","","","","","","","","","","","","","","","","","","",""
"","localizer","","html-keyboard-response","108","130656","0.0-2.0-12.0-0.0","NaN","90251","","199","","","","68","0","10","","Stimuli/Experimental_stims/localizer/body_parts/apostolos-vamvouras-g5wKHRu2QW0-unsplash.jpg","1","body_parts","","0","0","1","0.3","2.8","","","","","","","","","","","","","","","","","","","","","","","","","","","","","","","","","","","","","","","","","","","","","","","",""
"","iti_localizer","","html-keyboard-response","109","131070","0.0-2.0-12.0-1.0","NaN","90251","","null","","","","null","","10","","","1","","","","","","0.4","3.0999999999999996","","","","","","","","","","","","","","","","","","","","","","","","","","","","","","","","","","","","","","","","","","","","","","","",""
"","localizer","","html-keyboard-response","110","131386","0.0-2.0-13.0-0.0","NaN","90251","","268","","","","68","0","11","","Stimuli/Experimental_stims/localizer/body_parts/adrien-king-XzBluXxBoyQ-unsplash.jpg","1","body_parts","","0","0","1","0.3","3.4999999999999996","","","","","","","","","","","","","","","","","","","","","","","","","","","","","","","","","","","","","","","","","","","","","","","",""
"","iti_localizer","","html-keyboard-response","111","131803","0.0-2.0-13.0-1.0","NaN","90251","","null","","","","null","","11","","","1","","","","","","0.4","3.7999999999999994","","","","","","","","","","","","","","","","","","","","","","","","","","","","","","","","","","","","","","","","","","","","","","","",""
"","localizer","","html-keyboard-response","112","132111","0.0-2.0-14.0-0.0","NaN","90251","","303","","","","68","0","12","","Stimuli/Experimental_stims/localizer/body_parts/sincerely-media-QyzlAZjm0r0-unsplash.jpg","1","body_parts","","0","0","1","0.3","4.199999999999999","","","","","","","","","","","","","","","","","","","","","","","","","","","","","","","","","","","","","","","","","","","","","","","",""
"","iti_localizer","","html-keyboard-response","113","132517","0.0-2.0-14.0-1.0","NaN","90251","","null","","","","null","","12","","","1","","","","","","0.4","4.499999999999999","","","","","","","","","","","","","","","","","","","","","","","","","","","","","","","","","","","","","","","","","","","","","","","",""
"","localizer","","html-keyboard-response","114","132832","0.0-2.0-15.0-0.0","NaN","90251","","245","","","","68","0","13","","Stimuli/Experimental_stims/localizer/body_parts/jeremy-bishop-mLd3hAaH2ns-unsplash.jpg","1","body_parts","","0","0","1","0.3","4.8999999999999995","","","","","","","","","","","","","","","","","","","","","","","","","","","","","","","","","","","","","","","","","","","","","","","",""
"","iti_localizer","","html-keyboard-response","115","133251","0.0-2.0-15.0-1.0","NaN","90251","","null","","","","null","","13","","","1","","","","","","0.4","5.199999999999999","","","","","","","","","","","","","","","","","","","","","","","","","","","","","","","","","","","","","","","","","","","","","","","",""
"","localizer","","html-keyboard-response","116","133559","0.0-2.0-16.0-0.0","NaN","90251","","206","","","","68","0","14","","Stimuli/Experimental_stims/localizer/body_parts/niu-niu-5HzOtV-FSlw-unsplash.jpg","1","body_parts","","0","0","1","0.3","5.6","","","","","","","","","","","","","","","","","","","","","","","","","","","","","","","","","","","","","","","","","","","","","","","",""
"","iti_localizer","","html-keyboard-response","117","133966","0.0-2.0-16.0-1.0","NaN","90251","","null","","","","null","","14","","","1","","","","","","0.4","5.8999999999999995","","","","","","","","","","","","","","","","","","","","","","","","","","","","","","","","","","","","","","","","","","","","","","","",""
"","localizer","","html-keyboard-response","118","134282","0.0-2.0-17.0-0.0","NaN","90251","","229","","","","68","0","15","","Stimuli/Experimental_stims/localizer/body_parts/semen-zhuravlev-_XxH_mV8dnk-unsplash (1).jpg","1","body_parts","","1","0","0","0.3","6.3","","","","","","","","","","","","","","","","","","","","","","","","","","","","","","","","","","","","","","","","","","","","","","","",""
"","iti_localizer","","html-keyboard-response","119","134696","0.0-2.0-17.0-1.0","NaN","90251","","null","","","","null","","15","","","1","","","","","","0.4","6.6","","","","","","","","","","","","","","","","","","","","","","","","","","","","","","","","","","","","","","","","","","","","","","","",""
"","localizer","","html-keyboard-response","120","135007","0.0-2.0-18.0-0.0","NaN","90251","","305","","","","68","0","16","","Stimuli/Experimental_stims/localizer/body_parts/xavier-foucrier-dLZUNHsT8vo-unsplash.jpg","1","body_parts","","0","0","1","0.3","7","","","","","","","","","","","","","","","","","","","","","","","","","","","","","","","","","","","","","","","","","","","","","","","",""
"","iti_localizer","","html-keyboard-response","121","135418","0.0-2.0-18.0-1.0","NaN","90251","","null","","","","null","","16","","","1","","","","","","0.4","7.3","","","","","","","","","","","","","","","","","","","","","","","","","","","","","","","","","","","","","","","","","","","","","","","",""
"","localizer","","html-keyboard-response","122","135730","0.0-2.0-19.0-0.0","NaN","90251","","NaN","","","","null","NaN","17","","Stimuli/Experimental_stims/localizer/body_parts/sydney-herron-b2W04fGuS70-unsplash.jpg","1","body_parts","","0","1","0","0.3","7.7","","","","","","","","","","","","","","","","","","","","","","","","","","","","","","","","","","","","","","","","","","","","","","","",""
"","iti_localizer","","html-keyboard-response","123","136146","0.0-2.0-19.0-1.0","NaN","90251","","null","","","","null","","17","","","1","","","","","","0.4","8","","","","","","","","","","","","","","","","","","","","","","","","","","","","","","","","","","","","","","","","","","","","","","","",""
"","localizer","","html-keyboard-response","124","136457","0.0-2.0-20.0-0.0","NaN","90251","","289","","","","68","0","18","","Stimuli/Experimental_stims/localizer/body_parts/bady-abbas-N-VEeMnm7gE-unsplash.jpg","1","body_parts","","1","0","0","0.3","8.4","","","","","","","","","","","","","","","","","","","","","","","","","","","","","","","","","","","","","","","","","","","","","","","",""
"","iti_localizer","","html-keyboard-response","125","136869","0.0-2.0-20.0-1.0","NaN","90251","","null","","","","null","","18","","","1","","","","","","0.4","8.700000000000001","","","","","","","","","","","","","","","","","","","","","","","","","","","","","","","","","","","","","","","","","","","","","","","",""
"","localizer","","html-keyboard-response","126","137185","0.0-2.0-21.0-0.0","NaN","90251","","142","","","","68","0","19","","Stimuli/Experimental_stims/localizer/body_parts/megan-menegay-UojxG_BJxnI-unsplash.jpg","1","body_parts","","0","0","1","0.3","9.100000000000001","","","","","","","","","","","","","","","","","","","","","","","","","","","","","","","","","","","","","","","","","","","","","","","",""
"","iti_localizer","","html-keyboard-response","127","137601","0.0-2.0-21.0-1.0","NaN","90251","","null","","","","null","","19","","","1","","","","","","0.4","9.400000000000002","","","","","","","","","","","","","","","","","","","","","","","","","","","","","","","","","","","","","","","","","","","","","","","",""
"","localizer","","html-keyboard-response","128","137911","0.0-2.0-22.0-0.0","NaN","90251","","171","","","","68","0","20","","Stimuli/Experimental_stims/localizer/body_parts/callum-skelton-3KLMq7y46nA-unsplash.jpg","1","body_parts","","0","0","1","0.3","9.800000000000002","","","","","","","","","","","","","","","","","","","","","","","","","","","","","","","","","","","","","","","","","","","","","","","",""
"","iti_localizer","","html-keyboard-response","129","138321","0.0-2.0-22.0-1.0","NaN","90251","","null","","","","null","","20","","","1","","","","","","0.4","10.100000000000003","","","","","","","","","","","","","","","","","","","","","","","","","","","","","","","","","","","","","","","","","","","","","","","",""
"","localizer","","html-keyboard-response","130","138633","0.0-2.0-23.0-0.0","NaN","90251","","153","","","","68","0","21","","Stimuli/Experimental_stims/localizer/body_parts/sina-rezakhani-d1gQi0Jl05U-unsplash (1).jpg","1","body_parts","","0","0","1","0.3","10.500000000000004","","","","","","","","","","","","","","","","","","","","","","","","","","","","","","","","","","","","","","","","","","","","","","","",""
"","iti_localizer","","html-keyboard-response","131","139049","0.0-2.0-23.0-1.0","NaN","90251","","null","","","","null","","21","","","1","","","","","","0.4","10.800000000000004","","","","","","","","","","","","","","","","","","","","","","","","","","","","","","","","","","","","","","","","","","","","","","","",""
"","localizer","","html-keyboard-response","132","139360","0.0-2.0-24.0-0.0","NaN","90251","","170","","","","68","0","22","","Stimuli/Experimental_stims/localizer/body_parts/luisa-denu-o5EU_lUB1rg-unsplash.jpg","1","body_parts","","0","0","1","0.3","11.200000000000005","","","","","","","","","","","","","","","","","","","","","","","","","","","","","","","","","","","","","","","","","","","","","","","",""
"","iti_localizer","","html-keyboard-response","133","139778","0.0-2.0-24.0-1.0","NaN","90251","","null","","","","null","","22","","","1","","","","","","0.4","11.500000000000005","","","","","","","","","","","","","","","","","","","","","","","","","","","","","","","","","","","","","","","","","","","","","","","",""
"","localizer","","html-keyboard-response","134","140089","0.0-2.0-25.0-0.0","NaN","90251","","233","","","","68","0","23","","Stimuli/Experimental_stims/localizer/body_parts/lucaxx-freire-CacZwMexYdk-unsplash.jpg","1","body_parts","","0","0","1","0.3","11.900000000000006","","","","","","","","","","","","","","","","","","","","","","","","","","","","","","","","","","","","","","","","","","","","","","","",""
"","iti_localizer","","html-keyboard-response","135","140503","0.0-2.0-25.0-1.0","NaN","90251","","null","","","","null","","23","","","1","","","","","","0.4","12.200000000000006","","","","","","","","","","","","","","","","","","","","","","","","","","","","","","","","","","","","","","","","","","","","","","","",""
"","localizer","","html-keyboard-response","136","140816","0.0-2.0-26.0-0.0","NaN","90251","","260","","","","68","0","24","","Stimuli/Experimental_stims/localizer/body_parts/priscilla-du-preez-e6fcNpur53A-unsplash.jpg","1","body_parts","","0","0","1","0.3","12.600000000000007","","","","","","","","","","","","","","","","","","","","","","","","","","","","","","","","","","","","","","","","","","","","","","","",""
"","iti_localizer","","html-keyboard-response","137","141233","0.0-2.0-26.0-1.0","NaN","90251","","null","","","","null","","24","","","1","","","","","","0.4","12.900000000000007","","","","","","","","","","","","","","","","","","","","","","","","","","","","","","","","","","","","","","","","","","","","","","","",""
"","localizer","","html-keyboard-response","138","141542","0.0-2.0-27.0-0.0","NaN","90251","","220","","","","68","0","25","","Stimuli/Experimental_stims/localizer/body_parts/sincerely-media-Q7qRyaurQfo-unsplash.jpg","1","body_parts","","0","0","1","0.3","13.300000000000008","","","","","","","","","","","","","","","","","","","","","","","","","","","","","","","","","","","","","","","","","","","","","","","",""
"","iti_localizer","","html-keyboard-response","139","155550","0.0-2.0-27.0-1.0","NaN","90251","","null","","","","null","","25","","","1","","","","","","14","13.600000000000009","","","","","","","","","","","","","","","","","","","","","","","","","","","","","","","","","","","","","","","","","","","","","","","",""
"","localizer","","html-keyboard-response","140","155865","0.0-2.0-28.0-0.0","NaN","90251","","NaN","","","","null","NaN","26","","Stimuli/Experimental_stims/localizer/faces/icons8-team-6LZuSzSwso0-unsplash.jpg","1","faces","","0","1","0","0.3","27.60000000000001","","","","","","","","","","","","","","","","","","","","","","","","","","","","","","","","","","","","","","","","","","","","","","","",""
"","iti_localizer","","html-keyboard-response","141","156282","0.0-2.0-28.0-1.0","NaN","90251","","null","","","","null","","26","","","1","","","","","","0.4","27.90000000000001","","","","","","","","","","","","","","","","","","","","","","","","","","","","","","","","","","","","","","","","","","","","","","","",""
"","localizer","","html-keyboard-response","142","156593","0.0-2.0-29.0-0.0","NaN","90251","","246","","","","68","0","27","","Stimuli/Experimental_stims/localizer/faces/christian-ferrer-8vT-DgHZDG4-unsplash.jpg","1","faces","","0","0","1","0.3","28.300000000000008","","","","","","","","","","","","","","","","","","","","","","","","","","","","","","","","","","","","","","","","","","","","","","","",""
"","iti_localizer","","html-keyboard-response","143","157008","0.0-2.0-29.0-1.0","NaN","90251","","null","","","","null","","27","","","1","","","","","","0.4","28.60000000000001","","","","","","","","","","","","","","","","","","","","","","","","","","","","","","","","","","","","","","","","","","","","","","","",""
"","localizer","","html-keyboard-response","144","157318","0.0-2.0-30.0-0.0","NaN","90251","","219","","","","68","0","28","","Stimuli/Experimental_stims/localizer/faces/jeffery-erhunse-vp9mRauo68c-unsplash.jpg","1","faces","","0","0","1","0.3","29.000000000000007","","","","","","","","","","","","","","","","","","","","","","","","","","","","","","","","","","","","","","","","","","","","","","","",""
"","iti_localizer","","html-keyboard-response","145","157730","0.0-2.0-30.0-1.0","NaN","90251","","null","","","","null","","28","","","1","","","","","","0.4","29.300000000000008","","","","","","","","","","","","","","","","","","","","","","","","","","","","","","","","","","","","","","","","","","","","","","","",""
"","localizer","","html-keyboard-response","146","158044","0.0-2.0-31.0-0.0","NaN","90251","","233","","","","68","0","29","","Stimuli/Experimental_stims/localizer/faces/toa-heftiba-2O1EUSTRBrY-unsplash.jpg","1","faces","","1","0","0","0.3","29.700000000000006","","","","","","","","","","","","","","","","","","","","","","","","","","","","","","","","","","","","","","","","","","","","","","","",""
"","iti_localizer","","html-keyboard-response","147","158459","0.0-2.0-31.0-1.0","NaN","90251","","null","","","","null","","29","","","1","","","","","","0.4","30.000000000000007","","","","","","","","","","","","","","","","","","","","","","","","","","","","","","","","","","","","","","","","","","","","","","","",""
"","localizer","","html-keyboard-response","148","158767","0.0-2.0-32.0-0.0","NaN","90251","","280","","","","68","0","30","","Stimuli/Experimental_stims/localizer/faces/imansyah-muhamad-putera-n4KewLKFOZw-unsplash.jpg","1","faces","","0","0","1","0.3","30.400000000000006","","","","","","","","","","","","","","","","","","","","","","","","","","","","","","","","","","","","","","","","","","","","","","","",""
"","iti_localizer","","html-keyboard-response","149","159175","0.0-2.0-32.0-1.0","NaN","90251","","null","","","","null","","30","","","1","","","","","","0.4","30.700000000000006","","","","","","","","","","","","","","","","","","","","","","","","","","","","","","","","","","","","","","","","","","","","","","","",""
"","localizer","","html-keyboard-response","150","159492","0.0-2.0-33.0-0.0","NaN","90251","","276","","","","68","0","31","","Stimuli/Experimental_stims/localizer/faces/art-hauntington-jzY0KRJopEI-unsplash.jpg","1","faces","","0","0","1","0.3","31.100000000000005","","","","","","","","","","","","","","","","","","","","","","","","","","","","","","","","","","","","","","","","","","","","","","","",""
"","iti_localizer","","html-keyboard-response","151","159907","0.0-2.0-33.0-1.0","NaN","90251","","null","","","","null","","31","","","1","","","","","","0.4","31.400000000000006","","","","","","","","","","","","","","","","","","","","","","","","","","","","","","","","","","","","","","","","","","","","","","","",""
"","localizer","","html-keyboard-response","152","160213","0.0-2.0-34.0-0.0","NaN","90251","","225","","","","68","0","32","","Stimuli/Experimental_stims/localizer/faces/rafaella-mendes-diniz-et_78QkMMQs-unsplash.jpg","1","faces","","0","0","1","0.3","31.800000000000004","","","","","","","","","","","","","","","","","","","","","","","","","","","","","","","","","","","","","","","","","","","","","","","",""
"","iti_localizer","","html-keyboard-response","153","160626","0.0-2.0-34.0-1.0","NaN","90251","","null","","","","null","","32","","","1","","","","","","0.4","32.1","","","","","","","","","","","","","","","","","","","","","","","","","","","","","","","","","","","","","","","","","","","","","","","",""
"","localizer","","html-keyboard-response","154","160935","0.0-2.0-35.0-0.0","NaN","90251","","179","","","","68","0","33","","Stimuli/Experimental_stims/localizer/faces/christina-wocintechchat-com-0Zx1bDv5BNY-unsplash.jpg","1","faces","","0","0","1","0.3","32.5","","","","","","","","","","","","","","","","","","","","","","","","","","","","","","","","","","","","","","","","","","","","","","","",""
"","iti_localizer","","html-keyboard-response","155","161346","0.0-2.0-35.0-1.0","NaN","90251","","null","","","","null","","33","","","1","","","","","","0.4","32.8","","","","","","","","","","","","","","","","","","","","","","","","","","","","","","","","","","","","","","","","","","","","","","","",""
"","localizer","","html-keyboard-response","156","161655","0.0-2.0-36.0-0.0","NaN","90251","","136","","","","68","0","34","","Stimuli/Experimental_stims/localizer/faces/allef-vinicius-C_1jjFJioWg-unsplash.jpg","1","faces","","0","0","1","0.3","33.199999999999996","","","","","","","","","","","","","","","","","","","","","","","","","","","","","","","","","","","","","","","","","","","","","","","",""
"","iti_localizer","","html-keyboard-response","157","162064","0.0-2.0-36.0-1.0","NaN","90251","","null","","","","null","","34","","","1","","","","","","0.4","33.49999999999999","","","","","","","","","","","","","","","","","","","","","","","","","","","","","","","","","","","","","","","","","","","","","","","",""
"","localizer","","html-keyboard-response","158","162375","0.0-2.0-37.0-0.0","NaN","90251","","92","","","","68","0","35","","Stimuli/Experimental_stims/localizer/faces/hisu-lee-2qvxIr_DXGo-unsplash.jpg","1","faces","","0","0","1","0.3","33.89999999999999","","","","","","","","","","","","","","","","","","","","","","","","","","","","","","","","","","","","","","","","","","","","","","","",""
"","iti_localizer","","html-keyboard-response","159","162784","0.0-2.0-37.0-1.0","NaN","90251","","null","","","","null","","35","","","1","","","","","","0.4","34.19999999999999","","","","","","","","","","","","","","","","","","","","","","","","","","","","","","","","","","","","","","","","","","","","","","","",""
"","localizer","","html-keyboard-response","160","163095","0.0-2.0-38.0-0.0","NaN","90251","","42","","","","68","0","36","","Stimuli/Experimental_stims/localizer/faces/juan-encalada-WC7KIHo13Fc-unsplash.jpg","1","faces","","1","0","0","0.3","34.59999999999999","","","","","","","","","","","","","","","","","","","","","","","","","","","","","","","","","","","","","","","","","","","","","","","",""
"","iti_localizer","","html-keyboard-response","161","163503","0.0-2.0-38.0-1.0","NaN","90251","","null","","","","null","","36","","","1","","","","","","0.4","34.899999999999984","","","","","","","","","","","","","","","","","","","","","","","","","","","","","","","","","","","","","","","","","","","","","","","",""
"","localizer","","html-keyboard-response","162","163815","0.0-2.0-39.0-0.0","NaN","90251","","146","","","","68","0","37","","Stimuli/Experimental_stims/localizer/faces/ivan-dodig-R21SyyJDFgc-unsplash.jpg","1","faces","","0","0","1","0.3","35.29999999999998","","","","","","","","","","","","","","","","","","","","","","","","","","","","","","","","","","","","","","","","","","","","","","","",""
"","iti_localizer","","html-keyboard-response","163","164224","0.0-2.0-39.0-1.0","NaN","90251","","null","","","","null","","37","","","1","","","","","","0.4","35.59999999999998","","","","","","","","","","","","","","","","","","","","","","","","","","","","","","","","","","","","","","","","","","","","","","","",""
"","localizer","","html-keyboard-response","164","164533","0.0-2.0-40.0-0.0","NaN","90251","","172","","","","68","0","38","","Stimuli/Experimental_stims/localizer/faces/christopher-campbell-rDEOVtE7vOs-unsplash.jpg","1","faces","","0","0","1","0.3","35.99999999999998","","","","","","","","","","","","","","","","","","","","","","","","","","","","","","","","","","","","","","","","","","","","","","","",""
"","iti_localizer","","html-keyboard-response","165","164946","0.0-2.0-40.0-1.0","NaN","90251","","null","","","","null","","38","","","1","","","","","","0.4","36.299999999999976","","","","","","","","","","","","","","","","","","","","","","","","","","","","","","","","","","","","","","","","","","","","","","","",""
"","localizer","","html-keyboard-response","166","165256","0.0-2.0-41.0-0.0","NaN","90251","","75","","","","68","0","39","","Stimuli/Experimental_stims/localizer/faces/jakob-owens-lkMJcGDZLVs-unsplash.jpg","1","faces","","0","0","1","0.3","36.699999999999974","","","","","","","","","","","","","","","","","","","","","","","","","","","","","","","","","","","","","","","","","","","","","","","",""
"","iti_localizer","","html-keyboard-response","167","165663","0.0-2.0-41.0-1.0","NaN","90251","","null","","","","null","","39","","","1","","","","","","0.4","36.99999999999997","","","","","","","","","","","","","","","","","","","","","","","","","","","","","","","","","","","","","","","","","","","","","","","",""
"","localizer","","html-keyboard-response","168","165979","0.0-2.0-42.0-0.0","NaN","90251","","43","","","","68","0","40","","Stimuli/Experimental_stims/localizer/faces/brooke-cagle-Nm70URdtf3c-unsplash (1).jpg","1","faces","","0","0","1","0.3","37.39999999999997","","","","","","","","","","","","","","","","","","","","","","","","","","","","","","","","","","","","","","","","","","","","","","","",""
"","iti_localizer","","html-keyboard-response","169","166391","0.0-2.0-42.0-1.0","NaN","90251","","null","","","","null","","40","","","1","","","","","","0.4","37.69999999999997","","","","","","","","","","","","","","","","","","","","","","","","","","","","","","","","","","","","","","","","","","","","","","","",""
"","localizer","","html-keyboard-response","170","166705","0.0-2.0-43.0-0.0","NaN","90251","","49","","","","68","0","41","","Stimuli/Experimental_stims/localizer/faces/pavel-anoshin-d0peGya6R5Y-unsplash.jpg","1","faces","","0","0","1","0.3","38.099999999999966","","","","","","","","","","","","","","","","","","","","","","","","","","","","","","","","","","","","","","","","","","","","","","","",""
"","iti_localizer","","html-keyboard-response","171","167120","0.0-2.0-43.0-1.0","NaN","90251","","null","","","","null","","41","","","1","","","","","","0.4","38.39999999999996","","","","","","","","","","","","","","","","","","","","","","","","","","","","","","","","","","","","","","","","","","","","","","","",""
"","localizer","","html-keyboard-response","172","167433","0.0-2.0-44.0-0.0","NaN","90251","","56","","","","68","0","42","","Stimuli/Experimental_stims/localizer/faces/philip-martin-5aGUyCW_PJw-unsplash.jpg","1","faces","","0","0","1","0.3","38.79999999999996","","","","","","","","","","","","","","","","","","","","","","","","","","","","","","","","","","","","","","","","","","","","","","","",""
"","iti_localizer","","html-keyboard-response","173","167847","0.0-2.0-44.0-1.0","NaN","90251","","null","","","","null","","42","","","1","","","","","","0.4","39.09999999999996","","","","","","","","","","","","","","","","","","","","","","","","","","","","","","","","","","","","","","","","","","","","","","","",""
"","localizer","","html-keyboard-response","174","168152","0.0-2.0-45.0-0.0","NaN","90251","","25","","","","68","0","43","","Stimuli/Experimental_stims/localizer/faces/abstral-official-cyOKLSgkgCE-unsplash.jpg","1","faces","","0","0","1","0.3","39.49999999999996","","","","","","","","","","","","","","","","","","","","","","","","","","","","","","","","","","","","","","","","","","","","","","","",""
"","iti_localizer","","html-keyboard-response","175","168561","0.0-2.0-45.0-1.0","NaN","90251","","null","","","","null","","43","","","1","","","","","","0.4","39.799999999999955","","","","","","","","","","","","","","","","","","","","","","","","","","","","","","","","","","","","","","","","","","","","","","","",""
"","localizer","","html-keyboard-response","176","168875","0.0-2.0-46.0-0.0","NaN","90251","","0","","","","68","0","44","","Stimuli/Experimental_stims/localizer/faces/elijah-hiett-umfpFoKxIVg-unsplash.jpg","1","faces","","0","0","1","0.3","40.19999999999995","","","","","","","","","","","","","","","","","","","","","","","","","","","","","","","","","","","","","","","","","","","","","","","",""
"","iti_localizer","","html-keyboard-response","177","169281","0.0-2.0-46.0-1.0","NaN","90251","","null","","","","null","","44","","","1","","","","","","0.4","40.49999999999995","","","","","","","","","","","","","","","","","","","","","","","","","","","","","","","","","","","","","","","","","","","","","","","",""
"","localizer","","html-keyboard-response","178","169593","0.0-2.0-47.0-0.0","NaN","90251","","NaN","","","","null","NaN","45","","Stimuli/Experimental_stims/localizer/faces/jeffery-erhunse-BQMZ5ligqps-unsplash.jpg","1","faces","","0","1","0","0.3","40.89999999999995","","","","","","","","","","","","","","","","","","","","","","","","","","","","","","","","","","","","","","","","","","","","","","","",""
"","iti_localizer","","html-keyboard-response","179","183610","0.0-2.0-47.0-1.0","NaN","90251","","null","","","","null","","45","","","1","","","","","","14","41.199999999999946","","","","","","","","","","","","","","","","","","","","","","","","","","","","","","","","","","","","","","","","","","","","","","","",""
"","localizer","","html-keyboard-response","180","183921","0.0-2.0-48.0-0.0","NaN","90251","","NaN","","","","null","NaN","46","","Stimuli/Experimental_stims/localizer/outdoor_scenes/kace-rodriguez-p3OzJuT_Dks-unsplash.jpg","1","outdoor_scenes","","0","1","0","0.3","55.199999999999946","","","","","","","","","","","","","","","","","","","","","","","","","","","","","","","","","","","","","","","","","","","","","","","",""
"","iti_localizer","","html-keyboard-response","181","184338","0.0-2.0-48.0-1.0","NaN","90251","","null","","","","null","","46","","","1","","","","","","0.4","55.49999999999994","","","","","","","","","","","","","","","","","","","","","","","","","","","","","","","","","","","","","","","","","","","","","","","",""
"","localizer","","html-keyboard-response","182","184648","0.0-2.0-49.0-0.0","NaN","90251","","NaN","","","","null","NaN","47","","Stimuli/Experimental_stims/localizer/outdoor_scenes/derek-mack-CcRZ4k3c6gA-unsplash.jpg","1","outdoor_scenes","","0","1","0","0.3","55.89999999999994","","","","","","","","","","","","","","","","","","","","","","","","","","","","","","","","","","","","","","","","","","","","","","","",""
"","iti_localizer","","html-keyboard-response","183","185058","0.0-2.0-49.0-1.0","NaN","90251","","null","","","","null","","47","","","1","","","","","","0.4","56.19999999999994","","","","","","","","","","","","","","","","","","","","","","","","","","","","","","","","","","","","","","","","","","","","","","","",""
"","localizer","","html-keyboard-response","184","185371","0.0-2.0-50.0-0.0","NaN","90251","","NaN","","","","null","NaN","48","","Stimuli/Experimental_stims/localizer/outdoor_scenes/sebastian-unrau-v4e3JI7DDHI-unsplash.jpg","1","outdoor_scenes","","0","1","0","0.3","56.59999999999994","","","","","","","","","","","","","","","","","","","","","","","","","","","","","","","","","","","","","","","","","","","","","","","",""
"","iti_localizer","","html-keyboard-response","185","185783","0.0-2.0-50.0-1.0","NaN","90251","","null","","","","null","","48","","","1","","","","","","0.4","56.899999999999935","","","","","","","","","","","","","","","","","","","","","","","","","","","","","","","","","","","","","","","","","","","","","","","",""
"","localizer","","html-keyboard-response","186","186096","0.0-2.0-51.0-0.0","NaN","90251","","NaN","","","","null","NaN","49","","Stimuli/Experimental_stims/localizer/outdoor_scenes/ricardo-gomez-angel-dTSaC-S-7fs-unsplash.jpg","1","outdoor_scenes","","0","1","0","0.3","57.29999999999993","","","","","","","","","","","","","","","","","","","","","","","","","","","","","","","","","","","","","","","","","","","","","","","",""
"","iti_localizer","","html-keyboard-response","187","186504","0.0-2.0-51.0-1.0","NaN","90251","","null","","","","null","","49","","","1","","","","","","0.4","57.59999999999993","","","","","","","","","","","","","","","","","","","","","","","","","","","","","","","","","","","","","","","","","","","","","","","",""
"","localizer","","html-keyboard-response","188","186820","0.0-2.0-52.0-0.0","NaN","90251","","244","","","","68","0","50","","Stimuli/Experimental_stims/localizer/outdoor_scenes/pietro-de-grandi-T7K4aEPoGGk-unsplash.jpg","1","outdoor_scenes","","0","0","1","0.3","57.99999999999993","","","","","","","","","","","","","","","","","","","","","","","","","","","","","","","","","","","","","","","","","","","","","","","",""
"","iti_localizer","","html-keyboard-response","189","187234","0.0-2.0-52.0-1.0","NaN","90251","","null","","","","null","","50","","","1","","","","","","0.4","58.299999999999926","","","","","","","","","","","","","","","","","","","","","","","","","","","","","","","","","","","","","","","","","","","","","","","",""
"","localizer","","html-keyboard-response","190","187547","0.0-2.0-53.0-0.0","NaN","90251","","161","","","","68","0","51","","Stimuli/Experimental_stims/localizer/outdoor_scenes/pascal-debrunner-1WQ5RZuH9xo-unsplash.jpg","1","outdoor_scenes","","0","0","1","0.3","58.699999999999925","","","","","","","","","","","","","","","","","","","","","","","","","","","","","","","","","","","","","","","","","","","","","","","",""
"","iti_localizer","","html-keyboard-response","191","187962","0.0-2.0-53.0-1.0","NaN","90251","","null","","","","null","","51","","","1","","","","","","0.4","58.99999999999992","","","","","","","","","","","","","","","","","","","","","","","","","","","","","","","","","","","","","","","","","","","","","","","",""
"","localizer","","html-keyboard-response","192","188271","0.0-2.0-54.0-0.0","NaN","90251","","138","","","","68","0","52","","Stimuli/Experimental_stims/localizer/outdoor_scenes/jay-cai-F_laX9E8CUo-unsplash.jpg","1","outdoor_scenes","","0","0","1","0.3","59.39999999999992","","","","","","","","","","","","","","","","","","","","","","","","","","","","","","","","","","","","","","","","","","","","","","","",""
"","iti_localizer","","html-keyboard-response","193","188680","0.0-2.0-54.0-1.0","NaN","90251","","null","","","","null","","52","","","1","","","","","","0.4","59.69999999999992","","","","","","","","","","","","","","","","","","","","","","","","","","","","","","","","","","","","","","","","","","","","","","","",""
"","localizer","","html-keyboard-response","194","188992","0.0-2.0-55.0-0.0","NaN","90251","","91","","","","68","0","53","","Stimuli/Experimental_stims/localizer/outdoor_scenes/willian-justen-de-vasconcellos-T_Qe4QlMIvQ-unsplash.jpg","1","outdoor_scenes","","0","0","1","0.3","60.099999999999916","","","","","","","","","","","","","","","","","","","","","","","","","","","","","","","","","","","","","","","","","","","","","","","",""
"","iti_localizer","","html-keyboard-response","195","189402","0.0-2.0-55.0-1.0","NaN","90251","","null","","","","null","","53","","","1","","","","","","0.4","60.39999999999991","","","","","","","","","","","","","","","","","","","","","","","","","","","","","","","","","","","","","","","","","","","","","","","",""
"","localizer","","html-keyboard-response","196","189714","0.0-2.0-56.0-0.0","NaN","90251","","122","","","","68","0","54","","Stimuli/Experimental_stims/localizer/outdoor_scenes/john-mark-arnold-XNIjmb6Ax04-unsplash.jpg","1","outdoor_scenes","","0","0","1","0.3","60.79999999999991","","","","","","","","","","","","","","","","","","","","","","","","","","","","","","","","","","","","","","","","","","","","","","","",""
"","iti_localizer","","html-keyboard-response","197","190126","0.0-2.0-56.0-1.0","NaN","90251","","null","","","","null","","54","","","1","","","","","","0.4","61.09999999999991","","","","","","","","","","","","","","","","","","","","","","","","","","","","","","","","","","","","","","","","","","","","","","","",""
"","localizer","","html-keyboard-response","198","190443","0.0-2.0-57.0-0.0","NaN","90251","","269","","","","68","0","55","","Stimuli/Experimental_stims/localizer/outdoor_scenes/john-fowler-aaIN3y2zcMQ-unsplash.jpg","1","outdoor_scenes","","0","0","1","0.3","61.49999999999991","","","","","","","","","","","","","","","","","","","","","","","","","","","","","","","","","","","","","","","","","","","","","","","",""
"","iti_localizer","","html-keyboard-response","199","190855","0.0-2.0-57.0-1.0","NaN","90251","","null","","","","null","","55","","","1","","","","","","0.4","61.799999999999905","","","","","","","","","","","","","","","","","","","","","","","","","","","","","","","","","","","","","","","","","","","","","","","",""
"","localizer","","html-keyboard-response","200","191168","0.0-2.0-58.0-0.0","NaN","90251","","277","","","","68","0","56","","Stimuli/Experimental_stims/localizer/outdoor_scenes/chris-holgersson-zshyCr6HGw0-unsplash.jpg","1","outdoor_scenes","","0","0","1","0.3","62.1999999999999","","","","","","","","","","","","","","","","","","","","","","","","","","","","","","","","","","","","","","","","","","","","","","","",""
"","iti_localizer","","html-keyboard-response","201","191580","0.0-2.0-58.0-1.0","NaN","90251","","null","","","","null","","56","","","1","","","","","","0.4","62.4999999999999","","","","","","","","","","","","","","","","","","","","","","","","","","","","","","","","","","","","","","","","","","","","","","","",""
"","localizer","","html-keyboard-response","202","191889","0.0-2.0-59.0-0.0","NaN","90251","","246","","","","68","0","57","","Stimuli/Experimental_stims/localizer/outdoor_scenes/fabian-quintero-UWQP2mh5YJI-unsplash.jpg","1","outdoor_scenes","","1","0","0","0.3","62.8999999999999","","","","","","","","","","","","","","","","","","","","","","","","","","","","","","","","","","","","","","","","","","","","","","","",""
"","iti_localizer","","html-keyboard-response","203","192307","0.0-2.0-59.0-1.0","NaN","90251","","null","","","","null","","57","","","1","","","","","","0.4","63.199999999999896","","","","","","","","","","","","","","","","","","","","","","","","","","","","","","","","","","","","","","","","","","","","","","","",""
"","localizer","","html-keyboard-response","204","192617","0.0-2.0-60.0-0.0","NaN","90251","","209","","","","68","0","58","","Stimuli/Experimental_stims/localizer/outdoor_scenes/wai-siew-mTFyV8oNDzU-unsplash.jpg","1","outdoor_scenes","","1","0","0","0.3","63.599999999999895","","","","","","","","","","","","","","","","","","","","","","","","","","","","","","","","","","","","","","","","","","","","","","","",""
"","iti_localizer","","html-keyboard-response","205","193022","0.0-2.0-60.0-1.0","NaN","90251","","null","","","","null","","58","","","1","","","","","","0.4","63.89999999999989","","","","","","","","","","","","","","","","","","","","","","","","","","","","","","","","","","","","","","","","","","","","","","","",""
"","localizer","","html-keyboard-response","206","193337","0.0-2.0-61.0-0.0","NaN","90251","","NaN","","","","null","NaN","59","","Stimuli/Experimental_stims/localizer/outdoor_scenes/rod-sot-X_vbB7wfv5k-unsplash.jpg","1","outdoor_scenes","","0","1","0","0.3","64.2999999999999","","","","","","","","","","","","","","","","","","","","","","","","","","","","","","","","","","","","","","","","","","","","","","","",""
"","iti_localizer","","html-keyboard-response","207","193753","0.0-2.0-61.0-1.0","NaN","90251","","null","","","","null","","59","","","1","","","","","","0.4","64.5999999999999","","","","","","","","","","","","","","","","","","","","","","","","","","","","","","","","","","","","","","","","","","","","","","","",""
"","localizer","","html-keyboard-response","208","194063","0.0-2.0-62.0-0.0","NaN","90251","","NaN","","","","null","NaN","60","","Stimuli/Experimental_stims/localizer/outdoor_scenes/marcelo-quinan-u0ZgqJD55pE-unsplash.jpg","1","outdoor_scenes","","0","1","0","0.3","64.9999999999999","","","","","","","","","","","","","","","","","","","","","","","","","","","","","","","","","","","","","","","","","","","","","","","",""
"","iti_localizer","","html-keyboard-response","209","194476","0.0-2.0-62.0-1.0","NaN","90251","","null","","","","null","","60","","","1","","","","","","0.4","65.2999999999999","","","","","","","","","","","","","","","","","","","","","","","","","","","","","","","","","","","","","","","","","","","","","","","",""
"","localizer","","html-keyboard-response","210","194783","0.0-2.0-63.0-0.0","NaN","90251","","NaN","","","","null","NaN","61","","Stimuli/Experimental_stims/localizer/outdoor_scenes/antoine-beauvillain-qrPqGP-SG8w-unsplash.jpg","1","outdoor_scenes","","0","1","0","0.3","65.6999999999999","","","","","","","","","","","","","","","","","","","","","","","","","","","","","","","","","","","","","","","","","","","","","","","",""
"","iti_localizer","","html-keyboard-response","211","195193","0.0-2.0-63.0-1.0","NaN","90251","","null","","","","null","","61","","","1","","","","","","0.4","65.9999999999999","","","","","","","","","","","","","","","","","","","","","","","","","","","","","","","","","","","","","","","","","","","","","","","",""
"","localizer","","html-keyboard-response","212","195503","0.0-2.0-64.0-0.0","NaN","90251","","NaN","","","","null","NaN","62","","Stimuli/Experimental_stims/localizer/outdoor_scenes/cosmic-timetraveler-pYyOZ8q7AII-unsplash.jpg","1","outdoor_scenes","","0","1","0","0.3","66.3999999999999","","","","","","","","","","","","","","","","","","","","","","","","","","","","","","","","","","","","","","","","","","","","","","","",""
"","iti_localizer","","html-keyboard-response","213","195915","0.0-2.0-64.0-1.0","NaN","90251","","null","","","","null","","62","","","1","","","","","","0.4","66.6999999999999","","","","","","","","","","","","","","","","","","","","","","","","","","","","","","","","","","","","","","","","","","","","","","","",""
"","localizer","","html-keyboard-response","214","196226","0.0-2.0-65.0-0.0","NaN","90251","","199","","","","68","0","63","","Stimuli/Experimental_stims/localizer/outdoor_scenes/darrell-cassell-hoCXpPUMCoE-unsplash.jpg","1","outdoor_scenes","","0","0","1","0.3","67.09999999999991","","","","","","","","","","","","","","","","","","","","","","","","","","","","","","","","","","","","","","","","","","","","","","","",""
"","iti_localizer","","html-keyboard-response","215","196640","0.0-2.0-65.0-1.0","NaN","90251","","null","","","","null","","63","","","1","","","","","","0.4","67.3999999999999","","","","","","","","","","","","","","","","","","","","","","","","","","","","","","","","","","","","","","","","","","","","","","","",""
"","localizer","","html-keyboard-response","216","196950","0.0-2.0-66.0-0.0","NaN","90251","","260","","","","68","0","64","","Stimuli/Experimental_stims/localizer/outdoor_scenes/jordan-heath-4z_SYrG5mgA-unsplash.jpg","1","outdoor_scenes","","0","0","1","0.3","67.79999999999991","","","","","","","","","","","","","","","","","","","","","","","","","","","","","","","","","","","","","","","","","","","","","","","",""
"","iti_localizer","","html-keyboard-response","217","197363","0.0-2.0-66.0-1.0","NaN","90251","","null","","","","null","","64","","","1","","","","","","0.4","68.09999999999991","","","","","","","","","","","","","","","","","","","","","","","","","","","","","","","","","","","","","","","","","","","","","","","",""
"","localizer","","html-keyboard-response","218","197672","0.0-2.0-67.0-0.0","NaN","90251","","NaN","","","","null","NaN","65","","Stimuli/Experimental_stims/localizer/outdoor_scenes/damian-patkowski-T-LfvX-7IVg-unsplash.jpg","1","outdoor_scenes","","0","1","0","0.3","68.49999999999991","","","","","","","","","","","","","","","","","","","","","","","","","","","","","","","","","","","","","","","","","","","","","","","",""
"","iti_localizer","","html-keyboard-response","219","211683","0.0-2.0-67.0-1.0","NaN","90251","","null","","","","null","","65","","","1","","","","","","14","68.79999999999991","","","","","","","","","","","","","","","","","","","","","","","","","","","","","","","","","","","","","","","","","","","","","","","",""
"","localizer","","html-keyboard-response","220","212009","0.0-2.0-68.0-0.0","NaN","90251","","NaN","","","","null","NaN","66","","Stimuli/Experimental_stims/localizer/objects/designecologist-hvgd0ygXuQQ-unsplash.jpg","1","objects","","0","1","0","0.3","82.79999999999991","","","","","","","","","","","","","","","","","","","","","","","","","","","","","","","","","","","","","","","","","","","","","","","",""
"","iti_localizer","","html-keyboard-response","221","212419","0.0-2.0-68.0-1.0","NaN","90251","","null","","","","null","","66","","","1","","","","","","0.4","83.09999999999991","","","","","","","","","","","","","","","","","","","","","","","","","","","","","","","","","","","","","","","","","","","","","","","",""
"","localizer","","html-keyboard-response","222","212728","0.0-2.0-69.0-0.0","NaN","90251","","NaN","","","","null","NaN","67","","Stimuli/Experimental_stims/localizer/objects/barrett-ward-0lMpQaXfOCg-unsplash.jpg","1","objects","","0","1","0","0.3","83.49999999999991","","","","","","","","","","","","","","","","","","","","","","","","","","","","","","","","","","","","","","","","","","","","","","","",""
"","iti_localizer","","html-keyboard-response","223","213138","0.0-2.0-69.0-1.0","NaN","90251","","null","","","","null","","67","","","1","","","","","","0.4","83.79999999999991","","","","","","","","","","","","","","","","","","","","","","","","","","","","","","","","","","","","","","","","","","","","","","","",""
"","localizer","","html-keyboard-response","224","213452","0.0-2.0-70.0-0.0","NaN","90251","","NaN","","","","null","NaN","68","","Stimuli/Experimental_stims/localizer/objects/sam-moghadam-khamseh-kvmdsTrGOBM-unsplash.jpg","1","objects","","0","1","0","0.3","84.19999999999992","","","","","","","","","","","","","","","","","","","","","","","","","","","","","","","","","","","","","","","","","","","","","","","",""
"","iti_localizer","","html-keyboard-response","225","213867","0.0-2.0-70.0-1.0","NaN","90251","","null","","","","null","","68","","","1","","","","","","0.4","84.49999999999991","","","","","","","","","","","","","","","","","","","","","","","","","","","","","","","","","","","","","","","","","","","","","","","",""
"","localizer","","html-keyboard-response","226","214178","0.0-2.0-71.0-0.0","NaN","90251","","NaN","","","","null","NaN","69","","Stimuli/Experimental_stims/localizer/objects/dario-mendez-WmF_XLF4-Rs-unsplash.jpg","1","objects","","0","1","0","0.3","84.89999999999992","","","","","","","","","","","","","","","","","","","","","","","","","","","","","","","","","","","","","","","","","","","","","","","",""
"","iti_localizer","","html-keyboard-response","227","214591","0.0-2.0-71.0-1.0","NaN","90251","","null","","","","null","","69","","","1","","","","","","0.4","85.19999999999992","","","","","","","","","","","","","","","","","","","","","","","","","","","","","","","","","","","","","","","","","","","","","","","",""
"","localizer","","html-keyboard-response","228","214906","0.0-2.0-72.0-0.0","NaN","90251","","NaN","","","","null","NaN","70","","Stimuli/Experimental_stims/localizer/objects/saif71-com-VIKdvmGUhq8-unsplash.jpg","1","objects","","0","1","0","0.3","85.59999999999992","","","","","","","","","","","","","","","","","","","","","","","","","","","","","","","","","","","","","","","","","","","","","","","",""
"","iti_localizer","","html-keyboard-response","229","215323","0.0-2.0-72.0-1.0","NaN","90251","","null","","","","null","","70","","","1","","","","","","0.4","85.89999999999992","","","","","","","","","","","","","","","","","","","","","","","","","","","","","","","","","","","","","","","","","","","","","","","",""
"","localizer","","html-keyboard-response","230","215633","0.0-2.0-73.0-0.0","NaN","90251","","NaN","","","","null","NaN","71","","Stimuli/Experimental_stims/localizer/objects/quino-al-4SNUcHPiC8c-unsplash.jpg","1","objects","","0","1","0","0.3","86.29999999999993","","","","","","","","","","","","","","","","","","","","","","","","","","","","","","","","","","","","","","","","","","","","","","","",""
"","iti_localizer","","html-keyboard-response","231","216045","0.0-2.0-73.0-1.0","NaN","90251","","null","","","","null","","71","","","1","","","","","","0.4","86.59999999999992","","","","","","","","","","","","","","","","","","","","","","","","","","","","","","","","","","","","","","","","","","","","","","","",""
"","localizer","","html-keyboard-response","232","216352","0.0-2.0-74.0-0.0","NaN","90251","","NaN","","","","null","NaN","72","","Stimuli/Experimental_stims/localizer/objects/kelly-jean-cKjbI0Y00X0-unsplash.jpg","1","objects","","0","1","0","0.3","86.99999999999993","","","","","","","","","","","","","","","","","","","","","","","","","","","","","","","","","","","","","","","","","","","","","","","",""
"","iti_localizer","","html-keyboard-response","233","216765","0.0-2.0-74.0-1.0","NaN","90251","","null","","","","null","","72","","","1","","","","","","0.4","87.29999999999993","","","","","","","","","","","","","","","","","","","","","","","","","","","","","","","","","","","","","","","","","","","","","","","",""
"","localizer","","html-keyboard-response","234","217080","0.0-2.0-75.0-0.0","NaN","90251","","NaN","","","","null","NaN","73","","Stimuli/Experimental_stims/localizer/objects/andrew-petrov-TVJqDat4MAw-unsplash.jpg","1","objects","","0","1","0","0.3","87.69999999999993","","","","","","","","","","","","","","","","","","","","","","","","","","","","","","","","","","","","","","","","","","","","","","","",""
"","iti_localizer","","html-keyboard-response","235","217491","0.0-2.0-75.0-1.0","NaN","90251","","null","","","","null","","73","","","1","","","","","","0.4","87.99999999999993","","","","","","","","","","","","","","","","","","","","","","","","","","","","","","","","","","","","","","","","","","","","","","","",""
"","localizer","","html-keyboard-response","236","217804","0.0-2.0-76.0-0.0","NaN","90251","","NaN","","","","null","NaN","74","","Stimuli/Experimental_stims/localizer/objects/recha-oktaviani-t__61ap00Mc-unsplash.jpg","1","objects","","0","1","0","0.3","88.39999999999993","","","","","","","","","","","","","","","","","","","","","","","","","","","","","","","","","","","","","","","","","","","","","","","",""
"","iti_localizer","","html-keyboard-response","237","218218","0.0-2.0-76.0-1.0","NaN","90251","","null","","","","null","","74","","","1","","","","","","0.4","88.69999999999993","","","","","","","","","","","","","","","","","","","","","","","","","","","","","","","","","","","","","","","","","","","","","","","",""
"","localizer","","html-keyboard-response","238","218530","0.0-2.0-77.0-0.0","NaN","90251","","NaN","","","","null","NaN","75","","Stimuli/Experimental_stims/localizer/objects/yoann-siloine-_T4w3JDm6ug-unsplash.jpg","1","objects","","1","1","0","0.3","89.09999999999994","","","","","","","","","","","","","","","","","","","","","","","","","","","","","","","","","","","","","","","","","","","","","","","",""
"","iti_localizer","","html-keyboard-response","239","218949","0.0-2.0-77.0-1.0","NaN","90251","","null","","","","null","","75","","","1","","","","","","0.4","89.39999999999993","","","","","","","","","","","","","","","","","","","","","","","","","","","","","","","","","","","","","","","","","","","","","","","",""
"","localizer","","html-keyboard-response","240","219257","0.0-2.0-78.0-0.0","NaN","90251","","NaN","","","","null","NaN","76","","Stimuli/Experimental_stims/localizer/objects/dan-cristian-padure-ezoshbcxWrM-unsplash.jpg","1","objects","","0","1","0","0.3","89.79999999999994","","","","","","","","","","","","","","","","","","","","","","","","","","","","","","","","","","","","","","","","","","","","","","","",""
"","iti_localizer","","html-keyboard-response","241","219667","0.0-2.0-78.0-1.0","NaN","90251","","null","","","","null","","76","","","1","","","","","","0.4","90.09999999999994","","","","","","","","","","","","","","","","","","","","","","","","","","","","","","","","","","","","","","","","","","","","","","","",""
"","localizer","","html-keyboard-response","242","219980","0.0-2.0-79.0-0.0","NaN","90251","","NaN","","","","null","NaN","77","","Stimuli/Experimental_stims/localizer/objects/raimond-klavins-ZdvDPXVvcKs-unsplash.jpg","1","objects","","1","1","0","0.3","90.49999999999994","","","","","","","","","","","","","","","","","","","","","","","","","","","","","","","","","","","","","","","","","","","","","","","",""
"","iti_localizer","","html-keyboard-response","243","220392","0.0-2.0-79.0-1.0","NaN","90251","","null","","","","null","","77","","","1","","","","","","0.4","90.79999999999994","","","","","","","","","","","","","","","","","","","","","","","","","","","","","","","","","","","","","","","","","","","","","","","",""
"","localizer","","html-keyboard-response","244","220708","0.0-2.0-80.0-0.0","NaN","90251","","NaN","","","","null","NaN","78","","Stimuli/Experimental_stims/localizer/objects/nordwood-themes-E9tFH39iRPE-unsplash.jpg","1","objects","","0","1","0","0.3","91.19999999999995","","","","","","","","","","","","","","","","","","","","","","","","","","","","","","","","","","","","","","","","","","","","","","","",""
"","iti_localizer","","html-keyboard-response","245","221122","0.0-2.0-80.0-1.0","NaN","90251","","null","","","","null","","78","","","1","","","","","","0.4","91.49999999999994","","","","","","","","","","","","","","","","","","","","","","","","","","","","","","","","","","","","","","","","","","","","","","","",""
"","localizer","","html-keyboard-response","246","221431","0.0-2.0-81.0-0.0","NaN","90251","","NaN","","","","null","NaN","79","","Stimuli/Experimental_stims/localizer/objects/alex-lvrs-2zDw14yCYqk-unsplash.jpg","1","objects","","0","1","0","0.3","91.89999999999995","","","","","","","","","","","","","","","","","","","","","","","","","","","","","","","","","","","","","","","","","","","","","","","",""
"","iti_localizer","","html-keyboard-response","247","221844","0.0-2.0-81.0-1.0","NaN","90251","","null","","","","null","","79","","","1","","","","","","0.4","92.19999999999995","","","","","","","","","","","","","","","","","","","","","","","","","","","","","","","","","","","","","","","","","","","","","","","",""
"","localizer","","html-keyboard-response","248","222156","0.0-2.0-82.0-0.0","NaN","90251","","NaN","","","","null","NaN","80","","Stimuli/Experimental_stims/localizer/objects/mockup-graphics-U6ZMEefFGx8-unsplash.jpg","1","objects","","0","1","0","0.3","92.59999999999995","","","","","","","","","","","","","","","","","","","","","","","","","","","","","","","","","","","","","","","","","","","","","","","",""
"","iti_localizer","","html-keyboard-response","249","222569","0.0-2.0-82.0-1.0","NaN","90251","","null","","","","null","","80","","","1","","","","","","0.4","92.89999999999995","","","","","","","","","","","","","","","","","","","","","","","","","","","","","","","","","","","","","","","","","","","","","","","",""
"","localizer","","html-keyboard-response","250","222881","0.0-2.0-83.0-0.0","NaN","90251","","NaN","","","","null","NaN","81","","Stimuli/Experimental_stims/localizer/objects/eugene-chystiakov-3neSwyntbQ8-unsplash.jpg","1","objects","","0","1","0","0.3","93.29999999999995","","","","","","","","","","","","","","","","","","","","","","","","","","","","","","","","","","","","","","","","","","","","","","","",""
"","iti_localizer","","html-keyboard-response","251","223292","0.0-2.0-83.0-1.0","NaN","90251","","null","","","","null","","81","","","1","","","","","","0.4","93.59999999999995","","","","","","","","","","","","","","","","","","","","","","","","","","","","","","","","","","","","","","","","","","","","","","","",""
"","localizer","","html-keyboard-response","252","223604","0.0-2.0-84.0-0.0","NaN","90251","","NaN","","","","null","NaN","82","","Stimuli/Experimental_stims/localizer/objects/dario-mendez-hnJ2VNZzbns-unsplash.jpg","1","objects","","0","1","0","0.3","93.99999999999996","","","","","","","","","","","","","","","","","","","","","","","","","","","","","","","","","","","","","","","","","","","","","","","",""
"","iti_localizer","","html-keyboard-response","253","224021","0.0-2.0-84.0-1.0","NaN","90251","","null","","","","null","","82","","","1","","","","","","0.4","94.29999999999995","","","","","","","","","","","","","","","","","","","","","","","","","","","","","","","","","","","","","","","","","","","","","","","",""
"","localizer","","html-keyboard-response","254","224331","0.0-2.0-85.0-0.0","NaN","90251","","NaN","","","","null","NaN","83","","Stimuli/Experimental_stims/localizer/objects/carlos-felipe-ramirez-mesa-HW7bfB3ERSQ-unsplash.jpg","1","objects","","0","1","0","0.3","94.69999999999996","","","","","","","","","","","","","","","","","","","","","","","","","","","","","","","","","","","","","","","","","","","","","","","",""
"","iti_localizer","","html-keyboard-response","255","224748","0.0-2.0-85.0-1.0","NaN","90251","","null","","","","null","","83","","","1","","","","","","0.4","94.99999999999996","","","","","","","","","","","","","","","","","","","","","","","","","","","","","","","","","","","","","","","","","","","","","","","",""
"","localizer","","html-keyboard-response","256","225056","0.0-2.0-86.0-0.0","NaN","90251","","NaN","","","","null","NaN","84","","Stimuli/Experimental_stims/localizer/objects/adriano-pucciarelli-Jl3S1yM8gi8-unsplash.jpg","1","objects","","0","1","0","0.3","95.39999999999996","","","","","","","","","","","","","","","","","","","","","","","","","","","","","","","","","","","","","","","","","","","","","","","",""
"","iti_localizer","","html-keyboard-response","257","225465","0.0-2.0-86.0-1.0","NaN","90251","","null","","","","null","","84","","","1","","","","","","0.4","95.69999999999996","","","","","","","","","","","","","","","","","","","","","","","","","","","","","","","","","","","","","","","","","","","","","","","",""
"","localizer","","html-keyboard-response","258","225776","0.0-2.0-87.0-0.0","NaN","90251","","NaN","","","","null","NaN","85","","Stimuli/Experimental_stims/localizer/objects/muhammad-toqeer-NRJ9ipvz2iE-unsplash.jpg","1","objects","","0","1","0","0.3","96.09999999999997","","","","","","","","","","","","","","","","","","","","","","","","","","","","","","","","","","","","","","","","","","","","","","","",""
"","iti_localizer","","html-keyboard-response","259","239785","0.0-2.0-87.0-1.0","NaN","90251","","null","","","","null","","85","","","1","","","","","","14","96.39999999999996","","","","","","","","","","","","","","","","","","","","","","","","","","","","","","","","","","","","","","","","","","","","","","","",""
"","localizer","","html-keyboard-response","260","240099","0.0-2.0-88.0-0.0","NaN","90251","","NaN","","","","null","NaN","86","","Stimuli/Experimental_stims/localizer/outdoor_scenes/sabeer-darr-Upz-tnx2v2s-unsplash.jpg","1","outdoor_scenes","","0","1","0","0.3","110.39999999999996","","","","","","","","","","","","","","","","","","","","","","","","","","","","","","","","","","","","","","","","","","","","","","","",""
"","iti_localizer","","html-keyboard-response","261","240515","0.0-2.0-88.0-1.0","NaN","90251","","null","","","","null","","86","","","1","","","","","","0.4","110.69999999999996","","","","","","","","","","","","","","","","","","","","","","","","","","","","","","","","","","","","","","","","","","","","","","","",""
"","localizer","","html-keyboard-response","262","240829","0.0-2.0-89.0-0.0","NaN","90251","","NaN","","","","null","NaN","87","","Stimuli/Experimental_stims/localizer/outdoor_scenes/alice-donovan-rouse-pZ61ZA8QgcY-unsplash.jpg","1","outdoor_scenes","","0","1","0","0.3","111.09999999999997","","","","","","","","","","","","","","","","","","","","","","","","","","","","","","","","","","","","","","","","","","","","","","","",""
"","iti_localizer","","html-keyboard-response","263","241242","0.0-2.0-89.0-1.0","NaN","90251","","null","","","","null","","87","","","1","","","","","","0.4","111.39999999999996","","","","","","","","","","","","","","","","","","","","","","","","","","","","","","","","","","","","","","","","","","","","","","","",""
"","localizer","","html-keyboard-response","264","241557","0.0-2.0-90.0-0.0","NaN","90251","","NaN","","","","null","NaN","88","","Stimuli/Experimental_stims/localizer/outdoor_scenes/dawid-zawila--G3rw6Y02D0-unsplash.jpg","1","outdoor_scenes","","0","1","0","0.3","111.79999999999997","","","","","","","","","","","","","","","","","","","","","","","","","","","","","","","","","","","","","","","","","","","","","","","",""
"","iti_localizer","","html-keyboard-response","265","241970","0.0-2.0-90.0-1.0","NaN","90251","","null","","","","null","","88","","","1","","","","","","0.4","112.09999999999997","","","","","","","","","","","","","","","","","","","","","","","","","","","","","","","","","","","","","","","","","","","","","","","",""
"","localizer","","html-keyboard-response","266","242284","0.0-2.0-91.0-0.0","NaN","90251","","NaN","","","","null","NaN","89","","Stimuli/Experimental_stims/localizer/outdoor_scenes/v2osk-1Z2niiBPg5A-unsplash.jpg","1","outdoor_scenes","","0","1","0","0.3","112.49999999999997","","","","","","","","","","","","","","","","","","","","","","","","","","","","","","","","","","","","","","","","","","","","","","","",""
"","iti_localizer","","html-keyboard-response","267","242699","0.0-2.0-91.0-1.0","NaN","90251","","null","","","","null","","89","","","1","","","","","","0.4","112.79999999999997","","","","","","","","","","","","","","","","","","","","","","","","","","","","","","","","","","","","","","","","","","","","","","","",""
"","localizer","","html-keyboard-response","268","243010","0.0-2.0-92.0-0.0","NaN","90251","","NaN","","","","null","NaN","90","","Stimuli/Experimental_stims/localizer/outdoor_scenes/alessio-furlan-Vw3a0HgE7AM-unsplash.jpg","1","outdoor_scenes","","1","1","0","0.3","113.19999999999997","","","","","","","","","","","","","","","","","","","","","","","","","","","","","","","","","","","","","","","","","","","","","","","",""
"","iti_localizer","","html-keyboard-response","269","243419","0.0-2.0-92.0-1.0","NaN","90251","","null","","","","null","","90","","","1","","","","","","0.4","113.49999999999997","","","","","","","","","","","","","","","","","","","","","","","","","","","","","","","","","","","","","","","","","","","","","","","",""
"","localizer","","html-keyboard-response","270","243728","0.0-2.0-93.0-0.0","NaN","90251","","NaN","","","","null","NaN","91","","Stimuli/Experimental_stims/localizer/outdoor_scenes/tomasz-filipek-CUWC-6MRcNg-unsplash.jpg","1","outdoor_scenes","","0","1","0","0.3","113.89999999999998","","","","","","","","","","","","","","","","","","","","","","","","","","","","","","","","","","","","","","","","","","","","","","","",""
