"success","ttype","start_time","trial_type","trial_index","time_elapsed","internal_node_id","age","PID","gender","rt","responses","view_history","repeat_instructions","key_press","response","index","stimulus_index","path","start_time_elapsed","run","task","isi","is_odd_ball","no_response","acc","duration","onset","duration_time_elapsed","onset_time_elapsed","trial_duration"
"true","full_screen","d08172023hr1456","fullscreen","0","60907","0.0-0.0-0.0","35","74300","male","","","","","","","","","","","","","","","","","","","","",""
"","get_id","","survey-text","1","68643","0.0-0.0-1.0","35","74300","male","7695","{""Q0"":""35"",""Q1"":""male""}","","","","","","","","","","","","","","","","","","",""
"","ratings_instructions","","instructions","2","80712","0.0-1.0-0.0-0.0","35","74300","male","10533","","[{""page_index"":0,""viewing_time"":7808},{""page_index"":1,""viewing_time"":2717}]","","","","","","","","","","","","","","","","","",""
"","rating_comprehension_check","","survey-multi-choice","3","86136","0.0-1.0-0.0-1.0","35","74300","male","5354","{""Q0"":""True"",""Q1"":""Mouse""}","","0","","","","","","","","","","","","","","","","",""
"","","","html-keyboard-response","4","90317","0.0-1.0-1.0","35","74300","male","4096","","","","68","","","","","","","","","","","","","","","",""
"","rating","","html-slider-response","5","95275","0.0-1.0-2.0","35","74300","male","4938","","","","","14","0","38","Stimuli/Experimental_stims/objects/art-lasovsky-8XddFc6NkBY-unsplash.jpg","","","","","","","","","","","",""
"","rating","","html-slider-response","6","102314","0.0-1.0-3.0","35","74300","male","7027","","","","","43","1","24","Stimuli/Experimental_stims/body_parts/clay-banks-LjqARJaJotc-unsplash.jpg","","","","","","","","","","","",""
"","rating","","html-slider-response","7","105785","0.0-1.0-4.0","35","74300","male","3442","","","","","72","2","13","Stimuli/Experimental_stims/faces/daniel-rigdon-dXmXKPP2L4E-unsplash.jpg","","","","","","","","","","","",""
"","rating","","html-slider-response","8","108828","0.0-1.0-5.0","35","74300","male","3033","","","","","89","3","2","Stimuli/Experimental_stims/outdoor_scenes/bruno-van-der-kraan-qez8mNJ3ilU-unsplash.jpg","","","","","","","","","","","",""
"","rating","","html-slider-response","9","111719","0.0-1.0-6.0","35","74300","male","2868","","","","","25","4","36","Stimuli/Experimental_stims/objects/alexander-andrews-JYGnB9gTCls-unsplash.jpg","","","","","","","","","","","",""
"","rating","","html-slider-response","10","114166","0.0-1.0-7.0","35","74300","male","2439","","","","","82","5","7","Stimuli/Experimental_stims/outdoor_scenes/petr-vysohlid-9fqwGqGLUxc-unsplash.jpg","","","","","","","","","","","",""
"","rating","","html-slider-response","11","117562","0.0-1.0-8.0","35","74300","male","3368","","","","","24","6","28","Stimuli/Experimental_stims/body_parts/ira-vishnevskaya-8DQAvdCby1I-unsplash.jpg","","","","","","","","","","","",""
"","rating","","html-slider-response","12","121502","0.0-1.0-9.0","35","74300","male","3845","","","","","19","7","14","Stimuli/Experimental_stims/faces/david-siglin-UuW4psOb388-unsplash.jpg","","","","","","","","","","","",""
"","rating","","html-slider-response","13","124137","0.0-1.0-10.0","35","74300","male","2625","","","","","41","8","23","Stimuli/Experimental_stims/faces/rikonavt-HQjfrvdTfak-unsplash.jpg","","","","","","","","","","","",""
"","rating","","html-slider-response","14","127571","0.0-1.0-11.0","35","74300","male","3406","","","","","38","9","39","Stimuli/Experimental_stims/objects/charlesdeluvio-1-nx1QR5dTE-unsplash.jpg","","","","","","","","","","","",""
"","rating","","html-slider-response","15","131212","0.0-1.0-12.0","35","74300","male","3615","","","","","84","10","11","Stimuli/Experimental_stims/outdoor_scenes/stephen-leonardi-gyIRjKPXupE-unsplash.jpg","","","","","","","","","","","",""
"","rating","","html-slider-response","16","134283","0.0-1.0-13.0","35","74300","male","2988","","","","","28","11","16","Stimuli/Experimental_stims/faces/freddy-kearney-o-ioeoATbIM-unsplash.jpg","","","","","","","","","","","",""
"","rating","","html-slider-response","17","137055","0.0-1.0-14.0","35","74300","male","2763","","","","","20","12","46","Stimuli/Experimental_stims/objects/mockup-graphics-PNsj6RiHAF4-unsplash.jpg","","","","","","","","","","","",""
"","rating","","html-slider-response","18","139650","0.0-1.0-15.0","35","74300","male","2588","","","","","14","13","20","Stimuli/Experimental_stims/faces/justin-chen-J7Cf1Gch49E-unsplash.jpg","","","","","","","","","","","",""
"","rating","","html-slider-response","19","142379","0.0-1.0-16.0","35","74300","male","2721","","","","","24","14","18","Stimuli/Experimental_stims/faces/jessica-radanavong-mrYkTuAesKE-unsplash.jpg","","","","","","","","","","","",""
"","rating","","html-slider-response","20","146234","0.0-1.0-17.0","35","74300","male","3698","","","","","13","15","42","Stimuli/Experimental_stims/objects/jess-bailey-nOeVi8DsN8U-unsplash.jpg","","","","","","","","","","","",""
"","rating","","html-slider-response","21","149282","0.0-1.0-18.0","35","74300","male","3032","","","","","85","16","5","Stimuli/Experimental_stims/outdoor_scenes/jeff-king-bJHWJeiHfHc-unsplash.jpg","","","","","","","","","","","",""
"","rating","","html-slider-response","22","153681","0.0-1.0-19.0","35","74300","male","4393","","","","","16","17","25","Stimuli/Experimental_stims/body_parts/engin-akyurt-Q2rfH3GW39c-unsplash.jpg","","","","","","","","","","","",""
"","rating","","html-slider-response","23","156942","0.0-1.0-20.0","35","74300","male","3249","","","","","26","18","29","Stimuli/Experimental_stims/body_parts/manuel-schinner-ZwjFuJ7ebpk-unsplash.jpg","","","","","","","","","","","",""
"","rating","","html-slider-response","24","159690","0.0-1.0-21.0","35","74300","male","2716","","","","","11","19","47","Stimuli/Experimental_stims/objects/ronaldo-arthur-vidal-Cdz_lvnl37k-unsplash.jpg","","","","","","","","","","","",""
"","rating","","html-slider-response","25","162081","0.0-1.0-22.0","35","74300","male","2384","","","","","89","20","4","Stimuli/Experimental_stims/outdoor_scenes/jarrett-kow-1ZOyYPOBn7I-unsplash.jpg","","","","","","","","","","","",""
"","rating","","html-slider-response","26","167786","0.0-1.0-23.0","35","74300","male","5686","","","","","14","21","31","Stimuli/Experimental_stims/body_parts/sincerely-media-VN6DbKajo5s-unsplash.jpg","","","","","","","","","","","",""
"","rating","","html-slider-response","27","171405","0.0-1.0-24.0","35","74300","male","3576","","","","","31","22","44","Stimuli/Experimental_stims/objects/kuiye-chen-NuOGFo4PudE-unsplash.jpg","","","","","","","","","","","",""
"","rating","","html-slider-response","28","177246","0.0-1.0-25.0","35","74300","male","5816","","","","","13","23","37","Stimuli/Experimental_stims/objects/alexander-andrews-VLGWE_SumrA-unsplash.jpg","","","","","","","","","","","",""
"","rating","","html-slider-response","29","180172","0.0-1.0-26.0","35","74300","male","2835","","","","","86","24","10","Stimuli/Experimental_stims/outdoor_scenes/shannon-kunkle-dM8INmkyDas-unsplash.jpg","","","","","","","","","","","",""
"","rating","","html-slider-response","30","182528","0.0-1.0-27.0","35","74300","male","2348","","","","","30","25","40","Stimuli/Experimental_stims/objects/fabian-blank-pElSkGRA2NU-unsplash.jpg","","","","","","","","","","","",""
"","rating","","html-slider-response","31","186146","0.0-1.0-28.0","35","74300","male","3613","","","","","91","26","9","Stimuli/Experimental_stims/outdoor_scenes/sergey-pesterev-y-b_FOmJXdg-unsplash.jpg","","","","","","","","","","","",""
"","rating","","html-slider-response","32","189754","0.0-1.0-29.0","35","74300","male","3599","","","","","20","27","41","Stimuli/Experimental_stims/objects/insung-yoon-w2JtIQQXoRU-unsplash.jpg","","","","","","","","","","","",""
"","rating","","html-slider-response","33","192610","0.0-1.0-30.0","35","74300","male","2811","","","","","88","28","8","Stimuli/Experimental_stims/outdoor_scenes/samsommer-vddccTqwal8-unsplash.jpg","","","","","","","","","","","",""
"","rating","","html-slider-response","34","195584","0.0-1.0-31.0","35","74300","male","2967","","","","","85","29","3","Stimuli/Experimental_stims/outdoor_scenes/henry-be-NLF6hTe4PAg-unsplash.jpg","","","","","","","","","","","",""
"","rating","","html-slider-response","35","200314","0.0-1.0-32.0","35","74300","male","4719","","","","","13","30","27","Stimuli/Experimental_stims/body_parts/heike-mintel-i_Gns0ELnLw-unsplash.jpg","","","","","","","","","","","",""
"","rating","","html-slider-response","36","204863","0.0-1.0-33.0","35","74300","male","4256","","","","","27","31","19","Stimuli/Experimental_stims/faces/joel-mott-LaK153ghdig-unsplash.jpg","","","","","","","","","","","",""
"","rating","","html-slider-response","37","208486","0.0-1.0-34.0","35","74300","male","3588","","","","","15","32","45","Stimuli/Experimental_stims/objects/leohoho-rngTKHXumy0-unsplash.jpg","","","","","","","","","","","",""
"","rating","","html-slider-response","38","212292","0.0-1.0-35.0","35","74300","male","3308","","","","","27","33","30","Stimuli/Experimental_stims/body_parts/mika-korhonen-Xodzxosar18-unsplash.jpg","","","","","","","","","","","",""
"","rating","","html-slider-response","39","216064","0.0-1.0-36.0","35","74300","male","3758","","","","","14","34","21","Stimuli/Experimental_stims/faces/leilani-angel-K84vnnzxmTQ-unsplash.jpg","","","","","","","","","","","",""
"","rating","","html-slider-response","40","221549","0.0-1.0-37.0","35","74300","male","5478","","","","","24","35","34","Stimuli/Experimental_stims/body_parts/wagner-santos-mBWMvIuVnso-unsplash.jpg","","","","","","","","","","","",""
"","rating","","html-slider-response","41","224446","0.0-1.0-38.0","35","74300","male","2857","","","","","14","36","35","Stimuli/Experimental_stims/body_parts/wc-so-KH4AAPjb-tI-unsplash.jpg","","","","","","","","","","","",""
"","rating","","html-slider-response","42","227369","0.0-1.0-39.0","35","74300","male","2545","","","","","25","37","15","Stimuli/Experimental_stims/faces/erik-lucatero-d2MSDujJl2g-unsplash.jpg","","","","","","","","","","","",""
"","rating","","html-slider-response","43","229939","0.0-1.0-40.0","35","74300","male","2561","","","","","89","38","1","Stimuli/Experimental_stims/outdoor_scenes/ashim-d-silva-S2Q5mdOrrVc-unsplash.jpg","","","","","","","","","","","",""
"","rating","","html-slider-response","44","232215","0.0-1.0-41.0","35","74300","male","2269","","","","","24","39","22","Stimuli/Experimental_stims/faces/ravi-patel-VMGAbeeJTKo-unsplash.jpg","","","","","","","","","","","",""
"","rating","","html-slider-response","45","237200","0.0-1.0-42.0","35","74300","male","4972","","","","","27","40","26","Stimuli/Experimental_stims/body_parts/engin-akyurt-x_3gyC42btc-unsplash.jpg","","","","","","","","","","","",""
"","rating","","html-slider-response","46","240689","0.0-1.0-43.0","35","74300","male","3470","","","","","86","41","0","Stimuli/Experimental_stims/outdoor_scenes/aleksandra-boguslawska-MS7KD9Ti7FQ-unsplash.jpg","","","","","","","","","","","",""
"","rating","","html-slider-response","47","243165","0.0-1.0-44.0","35","74300","male","2470","","","","","44","42","43","Stimuli/Experimental_stims/objects/jonathan-greenaway-Y4hGgeiFn3s-unsplash.jpg","","","","","","","","","","","",""
"","rating","","html-slider-response","48","246098","0.0-1.0-45.0","35","74300","male","2921","","","","","40","43","32","Stimuli/Experimental_stims/body_parts/towfiqu-barbhuiya-3AsiVDsZnHg-unsplash.jpg","","","","","","","","","","","",""
"","rating","","html-slider-response","49","248356","0.0-1.0-46.0","35","74300","male","2196","","","","","28","44","17","Stimuli/Experimental_stims/faces/good-faces-xmSWVeGEnJw-unsplash.jpg","","","","","","","","","","","",""
"","rating","","html-slider-response","50","250775","0.0-1.0-47.0","35","74300","male","2411","","","","","93","45","6","Stimuli/Experimental_stims/outdoor_scenes/meng-ji-8BH_M-53CyA-unsplash.jpg","","","","","","","","","","","",""
"","rating","","html-slider-response","51","252979","0.0-1.0-48.0","35","74300","male","2197","","","","","21","46","33","Stimuli/Experimental_stims/body_parts/tucker-good-36skLT5jZcc-unsplash.jpg","","","","","","","","","","","",""
"","rating","","html-slider-response","52","258633","0.0-1.0-49.0","35","74300","male","5644","","","","","73","47","12","Stimuli/Experimental_stims/faces/aiony-haust-jmATI5Q_YgY-unsplash.jpg","","","","","","","","","","","",""
"","localizer_instructions","","instructions","53","308680","0.0-2.0-0.0-0.0","35","74300","male","49919","","[{""page_index"":0,""viewing_time"":23446},{""page_index"":1,""viewing_time"":18751},{""page_index"":2,""viewing_time"":7722}]","","","","","","","","","","","","","","","","","",""
"","localizer_comprehension_check","","survey-multi-choice","54","319167","0.0-2.0-0.0-1.0","35","74300","male","10438","{""Q0"":""True"",""Q1"":""K"",""Q2"":""D""}","","0","","","","","","","","","","","","","","","","",""
"","","","html-keyboard-response","55","323303","0.0-2.0-1.0","35","74300","male","4085","","","","68","","","","","","","","","","","","","","","",""
"","localizer","","html-keyboard-response","56","323718","0.0-2.0-2.0-0.0","35","74300","male","NaN","","","","null","NaN","0","","Stimuli/Practice_stims/Localizer/annie-spratt-g9KFpAfQ5bc-unsplash.jpg","323303","0","NaN","","0","1","0","400","0","415","0",""
"","iti_localizer","","html-keyboard-response","57","324038","0.0-2.0-2.0-1.0","35","74300","male","null","","","","null","","0","","","323718","0","","","","","","300","400","320","415","300"
"","localizer","","html-keyboard-response","58","325248","0.0-2.0-2.1-0.1","35","74300","male","NaN","","","","null","NaN","0","","Stimuli/Practice_stims/Localizer/annie-spratt-g9KFpAfQ5bc-unsplash.jpg","324038","0","NaN","","0","1","0","400","700","1210","735",""
"","iti_localizer","","html-keyboard-response","59","325710","0.0-2.0-2.1-1.1","35","74300","male","null","","","","null","","0","","","325248","0","","","","","","300","1100","462","1945","300"
"","localizer","","html-keyboard-response","60","326127","0.0-2.0-2.2-0.2","35","74300","male","NaN","","","","null","NaN","0","","Stimuli/Practice_stims/Localizer/annie-spratt-g9KFpAfQ5bc-unsplash.jpg","325710","0","NaN","","0","1","0","400","1400","417","2407",""
"","iti_localizer","","html-keyboard-response","61","326440","0.0-2.0-2.2-1.2","35","74300","male","null","","","","null","","0","","","326127","0","","","","","","300","1800","313","2824","300"
"","localizer","","html-keyboard-response","62","326856","0.0-2.0-2.3-0.3","35","74300","male","NaN","","","","null","NaN","0","","Stimuli/Practice_stims/Localizer/annie-spratt-g9KFpAfQ5bc-unsplash.jpg","326440","0","NaN","","0","1","0","400","2100","416","3137",""
"","iti_localizer","","html-keyboard-response","63","327166","0.0-2.0-2.3-1.3","35","74300","male","null","","","","null","","0","","","326856","0","","","","","","300","2500","310","3553","300"
"","localizer","","html-keyboard-response","64","327576","0.0-2.0-2.4-0.4","35","74300","male","NaN","","","","null","NaN","0","","Stimuli/Practice_stims/Localizer/annie-spratt-g9KFpAfQ5bc-unsplash.jpg","327166","0","NaN","","0","1","0","400","2800","410","3863",""
"","iti_localizer","","html-keyboard-response","65","327888","0.0-2.0-2.4-1.4","35","74300","male","null","","","","null","","0","","","327576","0","","","","","","300","3200","312","4273","300"
"","localizer","","html-keyboard-response","66","328305","0.0-2.0-2.5-0.5","35","74300","male","NaN","","","","null","NaN","0","","Stimuli/Practice_stims/Localizer/annie-spratt-g9KFpAfQ5bc-unsplash.jpg","327888","0","NaN","","0","1","0","400","3500","417","4585",""
"","iti_localizer","","html-keyboard-response","67","328616","0.0-2.0-2.5-1.5","35","74300","male","null","","","","null","","0","","","328305","0","","","","","","300","3900","311","5002","300"
"","localizer","","html-keyboard-response","68","329032","0.0-2.0-2.6-0.6","35","74300","male","NaN","","","","null","NaN","0","","Stimuli/Practice_stims/Localizer/annie-spratt-g9KFpAfQ5bc-unsplash.jpg","328616","0","NaN","","0","1","0","400","4200","416","5313",""
"","iti_localizer","","html-keyboard-response","69","329343","0.0-2.0-2.6-1.6","35","74300","male","null","","","","null","","0","","","329032","0","","","","","","300","4600","311","5729","300"
"","localizer","","html-keyboard-response","70","329749","0.0-2.0-2.7-0.7","35","74300","male","121","","","","68","0","0","","Stimuli/Practice_stims/Localizer/annie-spratt-g9KFpAfQ5bc-unsplash.jpg","329343","0","NaN","","0","0","1","400","4900","406","6040",""
"","iti_localizer","","html-keyboard-response","71","330064","0.0-2.0-2.7-1.7","35","74300","male","null","","","","null","","0","","","329749","0","","","","","","300","5300","315","6446","300"
"","localizer","","html-keyboard-response","72","330480","0.0-2.0-3.0-0.0","35","74300","male","112","","","","68","0","1","","Stimuli/Practice_stims/Localizer/becca-tapert-sY5RjMB1KkE-unsplash.jpg","330064","0","NaN","","0","0","1","400","5600","416","6761",""
"","iti_localizer","","html-keyboard-response","73","330792","0.0-2.0-3.0-1.0","35","74300","male","null","","","","null","","1","","","330480","0","","","","","","300","6000","312","7177","300"
"","localizer","","html-keyboard-response","74","331206","0.0-2.0-4.0-0.0","35","74300","male","NaN","","","","null","NaN","2","","Stimuli/Practice_stims/Localizer/charl-durand-bsfXvI25iNg-unsplash.jpg","330792","0","NaN","","1","1","0","400","6300","414","7489",""
"","iti_localizer","","html-keyboard-response","75","331519","0.0-2.0-4.0-1.0","35","74300","male","null","","","","null","","2","","","331206","0","","","","","","300","6700","313","7903","300"
"","localizer","","html-keyboard-response","76","331936","0.0-2.0-4.1-0.1","35","74300","male","NaN","","","","null","NaN","2","","Stimuli/Practice_stims/Localizer/charl-durand-bsfXvI25iNg-unsplash.jpg","331519","0","NaN","","1","1","0","400","7000","417","8216",""
"","iti_localizer","","html-keyboard-response","77","332246","0.0-2.0-4.1-1.1","35","74300","male","null","","","","null","","2","","","331936","0","","","","","","300","7400","310","8633","300"
"","localizer","","html-keyboard-response","78","332656","0.0-2.0-4.2-0.2","35","74300","male","NaN","","","","null","NaN","2","","Stimuli/Practice_stims/Localizer/charl-durand-bsfXvI25iNg-unsplash.jpg","332246","0","NaN","","1","1","0","400","7700","410","8943",""
"","iti_localizer","","html-keyboard-response","79","332968","0.0-2.0-4.2-1.2","35","74300","male","null","","","","null","","2","","","332656","0","","","","","","300","8100","312","9353","300"
"","localizer","","html-keyboard-response","80","333382","0.0-2.0-4.3-0.3","35","74300","male","NaN","","","","null","NaN","2","","Stimuli/Practice_stims/Localizer/charl-durand-bsfXvI25iNg-unsplash.jpg","332968","0","NaN","","1","1","0","400","8400","414","9665",""
"","iti_localizer","","html-keyboard-response","81","333695","0.0-2.0-4.3-1.3","35","74300","male","null","","","","null","","2","","","333382","0","","","","","","300","8800","313","10079","300"
"","localizer","","html-keyboard-response","82","334103","0.0-2.0-4.4-0.4","35","74300","male","NaN","","","","null","NaN","2","","Stimuli/Practice_stims/Localizer/charl-durand-bsfXvI25iNg-unsplash.jpg","333695","0","NaN","","1","1","0","400","9100","408","10392",""
"","iti_localizer","","html-keyboard-response","83","334416","0.0-2.0-4.4-1.4","35","74300","male","null","","","","null","","2","","","334103","0","","","","","","300","9500","313","10800","300"
"","localizer","","html-keyboard-response","84","334832","0.0-2.0-4.5-0.5","35","74300","male","NaN","","","","null","NaN","2","","Stimuli/Practice_stims/Localizer/charl-durand-bsfXvI25iNg-unsplash.jpg","334416","0","NaN","","1","1","0","400","9800","416","11113",""
"","iti_localizer","","html-keyboard-response","85","335142","0.0-2.0-4.5-1.5","35","74300","male","null","","","","null","","2","","","334832","0","","","","","","300","10200","310","11529","300"
"","localizer","","html-keyboard-response","86","335552","0.0-2.0-4.6-0.6","35","74300","male","NaN","","","","null","NaN","2","","Stimuli/Practice_stims/Localizer/charl-durand-bsfXvI25iNg-unsplash.jpg","335142","0","NaN","","1","1","0","400","10500","410","11839",""
"","iti_localizer","","html-keyboard-response","87","335864","0.0-2.0-4.6-1.6","35","74300","male","null","","","","null","","2","","","335552","0","","","","","","300","10900","312","12249","300"
"","localizer","","html-keyboard-response","88","336281","0.0-2.0-4.7-0.7","35","74300","male","NaN","","","","null","NaN","2","","Stimuli/Practice_stims/Localizer/charl-durand-bsfXvI25iNg-unsplash.jpg","335864","0","NaN","","1","1","0","400","11200","417","12561",""
"","iti_localizer","","html-keyboard-response","89","336684","0.0-2.0-4.7-1.7","35","74300","male","null","","","","null","","2","","","336281","0","","","","","","300","11600","403","12978","300"
"","localizer","","html-keyboard-response","90","337175","0.0-2.0-4.8-0.8","35","74300","male","NaN","","","","null","NaN","2","","Stimuli/Practice_stims/Localizer/charl-durand-bsfXvI25iNg-unsplash.jpg","336684","0","NaN","","1","1","0","400","11900","491","13381",""
"","iti_localizer","","html-keyboard-response","91","337486","0.0-2.0-4.8-1.8","35","74300","male","null","","","","null","","2","","","337175","0","","","","","","300","12300","311","13872","300"
"","localizer","","html-keyboard-response","92","338002","0.0-2.0-4.9-0.9","35","74300","male","344","","","","75","1","2","","Stimuli/Practice_stims/Localizer/charl-durand-bsfXvI25iNg-unsplash.jpg","337486","0","NaN","","1","0","1","400","12600","516","14183",""
"","iti_localizer","","html-keyboard-response","93","338311","0.0-2.0-4.9-1.9","35","74300","male","null","","","","null","","2","","","338002","0","","","","","","300","13000","309","14699","300"
"","localizer","","html-keyboard-response","94","338728","0.0-2.0-5.0-0.0","35","74300","male","NaN","","","","null","NaN","3","","Stimuli/Practice_stims/Localizer/nizar-albusaidy-B2r2SWAf5CE-unsplash.jpg","338311","0","NaN","","0","1","0","400","13300","417","15008",""
"","iti_localizer","","html-keyboard-response","95","339040","0.0-2.0-5.0-1.0","35","74300","male","null","","","","null","","3","","","338728","0","","","","","","300","13700","312","15425","300"
"","localizer","","html-keyboard-response","96","339455","0.0-2.0-5.1-0.1","35","74300","male","180","","","","68","0","3","","Stimuli/Practice_stims/Localizer/nizar-albusaidy-B2r2SWAf5CE-unsplash.jpg","339040","0","NaN","","0","0","1","400","14000","415","15737",""
"","iti_localizer","","html-keyboard-response","97","339768","0.0-2.0-5.1-1.1","35","74300","male","null","","","","null","","3","","","339455","0","","","","","","300","14400","313","16152","300"
"","localizer","","html-keyboard-response","98","340184","0.0-2.0-6.0-0.0","35","74300","male","247","","","","68","0","4","","Stimuli/Practice_stims/Localizer/randy-fath-epf1tdtIIkM-unsplash.jpg","339768","0","NaN","","1","0","0","400","14700","416","16465",""
"","iti_localizer","","html-keyboard-response","99","340495","0.0-2.0-6.0-1.0","35","74300","male","null","","","","null","","4","","","340184","0","","","","","","300","15100","311","16881","300"
"","localizer","","html-keyboard-response","100","340912","0.0-2.0-7.0-0.0","35","74300","male","NaN","","","","null","NaN","5","","Stimuli/Practice_stims/Localizer/yassine-khalfalli-adsQ9d_Cx0c-unsplash.jpg","340495","0","NaN","","0","1","0","400","15400","417","17192",""
"","iti_localizer","","html-keyboard-response","101","341224","0.0-2.0-7.0-1.0","35","74300","male","null","","","","null","","5","","","340912","0","","","","","","300","15800","312","17609","300"
"","localizer","","html-keyboard-response","102","341640","0.0-2.0-7.1-0.1","35","74300","male","126","","","","68","0","5","","Stimuli/Practice_stims/Localizer/yassine-khalfalli-adsQ9d_Cx0c-unsplash.jpg","341224","0","NaN","","0","0","1","400","16100","416","17921",""
"","iti_localizer","","html-keyboard-response","103","341950","0.0-2.0-7.1-1.1","35","74300","male","null","","","","null","","5","","","341640","0","","","","","","300","16500","310","18337","300"
"","practice_over","","html-keyboard-response","104","346638","0.0-2.0-7.1-2.1-0.1","35","74300","male","4663","","","","68","","","","","","","","","","","","","","","",""
"","start_run","","html-keyboard-response","105","348524","0.0-2.0-7.1-2.1-1.1","35","74300","male","1857","","","","84","","","","","","","","","","","","","","","",""
"","localizer","","html-keyboard-response","106","349009","0.0-2.0-8.0-0.0","35","74300","male","NaN","","","","null","NaN","6","","Stimuli/Experimental_stims/localizer/faces/christina-wocintechchat-com-0Zx1bDv5BNY-unsplash.jpg","348524","1","faces","","0","1","0","400","0","485","0",""
"","iti_localizer","","html-keyboard-response","107","349319","0.0-2.0-8.0-1.0","35","74300","male","null","","","","null","","6","","","349009","1","","","","","","300","400","310","485","300"
"","localizer","","html-keyboard-response","108","349736","0.0-2.0-9.0-0.0","35","74300","male","NaN","","","","null","NaN","7","","Stimuli/Experimental_stims/localizer/faces/jeffery-erhunse-BQMZ5ligqps-unsplash.jpg","349319","1","faces","","0","1","0","400","700","417","795",""
"","iti_localizer","","html-keyboard-response","109","350047","0.0-2.0-9.0-1.0","35","74300","male","null","","","","null","","7","","","349736","1","","","","","","300","1100","311","1212","300"
"","localizer","","html-keyboard-response","110","350464","0.0-2.0-10.0-0.0","35","74300","male","NaN","","","","null","NaN","8","","Stimuli/Experimental_stims/localizer/faces/matheus-ferrero-W7b3eDUb_2I-unsplash.jpg","350047","1","faces","","0","1","0","400","1400","417","1523",""
"","iti_localizer","","html-keyboard-response","111","350775","0.0-2.0-10.0-1.0","35","74300","male","null","","","","null","","8","","","350464","1","","","","","","300","1800","311","1940","300"
"","localizer","","html-keyboard-response","112","351191","0.0-2.0-11.0-0.0","35","74300","male","1","","","","68","0","9","","Stimuli/Experimental_stims/localizer/faces/jurica-koletic-7YVZYZeITc8-unsplash.jpg","350775","1","faces","","1","0","0","400","2100","416","2251",""
"","iti_localizer","","html-keyboard-response","113","351504","0.0-2.0-11.0-1.0","35","74300","male","null","","","","null","","9","","","351191","1","","","","","","300","2500","313","2667","300"
"","localizer","","html-keyboard-response","114","351920","0.0-2.0-12.0-0.0","35","74300","male","NaN","","","","null","NaN","10","","Stimuli/Experimental_stims/localizer/faces/drew-hays-agGIKYs4mYs-unsplash.jpg","351504","1","faces","","0","1","0","400","2800","416","2980",""
"","iti_localizer","","html-keyboard-response","115","352231","0.0-2.0-12.0-1.0","35","74300","male","null","","","","null","","10","","","351920","1","","","","","","300","3200","311","3396","300"
"","localizer","","html-keyboard-response","116","352640","0.0-2.0-13.0-0.0","35","74300","male","NaN","","","","null","NaN","11","","Stimuli/Experimental_stims/localizer/faces/rui-silvestre-hAMJpesMeDE-unsplash.jpg","352231","1","faces","","0","1","0","400","3500","409","3707",""
"","iti_localizer","","html-keyboard-response","117","352951","0.0-2.0-13.0-1.0","35","74300","male","null","","","","null","","11","","","352640","1","","","","","","300","3900","311","4116","300"
"","localizer","","html-keyboard-response","118","353358","0.0-2.0-14.0-0.0","35","74300","male","NaN","","","","null","NaN","12","","Stimuli/Experimental_stims/localizer/faces/sean-kong--1B_y4wGs-s-unsplash.jpg","352951","1","faces","","0","1","0","400","4200","407","4427",""
"","iti_localizer","","html-keyboard-response","119","353876","0.0-2.0-14.0-1.0","35","74300","male","null","","","","null","","12","","","353358","1","","","","","","300","4600","518","4834","300"
"","localizer","","html-keyboard-response","120","355398","0.0-2.0-15.0-0.0","35","74300","male","NaN","","","","null","NaN","13","","Stimuli/Experimental_stims/localizer/faces/vince-fleming-j3lf-Jn6deo-unsplash.jpg","353876","1","faces","","0","1","0","400","4900","1522","5352",""
"","iti_localizer","","html-keyboard-response","121","355717","0.0-2.0-15.0-1.0","35","74300","male","null","","","","null","","13","","","355398","1","","","","","","300","5300","319","6874","300"
"","localizer","","html-keyboard-response","122","356128","0.0-2.0-16.0-0.0","35","74300","male","NaN","","","","null","NaN","14","","Stimuli/Experimental_stims/localizer/faces/tyler-nix-ZGa9d1a_4tA-unsplash.jpg","355717","1","faces","","0","1","0","400","5600","411","7193",""
"","iti_localizer","","html-keyboard-response","123","356440","0.0-2.0-16.0-1.0","35","74300","male","null","","","","null","","14","","","356128","1","","","","","","300","6000","312","7604","300"
"","localizer","","html-keyboard-response","124","356856","0.0-2.0-17.0-0.0","35","74300","male","188","","","","68","0","15","","Stimuli/Experimental_stims/localizer/faces/abstral-official-cyOKLSgkgCE-unsplash.jpg","356440","1","faces","","0","0","1","400","6300","416","7916",""
"","iti_localizer","","html-keyboard-response","125","357166","0.0-2.0-17.0-1.0","35","74300","male","null","","","","null","","15","","","356856","1","","","","","","300","6700","310","8332","300"
"","localizer","","html-keyboard-response","126","357575","0.0-2.0-18.0-0.0","35","74300","male","NaN","","","","null","NaN","16","","Stimuli/Experimental_stims/localizer/faces/ethan-haddox-__ng3cRXmFE-unsplash.jpg","357166","1","faces","","0","1","0","400","7000","409","8642",""
"","iti_localizer","","html-keyboard-response","127","357887","0.0-2.0-18.0-1.0","35","74300","male","null","","","","null","","16","","","357575","1","","","","","","300","7400","312","9051","300"
"","localizer","","html-keyboard-response","128","358296","0.0-2.0-19.0-0.0","35","74300","male","373","","","","68","0","17","","Stimuli/Experimental_stims/localizer/faces/foto-sushi-6anudmpILw4-unsplash.jpg","357887","1","faces","","0","0","1","400","7700","409","9363",""
"","iti_localizer","","html-keyboard-response","129","358608","0.0-2.0-19.0-1.0","35","74300","male","null","","","","null","","17","","","358296","1","","","","","","300","8100","312","9772","300"
"","localizer","","html-keyboard-response","130","359022","0.0-2.0-20.0-0.0","35","74300","male","408","","","","68","0","18","","Stimuli/Experimental_stims/localizer/faces/christian-ferrer-8vT-DgHZDG4-unsplash.jpg","358608","1","faces","","0","0","1","400","8400","414","10084",""
"","iti_localizer","","html-keyboard-response","131","359335","0.0-2.0-20.0-1.0","35","74300","male","null","","","","null","","18","","","359022","1","","","","","","300","8800","313","10498","300"
"","localizer","","html-keyboard-response","132","359743","0.0-2.0-21.0-0.0","35","74300","male","388","","","","68","0","19","","Stimuli/Experimental_stims/localizer/faces/stephanie-nakagawa-ADSKIn0ScDg-unsplash.jpg","359335","1","faces","","0","0","1","400","9100","408","10811",""
"","iti_localizer","","html-keyboard-response","133","360056","0.0-2.0-21.0-1.0","35","74300","male","null","","","","null","","19","","","359743","1","","","","","","300","9500","313","11219","300"
"","localizer","","html-keyboard-response","134","360472","0.0-2.0-22.0-0.0","35","74300","male","NaN","","","","null","NaN","20","","Stimuli/Experimental_stims/localizer/faces/toa-heftiba-2O1EUSTRBrY-unsplash.jpg","360056","1","faces","","1","1","0","400","9800","416","11532",""
"","iti_localizer","","html-keyboard-response","135","360782","0.0-2.0-22.0-1.0","35","74300","male","null","","","","null","","20","","","360472","1","","","","","","300","10200","310","11948","300"
"","localizer","","html-keyboard-response","136","361192","0.0-2.0-23.0-0.0","35","74300","male","NaN","","","","null","NaN","21","","Stimuli/Experimental_stims/localizer/faces/darshan-patel-QJEVpydulGs-unsplash.jpg","360782","1","faces","","0","1","0","400","10500","410","12258",""
"","iti_localizer","","html-keyboard-response","137","361502","0.0-2.0-23.0-1.0","35","74300","male","null","","","","null","","21","","","361192","1","","","","","","300","10900","310","12668","300"
"","localizer","","html-keyboard-response","138","361911","0.0-2.0-24.0-0.0","35","74300","male","353","","","","68","0","22","","Stimuli/Experimental_stims/localizer/faces/mubariz-mehdizadeh-o-wlIFT4zE4-unsplash.jpg","361502","1","faces","","0","0","1","400","11200","409","12978",""
"","iti_localizer","","html-keyboard-response","139","362222","0.0-2.0-24.0-1.0","35","74300","male","null","","","","null","","22","","","361911","1","","","","","","300","11600","311","13387","300"
"","localizer","","html-keyboard-response","140","362629","0.0-2.0-25.0-0.0","35","74300","male","388","","","","68","0","23","","Stimuli/Experimental_stims/localizer/faces/midas-hofstra-tidSLv-UaNs-unsplash.jpg","362222","1","faces","","0","0","1","400","11900","407","13698",""
"","iti_localizer","","html-keyboard-response","141","362944","0.0-2.0-25.0-1.0","35","74300","male","null","","","","null","","23","","","362629","1","","","","","","300","12300","315","14105","300"
"","localizer","","html-keyboard-response","142","363605","0.0-2.0-26.0-0.0","35","74300","male","NaN","","","","null","NaN","24","","Stimuli/Experimental_stims/localizer/faces/toa-heftiba-O3ymvT7Wf9U-unsplash.jpg","362944","1","faces","","0","1","0","400","12600","661","14420",""
"","iti_localizer","","html-keyboard-response","143","364380","0.0-2.0-26.0-1.0","35","74300","male","null","","","","null","","24","","","363605","1","","","","","","300","13000","775","15081","300"
"","localizer","","html-keyboard-response","144","364792","0.0-2.0-27.0-0.0","35","74300","male","NaN","","","","null","NaN","25","","Stimuli/Experimental_stims/localizer/faces/katsiaryna-endruszkiewicz-BteCp6aq4GI-unsplash.jpg","364380","1","faces","","0","1","0","400","13300","412","15856",""
"","iti_localizer","","html-keyboard-response","145","378811","0.0-2.0-27.0-1.0","35","74300","male","null","","","","null","","25","","","364792","1","","","","","","14000","13700","14019","16268","14000"
"","localizer","","html-keyboard-response","146","379447","0.0-2.0-28.0-0.0","35","74300","male","NaN","","","","null","NaN","26","","Stimuli/Experimental_stims/localizer/outdoor_scenes/jaanus-jagomagi-FddgewYQF2M-unsplash.jpg","378811","1","outdoor_scenes","","0","1","0","400","27700","636","30287",""
"","iti_localizer","","html-keyboard-response","147","379760","0.0-2.0-28.0-1.0","35","74300","male","null","","","","null","","26","","","379447","1","","","","","","300","28100","313","30923","300"
"","localizer","","html-keyboard-response","148","380175","0.0-2.0-29.0-0.0","35","74300","male","NaN","","","","null","NaN","27","","Stimuli/Experimental_stims/localizer/outdoor_scenes/v2osk-1Z2niiBPg5A-unsplash.jpg","379760","1","outdoor_scenes","","1","1","0","400","28400","415","31236",""
"","iti_localizer","","html-keyboard-response","149","380485","0.0-2.0-29.0-1.0","35","74300","male","null","","","","null","","27","","","380175","1","","","","","","300","28800","310","31651","300"
"","localizer","","html-keyboard-response","150","380896","0.0-2.0-30.0-0.0","35","74300","male","126","","","","75","1","28","","Stimuli/Experimental_stims/localizer/outdoor_scenes/wai-siew-mTFyV8oNDzU-unsplash.jpg","380485","1","outdoor_scenes","","0","0","0","400","29100","411","31961",""
"","iti_localizer","","html-keyboard-response","151","381208","0.0-2.0-30.0-1.0","35","74300","male","null","","","","null","","28","","","380896","1","","","","","","300","29500","312","32372","300"
"","localizer","","html-keyboard-response","152","381619","0.0-2.0-31.0-0.0","35","74300","male","405","","","","68","0","29","","Stimuli/Experimental_stims/localizer/outdoor_scenes/jay-cai-F_laX9E8CUo-unsplash.jpg","381208","1","outdoor_scenes","","0","0","1","400","29800","411","32684",""
"","iti_localizer","","html-keyboard-response","153","381928","0.0-2.0-31.0-1.0","35","74300","male","null","","","","null","","29","","","381619","1","","","","","","300","30200","309","33095","300"
"","localizer","","html-keyboard-response","154","382342","0.0-2.0-32.0-0.0","35","74300","male","391","","","","68","0","30","","Stimuli/Experimental_stims/localizer/outdoor_scenes/jeremy-cai-ucYWe5mzTMU-unsplash.jpg","381928","1","outdoor_scenes","","0","0","1","400","30500","414","33404",""
"","iti_localizer","","html-keyboard-response","155","382656","0.0-2.0-32.0-1.0","35","74300","male","null","","","","null","","30","","","382342","1","","","","","","300","30900","314","33818","300"
"","localizer","","html-keyboard-response","156","383070","0.0-2.0-33.0-0.0","35","74300","male","NaN","","","","null","NaN","31","","Stimuli/Experimental_stims/localizer/outdoor_scenes/erol-ahmed-d3pTF3r_hwY-unsplash.jpg","382656","1","outdoor_scenes","","0","1","0","400","31200","414","34132",""
"","iti_localizer","","html-keyboard-response","157","383384","0.0-2.0-33.0-1.0","35","74300","male","null","","","","null","","31","","","383070","1","","","","","","300","31600","314","34546","300"
"","localizer","","html-keyboard-response","158","383800","0.0-2.0-34.0-0.0","35","74300","male","381","","","","68","0","32","","Stimuli/Experimental_stims/localizer/outdoor_scenes/quino-al-vmZ2DehWQ3Q-unsplash.jpg","383384","1","outdoor_scenes","","0","0","1","400","31900","416","34860",""
"","iti_localizer","","html-keyboard-response","159","384110","0.0-2.0-34.0-1.0","35","74300","male","null","","","","null","","32","","","383800","1","","","","","","300","32300","310","35276","300"
"","localizer","","html-keyboard-response","160","384520","0.0-2.0-35.0-0.0","35","74300","male","NaN","","","","null","NaN","33","","Stimuli/Experimental_stims/localizer/outdoor_scenes/kenneth-thewissen-D76DklsG-5U-unsplash.jpg","384110","1","outdoor_scenes","","0","1","0","400","32600","410","35586",""
"","iti_localizer","","html-keyboard-response","161","384835","0.0-2.0-35.0-1.0","35","74300","male","null","","","","null","","33","","","384520","1","","","","","","300","33000","315","35996","300"
"","localizer","","html-keyboard-response","162","385261","0.0-2.0-36.0-0.0","35","74300","male","NaN","","","","null","NaN","34","","Stimuli/Experimental_stims/localizer/outdoor_scenes/johny-goerend-U_diPCXCBxU-unsplash.jpg","384835","1","outdoor_scenes","","0","1","0","400","33300","426","36311",""
"","iti_localizer","","html-keyboard-response","163","385622","0.0-2.0-36.0-1.0","35","74300","male","null","","","","null","","34","","","385261","1","","","","","","300","33700","361","36737","300"
"","localizer","","html-keyboard-response","164","386055","0.0-2.0-37.0-0.0","35","74300","male","209","","","","68","0","35","","Stimuli/Experimental_stims/localizer/outdoor_scenes/ken-cheung-KonWFWUaAuk-unsplash.jpg","385622","1","outdoor_scenes","","0","0","1","400","34000","433","37098",""
"","iti_localizer","","html-keyboard-response","165","386368","0.0-2.0-37.0-1.0","35","74300","male","null","","","","null","","35","","","386055","1","","","","","","300","34400","313","37531","300"
"","localizer","","html-keyboard-response","166","386783","0.0-2.0-38.0-0.0","35","74300","male","144","","","","68","0","36","","Stimuli/Experimental_stims/localizer/outdoor_scenes/alessio-furlan-Vw3a0HgE7AM-unsplash.jpg","386368","1","outdoor_scenes","","0","0","1","400","34700","415","37844",""
"","iti_localizer","","html-keyboard-response","167","387096","0.0-2.0-38.0-1.0","35","74300","male","null","","","","null","","36","","","386783","1","","","","","","300","35100","313","38259","300"
"","localizer","","html-keyboard-response","168","387512","0.0-2.0-39.0-0.0","35","74300","male","NaN","","","","null","NaN","37","","Stimuli/Experimental_stims/localizer/outdoor_scenes/ricardo-gomez-angel-dTSaC-S-7fs-unsplash.jpg","387096","1","outdoor_scenes","","0","1","0","400","35400","416","38572",""
"","iti_localizer","","html-keyboard-response","169","387822","0.0-2.0-39.0-1.0","35","74300","male","null","","","","null","","37","","","387512","1","","","","","","300","35800","310","38988","300"
"","localizer","","html-keyboard-response","170","388232","0.0-2.0-40.0-0.0","35","74300","male","341","","","","68","0","38","","Stimuli/Experimental_stims/localizer/outdoor_scenes/samuel-ferrara-IEHPDNk2-8w-unsplash.jpg","387822","1","outdoor_scenes","","0","0","1","400","36100","410","39298",""
"","iti_localizer","","html-keyboard-response","171","388541","0.0-2.0-40.0-1.0","35","74300","male","null","","","","null","","38","","","388232","1","","","","","","300","36500","309","39708","300"
"","localizer","","html-keyboard-response","172","388951","0.0-2.0-41.0-0.0","35","74300","male","391","","","","68","0","39","","Stimuli/Experimental_stims/localizer/outdoor_scenes/pietro-de-grandi-T7K4aEPoGGk-unsplash.jpg","388541","1","outdoor_scenes","","0","0","1","400","36800","410","40017",""
"","iti_localizer","","html-keyboard-response","173","389263","0.0-2.0-41.0-1.0","35","74300","male","null","","","","null","","39","","","388951","1","","","","","","300","37200","312","40427","300"
"","localizer","","html-keyboard-response","174","389680","0.0-2.0-42.0-0.0","35","74300","male","363","","","","68","0","40","","Stimuli/Experimental_stims/localizer/outdoor_scenes/tomasz-filipek-CUWC-6MRcNg-unsplash.jpg","389263","1","outdoor_scenes","","0","0","1","400","37500","417","40739",""
"","iti_localizer","","html-keyboard-response","175","389991","0.0-2.0-42.0-1.0","35","74300","male","null","","","","null","","40","","","389680","1","","","","","","300","37900","311","41156","300"
"","localizer","","html-keyboard-response","176","390406","0.0-2.0-43.0-0.0","35","74300","male","375","","","","68","0","41","","Stimuli/Experimental_stims/localizer/outdoor_scenes/cayetano-gil-rguHxZmOF5U-unsplash.jpg","389991","1","outdoor_scenes","","0","0","1","400","38200","415","41467",""
"","iti_localizer","","html-keyboard-response","177","390720","0.0-2.0-43.0-1.0","35","74300","male","null","","","","null","","41","","","390406","1","","","","","","300","38600","314","41882","300"
"","localizer","","html-keyboard-response","178","391136","0.0-2.0-44.0-0.0","35","74300","male","398","","","","68","0","42","","Stimuli/Experimental_stims/localizer/outdoor_scenes/nikola-majksner-hXNGeAFOgT4-unsplash.jpg","390720","1","outdoor_scenes","","0","0","1","400","38900","416","42196",""
"","iti_localizer","","html-keyboard-response","179","391447","0.0-2.0-44.0-1.0","35","74300","male","null","","","","null","","42","","","391136","1","","","","","","300","39300","311","42612","300"
"","localizer","","html-keyboard-response","180","391862","0.0-2.0-45.0-0.0","35","74300","male","NaN","","","","null","NaN","43","","Stimuli/Experimental_stims/localizer/outdoor_scenes/wil-stewart-pHANr-CpbYM-unsplash.jpg","391447","1","outdoor_scenes","","1","1","0","400","39600","415","42923",""
"","iti_localizer","","html-keyboard-response","181","392176","0.0-2.0-45.0-1.0","35","74300","male","null","","","","null","","43","","","391862","1","","","","","","300","40000","314","43338","300"
"","localizer","","html-keyboard-response","182","392586","0.0-2.0-46.0-0.0","35","74300","male","304","","","","75","1","44","","Stimuli/Experimental_stims/localizer/outdoor_scenes/chang-qing-2YQoKbyGvDc-unsplash.jpg","392176","1","outdoor_scenes","","0","0","0","400","40300","410","43652",""
"","iti_localizer","","html-keyboard-response","183","392895","0.0-2.0-46.0-1.0","35","74300","male","null","","","","null","","44","","","392586","1","","","","","","300","40700","309","44062","300"
"","localizer","","html-keyboard-response","184","393312","0.0-2.0-47.0-0.0","35","74300","male","42","","","","68","0","45","","Stimuli/Experimental_stims/localizer/outdoor_scenes/solotravelgoals-7kLufxYoqWk-unsplash.jpg","392895","1","outdoor_scenes","","0","0","1","400","41000","417","44371",""
"","iti_localizer","","html-keyboard-response","185","407328","0.0-2.0-47.0-1.0","35","74300","male","null","","","","null","","45","","","393312","1","","","","","","14000","41400","14016","44788","14000"
"","localizer","","html-keyboard-response","186","408036","0.0-2.0-48.0-0.0","35","74300","male","NaN","","","","null","NaN","46","","Stimuli/Experimental_stims/localizer/body_parts/jeremy-bishop-mLd3hAaH2ns-unsplash.jpg","407328","1","body_parts","","0","1","0","400","55400","708","58804",""
"","iti_localizer","","html-keyboard-response","187","408348","0.0-2.0-48.0-1.0","35","74300","male","null","","","","null","","46","","","408036","1","","","","","","300","55800","312","59512","300"
"","localizer","","html-keyboard-response","188","408759","0.0-2.0-49.0-0.0","35","74300","male","NaN","","","","null","NaN","47","","Stimuli/Experimental_stims/localizer/body_parts/lilartsy-1KkhQ8uL28g-unsplash.jpg","408348","1","body_parts","","0","1","0","400","56100","411","59824",""
"","iti_localizer","","html-keyboard-response","189","409072","0.0-2.0-49.0-1.0","35","74300","male","null","","","","null","","47","","","408759","1","","","","","","300","56500","313","60235","300"
"","localizer","","html-keyboard-response","190","409487","0.0-2.0-50.0-0.0","35","74300","male","281","","","","68","0","48","","Stimuli/Experimental_stims/localizer/body_parts/toa-heftiba-qxvWnfHb3-M-unsplash.jpg","409072","1","body_parts","","0","0","1","400","56800","415","60548",""
"","iti_localizer","","html-keyboard-response","191","409799","0.0-2.0-50.0-1.0","35","74300","male","null","","","","null","","48","","","409487","1","","","","","","300","57200","312","60963","300"
"","localizer","","html-keyboard-response","192","410215","0.0-2.0-51.0-0.0","35","74300","male","NaN","","","","null","NaN","49","","Stimuli/Experimental_stims/localizer/body_parts/callum-skelton-3KLMq7y46nA-unsplash.jpg","409799","1","body_parts","","1","1","0","400","57500","416","61275",""
"","iti_localizer","","html-keyboard-response","193","410527","0.0-2.0-51.0-1.0","35","74300","male","null","","","","null","","49","","","410215","1","","","","","","300","57900","312","61691","300"
"","localizer","","html-keyboard-response","194","410943","0.0-2.0-52.0-0.0","35","74300","male","NaN","","","","null","NaN","50","","Stimuli/Experimental_stims/localizer/body_parts/ant-rozetsky-bXQd8JXx0vs-unsplash.jpg","410527","1","body_parts","","0","1","0","400","58200","416","62003",""
"","iti_localizer","","html-keyboard-response","195","411255","0.0-2.0-52.0-1.0","35","74300","male","null","","","","null","","50","","","410943","1","","","","","","300","58600","312","62419","300"
"","localizer","","html-keyboard-response","196","411672","0.0-2.0-53.0-0.0","35","74300","male","NaN","","","","null","NaN","51","","Stimuli/Experimental_stims/localizer/body_parts/boyd-christiansen-uVj7kewrZ-o-unsplash.jpg","411255","1","body_parts","","0","1","0","400","58900","417","62731",""
"","iti_localizer","","html-keyboard-response","197","411982","0.0-2.0-53.0-1.0","35","74300","male","null","","","","null","","51","","","411672","1","","","","","","300","59300","310","63148","300"
"","localizer","","html-keyboard-response","198","412390","0.0-2.0-54.0-0.0","35","74300","male","371","","","","68","0","52","","Stimuli/Experimental_stims/localizer/body_parts/helen-ast-l2iY5Sh0mTg-unsplash.jpg","411982","1","body_parts","","0","0","1","400","59600","408","63458",""
"","iti_localizer","","html-keyboard-response","199","412701","0.0-2.0-54.0-1.0","35","74300","male","null","","","","null","","52","","","412390","1","","","","","","300","60000","311","63866","300"
"","localizer","","html-keyboard-response","200","413112","0.0-2.0-55.0-0.0","35","74300","male","379","","","","68","0","53","","Stimuli/Experimental_stims/localizer/body_parts/pure-julia-E9Q4bqYHtIM-unsplash.jpg","412701","1","body_parts","","0","0","1","400","60300","411","64177",""
"","iti_localizer","","html-keyboard-response","201","413423","0.0-2.0-55.0-1.0","35","74300","male","null","","","","null","","53","","","413112","1","","","","","","300","60700","311","64588","300"
"","localizer","","html-keyboard-response","202","413838","0.0-2.0-56.0-0.0","35","74300","male","370","","","","68","0","54","","Stimuli/Experimental_stims/localizer/body_parts/sina-rezakhani-d1gQi0Jl05U-unsplash (1).jpg","413423","1","body_parts","","0","0","1","400","61000","415","64899",""
"","iti_localizer","","html-keyboard-response","203","414151","0.0-2.0-56.0-1.0","35","74300","male","null","","","","null","","54","","","413838","1","","","","","","300","61400","313","65314","300"
"","localizer","","html-keyboard-response","204","414565","0.0-2.0-57.0-0.0","35","74300","male","NaN","","","","null","NaN","55","","Stimuli/Experimental_stims/localizer/body_parts/megan-menegay-UojxG_BJxnI-unsplash.jpg","414151","1","body_parts","","0","1","0","400","61700","414","65627",""
"","iti_localizer","","html-keyboard-response","205","414878","0.0-2.0-57.0-1.0","35","74300","male","null","","","","null","","55","","","414565","1","","","","","","300","62100","313","66041","300"
"","localizer","","html-keyboard-response","206","415295","0.0-2.0-58.0-0.0","35","74300","male","333","","","","68","0","56","","Stimuli/Experimental_stims/localizer/body_parts/sincerely-media-7TBFwUQA6Xk-unsplash.jpg","414878","1","body_parts","","0","0","1","400","62400","417","66354",""
"","iti_localizer","","html-keyboard-response","207","415607","0.0-2.0-58.0-1.0","35","74300","male","null","","","","null","","56","","","415295","1","","","","","","300","62800","312","66771","300"
"","localizer","","html-keyboard-response","208","416022","0.0-2.0-59.0-0.0","35","74300","male","366","","","","68","0","57","","Stimuli/Experimental_stims/localizer/body_parts/sincerely-media-pdynOoM7xmA-unsplash.jpg","415607","1","body_parts","","0","0","1","400","63100","415","67083",""
"","iti_localizer","","html-keyboard-response","209","416497","0.0-2.0-59.0-1.0","35","74300","male","null","","","","null","","57","","","416022","1","","","","","","300","63500","475","67498","300"
"","localizer","","html-keyboard-response","210","417126","0.0-2.0-60.0-0.0","35","74300","male","NaN","","","","null","NaN","58","","Stimuli/Experimental_stims/localizer/body_parts/adrien-king-XzBluXxBoyQ-unsplash.jpg","416497","1","body_parts","","0","1","0","400","63800","629","67973",""
"","iti_localizer","","html-keyboard-response","211","417439","0.0-2.0-60.0-1.0","35","74300","male","null","","","","null","","58","","","417126","1","","","","","","300","64200","313","68602","300"
"","localizer","","html-keyboard-response","212","417851","0.0-2.0-61.0-0.0","35","74300","male","123","","","","68","0","59","","Stimuli/Experimental_stims/localizer/body_parts/nattalia-nunez-MB9sdDfZMSg-unsplash.jpg","417439","1","body_parts","","1","0","0","400","64500","412","68915",""
"","iti_localizer","","html-keyboard-response","213","418167","0.0-2.0-61.0-1.0","35","74300","male","null","","","","null","","59","","","417851","1","","","","","","300","64900","316","69327","300"
"","localizer","","html-keyboard-response","214","418581","0.0-2.0-62.0-0.0","35","74300","male","NaN","","","","null","NaN","60","","Stimuli/Experimental_stims/localizer/body_parts/louis-hansel-FjKTMRTQYAs-unsplash.jpg","418167","1","body_parts","","0","1","0","400","65200","414","69643",""
"","iti_localizer","","html-keyboard-response","215","418896","0.0-2.0-62.0-1.0","35","74300","male","null","","","","null","","60","","","418581","1","","","","","","300","65600","315","70057","300"
"","localizer","","html-keyboard-response","216","419312","0.0-2.0-63.0-0.0","35","74300","male","327","","","","68","0","61","","Stimuli/Experimental_stims/localizer/body_parts/jonathan-borba-hTwH8QFkPMs-unsplash.jpg","418896","1","body_parts","","0","0","1","400","65900","416","70372",""
"","iti_localizer","","html-keyboard-response","217","419621","0.0-2.0-63.0-1.0","35","74300","male","null","","","","null","","61","","","419312","1","","","","","","300","66300","309","70788","300"
"","localizer","","html-keyboard-response","218","420031","0.0-2.0-64.0-0.0","35","74300","male","356","","","","68","0","62","","Stimuli/Experimental_stims/localizer/body_parts/hu-chen-tCbTGNwrFNM-unsplash.jpg","419621","1","body_parts","","0","0","1","400","66600","410","71097",""
"","iti_localizer","","html-keyboard-response","219","420341","0.0-2.0-64.0-1.0","35","74300","male","null","","","","null","","62","","","420031","1","","","","","","300","67000","310","71507","300"
"","localizer","","html-keyboard-response","220","420751","0.0-2.0-65.0-0.0","35","74300","male","387","","","","68","0","63","","Stimuli/Experimental_stims/localizer/body_parts/danie-franco-jyyNiSEcCl4-unsplash.jpg","420341","1","body_parts","","0","0","1","400","67300","410","71817",""
"","iti_localizer","","html-keyboard-response","221","421064","0.0-2.0-65.0-1.0","35","74300","male","null","","","","null","","63","","","420751","1","","","","","","300","67700","313","72227","300"
"","localizer","","html-keyboard-response","222","421474","0.0-2.0-66.0-0.0","35","74300","male","405","","","","68","0","64","","Stimuli/Experimental_stims/localizer/body_parts/natalie-grainger-8uB5kFKWWkk-unsplash.jpg","421064","1","body_parts","","0","0","1","400","68000","410","72540",""
"","iti_localizer","","html-keyboard-response","223","421783","0.0-2.0-66.0-1.0","35","74300","male","null","","","","null","","64","","","421474","1","","","","","","300","68400","309","72950","300"
"","localizer","","html-keyboard-response","224","422199","0.0-2.0-67.0-0.0","35","74300","male","NaN","","","","null","NaN","65","","Stimuli/Experimental_stims/localizer/body_parts/apostolos-vamvouras-g5wKHRu2QW0-unsplash.jpg","421783","1","body_parts","","0","1","0","400","68700","416","73259",""
"","iti_localizer","","html-keyboard-response","225","436221","0.0-2.0-67.0-1.0","35","74300","male","null","","","","null","","65","","","422199","1","","","","","","14000","69100","14022","73675","14000"
"","localizer","","html-keyboard-response","226","436859","0.0-2.0-68.0-0.0","35","74300","male","NaN","","","","null","NaN","66","","Stimuli/Experimental_stims/localizer/objects/quaritsch-photography-lZ8onQ1wuY8-unsplash.jpg","436221","1","objects","","1","1","0","400","83100","638","87697",""
"","iti_localizer","","html-keyboard-response","227","437295","0.0-2.0-68.0-1.0","35","74300","male","null","","","","null","","66","","","436859","1","","","","","","300","83500","436","88335","300"
"","localizer","","html-keyboard-response","228","438246","0.0-2.0-69.0-0.0","35","74300","male","NaN","","","","null","NaN","67","","Stimuli/Experimental_stims/localizer/objects/ana-9GmAaEMMKho-unsplash.jpg","437295","1","objects","","0","1","0","400","83800","951","88771",""
"","iti_localizer","","html-keyboard-response","229","438558","0.0-2.0-69.0-1.0","35","74300","male","null","","","","null","","67","","","438246","1","","","","","","300","84200","312","89722","300"
"","localizer","","html-keyboard-response","230","438967","0.0-2.0-70.0-0.0","35","74300","male","175","","","","68","0","68","","Stimuli/Experimental_stims/localizer/objects/nordwood-themes-nDd3dIkkOLo-unsplash.jpg","438558","1","objects","","0","0","1","400","84500","409","90034",""
"","iti_localizer","","html-keyboard-response","231","439280","0.0-2.0-70.0-1.0","35","74300","male","null","","","","null","","68","","","438967","1","","","","","","300","84900","313","90443","300"
"","localizer","","html-keyboard-response","232","439694","0.0-2.0-71.0-0.0","35","74300","male","305","","","","68","0","69","","Stimuli/Experimental_stims/localizer/objects/kelly-jean-cKjbI0Y00X0-unsplash.jpg","439280","1","objects","","0","0","1","400","85200","414","90756",""
"","iti_localizer","","html-keyboard-response","233","440007","0.0-2.0-71.0-1.0","35","74300","male","null","","","","null","","69","","","439694","1","","","","","","300","85600","313","91170","300"
"","localizer","","html-keyboard-response","234","440422","0.0-2.0-72.0-0.0","35","74300","male","328","","","","68","0","70","","Stimuli/Experimental_stims/localizer/objects/florian-klauer-nptLmg6jqDo-unsplash.jpg","440007","1","objects","","0","0","1","400","85900","415","91483",""
"","iti_localizer","","html-keyboard-response","235","440735","0.0-2.0-72.0-1.0","35","74300","male","null","","","","null","","70","","","440422","1","","","","","","300","86300","313","91898","300"
"","localizer","","html-keyboard-response","236","441151","0.0-2.0-73.0-0.0","35","74300","male","NaN","","","","null","NaN","71","","Stimuli/Experimental_stims/localizer/objects/nicolas-hippert-SVgX47QIUlc-unsplash.jpg","440735","1","objects","","0","1","0","400","86600","416","92211",""
"","iti_localizer","","html-keyboard-response","237","441463","0.0-2.0-73.0-1.0","35","74300","male","null","","","","null","","71","","","441151","1","","","","","","300","87000","312","92627","300"
"","localizer","","html-keyboard-response","238","441878","0.0-2.0-74.0-0.0","35","74300","male","NaN","","","","null","NaN","72","","Stimuli/Experimental_stims/localizer/objects/florian-klauer-mk7D-4UCfmg-unsplash.jpg","441463","1","objects","","0","1","0","400","87300","415","92939",""
"","iti_localizer","","html-keyboard-response","239","442191","0.0-2.0-74.0-1.0","35","74300","male","null","","","","null","","72","","","441878","1","","","","","","300","87700","313","93354","300"
"","localizer","","html-keyboard-response","240","442600","0.0-2.0-75.0-0.0","35","74300","male","296","","","","68","0","73","","Stimuli/Experimental_stims/localizer/objects/alex-lvrs-2zDw14yCYqk-unsplash.jpg","442191","1","objects","","0","0","1","400","88000","409","93667",""
"","iti_localizer","","html-keyboard-response","241","442911","0.0-2.0-75.0-1.0","35","74300","male","null","","","","null","","73","","","442600","1","","","","","","300","88400","311","94076","300"
"","localizer","","html-keyboard-response","242","443326","0.0-2.0-76.0-0.0","35","74300","male","322","","","","68","0","74","","Stimuli/Experimental_stims/localizer/objects/hipster-mum-XookgCxFw6Q-unsplash.jpg","442911","1","objects","","0","0","1","400","88700","415","94387",""
"","iti_localizer","","html-keyboard-response","243","443639","0.0-2.0-76.0-1.0","35","74300","male","null","","","","null","","74","","","443326","1","","","","","","300","89100","313","94802","300"
"","localizer","","html-keyboard-response","244","444055","0.0-2.0-77.0-0.0","35","74300","male","NaN","","","","null","NaN","75","","Stimuli/Experimental_stims/localizer/objects/ian-talmacs-ugqU0a4P18U-unsplash.jpg","443639","1","objects","","0","1","0","400","89400","416","95115",""
"","iti_localizer","","html-keyboard-response","245","444367","0.0-2.0-77.0-1.0","35","74300","male","null","","","","null","","75","","","444055","1","","","","","","300","89800","312","95531","300"
"","localizer","","html-keyboard-response","246","444784","0.0-2.0-78.0-0.0","35","74300","male","NaN","","","","null","NaN","76","","Stimuli/Experimental_stims/localizer/objects/chris-briggs-FobzAZJGM9M-unsplash.jpg","444367","1","objects","","0","1","0","400","90100","417","95843",""
"","iti_localizer","","html-keyboard-response","247","445093","0.0-2.0-78.0-1.0","35","74300","male","null","","","","null","","76","","","444784","1","","","","","","300","90500","309","96260","300"
"","localizer","","html-keyboard-response","248","445503","0.0-2.0-79.0-0.0","35","74300","male","375","","","","68","0","77","","Stimuli/Experimental_stims/localizer/objects/recha-oktaviani-t__61ap00Mc-unsplash.jpg","445093","1","objects","","0","0","1","400","90800","410","96569",""
"","iti_localizer","","html-keyboard-response","249","445815","0.0-2.0-79.0-1.0","35","74300","male","null","","","","null","","77","","","445503","1","","","","","","300","91200","312","96979","300"
"","localizer","","html-keyboard-response","250","446231","0.0-2.0-80.0-0.0","35","74300","male","345","","","","68","0","78","","Stimuli/Experimental_stims/localizer/objects/jonny-caspari-wsvCC6UyKjs-unsplash.jpg","445815","1","objects","","0","0","1","400","91500","416","97291",""
"","iti_localizer","","html-keyboard-response","251","446542","0.0-2.0-80.0-1.0","35","74300","male","null","","","","null","","78","","","446231","1","","","","","","300","91900","311","97707","300"
"","localizer","","html-keyboard-response","252","446958","0.0-2.0-81.0-0.0","35","74300","male","409","","","","68","0","79","","Stimuli/Experimental_stims/localizer/objects/markus-spiske-ANrVtttbNss-unsplash.jpg","446542","1","objects","","0","0","1","400","92200","416","98018",""
"","iti_localizer","","html-keyboard-response","253","447336","0.0-2.0-81.0-1.0","35","74300","male","null","","","","null","","79","","","446958","1","","","","","","300","92600","378","98434","300"
"","localizer","","html-keyboard-response","254","447832","0.0-2.0-82.0-0.0","35","74300","male","NaN","","","","null","NaN","80","","Stimuli/Experimental_stims/localizer/objects/ignat-dolomanov-kFBDVnmskPA-unsplash.jpg","447336","1","objects","","0","1","0","400","92900","496","98812",""
"","iti_localizer","","html-keyboard-response","255","448141","0.0-2.0-82.0-1.0","35","74300","male","null","","","","null","","80","","","447832","1","","","","","","300","93300","309","99308","300"
"","localizer","","html-keyboard-response","256","448551","0.0-2.0-83.0-0.0","35","74300","male","40","","","","68","0","81","","Stimuli/Experimental_stims/localizer/objects/mockup-graphics-Pj2PY-E-LfM-unsplash.jpg","448141","1","objects","","0","0","1","400","93600","410","99617",""
"","iti_localizer","","html-keyboard-response","257","448864","0.0-2.0-83.0-1.0","35","74300","male","null","","","","null","","81","","","448551","1","","","","","","300","94000","313","100027","300"
"","localizer","","html-keyboard-response","258","449279","0.0-2.0-84.0-0.0","35","74300","male","NaN","","","","null","NaN","82","","Stimuli/Experimental_stims/localizer/objects/lance-reis-v0FYj9iioQg-unsplash.jpg","448864","1","objects","","0","1","0","400","94300","415","100340",""
"","iti_localizer","","html-keyboard-response","259","449591","0.0-2.0-84.0-1.0","35","74300","male","null","","","","null","","82","","","449279","1","","","","","","300","94700","312","100755","300"
"","localizer","","html-keyboard-response","260","449998","0.0-2.0-85.0-0.0","35","74300","male","401","","","","68","0","83","","Stimuli/Experimental_stims/localizer/objects/mockup-graphics-U6ZMEefFGx8-unsplash.jpg","449591","1","objects","","0","0","1","400","95000","407","101067",""
"","iti_localizer","","html-keyboard-response","261","450312","0.0-2.0-85.0-1.0","35","74300","male","null","","","","null","","83","","","449998","1","","","","","","300","95400","314","101474","300"
"","localizer","","html-keyboard-response","262","450727","0.0-2.0-86.0-0.0","35","74300","male","NaN","","","","null","NaN","84","","Stimuli/Experimental_stims/localizer/objects/engin-akyurt-bbbKzTmY2Gg-unsplash.jpg","450312","1","objects","","1","1","0","400","95700","415","101788",""
"","iti_localizer","","html-keyboard-response","263","451047","0.0-2.0-86.0-1.0","35","74300","male","null","","","","null","","84","","","450727","1","","","","","","300","96100","320","102203","300"
"","localizer","","html-keyboard-response","264","451461","0.0-2.0-87.0-0.0","35","74300","male","351","","","","68","0","85","","Stimuli/Experimental_stims/localizer/objects/eugene-chystiakov-3neSwyntbQ8-unsplash.jpg","451047","1","objects","","0","0","1","400","96400","414","102523",""
"","iti_localizer","","html-keyboard-response","265","465514","0.0-2.0-87.0-1.0","35","74300","male","null","","","","null","","85","","","451461","1","","","","","","14000","96800","14053","102937","14000"
"","localizer","","html-keyboard-response","266","466054","0.0-2.0-88.0-0.0","35","74300","male","NaN","","","","null","NaN","86","","Stimuli/Experimental_stims/localizer/body_parts/bady-abbas-N-VEeMnm7gE-unsplash.jpg","465514","1","body_parts","","0","1","0","400","110800","540","116990",""
"","iti_localizer","","html-keyboard-response","267","466367","0.0-2.0-88.0-1.0","35","74300","male","null","","","","null","","86","","","466054","1","","","","","","300","111200","313","117530","300"
"","localizer","","html-keyboard-response","268","466781","0.0-2.0-89.0-0.0","35","74300","male","127","","","","68","0","87","","Stimuli/Experimental_stims/localizer/body_parts/sincerely-media-QyzlAZjm0r0-unsplash.jpg","466367","1","body_parts","","1","0","0","400","111500","414","117843",""
"","iti_localizer","","html-keyboard-response","269","467094","0.0-2.0-89.0-1.0","35","74300","male","null","","","","null","","87","","","466781","1","","","","","","300","111900","313","118257","300"
"","localizer","","html-keyboard-response","270","467504","0.0-2.0-90.0-0.0","35","74300","male","346","","","","68","0","88","","Stimuli/Experimental_stims/localizer/body_parts/jeremy-yap-TfJEi17kA0w-unsplash.jpg","467094","1","body_parts","","0","0","1","400","112200","410","118570",""
"","iti_localizer","","html-keyboard-response","271","467814","0.0-2.0-90.0-1.0","35","74300","male","null","","","","null","","88","","","467504","1","","","","","","300","112600","310","118980","300"
"","localizer","","html-keyboard-response","272","468223","0.0-2.0-91.0-0.0","35","74300","male","294","","","","68","0","89","","Stimuli/Experimental_stims/localizer/body_parts/matheus-frade-eyzdb1C3JDM-unsplash.jpg","467814","1","body_parts","","0","0","1","400","112900","409","119290",""
"","iti_localizer","","html-keyboard-response","273","468535","0.0-2.0-91.0-1.0","35","74300","male","null","","","","null","","89","","","468223","1","","","","","","300","113300","312","119699","300"
"","localizer","","html-keyboard-response","274","468957","0.0-2.0-92.0-0.0","35","74300","male","NaN","","","","null","NaN","90","","Stimuli/Experimental_stims/localizer/body_parts/priscilla-du-preez-e6fcNpur53A-unsplash.jpg","468535","1","body_parts","","0","1","0","400","113600","422","120011",""
"","iti_localizer","","html-keyboard-response","275","469269","0.0-2.0-92.0-1.0","35","74300","male","null","","","","null","","90","","","468957","1","","","","","","300","114000","312","120433","300"
"","localizer","","html-keyboard-response","276","469677","0.0-2.0-93.0-0.0","35","74300","male","355","","","","68","0","91","","Stimuli/Experimental_stims/localizer/body_parts/nihal-karkala-LlOfbQD-IJ0-unsplash.jpg","469269","1","body_parts","","0","0","1","400","114300","408","120745",""
"","iti_localizer","","html-keyboard-response","277","469990","0.0-2.0-93.0-1.0","35","74300","male","null","","","","null","","91","","","469677","1","","","","","","300","114700","313","121153","300"
"","localizer","","html-keyboard-response","278","470407","0.0-2.0-94.0-0.0","35","74300","male","356","","","","68","0","92","","Stimuli/Experimental_stims/localizer/body_parts/niu-niu-5HzOtV-FSlw-unsplash.jpg","469990","1","body_parts","","0","0","1","400","115000","417","121466",""
"","iti_localizer","","html-keyboard-response","279","470718","0.0-2.0-94.0-1.0","35","74300","male","null","","","","null","","92","","","470407","1","","","","","","300","115400","311","121883","300"
"","localizer","","html-keyboard-response","280","471134","0.0-2.0-95.0-0.0","35","74300","male","349","","","","68","0","93","","Stimuli/Experimental_stims/localizer/body_parts/igordoon-primus-CdyHqfrbGIs-unsplash.jpg","470718","1","body_parts","","0","0","1","400","115700","416","122194",""
"","iti_localizer","","html-keyboard-response","281","471447","0.0-2.0-95.0-1.0","35","74300","male","null","","","","null","","93","","","471134","1","","","","","","300","116100","313","122610","300"
"","localizer","","html-keyboard-response","282","471855","0.0-2.0-96.0-0.0","35","74300","male","401","","","","68","0","94","","Stimuli/Experimental_stims/localizer/body_parts/carlos-henrique-NAOJKwZswbs-unsplash.jpg","471447","1","body_parts","","0","0","1","400","116400","408","122923",""
"","iti_localizer","","html-keyboard-response","283","472167","0.0-2.0-96.0-1.0","35","74300","male","null","","","","null","","94","","","471855","1","","","","","","300","116800","312","123331","300"
"","localizer","","html-keyboard-response","284","472582","0.0-2.0-97.0-0.0","35","74300","male","329","","","","68","0","95","","Stimuli/Experimental_stims/localizer/body_parts/liv-bruce-M0oVPGsWk1E-unsplash.jpg","472167","1","body_parts","","0","0","1","400","117100","415","123643",""
"","iti_localizer","","html-keyboard-response","285","472894","0.0-2.0-97.0-1.0","35","74300","male","null","","","","null","","95","","","472582","1","","","","","","300","117500","312","124058","300"
"","localizer","","html-keyboard-response","286","473632","0.0-2.0-98.0-0.0","35","74300","male","NaN","","","","null","NaN","96","","Stimuli/Experimental_stims/localizer/body_parts/sincerely-media-9Zf6yh7RYbQ-unsplash.jpg","472894","1","body_parts","","0","1","0","400","117800","738","124370",""
"","iti_localizer","","html-keyboard-response","287","474791","0.0-2.0-98.0-1.0","35","74300","male","null","","","","null","","96","","","473632","1","","","","","","300","118200","1159","125108","300"
"","localizer","","html-keyboard-response","288","475215","0.0-2.0-99.0-0.0","35","74300","male","NaN","","","","null","NaN","97","","Stimuli/Experimental_stims/localizer/body_parts/debby-hudson--B_757qSA4k-unsplash.jpg","474791","1","body_parts","","0","1","0","400","118500","424","126267",""
"","iti_localizer","","html-keyboard-response","289","475527","0.0-2.0-99.0-1.0","35","74300","male","null","","","","null","","97","","","475215","1","","","","","","300","118900","312","126691","300"
"","localizer","","html-keyboard-response","290","475943","0.0-2.0-100.0-0.0","35","74300","male","361","","","","68","0","98","","Stimuli/Experimental_stims/localizer/body_parts/betzy-arosemena-YHdgnygtVCQ-unsplash.jpg","475527","1","body_parts","","0","0","1","400","119200","416","127003",""
"","iti_localizer","","html-keyboard-response","291","476255","0.0-2.0-100.0-1.0","35","74300","male","null","","","","null","","98","","","475943","1","","","","","","300","119600","312","127419","300"
"","localizer","","html-keyboard-response","292","476670","0.0-2.0-101.0-0.0","35","74300","male","NaN","","","","null","NaN","99","","Stimuli/Experimental_stims/localizer/body_parts/sincerely-media-Q7qRyaurQfo-unsplash.jpg","476255","1","body_parts","","1","1","0","400","119900","415","127731",""
"","iti_localizer","","html-keyboard-response","293","476983","0.0-2.0-101.0-1.0","35","74300","male","null","","","","null","","99","","","476670","1","","","","","","300","120300","313","128146","300"
"","localizer","","html-keyboard-response","294","477393","0.0-2.0-102.0-0.0","35","74300","male","403","","","","68","0","100","","Stimuli/Experimental_stims/localizer/body_parts/deborah-diem-ieVxpPjl1e0-unsplash.jpg","476983","1","body_parts","","0","0","1","400","120600","410","128459",""
"","iti_localizer","","html-keyboard-response","295","477702","0.0-2.0-102.0-1.0","35","74300","male","null","","","","null","","100","","","477393","1","","","","","","300","121000","309","128869","300"
"","localizer","","html-keyboard-response","296","478111","0.0-2.0-103.0-0.0","35","74300","male","297","","","","68","0","101","","Stimuli/Experimental_stims/localizer/body_parts/jasper-garratt-Ng_Kl7K6V8Y-unsplash.jpg","477702","1","body_parts","","0","0","1","400","121300","409","129178",""
"","iti_localizer","","html-keyboard-response","297","478423","0.0-2.0-103.0-1.0","35","74300","male","null","","","","null","","101","","","478111","1","","","","","","300","121700","312","129587","300"
"","localizer","","html-keyboard-response","298","478837","0.0-2.0-104.0-0.0","35","74300","male","312","","","","68","0","102","","Stimuli/Experimental_stims/localizer/body_parts/jan-romero-DL4DDQb8yjc-unsplash.jpg","478423","1","body_parts","","0","0","1","400","122000","414","129899",""
"","iti_localizer","","html-keyboard-response","299","479151","0.0-2.0-104.0-1.0","35","74300","male","null","","","","null","","102","","","478837","1","","","","","","300","122400","314","130313","300"
"","localizer","","html-keyboard-response","300","479565","0.0-2.0-105.0-0.0","35","74300","male","313","","","","68","0","103","","Stimuli/Experimental_stims/localizer/body_parts/i-am_nah--S4OsO0c6Ts-unsplash.jpg","479151","1","body_parts","","0","0","1","400","122700","414","130627",""
"","iti_localizer","","html-keyboard-response","301","479876","0.0-2.0-105.0-1.0","35","74300","male","null","","","","null","","103","","","479565","1","","","","","","300","123100","311","131041","300"
"","localizer","","html-keyboard-response","302","480287","0.0-2.0-106.0-0.0","35","74300","male","325","","","","68","0","104","","Stimuli/Experimental_stims/localizer/body_parts/semen-zhuravlev-_XxH_mV8dnk-unsplash (1).jpg","479876","1","body_parts","","0","0","1","400","123400","411","131352",""
"","iti_localizer","","html-keyboard-response","303","480598","0.0-2.0-106.0-1.0","35","74300","male","null","","","","null","","104","","","480287","1","","","","","","300","123800","311","131763","300"
"","localizer","","html-keyboard-response","304","481015","0.0-2.0-107.0-0.0","35","74300","male","363","","","","68","0","105","","Stimuli/Experimental_stims/localizer/body_parts/sippakorn-yamkasikorn-32_sJlJa5gA-unsplash.jpg","480598","1","body_parts","","0","0","1","400","124100","417","132074",""
"","iti_localizer","","html-keyboard-response","305","495048","0.0-2.0-107.0-1.0","35","74300","male","null","","","","null","","105","","","481015","1","","","","","","14000","124500","14033","132491","14000"
"","localizer","","html-keyboard-response","306","495583","0.0-2.0-108.0-0.0","35","74300","male","NaN","","","","null","NaN","106","","Stimuli/Experimental_stims/localizer/objects/quino-al-8gWEAAXJjtI-unsplash.jpg","495048","1","objects","","1","1","0","400","138500","535","146524",""
"","iti_localizer","","html-keyboard-response","307","495895","0.0-2.0-108.0-1.0","35","74300","male","null","","","","null","","106","","","495583","1","","","","","","300","138900","312","147059","300"
"","localizer","","html-keyboard-response","308","496311","0.0-2.0-109.0-0.0","35","74300","male","82","","","","68","0","107","","Stimuli/Experimental_stims/localizer/objects/oriento-maVIpNNtmlQ-unsplash.jpg","495895","1","objects","","0","0","1","400","139200","416","147371",""
"","iti_localizer","","html-keyboard-response","309","496623","0.0-2.0-109.0-1.0","35","74300","male","null","","","","null","","107","","","496311","1","","","","","","300","139600","312","147787","300"
"","localizer","","html-keyboard-response","310","497036","0.0-2.0-110.0-0.0","35","74300","male","NaN","","","","null","NaN","108","","Stimuli/Experimental_stims/localizer/objects/chris-briggs-x9TCnxNBofE-unsplash.jpg","496623","1","objects","","0","1","0","400","139900","413","148099",""
"","iti_localizer","","html-keyboard-response","311","497350","0.0-2.0-110.0-1.0","35","74300","male","null","","","","null","","108","","","497036","1","","","","","","300","140300","314","148512","300"
"","localizer","","html-keyboard-response","312","497762","0.0-2.0-111.0-0.0","35","74300","male","313","","","","68","0","109","","Stimuli/Experimental_stims/localizer/objects/saif71-com-VIKdvmGUhq8-unsplash.jpg","497350","1","objects","","0","0","1","400","140600","412","148826",""
"","iti_localizer","","html-keyboard-response","313","498069","0.0-2.0-111.0-1.0","35","74300","male","null","","","","null","","109","","","497762","1","","","","","","300","141000","307","149238","300"
"","localizer","","html-keyboard-response","314","498478","0.0-2.0-112.0-0.0","35","74300","male","323","","","","68","0","110","","Stimuli/Experimental_stims/localizer/objects/nicolas-hippert-kfr_eSrR08M-unsplash.jpg","498069","1","objects","","0","0","1","400","141300","409","149545",""
"","iti_localizer","","html-keyboard-response","315","498791","0.0-2.0-112.0-1.0","35","74300","male","null","","","","null","","110","","","498478","1","","","","","","300","141700","313","149954","300"
"","localizer","","html-keyboard-response","316","499206","0.0-2.0-113.0-0.0","35","74300","male","363","","","","68","0","111","","Stimuli/Experimental_stims/localizer/objects/adriano-pucciarelli-BE7yaZnZX6o-unsplash.jpg","498791","1","objects","","0","0","1","400","142000","415","150267",""
"","iti_localizer","","html-keyboard-response","317","499518","0.0-2.0-113.0-1.0","35","74300","male","null","","","","null","","111","","","499206","1","","","","","","300","142400","312","150682","300"
"","localizer","","html-keyboard-response","318","499927","0.0-2.0-114.0-0.0","35","74300","male","402","","","","68","0","112","","Stimuli/Experimental_stims/localizer/objects/girl-with-red-hat-Xxg-r574pLE-unsplash.jpg","499518","1","objects","","0","0","1","400","142700","409","150994",""
"","iti_localizer","","html-keyboard-response","319","500239","0.0-2.0-114.0-1.0","35","74300","male","null","","","","null","","112","","","499927","1","","","","","","300","143100","312","151403","300"
"","localizer","","html-keyboard-response","320","500655","0.0-2.0-115.0-0.0","35","74300","male","NaN","","","","null","NaN","113","","Stimuli/Experimental_stims/localizer/objects/mulyadi-tWp0VSlSdMI-unsplash.jpg","500239","1","objects","","0","1","0","400","143400","416","151715",""
"","iti_localizer","","html-keyboard-response","321","500965","0.0-2.0-115.0-1.0","35","74300","male","null","","","","null","","113","","","500655","1","","","","","","300","143800","310","152131","300"
"","localizer","","html-keyboard-response","322","501374","0.0-2.0-116.0-0.0","35","74300","male","382","","","","68","0","114","","Stimuli/Experimental_stims/localizer/objects/yoann-siloine-_T4w3JDm6ug-unsplash.jpg","500965","1","objects","","0","0","1","400","144100","409","152441",""
"","iti_localizer","","html-keyboard-response","323","501685","0.0-2.0-116.0-1.0","35","74300","male","null","","","","null","","114","","","501374","1","","","","","","300","144500","311","152850","300"
"","localizer","","html-keyboard-response","324","502100","0.0-2.0-117.0-0.0","35","74300","male","317","","","","68","0","115","","Stimuli/Experimental_stims/localizer/objects/designecologist-hvgd0ygXuQQ-unsplash.jpg","501685","1","objects","","0","0","1","400","144800","415","153161",""
"","iti_localizer","","html-keyboard-response","325","502411","0.0-2.0-117.0-1.0","35","74300","male","null","","","","null","","115","","","502100","1","","","","","","300","145200","311","153576","300"
"","localizer","","html-keyboard-response","326","502822","0.0-2.0-118.0-0.0","35","74300","male","306","","","","68","0","116","","Stimuli/Experimental_stims/localizer/objects/namroud-gorguis-FZWivbri0Xk-unsplash.jpg","502411","1","objects","","0","0","1","400","145500","411","153887",""
"","iti_localizer","","html-keyboard-response","327","503135","0.0-2.0-118.0-1.0","35","74300","male","null","","","","null","","116","","","502822","1","","","","","","300","145900","313","154298","300"
"","localizer","","html-keyboard-response","328","503549","0.0-2.0-119.0-0.0","35","74300","male","356","","","","68","0","117","","Stimuli/Experimental_stims/localizer/objects/andrew-petrov-TVJqDat4MAw-unsplash.jpg","503135","1","objects","","0","0","1","400","146200","414","154611",""
"","iti_localizer","","html-keyboard-response","329","503967","0.0-2.0-119.0-1.0","35","74300","male","null","","","","null","","117","","","503549","1","","","","","","300","146600","418","155025","300"
"","localizer","","html-keyboard-response","330","504437","0.0-2.0-120.0-0.0","35","74300","male","NaN","","","","null","NaN","118","","Stimuli/Experimental_stims/localizer/objects/mockup-graphics-v_a3DWpOFc0-unsplash.jpg","503967","1","objects","","0","1","0","400","146900","470","155443",""
"","iti_localizer","","html-keyboard-response","331","504751","0.0-2.0-120.0-1.0","35","74300","male","null","","","","null","","118","","","504437","1","","","","","","300","147300","314","155913","300"
"","localizer","","html-keyboard-response","332","505167","0.0-2.0-121.0-0.0","35","74300","male","308","","","","68","0","119","","Stimuli/Experimental_stims/localizer/objects/carlos-felipe-ramirez-mesa-HW7bfB3ERSQ-unsplash.jpg","504751","1","objects","","0","0","1","400","147600","416","156227",""
"","iti_localizer","","html-keyboard-response","333","505478","0.0-2.0-121.0-1.0","35","74300","male","null","","","","null","","119","","","505167","1","","","","","","300","148000","311","156643","300"
"","localizer","","html-keyboard-response","334","505895","0.0-2.0-122.0-0.0","35","74300","male","273","","","","68","0","120","","Stimuli/Experimental_stims/localizer/objects/dario-mendez-hnJ2VNZzbns-unsplash.jpg","505478","1","objects","","0","0","1","400","148300","417","156954",""
"","iti_localizer","","html-keyboard-response","335","506207","0.0-2.0-122.0-1.0","35","74300","male","null","","","","null","","120","","","505895","1","","","","","","300","148700","312","157371","300"
"","localizer","","html-keyboard-response","336","506620","0.0-2.0-123.0-0.0","35","74300","male","357","","","","68","0","121","","Stimuli/Experimental_stims/localizer/objects/mockup-graphics-aUkYaG12Dgs-unsplash.jpg","506207","1","objects","","0","0","1","400","149000","413","157683",""
"","iti_localizer","","html-keyboard-response","337","506934","0.0-2.0-123.0-1.0","35","74300","male","null","","","","null","","121","","","506620","1","","","","","","300","149400","314","158096","300"
"","localizer","","html-keyboard-response","338","507350","0.0-2.0-124.0-0.0","35","74300","male","363","","","","68","0","122","","Stimuli/Experimental_stims/localizer/objects/sam-moghadam-khamseh-kvmdsTrGOBM-unsplash.jpg","506934","1","objects","","0","0","1","400","149700","416","158410",""
"","iti_localizer","","html-keyboard-response","339","507663","0.0-2.0-124.0-1.0","35","74300","male","null","","","","null","","122","","","507350","1","","","","","","300","150100","313","158826","300"
"","localizer","","html-keyboard-response","340","508077","0.0-2.0-125.0-0.0","35","74300","male","366","","","","68","0","123","","Stimuli/Experimental_stims/localizer/objects/sam-moghadam-khamseh-L_7MQsHl_aU-unsplash.jpg","507663","1","objects","","0","0","1","400","150400","414","159139",""
"","iti_localizer","","html-keyboard-response","341","508390","0.0-2.0-125.0-1.0","35","74300","male","null","","","","null","","123","","","508077","1","","","","","","300","150800","313","159553","300"
"","localizer","","html-keyboard-response","342","508807","0.0-2.0-126.0-0.0","35","74300","male","NaN","","","","null","NaN","124","","Stimuli/Experimental_stims/localizer/objects/adriano-pucciarelli-Jl3S1yM8gi8-unsplash.jpg","508390","1","objects","","0","1","0","400","151100","417","159866",""
"","iti_localizer","","html-keyboard-response","343","509116","0.0-2.0-126.0-1.0","35","74300","male","null","","","","null","","124","","","508807","1","","","","","","300","151500","309","160283","300"
"","localizer","","html-keyboard-response","344","509526","0.0-2.0-127.0-0.0","35","74300","male","NaN","","","","null","NaN","125","","Stimuli/Experimental_stims/localizer/objects/dario-mendez-WmF_XLF4-Rs-unsplash.jpg","509116","1","objects","","1","1","0","400","151800","410","160592",""
"","iti_localizer","","html-keyboard-response","345","523554","0.0-2.0-127.0-1.0","35","74300","male","null","","","","null","","125","","","509526","1","","","","","","14000","152200","14028","161002","14000"
"","localizer","","html-keyboard-response","346","524057","0.0-2.0-128.0-0.0","35","74300","male","NaN","","","","null","NaN","126","","Stimuli/Experimental_stims/localizer/outdoor_scenes/andres-sanz-uILhNE1VcwA-unsplash.jpg","523554","1","outdoor_scenes","","0","1","0","400","166200","503","175030",""
"","iti_localizer","","html-keyboard-response","347","524366","0.0-2.0-128.0-1.0","35","74300","male","null","","","","null","","126","","","524057","1","","","","","","300","166600","309","175533","300"
"","localizer","","html-keyboard-response","348","524782","0.0-2.0-129.0-0.0","35","74300","male","NaN","","","","null","NaN","127","","Stimuli/Experimental_stims/localizer/outdoor_scenes/pascal-debrunner-1WQ5RZuH9xo-unsplash.jpg","524366","1","outdoor_scenes","","0","1","0","400","166900","416","175842",""
"","iti_localizer","","html-keyboard-response","349","525092","0.0-2.0-129.0-1.0","35","74300","male","null","","","","null","","127","","","524782","1","","","","","","300","167300","310","176258","300"
"","localizer","","html-keyboard-response","350","525501","0.0-2.0-130.0-0.0","35","74300","male","349","","","","68","0","128","","Stimuli/Experimental_stims/localizer/outdoor_scenes/chris-holgersson-zshyCr6HGw0-unsplash.jpg","525092","1","outdoor_scenes","","0","0","1","400","167600","409","176568",""
"","iti_localizer","","html-keyboard-response","351","525815","0.0-2.0-130.0-1.0","35","74300","male","null","","","","null","","128","","","525501","1","","","","","","300","168000","314","176977","300"
"","localizer","","html-keyboard-response","352","526229","0.0-2.0-131.0-0.0","35","74300","male","NaN","","","","null","NaN","129","","Stimuli/Experimental_stims/localizer/outdoor_scenes/antoine-beauvillain-qrPqGP-SG8w-unsplash.jpg","525815","1","outdoor_scenes","","1","1","0","400","168300","414","177291",""
"","iti_localizer","","html-keyboard-response","353","526542","0.0-2.0-131.0-1.0","35","74300","male","null","","","","null","","129","","","526229","1","","","","","","300","168700","313","177705","300"
"","localizer","","html-keyboard-response","354","526958","0.0-2.0-132.0-0.0","35","74300","male","NaN","","","","null","NaN","130","","Stimuli/Experimental_stims/localizer/outdoor_scenes/neom-THlO6Mkf5uI-unsplash.jpg","526542","1","outdoor_scenes","","0","1","0","400","169000","416","178018",""
"","iti_localizer","","html-keyboard-response","355","527271","0.0-2.0-132.0-1.0","35","74300","male","null","","","","null","","130","","","526958","1","","","","","","300","169400","313","178434","300"
"","localizer","","html-keyboard-response","356","527686","0.0-2.0-133.0-0.0","35","74300","male","353","","","","68","0","131","","Stimuli/Experimental_stims/localizer/outdoor_scenes/john-lee-oMneOBYhJxY-unsplash.jpg","527271","1","outdoor_scenes","","0","0","1","400","169700","415","178747",""
"","iti_localizer","","html-keyboard-response","357","527999","0.0-2.0-133.0-1.0","35","74300","male","null","","","","null","","131","","","527686","1","","","","","","300","170100","313","179162","300"
"","localizer","","html-keyboard-response","358","528412","0.0-2.0-134.0-0.0","35","74300","male","346","","","","68","0","132","","Stimuli/Experimental_stims/localizer/outdoor_scenes/darrell-cassell-hoCXpPUMCoE-unsplash.jpg","527999","1","outdoor_scenes","","0","0","1","400","170400","413","179475",""
"","iti_localizer","","html-keyboard-response","359","528725","0.0-2.0-134.0-1.0","35","74300","male","null","","","","null","","132","","","528412","1","","","","","","300","170800","313","179888","300"
"","localizer","","html-keyboard-response","360","529132","0.0-2.0-135.0-0.0","35","74300","male","397","","","","68","0","133","","Stimuli/Experimental_stims/localizer/outdoor_scenes/jack-millard-zjyP-UYI-ko-unsplash.jpg","528725","1","outdoor_scenes","","0","0","1","400","171100","407","180201",""
"","iti_localizer","","html-keyboard-response","361","529445","0.0-2.0-135.0-1.0","35","74300","male","null","","","","null","","133","","","529132","1","","","","","","300","171500","313","180608","300"
"","localizer","","html-keyboard-response","362","529855","0.0-2.0-136.0-0.0","35","74300","male","348","","","","68","0","134","","Stimuli/Experimental_stims/localizer/outdoor_scenes/simon-berger-UqCnDyc_3vA-unsplash.jpg","529445","1","outdoor_scenes","","0","0","1","400","171800","410","180921",""
"","iti_localizer","","html-keyboard-response","363","530166","0.0-2.0-136.0-1.0","35","74300","male","null","","","","null","","134","","","529855","1","","","","","","300","172200","311","181331","300"
"","localizer","","html-keyboard-response","364","530583","0.0-2.0-137.0-0.0","35","74300","male","377","","","","68","0","135","","Stimuli/Experimental_stims/localizer/outdoor_scenes/michael-martinelli-mFbrMEVKCkc-unsplash.jpg","530166","1","outdoor_scenes","","0","0","1","400","172500","417","181642",""
"","iti_localizer","","html-keyboard-response","365","530895","0.0-2.0-137.0-1.0","35","74300","male","null","","","","null","","135","","","530583","1","","","","","","300","172900","312","182059","300"
"","localizer","","html-keyboard-response","366","531309","0.0-2.0-138.0-0.0","35","74300","male","NaN","","","","null","NaN","136","","Stimuli/Experimental_stims/localizer/outdoor_scenes/derek-mack-CcRZ4k3c6gA-unsplash.jpg","530895","1","outdoor_scenes","","0","1","0","400","173200","414","182371",""
"","iti_localizer","","html-keyboard-response","367","531623","0.0-2.0-138.0-1.0","35","74300","male","null","","","","null","","136","","","531309","1","","","","","","300","173600","314","182785","300"
"","localizer","","html-keyboard-response","368","532038","0.0-2.0-139.0-0.0","35","74300","male","370","","","","68","0","137","","Stimuli/Experimental_stims/localizer/outdoor_scenes/ales-krivec-hsX9KpLLsIE-unsplash.jpg","531623","1","outdoor_scenes","","0","0","1","400","173900","415","183099",""
"","iti_localizer","","html-keyboard-response","369","532350","0.0-2.0-139.0-1.0","35","74300","male","null","","","","null","","137","","","532038","1","","","","","","300","174300","312","183514","300"
"","localizer","","html-keyboard-response","370","532765","0.0-2.0-140.0-0.0","35","74300","male","327","","","","68","0","138","","Stimuli/Experimental_stims/localizer/outdoor_scenes/marcelo-quinan-u0ZgqJD55pE-unsplash.jpg","532350","1","outdoor_scenes","","0","0","1","400","174600","415","183826",""
"","iti_localizer","","html-keyboard-response","371","533078","0.0-2.0-140.0-1.0","35","74300","male","null","","","","null","","138","","","532765","1","","","","","","300","175000","313","184241","300"
"","localizer","","html-keyboard-response","372","533494","0.0-2.0-141.0-0.0","35","74300","male","347","","","","68","0","139","","Stimuli/Experimental_stims/localizer/outdoor_scenes/dawid-zawila--G3rw6Y02D0-unsplash.jpg","533078","1","outdoor_scenes","","0","0","1","400","175300","416","184554",""
"","iti_localizer","","html-keyboard-response","373","533860","0.0-2.0-141.0-1.0","35","74300","male","null","","","","null","","139","","","533494","1","","","","","","300","175700","366","184970","300"
"","localizer","","html-keyboard-response","374","535441","0.0-2.0-142.0-0.0","35","74300","male","NaN","","","","null","NaN","140","","Stimuli/Experimental_stims/localizer/outdoor_scenes/luca-bravo-VowIFDxogG4-unsplash.jpg","533860","1","outdoor_scenes","","1","1","0","400","176000","1581","185336",""
"","iti_localizer","","html-keyboard-response","375","535758","0.0-2.0-142.0-1.0","35","74300","male","null","","","","null","","140","","","535441","1","","","","","","300","176400","317","186917","300"
"","localizer","","html-keyboard-response","376","536175","0.0-2.0-143.0-0.0","35","74300","male","NaN","","","","null","NaN","141","","Stimuli/Experimental_stims/localizer/outdoor_scenes/redd-f-Lm5rkxzgiFQ-unsplash.jpg","535758","1","outdoor_scenes","","0","1","0","400","176700","417","187234",""
"","iti_localizer","","html-keyboard-response","377","536487","0.0-2.0-143.0-1.0","35","74300","male","null","","","","null","","141","","","536175","1","","","","","","300","177100","312","187651","300"
"","localizer","","html-keyboard-response","378","536912","0.0-2.0-144.0-0.0","35","74300","male","406","","","","68","0","142","","Stimuli/Experimental_stims/localizer/outdoor_scenes/john-mark-arnold-XNIjmb6Ax04-unsplash.jpg","536487","1","outdoor_scenes","","0","0","1","400","177400","425","187963",""
"","iti_localizer","","html-keyboard-response","379","537222","0.0-2.0-144.0-1.0","35","74300","male","null","","","","null","","142","","","536912","1","","","","","","300","177800","310","188388","300"
"","localizer","","html-keyboard-response","380","537636","0.0-2.0-145.0-0.0","35","74300","male","375","","","","68","0","143","","Stimuli/Experimental_stims/localizer/outdoor_scenes/kalen-emsley-_LuLiJc1cdo-unsplash.jpg","537222","1","outdoor_scenes","","0","0","1","400","178100","414","188698",""
"","iti_localizer","","html-keyboard-response","381","537949","0.0-2.0-145.0-1.0","35","74300","male","null","","","","null","","143","","","537636","1","","","","","","300","178500","313","189112","300"
"","localizer","","html-keyboard-response","382","538358","0.0-2.0-146.0-0.0","35","74300","male","269","","","","68","0","144","","Stimuli/Experimental_stims/localizer/outdoor_scenes/jordan-heath-4z_SYrG5mgA-unsplash.jpg","537949","1","outdoor_scenes","","0","0","1","400","178800","409","189425",""
"","iti_localizer","","html-keyboard-response","383","538670","0.0-2.0-146.0-1.0","35","74300","male","null","","","","null","","144","","","538358","1","","","","","","300","179200","312","189834","300"
"","localizer","","html-keyboard-response","384","539086","0.0-2.0-147.0-0.0","35","74300","male","291","","","","68","0","145","","Stimuli/Experimental_stims/localizer/outdoor_scenes/simon-berger-twukN12EN7c-unsplash.jpg","538670","1","outdoor_scenes","","0","0","1","400","179500","416","190146",""
"","iti_localizer","","html-keyboard-response","385","553112","0.0-2.0-147.0-1.0","35","74300","male","null","","","","null","","145","","","539086","1","","","","","","14000","179900","14026","190562","14000"
"","localizer","","html-keyboard-response","386","553590","0.0-2.0-148.0-0.0","35","74300","male","NaN","","","","null","NaN","146","","Stimuli/Experimental_stims/localizer/faces/nick-karvounis-JyO_szjGvUw-unsplash.jpg","553112","1","faces","","0","1","0","400","193900","478","204588",""
"","iti_localizer","","html-keyboard-response","387","554927","0.0-2.0-148.0-1.0","35","74300","male","null","","","","null","","146","","","553590","1","","","","","","300","194300","1337","205066","300"
"","localizer","","html-keyboard-response","388","555446","0.0-2.0-149.0-0.0","35","74300","male","243","","","","68","0","147","","Stimuli/Experimental_stims/localizer/faces/philip-martin-5aGUyCW_PJw-unsplash.jpg","554927","1","faces","","1","0","0","400","194600","519","206403",""
"","iti_localizer","","html-keyboard-response","389","555756","0.0-2.0-149.0-1.0","35","74300","male","null","","","","null","","147","","","555446","1","","","","","","300","195000","310","206922","300"
"","localizer","","html-keyboard-response","390","556165","0.0-2.0-150.0-0.0","35","74300","male","195","","","","75","1","148","","Stimuli/Experimental_stims/localizer/faces/ayo-ogunseinde-6W4F62sN_yI-unsplash.jpg","555756","1","faces","","0","0","0","400","195300","409","207232",""
"","iti_localizer","","html-keyboard-response","391","556478","0.0-2.0-150.0-1.0","35","74300","male","null","","","","null","","148","","","556165","1","","","","","","300","195700","313","207641","300"
"","localizer","","html-keyboard-response","392","556895","0.0-2.0-151.0-0.0","35","74300","male","123","","","","68","0","149","","Stimuli/Experimental_stims/localizer/faces/joseph-gonzalez-iFgRcqHznqg-unsplash.jpg","556478","1","faces","","0","0","1","400","196000","417","207954",""
"","iti_localizer","","html-keyboard-response","393","557204","0.0-2.0-151.0-1.0","35","74300","male","null","","","","null","","149","","","556895","1","","","","","","300","196400","309","208371","300"
"","localizer","","html-keyboard-response","394","557615","0.0-2.0-152.0-0.0","35","74300","male","282","","","","68","0","150","","Stimuli/Experimental_stims/localizer/faces/ian-dooley-d1UPkiFd04A-unsplash.jpg","557204","1","faces","","0","0","1","400","196700","411","208680",""
"","iti_localizer","","html-keyboard-response","395","557924","0.0-2.0-152.0-1.0","35","74300","male","null","","","","null","","150","","","557615","1","","","","","","300","197100","309","209091","300"
"","localizer","","html-keyboard-response","396","558335","0.0-2.0-153.0-0.0","35","74300","male","NaN","","","","null","NaN","151","","Stimuli/Experimental_stims/localizer/faces/ayo-ogunseinde-sibVwORYqs0-unsplash.jpg","557924","1","faces","","0","1","0","400","197400","411","209400",""
"","iti_localizer","","html-keyboard-response","397","558647","0.0-2.0-153.0-1.0","35","74300","male","null","","","","null","","151","","","558335","1","","","","","","300","197800","312","209811","300"
"","localizer","","html-keyboard-response","398","559062","0.0-2.0-154.0-0.0","35","74300","male","289","","","","68","0","152","","Stimuli/Experimental_stims/localizer/faces/christopher-campbell-rDEOVtE7vOs-unsplash.jpg","558647","1","faces","","0","0","1","400","198100","415","210123",""
"","iti_localizer","","html-keyboard-response","399","559374","0.0-2.0-154.0-1.0","35","74300","male","null","","","","null","","152","","","559062","1","","","","","","300","198500","312","210538","300"
"","localizer","","html-keyboard-response","400","559791","0.0-2.0-155.0-0.0","35","74300","male","283","","","","68","0","153","","Stimuli/Experimental_stims/localizer/faces/etty-fidele-nF8eo2nX374-unsplash.jpg","559374","1","faces","","0","0","1","400","198800","417","210850",""
"","iti_localizer","","html-keyboard-response","401","560101","0.0-2.0-155.0-1.0","35","74300","male","null","","","","null","","153","","","559791","1","","","","","","300","199200","310","211267","300"
"","localizer","","html-keyboard-response","402","560511","0.0-2.0-156.0-0.0","35","74300","male","341","","","","68","0","154","","Stimuli/Experimental_stims/localizer/faces/carlos-vaz-KP4bxnxAilU-unsplash.jpg","560101","1","faces","","0","0","1","400","199500","410","211577",""
"","iti_localizer","","html-keyboard-response","403","560821","0.0-2.0-156.0-1.0","35","74300","male","null","","","","null","","154","","","560511","1","","","","","","300","199900","310","211987","300"
"","localizer","","html-keyboard-response","404","561239","0.0-2.0-157.0-0.0","35","74300","male","344","","","","68","0","155","","Stimuli/Experimental_stims/localizer/faces/elijah-hiett-umfpFoKxIVg-unsplash.jpg","560821","1","faces","","0","0","1","400","200200","418","212297",""
"","iti_localizer","","html-keyboard-response","405","561551","0.0-2.0-157.0-1.0","35","74300","male","null","","","","null","","155","","","561239","1","","","","","","300","200600","312","212715","300"
"","localizer","","html-keyboard-response","406","561964","0.0-2.0-158.0-0.0","35","74300","male","352","","","","68","0","156","","Stimuli/Experimental_stims/localizer/faces/imansyah-muhamad-putera-n4KewLKFOZw-unsplash.jpg","561551","1","faces","","0","0","1","400","200900","413","213027",""
"","iti_localizer","","html-keyboard-response","407","562278","0.0-2.0-158.0-1.0","35","74300","male","null","","","","null","","156","","","561964","1","","","","","","300","201300","314","213440","300"
"","localizer","","html-keyboard-response","408","562695","0.0-2.0-159.0-0.0","35","74300","male","359","","","","68","0","157","","Stimuli/Experimental_stims/localizer/faces/ivan-dodig-R21SyyJDFgc-unsplash.jpg","562278","1","faces","","0","0","1","400","201600","417","213754",""
