"success","ttype","start_time","trial_type","trial_index","time_elapsed","internal_node_id","age","PID","gender","not_enough_deliberation_choices","rt","responses","view_history","repeat_instructions","key_press","response","index","stimulus_index","path","start_time_elapsed","run","task","isi","is_odd_ball","no_response","acc","duration","onset","duration_time_elapsed","onset_time_elapsed","trial_duration","missed_checkup","left_chosen","chosen_stimulus","unchosen_stimulus","chosen_category","unchosen_category","chosen_rating","unchosen_rating","chosen_path","unchosen_path","pair_id","practice","scramble_screen_time","scramble_instructed_side","stim_type","iti","block","left_stimulus","right_stimulus","left_category","right_category","left_path","right_path","left_rating","right_rating","warning","scramble_acc","scramble_no_response"
"true","full_screen","d08172023hr1515","fullscreen","0","8936","0.0-0.0-0.0","25","22695","male","1","","","","","","","","","","","","","","","","","","","","","","","","","","","","","","","","","","","","","","","","","","","","","","","","",""
"","get_id","","survey-text","1","16910","0.0-0.0-1.0","25","22695","male","1","7969","{""Q0"":""25"",""Q1"":""male""}","","","","","","","","","","","","","","","","","","","","","","","","","","","","","","","","","","","","","","","","","","","","","","",""
"","ratings_instructions","","instructions","2","35640","0.0-1.0-0.0-0.0","25","22695","male","1","16920","","[{""page_index"":0,""viewing_time"":11999},{""page_index"":1,""viewing_time"":4920}]","","","","","","","","","","","","","","","","","","","","","","","","","","","","","","","","","","","","","","","","","","","","","",""
"","rating_comprehension_check","","survey-multi-choice","3","106562","0.0-1.0-0.0-1.0","25","22695","male","1","70916","{""Q0"":""True"",""Q1"":""Mouse""}","","0","","","","","","","","","","","","","","","","","","","","","","","","","","","","","","","","","","","","","","","","","","","","",""
"","","","html-keyboard-response","4","110361","0.0-1.0-1.0","25","22695","male","1","3794","","","","68","","","","","","","","","","","","","","","","","","","","","","","","","","","","","","","","","","","","","","","","","","","",""
"","rating","","html-slider-response","5","116056","0.0-1.0-2.0","25","22695","male","1","5690","","","","","87","0","23","Stimuli/Experimental_stims/faces/rikonavt-HQjfrvdTfak-unsplash.jpg","","","","","","","","","","","","","","","","","","","","","","","","","","","","","","","","","","","","","","","",""
"","rating","","html-slider-response","6","121817","0.0-1.0-3.0","25","22695","male","1","5755","","","","","88","1","17","Stimuli/Experimental_stims/faces/good-faces-xmSWVeGEnJw-unsplash.jpg","","","","","","","","","","","","","","","","","","","","","","","","","","","","","","","","","","","","","","","",""
"","rating","","html-slider-response","7","129616","0.0-1.0-4.0","25","22695","male","1","7794","","","","","84","2","10","Stimuli/Experimental_stims/outdoor_scenes/shannon-kunkle-dM8INmkyDas-unsplash.jpg","","","","","","","","","","","","","","","","","","","","","","","","","","","","","","","","","","","","","","","",""
"","rating","","html-slider-response","8","148160","0.0-1.0-5.0","25","22695","male","1","18539","","","","","56","3","37","Stimuli/Experimental_stims/objects/alexander-andrews-VLGWE_SumrA-unsplash.jpg","","","","","","","","","","","","","","","","","","","","","","","","","","","","","","","","","","","","","","","",""
"","rating","","html-slider-response","9","151780","0.0-1.0-6.0","25","22695","male","1","3615","","","","","63","4","12","Stimuli/Experimental_stims/faces/aiony-haust-jmATI5Q_YgY-unsplash.jpg","","","","","","","","","","","","","","","","","","","","","","","","","","","","","","","","","","","","","","","",""
"","rating","","html-slider-response","10","154819","0.0-1.0-7.0","25","22695","male","1","3036","","","","","67","5","13","Stimuli/Experimental_stims/faces/daniel-rigdon-dXmXKPP2L4E-unsplash.jpg","","","","","","","","","","","","","","","","","","","","","","","","","","","","","","","","","","","","","","","",""
"","rating","","html-slider-response","11","170136","0.0-1.0-8.0","25","22695","male","1","15312","","","","","62","6","46","Stimuli/Experimental_stims/objects/mockup-graphics-PNsj6RiHAF4-unsplash.jpg","","","","","","","","","","","","","","","","","","","","","","","","","","","","","","","","","","","","","","","",""
"","rating","","html-slider-response","12","174820","0.0-1.0-9.0","25","22695","male","1","4679","","","","","71","7","0","Stimuli/Experimental_stims/outdoor_scenes/aleksandra-boguslawska-MS7KD9Ti7FQ-unsplash.jpg","","","","","","","","","","","","","","","","","","","","","","","","","","","","","","","","","","","","","","","",""
"","rating","","html-slider-response","13","179056","0.0-1.0-10.0","25","22695","male","1","4231","","","","","23","8","42","Stimuli/Experimental_stims/objects/jess-bailey-nOeVi8DsN8U-unsplash.jpg","","","","","","","","","","","","","","","","","","","","","","","","","","","","","","","","","","","","","","","",""
"","rating","","html-slider-response","14","183601","0.0-1.0-11.0","25","22695","male","1","4541","","","","","69","9","29","Stimuli/Experimental_stims/body_parts/manuel-schinner-ZwjFuJ7ebpk-unsplash.jpg","","","","","","","","","","","","","","","","","","","","","","","","","","","","","","","","","","","","","","","",""
"","rating","","html-slider-response","15","188216","0.0-1.0-12.0","25","22695","male","1","4611","","","","","77","10","45","Stimuli/Experimental_stims/objects/leohoho-rngTKHXumy0-unsplash.jpg","","","","","","","","","","","","","","","","","","","","","","","","","","","","","","","","","","","","","","","",""
"","rating","","html-slider-response","16","192241","0.0-1.0-13.0","25","22695","male","1","4021","","","","","63","11","16","Stimuli/Experimental_stims/faces/freddy-kearney-o-ioeoATbIM-unsplash.jpg","","","","","","","","","","","","","","","","","","","","","","","","","","","","","","","","","","","","","","","",""
"","rating","","html-slider-response","17","196776","0.0-1.0-14.0","25","22695","male","1","4531","","","","","39","12","35","Stimuli/Experimental_stims/body_parts/wc-so-KH4AAPjb-tI-unsplash.jpg","","","","","","","","","","","","","","","","","","","","","","","","","","","","","","","","","","","","","","","",""
"","rating","","html-slider-response","18","201480","0.0-1.0-15.0","25","22695","male","1","4701","","","","","92","13","8","Stimuli/Experimental_stims/outdoor_scenes/samsommer-vddccTqwal8-unsplash.jpg","","","","","","","","","","","","","","","","","","","","","","","","","","","","","","","","","","","","","","","",""
"","rating","","html-slider-response","19","205960","0.0-1.0-16.0","25","22695","male","1","4475","","","","","49","14","18","Stimuli/Experimental_stims/faces/jessica-radanavong-mrYkTuAesKE-unsplash.jpg","","","","","","","","","","","","","","","","","","","","","","","","","","","","","","","","","","","","","","","",""
"","rating","","html-slider-response","20","210300","0.0-1.0-17.0","25","22695","male","1","4335","","","","","82","15","6","Stimuli/Experimental_stims/outdoor_scenes/meng-ji-8BH_M-53CyA-unsplash.jpg","","","","","","","","","","","","","","","","","","","","","","","","","","","","","","","","","","","","","","","",""
"","rating","","html-slider-response","21","214430","0.0-1.0-18.0","25","22695","male","1","4126","","","","","94","16","2","Stimuli/Experimental_stims/outdoor_scenes/bruno-van-der-kraan-qez8mNJ3ilU-unsplash.jpg","","","","","","","","","","","","","","","","","","","","","","","","","","","","","","","","","","","","","","","",""
"","rating","","html-slider-response","22","251539","0.0-1.0-19.0","25","22695","male","1","37104","","","","","69","17","33","Stimuli/Experimental_stims/body_parts/tucker-good-36skLT5jZcc-unsplash.jpg","","","","","","","","","","","","","","","","","","","","","","","","","","","","","","","","","","","","","","","",""
"","rating","","html-slider-response","23","261673","0.0-1.0-20.0","25","22695","male","1","10130","","","","","14","18","25","Stimuli/Experimental_stims/body_parts/engin-akyurt-Q2rfH3GW39c-unsplash.jpg","","","","","","","","","","","","","","","","","","","","","","","","","","","","","","","","","","","","","","","",""
"","rating","","html-slider-response","24","268542","0.0-1.0-21.0","25","22695","male","1","6865","","","","","62","19","4","Stimuli/Experimental_stims/outdoor_scenes/jarrett-kow-1ZOyYPOBn7I-unsplash.jpg","","","","","","","","","","","","","","","","","","","","","","","","","","","","","","","","","","","","","","","",""
"","rating","","html-slider-response","25","273882","0.0-1.0-22.0","25","22695","male","1","5335","","","","","53","20","11","Stimuli/Experimental_stims/outdoor_scenes/stephen-leonardi-gyIRjKPXupE-unsplash.jpg","","","","","","","","","","","","","","","","","","","","","","","","","","","","","","","","","","","","","","","",""
"","rating","","html-slider-response","26","278752","0.0-1.0-23.0","25","22695","male","1","4866","","","","","42","21","47","Stimuli/Experimental_stims/objects/ronaldo-arthur-vidal-Cdz_lvnl37k-unsplash.jpg","","","","","","","","","","","","","","","","","","","","","","","","","","","","","","","","","","","","","","","",""
"","rating","","html-slider-response","27","282217","0.0-1.0-24.0","25","22695","male","1","3461","","","","","66","22","39","Stimuli/Experimental_stims/objects/charlesdeluvio-1-nx1QR5dTE-unsplash.jpg","","","","","","","","","","","","","","","","","","","","","","","","","","","","","","","","","","","","","","","",""
"","rating","","html-slider-response","28","286082","0.0-1.0-25.0","25","22695","male","1","3861","","","","","65","23","3","Stimuli/Experimental_stims/outdoor_scenes/henry-be-NLF6hTe4PAg-unsplash.jpg","","","","","","","","","","","","","","","","","","","","","","","","","","","","","","","","","","","","","","","",""
"","rating","","html-slider-response","29","290961","0.0-1.0-26.0","25","22695","male","1","4875","","","","","23","24","34","Stimuli/Experimental_stims/body_parts/wagner-santos-mBWMvIuVnso-unsplash.jpg","","","","","","","","","","","","","","","","","","","","","","","","","","","","","","","","","","","","","","","",""
"","rating","","html-slider-response","30","295981","0.0-1.0-27.0","25","22695","male","1","5015","","","","","92","25","27","Stimuli/Experimental_stims/body_parts/heike-mintel-i_Gns0ELnLw-unsplash.jpg","","","","","","","","","","","","","","","","","","","","","","","","","","","","","","","","","","","","","","","",""
"","rating","","html-slider-response","31","302191","0.0-1.0-28.0","25","22695","male","1","6205","","","","","78","26","43","Stimuli/Experimental_stims/objects/jonathan-greenaway-Y4hGgeiFn3s-unsplash.jpg","","","","","","","","","","","","","","","","","","","","","","","","","","","","","","","","","","","","","","","",""
"","rating","","html-slider-response","32","306401","0.0-1.0-29.0","25","22695","male","1","4205","","","","","70","27","40","Stimuli/Experimental_stims/objects/fabian-blank-pElSkGRA2NU-unsplash.jpg","","","","","","","","","","","","","","","","","","","","","","","","","","","","","","","","","","","","","","","",""
"","rating","","html-slider-response","33","310177","0.0-1.0-30.0","25","22695","male","1","3773","","","","","60","28","38","Stimuli/Experimental_stims/objects/art-lasovsky-8XddFc6NkBY-unsplash.jpg","","","","","","","","","","","","","","","","","","","","","","","","","","","","","","","","","","","","","","","",""
"","rating","","html-slider-response","34","315224","0.0-1.0-31.0","25","22695","male","1","5042","","","","","95","29","9","Stimuli/Experimental_stims/outdoor_scenes/sergey-pesterev-y-b_FOmJXdg-unsplash.jpg","","","","","","","","","","","","","","","","","","","","","","","","","","","","","","","","","","","","","","","",""
"","rating","","html-slider-response","35","318377","0.0-1.0-32.0","25","22695","male","1","3148","","","","","80","30","19","Stimuli/Experimental_stims/faces/joel-mott-LaK153ghdig-unsplash.jpg","","","","","","","","","","","","","","","","","","","","","","","","","","","","","","","","","","","","","","","",""
"","rating","","html-slider-response","36","321882","0.0-1.0-33.0","25","22695","male","1","3500","","","","","63","31","24","Stimuli/Experimental_stims/body_parts/clay-banks-LjqARJaJotc-unsplash.jpg","","","","","","","","","","","","","","","","","","","","","","","","","","","","","","","","","","","","","","","",""
"","rating","","html-slider-response","37","325657","0.0-1.0-34.0","25","22695","male","1","3771","","","","","49","32","14","Stimuli/Experimental_stims/faces/david-siglin-UuW4psOb388-unsplash.jpg","","","","","","","","","","","","","","","","","","","","","","","","","","","","","","","","","","","","","","","",""
"","rating","","html-slider-response","38","329657","0.0-1.0-35.0","25","22695","male","1","3996","","","","","29","33","44","Stimuli/Experimental_stims/objects/kuiye-chen-NuOGFo4PudE-unsplash.jpg","","","","","","","","","","","","","","","","","","","","","","","","","","","","","","","","","","","","","","","",""
"","rating","","html-slider-response","39","334401","0.0-1.0-36.0","25","22695","male","1","4740","","","","","75","34","15","Stimuli/Experimental_stims/faces/erik-lucatero-d2MSDujJl2g-unsplash.jpg","","","","","","","","","","","","","","","","","","","","","","","","","","","","","","","","","","","","","","","",""
"","rating","","html-slider-response","40","338101","0.0-1.0-37.0","25","22695","male","1","3695","","","","","91","35","1","Stimuli/Experimental_stims/outdoor_scenes/ashim-d-silva-S2Q5mdOrrVc-unsplash.jpg","","","","","","","","","","","","","","","","","","","","","","","","","","","","","","","","","","","","","","","",""
"","rating","","html-slider-response","41","344681","0.0-1.0-38.0","25","22695","male","1","6575","","","","","98","36","22","Stimuli/Experimental_stims/faces/ravi-patel-VMGAbeeJTKo-unsplash.jpg","","","","","","","","","","","","","","","","","","","","","","","","","","","","","","","","","","","","","","","",""
"","rating","","html-slider-response","42","350581","0.0-1.0-39.0","25","22695","male","1","5895","","","","","30","37","26","Stimuli/Experimental_stims/body_parts/engin-akyurt-x_3gyC42btc-unsplash.jpg","","","","","","","","","","","","","","","","","","","","","","","","","","","","","","","","","","","","","","","",""
"","rating","","html-slider-response","43","354826","0.0-1.0-40.0","25","22695","male","1","4240","","","","","28","38","31","Stimuli/Experimental_stims/body_parts/sincerely-media-VN6DbKajo5s-unsplash.jpg","","","","","","","","","","","","","","","","","","","","","","","","","","","","","","","","","","","","","","","",""
"","rating","","html-slider-response","44","358696","0.0-1.0-41.0","25","22695","male","1","3866","","","","","12","39","36","Stimuli/Experimental_stims/objects/alexander-andrews-JYGnB9gTCls-unsplash.jpg","","","","","","","","","","","","","","","","","","","","","","","","","","","","","","","","","","","","","","","",""
"","rating","","html-slider-response","45","363561","0.0-1.0-42.0","25","22695","male","1","4861","","","","","59","40","28","Stimuli/Experimental_stims/body_parts/ira-vishnevskaya-8DQAvdCby1I-unsplash.jpg","","","","","","","","","","","","","","","","","","","","","","","","","","","","","","","","","","","","","","","",""
"","rating","","html-slider-response","46","368151","0.0-1.0-43.0","25","22695","male","1","4586","","","","","59","41","20","Stimuli/Experimental_stims/faces/justin-chen-J7Cf1Gch49E-unsplash.jpg","","","","","","","","","","","","","","","","","","","","","","","","","","","","","","","","","","","","","","","",""
"","rating","","html-slider-response","47","372802","0.0-1.0-44.0","25","22695","male","1","4646","","","","","70","42","41","Stimuli/Experimental_stims/objects/insung-yoon-w2JtIQQXoRU-unsplash.jpg","","","","","","","","","","","","","","","","","","","","","","","","","","","","","","","","","","","","","","","",""
"","rating","","html-slider-response","48","383322","0.0-1.0-45.0","25","22695","male","1","10515","","","","","81","43","7","Stimuli/Experimental_stims/outdoor_scenes/petr-vysohlid-9fqwGqGLUxc-unsplash.jpg","","","","","","","","","","","","","","","","","","","","","","","","","","","","","","","","","","","","","","","",""
"","rating","","html-slider-response","49","390541","0.0-1.0-46.0","25","22695","male","1","7215","","","","","66","44","5","Stimuli/Experimental_stims/outdoor_scenes/jeff-king-bJHWJeiHfHc-unsplash.jpg","","","","","","","","","","","","","","","","","","","","","","","","","","","","","","","","","","","","","","","",""
"","rating","","html-slider-response","50","395231","0.0-1.0-47.0","25","22695","male","1","4686","","","","","42","45","30","Stimuli/Experimental_stims/body_parts/mika-korhonen-Xodzxosar18-unsplash.jpg","","","","","","","","","","","","","","","","","","","","","","","","","","","","","","","","","","","","","","","",""
"","rating","","html-slider-response","51","399416","0.0-1.0-48.0","25","22695","male","1","4181","","","","","31","46","32","Stimuli/Experimental_stims/body_parts/towfiqu-barbhuiya-3AsiVDsZnHg-unsplash.jpg","","","","","","","","","","","","","","","","","","","","","","","","","","","","","","","","","","","","","","","",""
"","rating","","html-slider-response","52","404902","0.0-1.0-49.0","25","22695","male","1","5480","","","","","41","47","21","Stimuli/Experimental_stims/faces/leilani-angel-K84vnnzxmTQ-unsplash.jpg","","","","","","","","","","","","","","","","","","","","","","","","","","","","","","","","","","","","","","","",""
"","localizer_instructions","","instructions","53","506802","0.0-2.0-0.0-0.0","25","22695","male","1","101861","","[{""page_index"":0,""viewing_time"":22256},{""page_index"":1,""viewing_time"":76385},{""page_index"":2,""viewing_time"":3220}]","","","","","","","","","","","","","","","","","","","","","","","","","","","","","","","","","","","","","","","","","","","","","",""
"","localizer_comprehension_check","","survey-multi-choice","54","560300","0.0-2.0-0.0-1.0","25","22695","male","1","53494","{""Q0"":""True"",""Q1"":""K"",""Q2"":""D""}","","0","","","","","","","","","","","","","","","","","","","","","","","","","","","","","","","","","","","","","","","","","","","","",""
"","","","html-keyboard-response","55","563313","0.0-2.0-1.0","25","22695","male","1","3008","","","","68","","","","","","","","","","","","","","","","","","","","","","","","","","","","","","","","","","","","","","","","","","","",""
"","localizer","","html-keyboard-response","56","563719","0.0-2.0-2.0-0.0","25","22695","male","1","NaN","","","","null","NaN","0","","Stimuli/Practice_stims/Localizer/annie-spratt-g9KFpAfQ5bc-unsplash.jpg","563313","0","NaN","","0","1","0","400","0","406","0","","","","","","","","","","","","","","","","","","","","","","","","","","","","",""
"","iti_localizer","","html-keyboard-response","57","564024","0.0-2.0-2.0-1.0","25","22695","male","1","null","","","","null","","0","","","563719","0","","","","","","300","400","305","406","300","","","","","","","","","","","","","","","","","","","","","","","","","","","",""
"","localizer","","html-keyboard-response","58","564430","0.0-2.0-2.1-0.1","25","22695","male","1","NaN","","","","null","NaN","0","","Stimuli/Practice_stims/Localizer/annie-spratt-g9KFpAfQ5bc-unsplash.jpg","564024","0","NaN","","0","1","0","400","700","406","711","","","","","","","","","","","","","","","","","","","","","","","","","","","","",""
"","iti_localizer","","html-keyboard-response","59","564736","0.0-2.0-2.1-1.1","25","22695","male","1","null","","","","null","","0","","","564430","0","","","","","","300","1100","306","1117","300","","","","","","","","","","","","","","","","","","","","","","","","","","","",""
"","localizer","","html-keyboard-response","60","565141","0.0-2.0-2.2-0.2","25","22695","male","1","NaN","","","","null","NaN","0","","Stimuli/Practice_stims/Localizer/annie-spratt-g9KFpAfQ5bc-unsplash.jpg","564736","0","NaN","","0","1","0","400","1400","405","1423","","","","","","","","","","","","","","","","","","","","","","","","","","","","",""
"","iti_localizer","","html-keyboard-response","61","565445","0.0-2.0-2.2-1.2","25","22695","male","1","null","","","","null","","0","","","565141","0","","","","","","300","1800","304","1828","300","","","","","","","","","","","","","","","","","","","","","","","","","","","",""
"","localizer","","html-keyboard-response","62","565850","0.0-2.0-2.3-0.3","25","22695","male","1","NaN","","","","null","NaN","0","","Stimuli/Practice_stims/Localizer/annie-spratt-g9KFpAfQ5bc-unsplash.jpg","565445","0","NaN","","0","1","0","400","2100","405","2132","","","","","","","","","","","","","","","","","","","","","","","","","","","","",""
"","iti_localizer","","html-keyboard-response","63","566155","0.0-2.0-2.3-1.3","25","22695","male","1","null","","","","null","","0","","","565850","0","","","","","","300","2500","305","2537","300","","","","","","","","","","","","","","","","","","","","","","","","","","","",""
"","localizer","","html-keyboard-response","64","566560","0.0-2.0-2.4-0.4","25","22695","male","1","379","","","","68","0","0","","Stimuli/Practice_stims/Localizer/annie-spratt-g9KFpAfQ5bc-unsplash.jpg","566155","0","NaN","","0","0","1","400","2800","405","2842","","","","","","","","","","","","","","","","","","","","","","","","","","","","",""
"","iti_localizer","","html-keyboard-response","65","566865","0.0-2.0-2.4-1.4","25","22695","male","1","null","","","","null","","0","","","566560","0","","","","","","300","3200","305","3247","300","","","","","","","","","","","","","","","","","","","","","","","","","","","",""
"","localizer","","html-keyboard-response","66","567270","0.0-2.0-3.0-0.0","25","22695","male","1","NaN","","","","null","NaN","1","","Stimuli/Practice_stims/Localizer/becca-tapert-sY5RjMB1KkE-unsplash.jpg","566865","0","NaN","","0","1","0","400","3500","405","3552","","","","","","","","","","","","","","","","","","","","","","","","","","","","",""
"","iti_localizer","","html-keyboard-response","67","567575","0.0-2.0-3.0-1.0","25","22695","male","1","null","","","","null","","1","","","567270","0","","","","","","300","3900","305","3957","300","","","","","","","","","","","","","","","","","","","","","","","","","","","",""
"","localizer","","html-keyboard-response","68","567981","0.0-2.0-3.1-0.1","25","22695","male","1","24","","","","68","0","1","","Stimuli/Practice_stims/Localizer/becca-tapert-sY5RjMB1KkE-unsplash.jpg","567575","0","NaN","","0","0","1","400","4200","406","4262","","","","","","","","","","","","","","","","","","","","","","","","","","","","",""
"","iti_localizer","","html-keyboard-response","69","568285","0.0-2.0-3.1-1.1","25","22695","male","1","null","","","","null","","1","","","567981","0","","","","","","300","4600","304","4668","300","","","","","","","","","","","","","","","","","","","","","","","","","","","",""
"","localizer","","html-keyboard-response","70","568691","0.0-2.0-4.0-0.0","25","22695","male","1","94","","","","68","0","2","","Stimuli/Practice_stims/Localizer/charl-durand-bsfXvI25iNg-unsplash.jpg","568285","0","NaN","","1","0","0","400","4900","406","4972","","","","","","","","","","","","","","","","","","","","","","","","","","","","",""
"","iti_localizer","","html-keyboard-response","71","568995","0.0-2.0-4.0-1.0","25","22695","male","1","null","","","","null","","2","","","568691","0","","","","","","300","5300","304","5378","300","","","","","","","","","","","","","","","","","","","","","","","","","","","",""
"","localizer","","html-keyboard-response","72","569400","0.0-2.0-5.0-0.0","25","22695","male","1","NaN","","","","null","NaN","3","","Stimuli/Practice_stims/Localizer/nizar-albusaidy-B2r2SWAf5CE-unsplash.jpg","568995","0","NaN","","0","1","0","400","5600","405","5682","","","","","","","","","","","","","","","","","","","","","","","","","","","","",""
"","iti_localizer","","html-keyboard-response","73","569705","0.0-2.0-5.0-1.0","25","22695","male","1","null","","","","null","","3","","","569400","0","","","","","","300","6000","305","6087","300","","","","","","","","","","","","","","","","","","","","","","","","","","","",""
"","localizer","","html-keyboard-response","74","570110","0.0-2.0-5.1-0.1","25","22695","male","1","NaN","","","","null","NaN","3","","Stimuli/Practice_stims/Localizer/nizar-albusaidy-B2r2SWAf5CE-unsplash.jpg","569705","0","NaN","","0","1","0","400","6300","405","6392","","","","","","","","","","","","","","","","","","","","","","","","","","","","",""
"","iti_localizer","","html-keyboard-response","75","570415","0.0-2.0-5.1-1.1","25","22695","male","1","null","","","","null","","3","","","570110","0","","","","","","300","6700","305","6797","300","","","","","","","","","","","","","","","","","","","","","","","","","","","",""
"","localizer","","html-keyboard-response","76","570820","0.0-2.0-5.2-0.2","25","22695","male","1","NaN","","","","null","NaN","3","","Stimuli/Practice_stims/Localizer/nizar-albusaidy-B2r2SWAf5CE-unsplash.jpg","570415","0","NaN","","0","1","0","400","7000","405","7102","","","","","","","","","","","","","","","","","","","","","","","","","","","","",""
"","iti_localizer","","html-keyboard-response","77","571124","0.0-2.0-5.2-1.2","25","22695","male","1","null","","","","null","","3","","","570820","0","","","","","","300","7400","304","7507","300","","","","","","","","","","","","","","","","","","","","","","","","","","","",""
"","localizer","","html-keyboard-response","78","571530","0.0-2.0-5.3-0.3","25","22695","male","1","NaN","","","","null","NaN","3","","Stimuli/Practice_stims/Localizer/nizar-albusaidy-B2r2SWAf5CE-unsplash.jpg","571124","0","NaN","","0","1","0","400","7700","406","7811","","","","","","","","","","","","","","","","","","","","","","","","","","","","",""
"","iti_localizer","","html-keyboard-response","79","571834","0.0-2.0-5.3-1.3","25","22695","male","1","null","","","","null","","3","","","571530","0","","","","","","300","8100","304","8217","300","","","","","","","","","","","","","","","","","","","","","","","","","","","",""
"","localizer","","html-keyboard-response","80","572239","0.0-2.0-5.4-0.4","25","22695","male","1","NaN","","","","null","NaN","3","","Stimuli/Practice_stims/Localizer/nizar-albusaidy-B2r2SWAf5CE-unsplash.jpg","571834","0","NaN","","0","1","0","400","8400","405","8521","","","","","","","","","","","","","","","","","","","","","","","","","","","","",""
"","iti_localizer","","html-keyboard-response","81","572543","0.0-2.0-5.4-1.4","25","22695","male","1","null","","","","null","","3","","","572239","0","","","","","","300","8800","304","8926","300","","","","","","","","","","","","","","","","","","","","","","","","","","","",""
"","localizer","","html-keyboard-response","82","572948","0.0-2.0-5.5-0.5","25","22695","male","1","NaN","","","","null","NaN","3","","Stimuli/Practice_stims/Localizer/nizar-albusaidy-B2r2SWAf5CE-unsplash.jpg","572543","0","NaN","","0","1","0","400","9100","405","9230","","","","","","","","","","","","","","","","","","","","","","","","","","","","",""
"","iti_localizer","","html-keyboard-response","83","573253","0.0-2.0-5.5-1.5","25","22695","male","1","null","","","","null","","3","","","572948","0","","","","","","300","9500","305","9635","300","","","","","","","","","","","","","","","","","","","","","","","","","","","",""
"","localizer","","html-keyboard-response","84","573658","0.0-2.0-5.6-0.6","25","22695","male","1","136","","","","68","0","3","","Stimuli/Practice_stims/Localizer/nizar-albusaidy-B2r2SWAf5CE-unsplash.jpg","573253","0","NaN","","0","0","1","400","9800","405","9940","","","","","","","","","","","","","","","","","","","","","","","","","","","","",""
"","iti_localizer","","html-keyboard-response","85","573963","0.0-2.0-5.6-1.6","25","22695","male","1","null","","","","null","","3","","","573658","0","","","","","","300","10200","305","10345","300","","","","","","","","","","","","","","","","","","","","","","","","","","","",""
"","localizer","","html-keyboard-response","86","574368","0.0-2.0-6.0-0.0","25","22695","male","1","17","","","","68","0","4","","Stimuli/Practice_stims/Localizer/randy-fath-epf1tdtIIkM-unsplash.jpg","573963","0","NaN","","1","0","0","400","10500","405","10650","","","","","","","","","","","","","","","","","","","","","","","","","","","","",""
"","iti_localizer","","html-keyboard-response","87","574672","0.0-2.0-6.0-1.0","25","22695","male","1","null","","","","null","","4","","","574368","0","","","","","","300","10900","304","11055","300","","","","","","","","","","","","","","","","","","","","","","","","","","","",""
"","localizer","","html-keyboard-response","88","575077","0.0-2.0-7.0-0.0","25","22695","male","1","167","","","","75","1","5","","Stimuli/Practice_stims/Localizer/yassine-khalfalli-adsQ9d_Cx0c-unsplash.jpg","574672","0","NaN","","0","0","0","400","11200","405","11359","","","","","","","","","","","","","","","","","","","","","","","","","","","","",""
"","iti_localizer","","html-keyboard-response","89","575382","0.0-2.0-7.0-1.0","25","22695","male","1","null","","","","null","","5","","","575077","0","","","","","","300","11600","305","11764","300","","","","","","","","","","","","","","","","","","","","","","","","","","","",""
"","practice_over","","html-keyboard-response","90","575562","0.0-2.0-7.0-2.0-0.0","25","22695","male","1","177","","","","68","","","","","","","","","","","","","","","","","","","","","","","","","","","","","","","","","","","","","","","","","","","",""
"","start_run","","html-keyboard-response","91","578312","0.0-2.0-7.0-2.0-1.0","25","22695","male","1","2747","","","","84","","","","","","","","","","","","","","","","","","","","","","","","","","","","","","","","","","","","","","","","","","","",""
"","localizer","","html-keyboard-response","92","578717","0.0-2.0-8.0-0.0","25","22695","male","1","NaN","","","","null","NaN","6","","Stimuli/Experimental_stims/localizer/faces/allef-vinicius-C_1jjFJioWg-unsplash.jpg","578312","1","faces","","0","1","0","400","0","405","0","","","","","","","","","","","","","","","","","","","","","","","","","","","","",""
"","iti_localizer","","html-keyboard-response","93","579022","0.0-2.0-8.0-1.0","25","22695","male","1","null","","","","null","","6","","","578717","1","","","","","","300","400","305","405","300","","","","","","","","","","","","","","","","","","","","","","","","","","","",""
"","localizer","","html-keyboard-response","94","579427","0.0-2.0-9.0-0.0","25","22695","male","1","NaN","","","","null","NaN","7","","Stimuli/Experimental_stims/localizer/faces/ayo-ogunseinde-sibVwORYqs0-unsplash.jpg","579022","1","faces","","1","1","0","400","700","405","710","","","","","","","","","","","","","","","","","","","","","","","","","","","","",""
"","iti_localizer","","html-keyboard-response","95","579732","0.0-2.0-9.0-1.0","25","22695","male","1","null","","","","null","","7","","","579427","1","","","","","","300","1100","305","1115","300","","","","","","","","","","","","","","","","","","","","","","","","","","","",""
"","localizer","","html-keyboard-response","96","580137","0.0-2.0-10.0-0.0","25","22695","male","1","86","","","","68","0","8","","Stimuli/Experimental_stims/localizer/faces/abstral-official-cyOKLSgkgCE-unsplash.jpg","579732","1","faces","","0","0","1","400","1400","405","1420","","","","","","","","","","","","","","","","","","","","","","","","","","","","",""
"","iti_localizer","","html-keyboard-response","97","580442","0.0-2.0-10.0-1.0","25","22695","male","1","null","","","","null","","8","","","580137","1","","","","","","300","1800","305","1825","300","","","","","","","","","","","","","","","","","","","","","","","","","","","",""
"","localizer","","html-keyboard-response","98","580846","0.0-2.0-11.0-0.0","25","22695","male","1","NaN","","","","null","NaN","9","","Stimuli/Experimental_stims/localizer/faces/hisu-lee-2qvxIr_DXGo-unsplash.jpg","580442","1","faces","","0","1","0","400","2100","404","2130","","","","","","","","","","","","","","","","","","","","","","","","","","","","",""
"","iti_localizer","","html-keyboard-response","99","581151","0.0-2.0-11.0-1.0","25","22695","male","1","null","","","","null","","9","","","580846","1","","","","","","300","2500","305","2534","300","","","","","","","","","","","","","","","","","","","","","","","","","","","",""
"","localizer","","html-keyboard-response","100","581555","0.0-2.0-12.0-0.0","25","22695","male","1","227","","","","68","0","10","","Stimuli/Experimental_stims/localizer/faces/austin-wade-X6Uj51n5CE8-unsplash.jpg","581151","1","faces","","0","0","1","400","2800","404","2839","","","","","","","","","","","","","","","","","","","","","","","","","","","","",""
"","iti_localizer","","html-keyboard-response","101","581861","0.0-2.0-12.0-1.0","25","22695","male","1","null","","","","null","","10","","","581555","1","","","","","","300","3200","306","3243","300","","","","","","","","","","","","","","","","","","","","","","","","","","","",""
"","localizer","","html-keyboard-response","102","582267","0.0-2.0-13.0-0.0","25","22695","male","1","237","","","","68","0","11","","Stimuli/Experimental_stims/localizer/faces/darshan-patel-QJEVpydulGs-unsplash.jpg","581861","1","faces","","0","0","1","400","3500","406","3549","","","","","","","","","","","","","","","","","","","","","","","","","","","","",""
"","iti_localizer","","html-keyboard-response","103","582572","0.0-2.0-13.0-1.0","25","22695","male","1","null","","","","null","","11","","","582267","1","","","","","","300","3900","305","3955","300","","","","","","","","","","","","","","","","","","","","","","","","","","","",""
"","localizer","","html-keyboard-response","104","582977","0.0-2.0-14.0-0.0","25","22695","male","1","NaN","","","","null","NaN","12","","Stimuli/Experimental_stims/localizer/faces/aleksandar-popovski-Jy4ELSGPHTc-unsplash.jpg","582572","1","faces","","0","1","0","400","4200","405","4260","","","","","","","","","","","","","","","","","","","","","","","","","","","","",""
"","iti_localizer","","html-keyboard-response","105","583281","0.0-2.0-14.0-1.0","25","22695","male","1","null","","","","null","","12","","","582977","1","","","","","","300","4600","304","4665","300","","","","","","","","","","","","","","","","","","","","","","","","","","","",""
"","localizer","","html-keyboard-response","106","583685","0.0-2.0-15.0-0.0","25","22695","male","1","NaN","","","","null","NaN","13","","Stimuli/Experimental_stims/localizer/faces/ethan-haddox-__ng3cRXmFE-unsplash.jpg","583281","1","faces","","0","1","0","400","4900","404","4969","","","","","","","","","","","","","","","","","","","","","","","","","","","","",""
"","iti_localizer","","html-keyboard-response","107","583990","0.0-2.0-15.0-1.0","25","22695","male","1","null","","","","null","","13","","","583685","1","","","","","","300","5300","305","5373","300","","","","","","","","","","","","","","","","","","","","","","","","","","","",""
"","localizer","","html-keyboard-response","108","584395","0.0-2.0-16.0-0.0","25","22695","male","1","128","","","","68","0","14","","Stimuli/Experimental_stims/localizer/faces/jake-nackos-IF9TK5Uy-KI-unsplash.jpg","583990","1","faces","","0","0","1","400","5600","405","5678","","","","","","","","","","","","","","","","","","","","","","","","","","","","",""
"","iti_localizer","","html-keyboard-response","109","584700","0.0-2.0-16.0-1.0","25","22695","male","1","null","","","","null","","14","","","584395","1","","","","","","300","6000","305","6083","300","","","","","","","","","","","","","","","","","","","","","","","","","","","",""
"","localizer","","html-keyboard-response","110","585105","0.0-2.0-17.0-0.0","25","22695","male","1","193","","","","68","0","15","","Stimuli/Experimental_stims/localizer/faces/mubariz-mehdizadeh-o-wlIFT4zE4-unsplash.jpg","584700","1","faces","","0","0","1","400","6300","405","6388","","","","","","","","","","","","","","","","","","","","","","","","","","","","",""
"","iti_localizer","","html-keyboard-response","111","585410","0.0-2.0-17.0-1.0","25","22695","male","1","null","","","","null","","15","","","585105","1","","","","","","300","6700","305","6793","300","","","","","","","","","","","","","","","","","","","","","","","","","","","",""
"","localizer","","html-keyboard-response","112","585815","0.0-2.0-18.0-0.0","25","22695","male","1","NaN","","","","null","NaN","16","","Stimuli/Experimental_stims/localizer/faces/stephanie-nakagawa-ADSKIn0ScDg-unsplash.jpg","585410","1","faces","","0","1","0","400","7000","405","7098","","","","","","","","","","","","","","","","","","","","","","","","","","","","",""
"","iti_localizer","","html-keyboard-response","113","586120","0.0-2.0-18.0-1.0","25","22695","male","1","null","","","","null","","16","","","585815","1","","","","","","300","7400","305","7503","300","","","","","","","","","","","","","","","","","","","","","","","","","","","",""
"","localizer","","html-keyboard-response","114","586525","0.0-2.0-19.0-0.0","25","22695","male","1","NaN","","","","null","NaN","17","","Stimuli/Experimental_stims/localizer/faces/foto-sushi-6anudmpILw4-unsplash.jpg","586120","1","faces","","0","1","0","400","7700","405","7808","","","","","","","","","","","","","","","","","","","","","","","","","","","","",""
"","iti_localizer","","html-keyboard-response","115","586828","0.0-2.0-19.0-1.0","25","22695","male","1","null","","","","null","","17","","","586525","1","","","","","","300","8100","303","8213","300","","","","","","","","","","","","","","","","","","","","","","","","","","","",""
"","localizer","","html-keyboard-response","116","587233","0.0-2.0-20.0-0.0","25","22695","male","1","NaN","","","","null","NaN","18","","Stimuli/Experimental_stims/localizer/faces/samuel-dixon--fQ5XNOcqFQ-unsplash.jpg","586828","1","faces","","0","1","0","400","8400","405","8516","","","","","","","","","","","","","","","","","","","","","","","","","","","","",""
"","iti_localizer","","html-keyboard-response","117","587537","0.0-2.0-20.0-1.0","25","22695","male","1","null","","","","null","","18","","","587233","1","","","","","","300","8800","304","8921","300","","","","","","","","","","","","","","","","","","","","","","","","","","","",""
"","localizer","","html-keyboard-response","118","587942","0.0-2.0-21.0-0.0","25","22695","male","1","NaN","","","","null","NaN","19","","Stimuli/Experimental_stims/localizer/faces/jeffery-erhunse-vp9mRauo68c-unsplash.jpg","587537","1","faces","","0","1","0","400","9100","405","9225","","","","","","","","","","","","","","","","","","","","","","","","","","","","",""
"","iti_localizer","","html-keyboard-response","119","588247","0.0-2.0-21.0-1.0","25","22695","male","1","null","","","","null","","19","","","587942","1","","","","","","300","9500","305","9630","300","","","","","","","","","","","","","","","","","","","","","","","","","","","",""
"","localizer","","html-keyboard-response","120","588652","0.0-2.0-22.0-0.0","25","22695","male","1","141","","","","68","0","20","","Stimuli/Experimental_stims/localizer/faces/ayo-ogunseinde-6W4F62sN_yI-unsplash.jpg","588247","1","faces","","0","0","1","400","9800","405","9935","","","","","","","","","","","","","","","","","","","","","","","","","","","","",""
"","iti_localizer","","html-keyboard-response","121","588957","0.0-2.0-22.0-1.0","25","22695","male","1","null","","","","null","","20","","","588652","1","","","","","","300","10200","305","10340","300","","","","","","","","","","","","","","","","","","","","","","","","","","","",""
"","localizer","","html-keyboard-response","122","589362","0.0-2.0-23.0-0.0","25","22695","male","1","121","","","","68","0","21","","Stimuli/Experimental_stims/localizer/faces/whereslugo-zl_fPgiwduo-unsplash.jpg","588957","1","faces","","0","0","1","400","10500","405","10645","","","","","","","","","","","","","","","","","","","","","","","","","","","","",""
"","iti_localizer","","html-keyboard-response","123","589667","0.0-2.0-23.0-1.0","25","22695","male","1","null","","","","null","","21","","","589362","1","","","","","","300","10900","305","11050","300","","","","","","","","","","","","","","","","","","","","","","","","","","","",""
"","localizer","","html-keyboard-response","124","590071","0.0-2.0-24.0-0.0","25","22695","male","1","82","","","","68","0","22","","Stimuli/Experimental_stims/localizer/faces/chanvre-quebec-mXu1SpzHq6w-unsplash.jpg","589667","1","faces","","0","0","1","400","11200","404","11355","","","","","","","","","","","","","","","","","","","","","","","","","","","","",""
"","iti_localizer","","html-keyboard-response","125","590376","0.0-2.0-24.0-1.0","25","22695","male","1","null","","","","null","","22","","","590071","1","","","","","","300","11600","305","11759","300","","","","","","","","","","","","","","","","","","","","","","","","","","","",""
"","localizer","","html-keyboard-response","126","590781","0.0-2.0-25.0-0.0","25","22695","male","1","82","","","","68","0","23","","Stimuli/Experimental_stims/localizer/faces/ian-dooley-d1UPkiFd04A-unsplash.jpg","590376","1","faces","","0","0","1","400","11900","405","12064","","","","","","","","","","","","","","","","","","","","","","","","","","","","",""
"","iti_localizer","","html-keyboard-response","127","591086","0.0-2.0-25.0-1.0","25","22695","male","1","null","","","","null","","23","","","590781","1","","","","","","300","12300","305","12469","300","","","","","","","","","","","","","","","","","","","","","","","","","","","",""
"","localizer","","html-keyboard-response","128","591491","0.0-2.0-26.0-0.0","25","22695","male","1","72","","","","68","0","24","","Stimuli/Experimental_stims/localizer/faces/matheus-ferrero-W7b3eDUb_2I-unsplash.jpg","591086","1","faces","","1","0","0","400","12600","405","12774","","","","","","","","","","","","","","","","","","","","","","","","","","","","",""
"","iti_localizer","","html-keyboard-response","129","591796","0.0-2.0-26.0-1.0","25","22695","male","1","null","","","","null","","24","","","591491","1","","","","","","300","13000","305","13179","300","","","","","","","","","","","","","","","","","","","","","","","","","","","",""
"","localizer","","html-keyboard-response","130","592201","0.0-2.0-27.0-0.0","25","22695","male","1","222","","","","75","1","25","","Stimuli/Experimental_stims/localizer/faces/jeffery-erhunse-BQMZ5ligqps-unsplash.jpg","591796","1","faces","","0","0","0","400","13300","405","13484","","","","","","","","","","","","","","","","","","","","","","","","","","","","",""
"","iti_localizer","","html-keyboard-response","131","606205","0.0-2.0-27.0-1.0","25","22695","male","1","null","","","","null","","25","","","592201","1","","","","","","14000","13700","14004","13889","14000","","","","","","","","","","","","","","","","","","","","","","","","","","","",""
"","localizer","","html-keyboard-response","132","606611","0.0-2.0-28.0-0.0","25","22695","male","1","NaN","","","","null","NaN","26","","Stimuli/Experimental_stims/localizer/body_parts/jeremy-bishop-mLd3hAaH2ns-unsplash.jpg","606205","1","body_parts","","0","1","0","400","27700","406","27893","","","","","","","","","","","","","","","","","","","","","","","","","","","","",""
"","iti_localizer","","html-keyboard-response","133","606916","0.0-2.0-28.0-1.0","25","22695","male","1","null","","","","null","","26","","","606611","1","","","","","","300","28100","305","28299","300","","","","","","","","","","","","","","","","","","","","","","","","","","","",""
"","localizer","","html-keyboard-response","134","607321","0.0-2.0-29.0-0.0","25","22695","male","1","NaN","","","","null","NaN","27","","Stimuli/Experimental_stims/localizer/body_parts/sincerely-media-3DZHTq_i7Qk-unsplash.jpg","606916","1","body_parts","","0","1","0","400","28400","405","28604","","","","","","","","","","","","","","","","","","","","","","","","","","","","",""
"","iti_localizer","","html-keyboard-response","135","607626","0.0-2.0-29.0-1.0","25","22695","male","1","null","","","","null","","27","","","607321","1","","","","","","300","28800","305","29009","300","","","","","","","","","","","","","","","","","","","","","","","","","","","",""
"","localizer","","html-keyboard-response","136","608031","0.0-2.0-30.0-0.0","25","22695","male","1","NaN","","","","null","NaN","28","","Stimuli/Experimental_stims/localizer/body_parts/nick-page-jAGdpOGvLAA-unsplash.jpg","607626","1","body_parts","","0","1","0","400","29100","405","29314","","","","","","","","","","","","","","","","","","","","","","","","","","","","",""
"","iti_localizer","","html-keyboard-response","137","608336","0.0-2.0-30.0-1.0","25","22695","male","1","null","","","","null","","28","","","608031","1","","","","","","300","29500","305","29719","300","","","","","","","","","","","","","","","","","","","","","","","","","","","",""
"","localizer","","html-keyboard-response","138","608740","0.0-2.0-31.0-0.0","25","22695","male","1","205","","","","68","0","29","","Stimuli/Experimental_stims/localizer/body_parts/priscilla-du-preez-e6fcNpur53A-unsplash.jpg","608336","1","body_parts","","1","0","0","400","29800","404","30024","","","","","","","","","","","","","","","","","","","","","","","","","","","","",""
"","iti_localizer","","html-keyboard-response","139","609044","0.0-2.0-31.0-1.0","25","22695","male","1","null","","","","null","","29","","","608740","1","","","","","","300","30200","304","30428","300","","","","","","","","","","","","","","","","","","","","","","","","","","","",""
"","localizer","","html-keyboard-response","140","609450","0.0-2.0-32.0-0.0","25","22695","male","1","184","","","","75","1","30","","Stimuli/Experimental_stims/localizer/body_parts/lilartsy-1KkhQ8uL28g-unsplash.jpg","609044","1","body_parts","","0","0","0","400","30500","406","30732","","","","","","","","","","","","","","","","","","","","","","","","","","","","",""
"","iti_localizer","","html-keyboard-response","141","609754","0.0-2.0-32.0-1.0","25","22695","male","1","null","","","","null","","30","","","609450","1","","","","","","300","30900","304","31138","300","","","","","","","","","","","","","","","","","","","","","","","","","","","",""
"","localizer","","html-keyboard-response","142","610159","0.0-2.0-33.0-0.0","25","22695","male","1","NaN","","","","null","NaN","31","","Stimuli/Experimental_stims/localizer/body_parts/sippakorn-yamkasikorn-32_sJlJa5gA-unsplash.jpg","609754","1","body_parts","","0","1","0","400","31200","405","31442","","","","","","","","","","","","","","","","","","","","","","","","","","","","",""
"","iti_localizer","","html-keyboard-response","143","610464","0.0-2.0-33.0-1.0","25","22695","male","1","null","","","","null","","31","","","610159","1","","","","","","300","31600","305","31847","300","","","","","","","","","","","","","","","","","","","","","","","","","","","",""
"","localizer","","html-keyboard-response","144","610869","0.0-2.0-34.0-0.0","25","22695","male","1","NaN","","","","null","NaN","32","","Stimuli/Experimental_stims/localizer/body_parts/meghan-thompson-U1b8OB0QpIo-unsplash.jpg","610464","1","body_parts","","0","1","0","400","31900","405","32152","","","","","","","","","","","","","","","","","","","","","","","","","","","","",""
"","iti_localizer","","html-keyboard-response","145","611173","0.0-2.0-34.0-1.0","25","22695","male","1","null","","","","null","","32","","","610869","1","","","","","","300","32300","304","32557","300","","","","","","","","","","","","","","","","","","","","","","","","","","","",""
"","localizer","","html-keyboard-response","146","611578","0.0-2.0-35.0-0.0","25","22695","male","1","NaN","","","","null","NaN","33","","Stimuli/Experimental_stims/localizer/body_parts/semen-zhuravlev-_XxH_mV8dnk-unsplash (1).jpg","611173","1","body_parts","","0","1","0","400","32600","405","32861","","","","","","","","","","","","","","","","","","","","","","","","","","","","",""
"","iti_localizer","","html-keyboard-response","147","611881","0.0-2.0-35.0-1.0","25","22695","male","1","null","","","","null","","33","","","611578","1","","","","","","300","33000","303","33266","300","","","","","","","","","","","","","","","","","","","","","","","","","","","",""
"","localizer","","html-keyboard-response","148","612287","0.0-2.0-36.0-0.0","25","22695","male","1","NaN","","","","null","NaN","34","","Stimuli/Experimental_stims/localizer/body_parts/betzy-arosemena-YHdgnygtVCQ-unsplash.jpg","611881","1","body_parts","","0","1","0","400","33300","406","33569","","","","","","","","","","","","","","","","","","","","","","","","","","","","",""
"","iti_localizer","","html-keyboard-response","149","612591","0.0-2.0-36.0-1.0","25","22695","male","1","null","","","","null","","34","","","612287","1","","","","","","300","33700","304","33975","300","","","","","","","","","","","","","","","","","","","","","","","","","","","",""
"","localizer","","html-keyboard-response","150","612996","0.0-2.0-37.0-0.0","25","22695","male","1","NaN","","","","null","NaN","35","","Stimuli/Experimental_stims/localizer/body_parts/davidcohen-qghuLqyh3nE-unsplash.jpg","612591","1","body_parts","","0","1","0","400","34000","405","34279","","","","","","","","","","","","","","","","","","","","","","","","","","","","",""
"","iti_localizer","","html-keyboard-response","151","613301","0.0-2.0-37.0-1.0","25","22695","male","1","null","","","","null","","35","","","612996","1","","","","","","300","34400","305","34684","300","","","","","","","","","","","","","","","","","","","","","","","","","","","",""
"","localizer","","html-keyboard-response","152","613706","0.0-2.0-38.0-0.0","25","22695","male","1","76","","","","68","0","36","","Stimuli/Experimental_stims/localizer/body_parts/niu-niu-5HzOtV-FSlw-unsplash.jpg","613301","1","body_parts","","0","0","1","400","34700","405","34989","","","","","","","","","","","","","","","","","","","","","","","","","","","","",""
"","iti_localizer","","html-keyboard-response","153","614011","0.0-2.0-38.0-1.0","25","22695","male","1","null","","","","null","","36","","","613706","1","","","","","","300","35100","305","35394","300","","","","","","","","","","","","","","","","","","","","","","","","","","","",""
"","localizer","","html-keyboard-response","154","614416","0.0-2.0-39.0-0.0","25","22695","male","1","129","","","","68","0","37","","Stimuli/Experimental_stims/localizer/body_parts/liv-bruce-M0oVPGsWk1E-unsplash.jpg","614011","1","body_parts","","0","0","1","400","35400","405","35699","","","","","","","","","","","","","","","","","","","","","","","","","","","","",""
"","iti_localizer","","html-keyboard-response","155","614720","0.0-2.0-39.0-1.0","25","22695","male","1","null","","","","null","","37","","","614416","1","","","","","","300","35800","304","36104","300","","","","","","","","","","","","","","","","","","","","","","","","","","","",""
"","localizer","","html-keyboard-response","156","615125","0.0-2.0-40.0-0.0","25","22695","male","1","217","","","","68","0","38","","Stimuli/Experimental_stims/localizer/body_parts/nick-page-WTNmgJtwzGI-unsplash.jpg","614720","1","body_parts","","0","0","1","400","36100","405","36408","","","","","","","","","","","","","","","","","","","","","","","","","","","","",""
"","iti_localizer","","html-keyboard-response","157","615430","0.0-2.0-40.0-1.0","25","22695","male","1","null","","","","null","","38","","","615125","1","","","","","","300","36500","305","36813","300","","","","","","","","","","","","","","","","","","","","","","","","","","","",""
"","localizer","","html-keyboard-response","158","615834","0.0-2.0-41.0-0.0","25","22695","male","1","367","","","","68","0","39","","Stimuli/Experimental_stims/localizer/body_parts/billie-5OXE3KjDEfI-unsplash.jpg","615430","1","body_parts","","0","0","1","400","36800","404","37118","","","","","","","","","","","","","","","","","","","","","","","","","","","","",""
"","iti_localizer","","html-keyboard-response","159","616139","0.0-2.0-41.0-1.0","25","22695","male","1","null","","","","null","","39","","","615834","1","","","","","","300","37200","305","37522","300","","","","","","","","","","","","","","","","","","","","","","","","","","","",""
"","localizer","","html-keyboard-response","160","616544","0.0-2.0-42.0-0.0","25","22695","male","1","NaN","","","","null","NaN","40","","Stimuli/Experimental_stims/localizer/body_parts/apostolos-vamvouras-g5wKHRu2QW0-unsplash.jpg","616139","1","body_parts","","0","1","0","400","37500","405","37827","","","","","","","","","","","","","","","","","","","","","","","","","","","","",""
"","iti_localizer","","html-keyboard-response","161","616849","0.0-2.0-42.0-1.0","25","22695","male","1","null","","","","null","","40","","","616544","1","","","","","","300","37900","305","38232","300","","","","","","","","","","","","","","","","","","","","","","","","","","","",""
"","localizer","","html-keyboard-response","162","617254","0.0-2.0-43.0-0.0","25","22695","male","1","NaN","","","","null","NaN","41","","Stimuli/Experimental_stims/localizer/body_parts/david-fanuel-qnV8X7OViNY-unsplash.jpg","616849","1","body_parts","","0","1","0","400","38200","405","38537","","","","","","","","","","","","","","","","","","","","","","","","","","","","",""
"","iti_localizer","","html-keyboard-response","163","617559","0.0-2.0-43.0-1.0","25","22695","male","1","null","","","","null","","41","","","617254","1","","","","","","300","38600","305","38942","300","","","","","","","","","","","","","","","","","","","","","","","","","","","",""
"","localizer","","html-keyboard-response","164","617964","0.0-2.0-44.0-0.0","25","22695","male","1","39","","","","68","0","42","","Stimuli/Experimental_stims/localizer/body_parts/nattalia-nunez-MB9sdDfZMSg-unsplash.jpg","617559","1","body_parts","","0","0","1","400","38900","405","39247","","","","","","","","","","","","","","","","","","","","","","","","","","","","",""
"","iti_localizer","","html-keyboard-response","165","618269","0.0-2.0-44.0-1.0","25","22695","male","1","null","","","","null","","42","","","617964","1","","","","","","300","39300","305","39652","300","","","","","","","","","","","","","","","","","","","","","","","","","","","",""
"","localizer","","html-keyboard-response","166","618673","0.0-2.0-45.0-0.0","25","22695","male","1","104","","","","68","0","43","","Stimuli/Experimental_stims/localizer/body_parts/carlos-henrique-NAOJKwZswbs-unsplash.jpg","618269","1","body_parts","","0","0","1","400","39600","404","39957","","","","","","","","","","","","","","","","","","","","","","","","","","","","",""
"","iti_localizer","","html-keyboard-response","167","618978","0.0-2.0-45.0-1.0","25","22695","male","1","null","","","","null","","43","","","618673","1","","","","","","300","40000","305","40361","300","","","","","","","","","","","","","","","","","","","","","","","","","","","",""
"","localizer","","html-keyboard-response","168","619383","0.0-2.0-46.0-0.0","25","22695","male","1","79","","","","68","0","44","","Stimuli/Experimental_stims/localizer/body_parts/jeremy-yap-TfJEi17kA0w-unsplash.jpg","618978","1","body_parts","","1","0","0","400","40300","405","40666","","","","","","","","","","","","","","","","","","","","","","","","","","","","",""
"","iti_localizer","","html-keyboard-response","169","619688","0.0-2.0-46.0-1.0","25","22695","male","1","null","","","","null","","44","","","619383","1","","","","","","300","40700","305","41071","300","","","","","","","","","","","","","","","","","","","","","","","","","","","",""
"","localizer","","html-keyboard-response","170","620092","0.0-2.0-47.0-0.0","25","22695","male","1","169","","","","75","1","45","","Stimuli/Experimental_stims/localizer/body_parts/danie-franco-jyyNiSEcCl4-unsplash.jpg","619688","1","body_parts","","0","0","0","400","41000","404","41376","","","","","","","","","","","","","","","","","","","","","","","","","","","","",""
"","iti_localizer","","html-keyboard-response","171","634098","0.0-2.0-47.0-1.0","25","22695","male","1","null","","","","null","","45","","","620092","1","","","","","","14000","41400","14006","41780","14000","","","","","","","","","","","","","","","","","","","","","","","","","","","",""
"","localizer","","html-keyboard-response","172","634504","0.0-2.0-48.0-0.0","25","22695","male","1","NaN","","","","null","NaN","46","","Stimuli/Experimental_stims/localizer/objects/chris-briggs-x9TCnxNBofE-unsplash.jpg","634098","1","objects","","0","1","0","400","55400","406","55786","","","","","","","","","","","","","","","","","","","","","","","","","","","","",""
"","iti_localizer","","html-keyboard-response","173","634809","0.0-2.0-48.0-1.0","25","22695","male","1","null","","","","null","","46","","","634504","1","","","","","","300","55800","305","56192","300","","","","","","","","","","","","","","","","","","","","","","","","","","","",""
"","localizer","","html-keyboard-response","174","635214","0.0-2.0-49.0-0.0","25","22695","male","1","NaN","","","","null","NaN","47","","Stimuli/Experimental_stims/localizer/objects/quino-al-8gWEAAXJjtI-unsplash.jpg","634809","1","objects","","0","1","0","400","56100","405","56497","","","","","","","","","","","","","","","","","","","","","","","","","","","","",""
"","iti_localizer","","html-keyboard-response","175","635518","0.0-2.0-49.0-1.0","25","22695","male","1","null","","","","null","","47","","","635214","1","","","","","","300","56500","304","56902","300","","","","","","","","","","","","","","","","","","","","","","","","","","","",""
"","localizer","","html-keyboard-response","176","635923","0.0-2.0-50.0-0.0","25","22695","male","1","NaN","","","","null","NaN","48","","Stimuli/Experimental_stims/localizer/objects/recha-oktaviani-t__61ap00Mc-unsplash.jpg","635518","1","objects","","0","1","0","400","56800","405","57206","","","","","","","","","","","","","","","","","","","","","","","","","","","","",""
"","iti_localizer","","html-keyboard-response","177","636228","0.0-2.0-50.0-1.0","25","22695","male","1","null","","","","null","","48","","","635923","1","","","","","","300","57200","305","57611","300","","","","","","","","","","","","","","","","","","","","","","","","","","","",""
"","localizer","","html-keyboard-response","178","636633","0.0-2.0-51.0-0.0","25","22695","male","1","NaN","","","","null","NaN","49","","Stimuli/Experimental_stims/localizer/objects/kelly-jean-cKjbI0Y00X0-unsplash.jpg","636228","1","objects","","1","1","0","400","57500","405","57916","","","","","","","","","","","","","","","","","","","","","","","","","","","","",""
"","iti_localizer","","html-keyboard-response","179","636938","0.0-2.0-51.0-1.0","25","22695","male","1","null","","","","null","","49","","","636633","1","","","","","","300","57900","305","58321","300","","","","","","","","","","","","","","","","","","","","","","","","","","","",""
"","localizer","","html-keyboard-response","180","637343","0.0-2.0-52.0-0.0","25","22695","male","1","NaN","","","","null","NaN","50","","Stimuli/Experimental_stims/localizer/objects/mockup-graphics-Pj2PY-E-LfM-unsplash.jpg","636938","1","objects","","0","1","0","400","58200","405","58626","","","","","","","","","","","","","","","","","","","","","","","","","","","","",""
"","iti_localizer","","html-keyboard-response","181","637648","0.0-2.0-52.0-1.0","25","22695","male","1","null","","","","null","","50","","","637343","1","","","","","","300","58600","305","59031","300","","","","","","","","","","","","","","","","","","","","","","","","","","","",""
"","localizer","","html-keyboard-response","182","638053","0.0-2.0-53.0-0.0","25","22695","male","1","NaN","","","","null","NaN","51","","Stimuli/Experimental_stims/localizer/objects/andrew-petrov-TVJqDat4MAw-unsplash.jpg","637648","1","objects","","0","1","0","400","58900","405","59336","","","","","","","","","","","","","","","","","","","","","","","","","","","","",""
"","iti_localizer","","html-keyboard-response","183","638358","0.0-2.0-53.0-1.0","25","22695","male","1","null","","","","null","","51","","","638053","1","","","","","","300","59300","305","59741","300","","","","","","","","","","","","","","","","","","","","","","","","","","","",""
"","localizer","","html-keyboard-response","184","638763","0.0-2.0-54.0-0.0","25","22695","male","1","NaN","","","","null","NaN","52","","Stimuli/Experimental_stims/localizer/objects/ignat-dolomanov-kFBDVnmskPA-unsplash.jpg","638358","1","objects","","0","1","0","400","59600","405","60046","","","","","","","","","","","","","","","","","","","","","","","","","","","","",""
"","iti_localizer","","html-keyboard-response","185","639067","0.0-2.0-54.0-1.0","25","22695","male","1","null","","","","null","","52","","","638763","1","","","","","","300","60000","304","60451","300","","","","","","","","","","","","","","","","","","","","","","","","","","","",""
"","localizer","","html-keyboard-response","186","639472","0.0-2.0-55.0-0.0","25","22695","male","1","NaN","","","","null","NaN","53","","Stimuli/Experimental_stims/localizer/objects/ana-9GmAaEMMKho-unsplash.jpg","639067","1","objects","","0","1","0","400","60300","405","60755","","","","","","","","","","","","","","","","","","","","","","","","","","","","",""
"","iti_localizer","","html-keyboard-response","187","639777","0.0-2.0-55.0-1.0","25","22695","male","1","null","","","","null","","53","","","639472","1","","","","","","300","60700","305","61160","300","","","","","","","","","","","","","","","","","","","","","","","","","","","",""
"","localizer","","html-keyboard-response","188","640182","0.0-2.0-56.0-0.0","25","22695","male","1","NaN","","","","null","NaN","54","","Stimuli/Experimental_stims/localizer/objects/yossy-made-yulian-WaEqwDSIeTY-unsplash.jpg","639777","1","objects","","0","1","0","400","61000","405","61465","","","","","","","","","","","","","","","","","","","","","","","","","","","","",""
"","iti_localizer","","html-keyboard-response","189","640487","0.0-2.0-56.0-1.0","25","22695","male","1","null","","","","null","","54","","","640182","1","","","","","","300","61400","305","61870","300","","","","","","","","","","","","","","","","","","","","","","","","","","","",""
"","localizer","","html-keyboard-response","190","640892","0.0-2.0-57.0-0.0","25","22695","male","1","NaN","","","","null","NaN","55","","Stimuli/Experimental_stims/localizer/objects/mockup-graphics-U6ZMEefFGx8-unsplash.jpg","640487","1","objects","","0","1","0","400","61700","405","62175","","","","","","","","","","","","","","","","","","","","","","","","","","","","",""
"","iti_localizer","","html-keyboard-response","191","641197","0.0-2.0-57.0-1.0","25","22695","male","1","null","","","","null","","55","","","640892","1","","","","","","300","62100","305","62580","300","","","","","","","","","","","","","","","","","","","","","","","","","","","",""
"","localizer","","html-keyboard-response","192","641601","0.0-2.0-58.0-0.0","25","22695","male","1","96","","","","68","0","56","","Stimuli/Experimental_stims/localizer/objects/raimond-klavins-ZdvDPXVvcKs-unsplash.jpg","641197","1","objects","","0","0","1","400","62400","404","62885","","","","","","","","","","","","","","","","","","","","","","","","","","","","",""
"","iti_localizer","","html-keyboard-response","193","641905","0.0-2.0-58.0-1.0","25","22695","male","1","null","","","","null","","56","","","641601","1","","","","","","300","62800","304","63289","300","","","","","","","","","","","","","","","","","","","","","","","","","","","",""
"","localizer","","html-keyboard-response","194","642310","0.0-2.0-59.0-0.0","25","22695","male","1","NaN","","","","null","NaN","57","","Stimuli/Experimental_stims/localizer/objects/sam-moghadam-khamseh-L_7MQsHl_aU-unsplash.jpg","641905","1","objects","","0","1","0","400","63100","405","63593","","","","","","","","","","","","","","","","","","","","","","","","","","","","",""
"","iti_localizer","","html-keyboard-response","195","642614","0.0-2.0-59.0-1.0","25","22695","male","1","null","","","","null","","57","","","642310","1","","","","","","300","63500","304","63998","300","","","","","","","","","","","","","","","","","","","","","","","","","","","",""
"","localizer","","html-keyboard-response","196","643019","0.0-2.0-60.0-0.0","25","22695","male","1","184","","","","68","0","58","","Stimuli/Experimental_stims/localizer/objects/engin-akyurt-bbbKzTmY2Gg-unsplash.jpg","642614","1","objects","","0","0","1","400","63800","405","64302","","","","","","","","","","","","","","","","","","","","","","","","","","","","",""
"","iti_localizer","","html-keyboard-response","197","643324","0.0-2.0-60.0-1.0","25","22695","male","1","null","","","","null","","58","","","643019","1","","","","","","300","64200","305","64707","300","","","","","","","","","","","","","","","","","","","","","","","","","","","",""
"","localizer","","html-keyboard-response","198","643730","0.0-2.0-61.0-0.0","25","22695","male","1","114","","","","68","0","59","","Stimuli/Experimental_stims/localizer/objects/eugene-chystiakov-3neSwyntbQ8-unsplash.jpg","643324","1","objects","","1","0","0","400","64500","406","65012","","","","","","","","","","","","","","","","","","","","","","","","","","","","",""
"","iti_localizer","","html-keyboard-response","199","644035","0.0-2.0-61.0-1.0","25","22695","male","1","null","","","","null","","59","","","643730","1","","","","","","300","64900","305","65418","300","","","","","","","","","","","","","","","","","","","","","","","","","","","",""
"","localizer","","html-keyboard-response","200","644440","0.0-2.0-62.0-0.0","25","22695","male","1","306","","","","75","1","60","","Stimuli/Experimental_stims/localizer/objects/mae-mu-yl2d0CKW130-unsplash.jpg","644035","1","objects","","0","0","0","400","65200","405","65723","","","","","","","","","","","","","","","","","","","","","","","","","","","","",""
"","iti_localizer","","html-keyboard-response","201","644745","0.0-2.0-62.0-1.0","25","22695","male","1","null","","","","null","","60","","","644440","1","","","","","","300","65600","305","66128","300","","","","","","","","","","","","","","","","","","","","","","","","","","","",""
"","localizer","","html-keyboard-response","202","645149","0.0-2.0-63.0-0.0","25","22695","male","1","NaN","","","","null","NaN","61","","Stimuli/Experimental_stims/localizer/objects/sam-moghadam-khamseh-kvmdsTrGOBM-unsplash.jpg","644745","1","objects","","0","1","0","400","65900","404","66433","","","","","","","","","","","","","","","","","","","","","","","","","","","","",""
"","iti_localizer","","html-keyboard-response","203","645454","0.0-2.0-63.0-1.0","25","22695","male","1","null","","","","null","","61","","","645149","1","","","","","","300","66300","305","66837","300","","","","","","","","","","","","","","","","","","","","","","","","","","","",""
"","localizer","","html-keyboard-response","204","645859","0.0-2.0-64.0-0.0","25","22695","male","1","NaN","","","","null","NaN","62","","Stimuli/Experimental_stims/localizer/objects/nordwood-themes-E9tFH39iRPE-unsplash.jpg","645454","1","objects","","0","1","0","400","66600","405","67142","","","","","","","","","","","","","","","","","","","","","","","","","","","","",""
"","iti_localizer","","html-keyboard-response","205","646164","0.0-2.0-64.0-1.0","25","22695","male","1","null","","","","null","","62","","","645859","1","","","","","","300","67000","305","67547","300","","","","","","","","","","","","","","","","","","","","","","","","","","","",""
"","localizer","","html-keyboard-response","206","646569","0.0-2.0-65.0-0.0","25","22695","male","1","NaN","","","","null","NaN","63","","Stimuli/Experimental_stims/localizer/objects/mockup-graphics-aUkYaG12Dgs-unsplash.jpg","646164","1","objects","","0","1","0","400","67300","405","67852","","","","","","","","","","","","","","","","","","","","","","","","","","","","",""
"","iti_localizer","","html-keyboard-response","207","646873","0.0-2.0-65.0-1.0","25","22695","male","1","null","","","","null","","63","","","646569","1","","","","","","300","67700","304","68257","300","","","","","","","","","","","","","","","","","","","","","","","","","","","",""
"","localizer","","html-keyboard-response","208","647278","0.0-2.0-66.0-0.0","25","22695","male","1","NaN","","","","null","NaN","64","","Stimuli/Experimental_stims/localizer/objects/maria-lupan-Rlakka_pZMU-unsplash.jpg","646873","1","objects","","0","1","0","400","68000","405","68561","","","","","","","","","","","","","","","","","","","","","","","","","","","","",""
"","iti_localizer","","html-keyboard-response","209","647583","0.0-2.0-66.0-1.0","25","22695","male","1","null","","","","null","","64","","","647278","1","","","","","","300","68400","305","68966","300","","","","","","","","","","","","","","","","","","","","","","","","","","","",""
"","localizer","","html-keyboard-response","210","647988","0.0-2.0-67.0-0.0","25","22695","male","1","NaN","","","","null","NaN","65","","Stimuli/Experimental_stims/localizer/objects/quaritsch-photography-lZ8onQ1wuY8-unsplash.jpg","647583","1","objects","","0","1","0","400","68700","405","69271","","","","","","","","","","","","","","","","","","","","","","","","","","","","",""
"","iti_localizer","","html-keyboard-response","211","661991","0.0-2.0-67.0-1.0","25","22695","male","1","null","","","","null","","65","","","647988","1","","","","","","14000","69100","14003","69676","14000","","","","","","","","","","","","","","","","","","","","","","","","","","","",""
"","localizer","","html-keyboard-response","212","662397","0.0-2.0-68.0-0.0","25","22695","male","1","NaN","","","","null","NaN","66","","Stimuli/Experimental_stims/localizer/faces/brooke-cagle-Nm70URdtf3c-unsplash (1).jpg","661991","1","faces","","0","1","0","400","83100","406","83679","","","","","","","","","","","","","","","","","","","","","","","","","","","","",""
"","iti_localizer","","html-keyboard-response","213","662702","0.0-2.0-68.0-1.0","25","22695","male","1","null","","","","null","","66","","","662397","1","","","","","","300","83500","305","84085","300","","","","","","","","","","","","","","","","","","","","","","","","","","","",""
"","localizer","","html-keyboard-response","214","663107","0.0-2.0-69.0-0.0","25","22695","male","1","NaN","","","","null","NaN","67","","Stimuli/Experimental_stims/localizer/faces/joseph-gonzalez-iFgRcqHznqg-unsplash.jpg","662702","1","faces","","0","1","0","400","83800","405","84390","","","","","","","","","","","","","","","","","","","","","","","","","","","","",""
"","iti_localizer","","html-keyboard-response","215","663411","0.0-2.0-69.0-1.0","25","22695","male","1","null","","","","null","","67","","","663107","1","","","","","","300","84200","304","84795","300","","","","","","","","","","","","","","","","","","","","","","","","","","","",""
"","localizer","","html-keyboard-response","216","663816","0.0-2.0-70.0-0.0","25","22695","male","1","206","","","","68","0","68","","Stimuli/Experimental_stims/localizer/faces/pavel-anoshin-d0peGya6R5Y-unsplash.jpg","663411","1","faces","","0","0","1","400","84500","405","85099","","","","","","","","","","","","","","","","","","","","","","","","","","","","",""
"","iti_localizer","","html-keyboard-response","217","664121","0.0-2.0-70.0-1.0","25","22695","male","1","null","","","","null","","68","","","663816","1","","","","","","300","84900","305","85504","300","","","","","","","","","","","","","","","","","","","","","","","","","","","",""
"","localizer","","html-keyboard-response","218","664526","0.0-2.0-71.0-0.0","25","22695","male","1","131","","","","68","0","69","","Stimuli/Experimental_stims/localizer/faces/alexis-chloe-TYDkKEgc0Fg-unsplash.jpg","664121","1","faces","","0","0","1","400","85200","405","85809","","","","","","","","","","","","","","","","","","","","","","","","","","","","",""
"","iti_localizer","","html-keyboard-response","219","664831","0.0-2.0-71.0-1.0","25","22695","male","1","null","","","","null","","69","","","664526","1","","","","","","300","85600","305","86214","300","","","","","","","","","","","","","","","","","","","","","","","","","","","",""
"","localizer","","html-keyboard-response","220","665236","0.0-2.0-72.0-0.0","25","22695","male","1","6","","","","68","0","70","","Stimuli/Experimental_stims/localizer/faces/aiony-haust-K0DxxljcRv0-unsplash.jpg","664831","1","faces","","1","0","0","400","85900","405","86519","","","","","","","","","","","","","","","","","","","","","","","","","","","","",""
"","iti_localizer","","html-keyboard-response","221","665540","0.0-2.0-72.0-1.0","25","22695","male","1","null","","","","null","","70","","","665236","1","","","","","","300","86300","304","86924","300","","","","","","","","","","","","","","","","","","","","","","","","","","","",""
"","localizer","","html-keyboard-response","222","665945","0.0-2.0-73.0-0.0","25","22695","male","1","217","","","","75","1","71","","Stimuli/Experimental_stims/localizer/faces/olena-sergienko-0TSd6uCKTKc-unsplash.jpg","665540","1","faces","","0","0","0","400","86600","405","87228","","","","","","","","","","","","","","","","","","","","","","","","","","","","",""
"","iti_localizer","","html-keyboard-response","223","666250","0.0-2.0-73.0-1.0","25","22695","male","1","null","","","","null","","71","","","665945","1","","","","","","300","87000","305","87633","300","","","","","","","","","","","","","","","","","","","","","","","","","","","",""
"","localizer","","html-keyboard-response","224","666655","0.0-2.0-74.0-0.0","25","22695","male","1","47","","","","68","0","72","","Stimuli/Experimental_stims/localizer/faces/aatik-tasneem-7omHUGhhmZ0-unsplash.jpg","666250","1","faces","","0","0","1","400","87300","405","87938","","","","","","","","","","","","","","","","","","","","","","","","","","","","",""
"","iti_localizer","","html-keyboard-response","225","666960","0.0-2.0-74.0-1.0","25","22695","male","1","null","","","","null","","72","","","666655","1","","","","","","300","87700","305","88343","300","","","","","","","","","","","","","","","","","","","","","","","","","","","",""
"","localizer","","html-keyboard-response","226","667365","0.0-2.0-75.0-0.0","25","22695","male","1","17","","","","68","0","73","","Stimuli/Experimental_stims/localizer/faces/tyler-nix-ZGa9d1a_4tA-unsplash.jpg","666960","1","faces","","0","0","1","400","88000","405","88648","","","","","","","","","","","","","","","","","","","","","","","","","","","","",""
"","iti_localizer","","html-keyboard-response","227","667670","0.0-2.0-75.0-1.0","25","22695","male","1","null","","","","null","","73","","","667365","1","","","","","","300","88400","305","89053","300","","","","","","","","","","","","","","","","","","","","","","","","","","","",""
"","localizer","","html-keyboard-response","228","668075","0.0-2.0-76.0-0.0","25","22695","male","1","237","","","","75","1","74","","Stimuli/Experimental_stims/localizer/faces/imansyah-muhamad-putera-n4KewLKFOZw-unsplash.jpg","667670","1","faces","","0","0","0","400","88700","405","89358","","","","","","","","","","","","","","","","","","","","","","","","","","","","",""
"","iti_localizer","","html-keyboard-response","229","668380","0.0-2.0-76.0-1.0","25","22695","male","1","null","","","","null","","74","","","668075","1","","","","","","300","89100","305","89763","300","","","","","","","","","","","","","","","","","","","","","","","","","","","",""
"","localizer","","html-keyboard-response","230","668785","0.0-2.0-77.0-0.0","25","22695","male","1","17","","","","68","0","75","","Stimuli/Experimental_stims/localizer/faces/philip-martin-5aGUyCW_PJw-unsplash.jpg","668380","1","faces","","0","0","1","400","89400","405","90068","","","","","","","","","","","","","","","","","","","","","","","","","","","","",""
"","iti_localizer","","html-keyboard-response","231","669090","0.0-2.0-77.0-1.0","25","22695","male","1","null","","","","null","","75","","","668785","1","","","","","","300","89800","305","90473","300","","","","","","","","","","","","","","","","","","","","","","","","","","","",""
"","localizer","","html-keyboard-response","232","669495","0.0-2.0-78.0-0.0","25","22695","male","1","50","","","","68","0","76","","Stimuli/Experimental_stims/localizer/faces/vince-fleming-j3lf-Jn6deo-unsplash.jpg","669090","1","faces","","0","0","1","400","90100","405","90778","","","","","","","","","","","","","","","","","","","","","","","","","","","","",""
"","iti_localizer","","html-keyboard-response","233","669799","0.0-2.0-78.0-1.0","25","22695","male","1","null","","","","null","","76","","","669495","1","","","","","","300","90500","304","91183","300","","","","","","","","","","","","","","","","","","","","","","","","","","","",""
"","localizer","","html-keyboard-response","234","670205","0.0-2.0-79.0-0.0","25","22695","male","1","NaN","","","","null","NaN","77","","Stimuli/Experimental_stims/localizer/faces/hassan-khan-EGVccebWodM-unsplash.jpg","669799","1","faces","","0","1","0","400","90800","406","91487","","","","","","","","","","","","","","","","","","","","","","","","","","","","",""
"","iti_localizer","","html-keyboard-response","235","670510","0.0-2.0-79.0-1.0","25","22695","male","1","null","","","","null","","77","","","670205","1","","","","","","300","91200","305","91893","300","","","","","","","","","","","","","","","","","","","","","","","","","","","",""
"","localizer","","html-keyboard-response","236","670915","0.0-2.0-80.0-0.0","25","22695","male","1","NaN","","","","null","NaN","78","","Stimuli/Experimental_stims/localizer/faces/toa-heftiba-O3ymvT7Wf9U-unsplash.jpg","670510","1","faces","","0","1","0","400","91500","405","92198","","","","","","","","","","","","","","","","","","","","","","","","","","","","",""
"","iti_localizer","","html-keyboard-response","237","671219","0.0-2.0-80.0-1.0","25","22695","male","1","null","","","","null","","78","","","670915","1","","","","","","300","91900","304","92603","300","","","","","","","","","","","","","","","","","","","","","","","","","","","",""
"","localizer","","html-keyboard-response","238","671624","0.0-2.0-81.0-0.0","25","22695","male","1","NaN","","","","null","NaN","79","","Stimuli/Experimental_stims/localizer/faces/jurica-koletic-7YVZYZeITc8-unsplash.jpg","671219","1","faces","","0","1","0","400","92200","405","92907","","","","","","","","","","","","","","","","","","","","","","","","","","","","",""
"","iti_localizer","","html-keyboard-response","239","671929","0.0-2.0-81.0-1.0","25","22695","male","1","null","","","","null","","79","","","671624","1","","","","","","300","92600","305","93312","300","","","","","","","","","","","","","","","","","","","","","","","","","","","",""
"","localizer","","html-keyboard-response","240","672334","0.0-2.0-82.0-0.0","25","22695","male","1","18","","","","68","0","80","","Stimuli/Experimental_stims/localizer/faces/rui-silvestre-hAMJpesMeDE-unsplash.jpg","671929","1","faces","","0","0","1","400","92900","405","93617","","","","","","","","","","","","","","","","","","","","","","","","","","","","",""
"","iti_localizer","","html-keyboard-response","241","672638","0.0-2.0-82.0-1.0","25","22695","male","1","null","","","","null","","80","","","672334","1","","","","","","300","93300","304","94022","300","","","","","","","","","","","","","","","","","","","","","","","","","","","",""
"","localizer","","html-keyboard-response","242","673043","0.0-2.0-83.0-0.0","25","22695","male","1","79","","","","68","0","81","","Stimuli/Experimental_stims/localizer/faces/ben-scott-tWb7IsL9CnY-unsplash.jpg","672638","1","faces","","1","0","0","400","93600","405","94326","","","","","","","","","","","","","","","","","","","","","","","","","","","","",""
"","iti_localizer","","html-keyboard-response","243","673348","0.0-2.0-83.0-1.0","25","22695","male","1","null","","","","null","","81","","","673043","1","","","","","","300","94000","305","94731","300","","","","","","","","","","","","","","","","","","","","","","","","","","","",""
"","localizer","","html-keyboard-response","244","673753","0.0-2.0-84.0-0.0","25","22695","male","1","149","","","","75","1","82","","Stimuli/Experimental_stims/localizer/faces/mathias-huysmans-U4JDjYmjn1g-unsplash.jpg","673348","1","faces","","0","0","0","400","94300","405","95036","","","","","","","","","","","","","","","","","","","","","","","","","","","","",""
"","iti_localizer","","html-keyboard-response","245","674058","0.0-2.0-84.0-1.0","25","22695","male","1","null","","","","null","","82","","","673753","1","","","","","","300","94700","305","95441","300","","","","","","","","","","","","","","","","","","","","","","","","","","","",""
"","localizer","","html-keyboard-response","246","674463","0.0-2.0-85.0-0.0","25","22695","male","1","179","","","","68","0","83","","Stimuli/Experimental_stims/localizer/faces/james-marty-h1BuNJZzpC8-unsplash.jpg","674058","1","faces","","0","0","1","400","95000","405","95746","","","","","","","","","","","","","","","","","","","","","","","","","","","","",""
"","iti_localizer","","html-keyboard-response","247","674768","0.0-2.0-85.0-1.0","25","22695","male","1","null","","","","null","","83","","","674463","1","","","","","","300","95400","305","96151","300","","","","","","","","","","","","","","","","","","","","","","","","","","","",""
"","localizer","","html-keyboard-response","248","675173","0.0-2.0-86.0-0.0","25","22695","male","1","59","","","","68","0","84","","Stimuli/Experimental_stims/localizer/faces/drew-hays-agGIKYs4mYs-unsplash.jpg","674768","1","faces","","0","0","1","400","95700","405","96456","","","","","","","","","","","","","","","","","","","","","","","","","","","","",""
"","iti_localizer","","html-keyboard-response","249","675478","0.0-2.0-86.0-1.0","25","22695","male","1","null","","","","null","","84","","","675173","1","","","","","","300","96100","305","96861","300","","","","","","","","","","","","","","","","","","","","","","","","","","","",""
"","localizer","","html-keyboard-response","250","675882","0.0-2.0-87.0-0.0","25","22695","male","1","279","","","","68","0","85","","Stimuli/Experimental_stims/localizer/faces/jakob-owens-lkMJcGDZLVs-unsplash.jpg","675478","1","faces","","0","0","1","400","96400","404","97166","","","","","","","","","","","","","","","","","","","","","","","","","","","","",""
"","iti_localizer","","html-keyboard-response","251","689887","0.0-2.0-87.0-1.0","25","22695","male","1","null","","","","null","","85","","","675882","1","","","","","","14000","96800","14005","97570","14000","","","","","","","","","","","","","","","","","","","","","","","","","","","",""
"","localizer","","html-keyboard-response","252","690293","0.0-2.0-88.0-0.0","25","22695","male","1","NaN","","","","null","NaN","86","","Stimuli/Experimental_stims/localizer/body_parts/marcel-fagin-OUYg0Q3ec-Y-unsplash.jpg","689887","1","body_parts","","0","1","0","400","110800","406","111575","","","","","","","","","","","","","","","","","","","","","","","","","","","","",""
"","iti_localizer","","html-keyboard-response","253","690598","0.0-2.0-88.0-1.0","25","22695","male","1","null","","","","null","","86","","","690293","1","","","","","","300","111200","305","111981","300","","","","","","","","","","","","","","","","","","","","","","","","","","","",""
"","localizer","","html-keyboard-response","254","691003","0.0-2.0-89.0-0.0","25","22695","male","1","134","","","","68","0","87","","Stimuli/Experimental_stims/localizer/body_parts/helen-ast-l2iY5Sh0mTg-unsplash.jpg","690598","1","body_parts","","0","0","1","400","111500","405","112286","","","","","","","","","","","","","","","","","","","","","","","","","","","","",""
"","iti_localizer","","html-keyboard-response","255","691307","0.0-2.0-89.0-1.0","25","22695","male","1","null","","","","null","","87","","","691003","1","","","","","","300","111900","304","112691","300","","","","","","","","","","","","","","","","","","","","","","","","","","","",""
"","localizer","","html-keyboard-response","256","691712","0.0-2.0-90.0-0.0","25","22695","male","1","NaN","","","","null","NaN","88","","Stimuli/Experimental_stims/localizer/body_parts/luisa-denu-o5EU_lUB1rg-unsplash.jpg","691307","1","body_parts","","0","1","0","400","112200","405","112995","","","","","","","","","","","","","","","","","","","","","","","","","","","","",""
"","iti_localizer","","html-keyboard-response","257","692016","0.0-2.0-90.0-1.0","25","22695","male","1","null","","","","null","","88","","","691712","1","","","","","","300","112600","304","113400","300","","","","","","","","","","","","","","","","","","","","","","","","","","","",""
"","localizer","","html-keyboard-response","258","692421","0.0-2.0-91.0-0.0","25","22695","male","1","NaN","","","","null","NaN","89","","Stimuli/Experimental_stims/localizer/body_parts/megan-menegay-UojxG_BJxnI-unsplash.jpg","692016","1","body_parts","","0","1","0","400","112900","405","113704","","","","","","","","","","","","","","","","","","","","","","","","","","","","",""
"","iti_localizer","","html-keyboard-response","259","692726","0.0-2.0-91.0-1.0","25","22695","male","1","null","","","","null","","89","","","692421","1","","","","","","300","113300","305","114109","300","","","","","","","","","","","","","","","","","","","","","","","","","","","",""
"","localizer","","html-keyboard-response","260","693131","0.0-2.0-92.0-0.0","25","22695","male","1","NaN","","","","null","NaN","90","","Stimuli/Experimental_stims/localizer/body_parts/sincerely-media-9Zf6yh7RYbQ-unsplash.jpg","692726","1","body_parts","","0","1","0","400","113600","405","114414","","","","","","","","","","","","","","","","","","","","","","","","","","","","",""
"","iti_localizer","","html-keyboard-response","261","693435","0.0-2.0-92.0-1.0","25","22695","male","1","null","","","","null","","90","","","693131","1","","","","","","300","114000","304","114819","300","","","","","","","","","","","","","","","","","","","","","","","","","","","",""
"","localizer","","html-keyboard-response","262","693840","0.0-2.0-93.0-0.0","25","22695","male","1","NaN","","","","null","NaN","91","","Stimuli/Experimental_stims/localizer/body_parts/sandra-seitamaa-YCc_YAAhY3I-unsplash.jpg","693435","1","body_parts","","1","1","0","400","114300","405","115123","","","","","","","","","","","","","","","","","","","","","","","","","","","","",""
"","iti_localizer","","html-keyboard-response","263","694147","0.0-2.0-93.0-1.0","25","22695","male","1","null","","","","null","","91","","","693840","1","","","","","","300","114700","307","115528","300","","","","","","","","","","","","","","","","","","","","","","","","","","","",""
"","localizer","","html-keyboard-response","264","694551","0.0-2.0-94.0-0.0","25","22695","male","1","161","","","","75","1","92","","Stimuli/Experimental_stims/localizer/body_parts/jonathan-borba-hTwH8QFkPMs-unsplash.jpg","694147","1","body_parts","","0","0","0","400","115000","404","115835","","","","","","","","","","","","","","","","","","","","","","","","","","","","",""
"","iti_localizer","","html-keyboard-response","265","694857","0.0-2.0-94.0-1.0","25","22695","male","1","null","","","","null","","92","","","694551","1","","","","","","300","115400","306","116239","300","","","","","","","","","","","","","","","","","","","","","","","","","","","",""
"","localizer","","html-keyboard-response","266","695261","0.0-2.0-95.0-0.0","25","22695","male","1","2","","","","68","0","93","","Stimuli/Experimental_stims/localizer/body_parts/bady-abbas-N-VEeMnm7gE-unsplash.jpg","694857","1","body_parts","","0","0","1","400","115700","404","116545","","","","","","","","","","","","","","","","","","","","","","","","","","","","",""
"","iti_localizer","","html-keyboard-response","267","695566","0.0-2.0-95.0-1.0","25","22695","male","1","null","","","","null","","93","","","695261","1","","","","","","300","116100","305","116949","300","","","","","","","","","","","","","","","","","","","","","","","","","","","",""
"","localizer","","html-keyboard-response","268","695971","0.0-2.0-96.0-0.0","25","22695","male","1","10","","","","68","0","94","","Stimuli/Experimental_stims/localizer/body_parts/sydney-herron-b2W04fGuS70-unsplash.jpg","695566","1","body_parts","","0","0","1","400","116400","405","117254","","","","","","","","","","","","","","","","","","","","","","","","","","","","",""
"","iti_localizer","","html-keyboard-response","269","696276","0.0-2.0-96.0-1.0","25","22695","male","1","null","","","","null","","94","","","695971","1","","","","","","300","116800","305","117659","300","","","","","","","","","","","","","","","","","","","","","","","","","","","",""
"","localizer","","html-keyboard-response","270","696681","0.0-2.0-97.0-0.0","25","22695","male","1","58","","","","68","0","95","","Stimuli/Experimental_stims/localizer/body_parts/matthew-wheeler-2_UxqsaDMmo-unsplash.jpg","696276","1","body_parts","","0","0","1","400","117100","405","117964","","","","","","","","","","","","","","","","","","","","","","","","","","","","",""
"","iti_localizer","","html-keyboard-response","271","696986","0.0-2.0-97.0-1.0","25","22695","male","1","null","","","","null","","95","","","696681","1","","","","","","300","117500","305","118369","300","","","","","","","","","","","","","","","","","","","","","","","","","","","",""
"","localizer","","html-keyboard-response","272","697390","0.0-2.0-98.0-0.0","25","22695","male","1","113","","","","68","0","96","","Stimuli/Experimental_stims/localizer/body_parts/sincerely-media-Q7qRyaurQfo-unsplash.jpg","696986","1","body_parts","","0","0","1","400","117800","404","118674","","","","","","","","","","","","","","","","","","","","","","","","","","","","",""
"","iti_localizer","","html-keyboard-response","273","697695","0.0-2.0-98.0-1.0","25","22695","male","1","null","","","","null","","96","","","697390","1","","","","","","300","118200","305","119078","300","","","","","","","","","","","","","","","","","","","","","","","","","","","",""
"","localizer","","html-keyboard-response","274","698099","0.0-2.0-99.0-0.0","25","22695","male","1","383","","","","68","0","97","","Stimuli/Experimental_stims/localizer/body_parts/sincerely-media-pdynOoM7xmA-unsplash.jpg","697695","1","body_parts","","0","0","1","400","118500","404","119383","","","","","","","","","","","","","","","","","","","","","","","","","","","","",""
"","iti_localizer","","html-keyboard-response","275","698404","0.0-2.0-99.0-1.0","25","22695","male","1","null","","","","null","","97","","","698099","1","","","","","","300","118900","305","119787","300","","","","","","","","","","","","","","","","","","","","","","","","","","","",""
"","localizer","","html-keyboard-response","276","698809","0.0-2.0-100.0-0.0","25","22695","male","1","NaN","","","","null","NaN","98","","Stimuli/Experimental_stims/localizer/body_parts/nadine-shaabana-ypyaaEf2ntM-unsplash.jpg","698404","1","body_parts","","0","1","0","400","119200","405","120092","","","","","","","","","","","","","","","","","","","","","","","","","","","","",""
"","iti_localizer","","html-keyboard-response","277","699114","0.0-2.0-100.0-1.0","25","22695","male","1","null","","","","null","","98","","","698809","1","","","","","","300","119600","305","120497","300","","","","","","","","","","","","","","","","","","","","","","","","","","","",""
"","localizer","","html-keyboard-response","278","699519","0.0-2.0-101.0-0.0","25","22695","male","1","NaN","","","","null","NaN","99","","Stimuli/Experimental_stims/localizer/body_parts/louis-hansel-FjKTMRTQYAs-unsplash.jpg","699114","1","body_parts","","0","1","0","400","119900","405","120802","","","","","","","","","","","","","","","","","","","","","","","","","","","","",""
"","iti_localizer","","html-keyboard-response","279","699824","0.0-2.0-101.0-1.0","25","22695","male","1","null","","","","null","","99","","","699519","1","","","","","","300","120300","305","121207","300","","","","","","","","","","","","","","","","","","","","","","","","","","","",""
"","localizer","","html-keyboard-response","280","700229","0.0-2.0-102.0-0.0","25","22695","male","1","174","","","","68","0","100","","Stimuli/Experimental_stims/localizer/body_parts/pure-julia-9lVaya31sMk-unsplash.jpg","699824","1","body_parts","","0","0","1","400","120600","405","121512","","","","","","","","","","","","","","","","","","","","","","","","","","","","",""
"","iti_localizer","","html-keyboard-response","281","700533","0.0-2.0-102.0-1.0","25","22695","male","1","null","","","","null","","100","","","700229","1","","","","","","300","121000","304","121917","300","","","","","","","","","","","","","","","","","","","","","","","","","","","",""
"","localizer","","html-keyboard-response","282","700938","0.0-2.0-103.0-0.0","25","22695","male","1","265","","","","68","0","101","","Stimuli/Experimental_stims/localizer/body_parts/sincerely-media-7TBFwUQA6Xk-unsplash.jpg","700533","1","body_parts","","0","0","1","400","121300","405","122221","","","","","","","","","","","","","","","","","","","","","","","","","","","","",""
"","iti_localizer","","html-keyboard-response","283","701243","0.0-2.0-103.0-1.0","25","22695","male","1","null","","","","null","","101","","","700938","1","","","","","","300","121700","305","122626","300","","","","","","","","","","","","","","","","","","","","","","","","","","","",""
"","localizer","","html-keyboard-response","284","701648","0.0-2.0-104.0-0.0","25","22695","male","1","NaN","","","","null","NaN","102","","Stimuli/Experimental_stims/localizer/body_parts/bady-abbas-pIySu25o0bM-unsplash.jpg","701243","1","body_parts","","0","1","0","400","122000","405","122931","","","","","","","","","","","","","","","","","","","","","","","","","","","","",""
"","iti_localizer","","html-keyboard-response","285","701953","0.0-2.0-104.0-1.0","25","22695","male","1","null","","","","null","","102","","","701648","1","","","","","","300","122400","305","123336","300","","","","","","","","","","","","","","","","","","","","","","","","","","","",""
"","localizer","","html-keyboard-response","286","702358","0.0-2.0-105.0-0.0","25","22695","male","1","NaN","","","","null","NaN","103","","Stimuli/Experimental_stims/localizer/body_parts/hu-chen-tCbTGNwrFNM-unsplash.jpg","701953","1","body_parts","","0","1","0","400","122700","405","123641","","","","","","","","","","","","","","","","","","","","","","","","","","","","",""
"","iti_localizer","","html-keyboard-response","287","702663","0.0-2.0-105.0-1.0","25","22695","male","1","null","","","","null","","103","","","702358","1","","","","","","300","123100","305","124046","300","","","","","","","","","","","","","","","","","","","","","","","","","","","",""
"","localizer","","html-keyboard-response","288","703068","0.0-2.0-106.0-0.0","25","22695","male","1","45","","","","68","0","104","","Stimuli/Experimental_stims/localizer/body_parts/sina-rezakhani-d1gQi0Jl05U-unsplash (1).jpg","702663","1","body_parts","","0","0","1","400","123400","405","124351","","","","","","","","","","","","","","","","","","","","","","","","","","","","",""
"","iti_localizer","","html-keyboard-response","289","703372","0.0-2.0-106.0-1.0","25","22695","male","1","null","","","","null","","104","","","703068","1","","","","","","300","123800","304","124756","300","","","","","","","","","","","","","","","","","","","","","","","","","","","",""
"","localizer","","html-keyboard-response","290","703777","0.0-2.0-107.0-0.0","25","22695","male","1","135","","","","68","0","105","","Stimuli/Experimental_stims/localizer/body_parts/ant-rozetsky-bXQd8JXx0vs-unsplash.jpg","703372","1","body_parts","","1","0","0","400","124100","405","125060","","","","","","","","","","","","","","","","","","","","","","","","","","","","",""
"","iti_localizer","","html-keyboard-response","291","717781","0.0-2.0-107.0-1.0","25","22695","male","1","null","","","","null","","105","","","703777","1","","","","","","14000","124500","14004","125465","14000","","","","","","","","","","","","","","","","","","","","","","","","","","","",""
"","localizer","","html-keyboard-response","292","718187","0.0-2.0-108.0-0.0","25","22695","male","1","NaN","","","","null","NaN","106","","Stimuli/Experimental_stims/localizer/outdoor_scenes/samsommer-vddccTqwal8-unsplash.jpg","717781","1","outdoor_scenes","","0","1","0","400","138500","406","139469","","","","","","","","","","","","","","","","","","","","","","","","","","","","",""
"","iti_localizer","","html-keyboard-response","293","718492","0.0-2.0-108.0-1.0","25","22695","male","1","null","","","","null","","106","","","718187","1","","","","","","300","138900","305","139875","300","","","","","","","","","","","","","","","","","","","","","","","","","","","",""
"","localizer","","html-keyboard-response","294","718897","0.0-2.0-109.0-0.0","25","22695","male","1","NaN","","","","null","NaN","107","","Stimuli/Experimental_stims/localizer/outdoor_scenes/ken-cheung-KonWFWUaAuk-unsplash.jpg","718492","1","outdoor_scenes","","0","1","0","400","139200","405","140180","","","","","","","","","","","","","","","","","","","","","","","","","","","","",""
"","iti_localizer","","html-keyboard-response","295","719202","0.0-2.0-109.0-1.0","25","22695","male","1","null","","","","null","","107","","","718897","1","","","","","","300","139600","305","140585","300","","","","","","","","","","","","","","","","","","","","","","","","","","","",""
"","localizer","","html-keyboard-response","296","719606","0.0-2.0-110.0-0.0","25","22695","male","1","196","","","","68","0","108","","Stimuli/Experimental_stims/localizer/outdoor_scenes/rod-sot-X_vbB7wfv5k-unsplash.jpg","719202","1","outdoor_scenes","","0","0","1","400","139900","404","140890","","","","","","","","","","","","","","","","","","","","","","","","","","","","",""
"","iti_localizer","","html-keyboard-response","297","719911","0.0-2.0-110.0-1.0","25","22695","male","1","null","","","","null","","108","","","719606","1","","","","","","300","140300","305","141294","300","","","","","","","","","","","","","","","","","","","","","","","","","","","",""
"","localizer","","html-keyboard-response","298","720316","0.0-2.0-111.0-0.0","25","22695","male","1","226","","","","68","0","109","","Stimuli/Experimental_stims/localizer/outdoor_scenes/kenneth-thewissen-D76DklsG-5U-unsplash.jpg","719911","1","outdoor_scenes","","0","0","1","400","140600","405","141599","","","","","","","","","","","","","","","","","","","","","","","","","","","","",""
"","iti_localizer","","html-keyboard-response","299","720621","0.0-2.0-111.0-1.0","25","22695","male","1","null","","","","null","","109","","","720316","1","","","","","","300","141000","305","142004","300","","","","","","","","","","","","","","","","","","","","","","","","","","","",""
"","localizer","","html-keyboard-response","300","721026","0.0-2.0-112.0-0.0","25","22695","male","1","236","","","","68","0","110","","Stimuli/Experimental_stims/localizer/outdoor_scenes/andres-sanz-uILhNE1VcwA-unsplash.jpg","720621","1","outdoor_scenes","","0","0","1","400","141300","405","142309","","","","","","","","","","","","","","","","","","","","","","","","","","","","",""
"","iti_localizer","","html-keyboard-response","301","721331","0.0-2.0-112.0-1.0","25","22695","male","1","null","","","","null","","110","","","721026","1","","","","","","300","141700","305","142714","300","","","","","","","","","","","","","","","","","","","","","","","","","","","",""
