"success","ttype","start_time","trial_type","trial_index","time_elapsed","internal_node_id","age","PID","gender","rt","responses","view_history","repeat_instructions","key_press","response","index","stimulus_index","path","start_time_elapsed","run","task","isi","is_odd_ball","no_response","acc","duration","onset","duration_time_elapsed","onset_time_elapsed","trial_duration","left_chosen","chosen_stimulus","unchosen_stimulus","chosen_category","unchosen_category","chosen_rating","unchosen_rating","chosen_path","unchosen_path","pair_id","practice","scramble_screen_time","scramble_instructed_side","stim_type","iti","block","left_stimulus","right_stimulus","left_category","right_category","left_path","right_path","left_rating","right_rating","scramble_acc","scramble_no_response","warning","stimulus_id","item_id","outcome","response_rt","deliberation_reward_tally","choice_type","gain_left","left_item_id","right_item_id","higher_outcome_chosen","chosen_left","old_pair","pair_type","old_response","pair_acc","reward_type","outcome_response","outcome_rt","outcome_acc","category","choice","deliberated_stim","old_rating","new_rating","total_reward_tally"
"true","full_screen","d08172023hr1527","fullscreen","0","5036","0.0-0.0-0.0","28","76661","female","","","","","","","","","","","","","","","","","","","","","","","","","","","","","","","","","","","","","","","","","","","","","","","","","","","","","","","","","","","","","","","","","","","","","","","","",""
"","get_id","","survey-text","1","12618","0.0-0.0-1.0","28","76661","female","7566","{""Q0"":""28"",""Q1"":""female""}","","","","","","","","","","","","","","","","","","","","","","","","","","","","","","","","","","","","","","","","","","","","","","","","","","","","","","","","","","","","","","","","","","","","","","",""
"","ratings_instructions","","instructions","2","29934","0.0-1.0-0.0-0.0","28","76661","female","15752","","[{""page_index"":0,""viewing_time"":12553},{""page_index"":1,""viewing_time"":3198}]","","","","","","","","","","","","","","","","","","","","","","","","","","","","","","","","","","","","","","","","","","","","","","","","","","","","","","","","","","","","","","","","","","","","","",""
"","rating_comprehension_check","","survey-multi-choice","3","37003","0.0-1.0-0.0-1.0","28","76661","female","7053","{""Q0"":""True"",""Q1"":""Mouse""}","","0","","","","","","","","","","","","","","","","","","","","","","","","","","","","","","","","","","","","","","","","","","","","","","","","","","","","","","","","","","","","","","","","","","","","",""
"","","","html-keyboard-response","4","38735","0.0-1.0-1.0","28","76661","female","1720","","","","68","","","","","","","","","","","","","","","","","","","","","","","","","","","","","","","","","","","","","","","","","","","","","","","","","","","","","","","","","","","","","","","","","","","",""
"","rating","","html-slider-response","5","46726","0.0-1.0-2.0","28","76661","female","7967","","","","","86","0","28","Stimuli/Experimental_stims/body_parts/ira-vishnevskaya-8DQAvdCby1I-unsplash.jpg","","","","","","","","","","","","","","","","","","","","","","","","","","","","","","","","","","","","","","","","","","","","","","","","","","","","","","","","","","","","","","","",""
"","rating","","html-slider-response","6","53255","0.0-1.0-3.0","28","76661","female","6509","","","","","73","1","4","Stimuli/Experimental_stims/outdoor_scenes/jarrett-kow-1ZOyYPOBn7I-unsplash.jpg","","","","","","","","","","","","","","","","","","","","","","","","","","","","","","","","","","","","","","","","","","","","","","","","","","","","","","","","","","","","","","","",""
"","rating","","html-slider-response","7","59907","0.0-1.0-4.0","28","76661","female","6633","","","","","87","2","35","Stimuli/Experimental_stims/body_parts/wc-so-KH4AAPjb-tI-unsplash.jpg","","","","","","","","","","","","","","","","","","","","","","","","","","","","","","","","","","","","","","","","","","","","","","","","","","","","","","","","","","","","","","","",""
"","rating","","html-slider-response","8","189364","0.0-1.0-5.0","28","76661","female","129428","","","","","83","3","47","Stimuli/Experimental_stims/objects/ronaldo-arthur-vidal-Cdz_lvnl37k-unsplash.jpg","","","","","","","","","","","","","","","","","","","","","","","","","","","","","","","","","","","","","","","","","","","","","","","","","","","","","","","","","","","","","","","",""
"","rating","","html-slider-response","9","195027","0.0-1.0-6.0","28","76661","female","5647","","","","","81","4","9","Stimuli/Experimental_stims/outdoor_scenes/sergey-pesterev-y-b_FOmJXdg-unsplash.jpg","","","","","","","","","","","","","","","","","","","","","","","","","","","","","","","","","","","","","","","","","","","","","","","","","","","","","","","","","","","","","","","",""
"","rating","","html-slider-response","10","267968","0.0-1.0-7.0","28","76661","female","72911","","","","","77","5","31","Stimuli/Experimental_stims/body_parts/sincerely-media-VN6DbKajo5s-unsplash.jpg","","","","","","","","","","","","","","","","","","","","","","","","","","","","","","","","","","","","","","","","","","","","","","","","","","","","","","","","","","","","","","","",""
"","rating","","html-slider-response","11","273561","0.0-1.0-8.0","28","76661","female","5576","","","","","78","6","5","Stimuli/Experimental_stims/outdoor_scenes/jeff-king-bJHWJeiHfHc-unsplash.jpg","","","","","","","","","","","","","","","","","","","","","","","","","","","","","","","","","","","","","","","","","","","","","","","","","","","","","","","","","","","","","","","",""
"","rating","","html-slider-response","12","279856","0.0-1.0-9.0","28","76661","female","6280","","","","","86","7","27","Stimuli/Experimental_stims/body_parts/heike-mintel-i_Gns0ELnLw-unsplash.jpg","","","","","","","","","","","","","","","","","","","","","","","","","","","","","","","","","","","","","","","","","","","","","","","","","","","","","","","","","","","","","","","",""
"","rating","","html-slider-response","13","285840","0.0-1.0-10.0","28","76661","female","5960","","","","","82","8","37","Stimuli/Experimental_stims/objects/alexander-andrews-VLGWE_SumrA-unsplash.jpg","","","","","","","","","","","","","","","","","","","","","","","","","","","","","","","","","","","","","","","","","","","","","","","","","","","","","","","","","","","","","","","",""
"","rating","","html-slider-response","14","291165","0.0-1.0-11.0","28","76661","female","5312","","","","","79","9","19","Stimuli/Experimental_stims/faces/joel-mott-LaK153ghdig-unsplash.jpg","","","","","","","","","","","","","","","","","","","","","","","","","","","","","","","","","","","","","","","","","","","","","","","","","","","","","","","","","","","","","","","",""
"","rating","","html-slider-response","15","300254","0.0-1.0-12.0","28","76661","female","9078","","","","","30","10","34","Stimuli/Experimental_stims/body_parts/wagner-santos-mBWMvIuVnso-unsplash.jpg","","","","","","","","","","","","","","","","","","","","","","","","","","","","","","","","","","","","","","","","","","","","","","","","","","","","","","","","","","","","","","","",""
"","rating","","html-slider-response","16","307180","0.0-1.0-13.0","28","76661","female","6916","","","","","76","11","22","Stimuli/Experimental_stims/faces/ravi-patel-VMGAbeeJTKo-unsplash.jpg","","","","","","","","","","","","","","","","","","","","","","","","","","","","","","","","","","","","","","","","","","","","","","","","","","","","","","","","","","","","","","","",""
"","rating","","html-slider-response","17","313050","0.0-1.0-14.0","28","76661","female","5856","","","","","81","12","1","Stimuli/Experimental_stims/outdoor_scenes/ashim-d-silva-S2Q5mdOrrVc-unsplash.jpg","","","","","","","","","","","","","","","","","","","","","","","","","","","","","","","","","","","","","","","","","","","","","","","","","","","","","","","","","","","","","","","",""
"","rating","","html-slider-response","18","318466","0.0-1.0-15.0","28","76661","female","5403","","","","","77","13","15","Stimuli/Experimental_stims/faces/erik-lucatero-d2MSDujJl2g-unsplash.jpg","","","","","","","","","","","","","","","","","","","","","","","","","","","","","","","","","","","","","","","","","","","","","","","","","","","","","","","","","","","","","","","",""
"","rating","","html-slider-response","19","323973","0.0-1.0-16.0","28","76661","female","5492","","","","","71","14","17","Stimuli/Experimental_stims/faces/good-faces-xmSWVeGEnJw-unsplash.jpg","","","","","","","","","","","","","","","","","","","","","","","","","","","","","","","","","","","","","","","","","","","","","","","","","","","","","","","","","","","","","","","",""
"","rating","","html-slider-response","20","331421","0.0-1.0-17.0","28","76661","female","7432","","","","","85","15","12","Stimuli/Experimental_stims/faces/aiony-haust-jmATI5Q_YgY-unsplash.jpg","","","","","","","","","","","","","","","","","","","","","","","","","","","","","","","","","","","","","","","","","","","","","","","","","","","","","","","","","","","","","","","",""
"","rating","","html-slider-response","21","393276","0.0-1.0-18.0","28","76661","female","61835","","","","","81","16","0","Stimuli/Experimental_stims/outdoor_scenes/aleksandra-boguslawska-MS7KD9Ti7FQ-unsplash.jpg","","","","","","","","","","","","","","","","","","","","","","","","","","","","","","","","","","","","","","","","","","","","","","","","","","","","","","","","","","","","","","","",""
"","rating","","html-slider-response","22","399321","0.0-1.0-19.0","28","76661","female","6035","","","","","76","17","41","Stimuli/Experimental_stims/objects/insung-yoon-w2JtIQQXoRU-unsplash.jpg","","","","","","","","","","","","","","","","","","","","","","","","","","","","","","","","","","","","","","","","","","","","","","","","","","","","","","","","","","","","","","","",""
"","rating","","html-slider-response","23","404503","0.0-1.0-20.0","28","76661","female","5164","","","","","78","18","18","Stimuli/Experimental_stims/faces/jessica-radanavong-mrYkTuAesKE-unsplash.jpg","","","","","","","","","","","","","","","","","","","","","","","","","","","","","","","","","","","","","","","","","","","","","","","","","","","","","","","","","","","","","","","",""
"","rating","","html-slider-response","24","409857","0.0-1.0-21.0","28","76661","female","5335","","","","","73","19","11","Stimuli/Experimental_stims/outdoor_scenes/stephen-leonardi-gyIRjKPXupE-unsplash.jpg","","","","","","","","","","","","","","","","","","","","","","","","","","","","","","","","","","","","","","","","","","","","","","","","","","","","","","","","","","","","","","","",""
"","rating","","html-slider-response","25","415581","0.0-1.0-22.0","28","76661","female","5703","","","","","74","20","20","Stimuli/Experimental_stims/faces/justin-chen-J7Cf1Gch49E-unsplash.jpg","","","","","","","","","","","","","","","","","","","","","","","","","","","","","","","","","","","","","","","","","","","","","","","","","","","","","","","","","","","","","","","",""
"","rating","","html-slider-response","26","421404","0.0-1.0-23.0","28","76661","female","5805","","","","","79","21","23","Stimuli/Experimental_stims/faces/rikonavt-HQjfrvdTfak-unsplash.jpg","","","","","","","","","","","","","","","","","","","","","","","","","","","","","","","","","","","","","","","","","","","","","","","","","","","","","","","","","","","","","","","",""
"","rating","","html-slider-response","27","426231","0.0-1.0-24.0","28","76661","female","4801","","","","","79","22","25","Stimuli/Experimental_stims/body_parts/engin-akyurt-Q2rfH3GW39c-unsplash.jpg","","","","","","","","","","","","","","","","","","","","","","","","","","","","","","","","","","","","","","","","","","","","","","","","","","","","","","","","","","","","","","","",""
"","rating","","html-slider-response","28","432890","0.0-1.0-25.0","28","76661","female","6643","","","","","77","23","33","Stimuli/Experimental_stims/body_parts/tucker-good-36skLT5jZcc-unsplash.jpg","","","","","","","","","","","","","","","","","","","","","","","","","","","","","","","","","","","","","","","","","","","","","","","","","","","","","","","","","","","","","","","",""
"","rating","","html-slider-response","29","438310","0.0-1.0-26.0","28","76661","female","5411","","","","","82","24","32","Stimuli/Experimental_stims/body_parts/towfiqu-barbhuiya-3AsiVDsZnHg-unsplash.jpg","","","","","","","","","","","","","","","","","","","","","","","","","","","","","","","","","","","","","","","","","","","","","","","","","","","","","","","","","","","","","","","",""
"","rating","","html-slider-response","30","443430","0.0-1.0-27.0","28","76661","female","5103","","","","","79","25","30","Stimuli/Experimental_stims/body_parts/mika-korhonen-Xodzxosar18-unsplash.jpg","","","","","","","","","","","","","","","","","","","","","","","","","","","","","","","","","","","","","","","","","","","","","","","","","","","","","","","","","","","","","","","",""
"","rating","","html-slider-response","31","449530","0.0-1.0-28.0","28","76661","female","6090","","","","","76","26","16","Stimuli/Experimental_stims/faces/freddy-kearney-o-ioeoATbIM-unsplash.jpg","","","","","","","","","","","","","","","","","","","","","","","","","","","","","","","","","","","","","","","","","","","","","","","","","","","","","","","","","","","","","","","",""
"","rating","","html-slider-response","32","455999","0.0-1.0-29.0","28","76661","female","6459","","","","","74","27","14","Stimuli/Experimental_stims/faces/david-siglin-UuW4psOb388-unsplash.jpg","","","","","","","","","","","","","","","","","","","","","","","","","","","","","","","","","","","","","","","","","","","","","","","","","","","","","","","","","","","","","","","",""
"","rating","","html-slider-response","33","461565","0.0-1.0-30.0","28","76661","female","5554","","","","","77","28","36","Stimuli/Experimental_stims/objects/alexander-andrews-JYGnB9gTCls-unsplash.jpg","","","","","","","","","","","","","","","","","","","","","","","","","","","","","","","","","","","","","","","","","","","","","","","","","","","","","","","","","","","","","","","",""
"","rating","","html-slider-response","34","467345","0.0-1.0-31.0","28","76661","female","5751","","","","","82","29","3","Stimuli/Experimental_stims/outdoor_scenes/henry-be-NLF6hTe4PAg-unsplash.jpg","","","","","","","","","","","","","","","","","","","","","","","","","","","","","","","","","","","","","","","","","","","","","","","","","","","","","","","","","","","","","","","",""
"","rating","","html-slider-response","35","474047","0.0-1.0-32.0","28","76661","female","6685","","","","","70","30","29","Stimuli/Experimental_stims/body_parts/manuel-schinner-ZwjFuJ7ebpk-unsplash.jpg","","","","","","","","","","","","","","","","","","","","","","","","","","","","","","","","","","","","","","","","","","","","","","","","","","","","","","","","","","","","","","","",""
"","rating","","html-slider-response","36","530762","0.0-1.0-33.0","28","76661","female","56696","","","","","24","31","43","Stimuli/Experimental_stims/objects/jonathan-greenaway-Y4hGgeiFn3s-unsplash.jpg","","","","","","","","","","","","","","","","","","","","","","","","","","","","","","","","","","","","","","","","","","","","","","","","","","","","","","","","","","","","","","","",""
"","rating","","html-slider-response","37","537863","0.0-1.0-34.0","28","76661","female","7086","","","","","80","32","40","Stimuli/Experimental_stims/objects/fabian-blank-pElSkGRA2NU-unsplash.jpg","","","","","","","","","","","","","","","","","","","","","","","","","","","","","","","","","","","","","","","","","","","","","","","","","","","","","","","","","","","","","","","",""
"","rating","","html-slider-response","38","542438","0.0-1.0-35.0","28","76661","female","4565","","","","","77","33","2","Stimuli/Experimental_stims/outdoor_scenes/bruno-van-der-kraan-qez8mNJ3ilU-unsplash.jpg","","","","","","","","","","","","","","","","","","","","","","","","","","","","","","","","","","","","","","","","","","","","","","","","","","","","","","","","","","","","","","","",""
"","rating","","html-slider-response","39","546811","0.0-1.0-36.0","28","76661","female","4359","","","","","77","34","26","Stimuli/Experimental_stims/body_parts/engin-akyurt-x_3gyC42btc-unsplash.jpg","","","","","","","","","","","","","","","","","","","","","","","","","","","","","","","","","","","","","","","","","","","","","","","","","","","","","","","","","","","","","","","",""
"","rating","","html-slider-response","40","551349","0.0-1.0-37.0","28","76661","female","4518","","","","","75","35","45","Stimuli/Experimental_stims/objects/leohoho-rngTKHXumy0-unsplash.jpg","","","","","","","","","","","","","","","","","","","","","","","","","","","","","","","","","","","","","","","","","","","","","","","","","","","","","","","","","","","","","","","",""
"","rating","","html-slider-response","41","556813","0.0-1.0-38.0","28","76661","female","5448","","","","","74","36","6","Stimuli/Experimental_stims/outdoor_scenes/meng-ji-8BH_M-53CyA-unsplash.jpg","","","","","","","","","","","","","","","","","","","","","","","","","","","","","","","","","","","","","","","","","","","","","","","","","","","","","","","","","","","","","","","",""
"","rating","","html-slider-response","42","562972","0.0-1.0-39.0","28","76661","female","6147","","","","","71","37","13","Stimuli/Experimental_stims/faces/daniel-rigdon-dXmXKPP2L4E-unsplash.jpg","","","","","","","","","","","","","","","","","","","","","","","","","","","","","","","","","","","","","","","","","","","","","","","","","","","","","","","","","","","","","","","",""
"","rating","","html-slider-response","43","568152","0.0-1.0-40.0","28","76661","female","5167","","","","","73","38","44","Stimuli/Experimental_stims/objects/kuiye-chen-NuOGFo4PudE-unsplash.jpg","","","","","","","","","","","","","","","","","","","","","","","","","","","","","","","","","","","","","","","","","","","","","","","","","","","","","","","","","","","","","","","",""
"","rating","","html-slider-response","44","573509","0.0-1.0-41.0","28","76661","female","5347","","","","","82","39","42","Stimuli/Experimental_stims/objects/jess-bailey-nOeVi8DsN8U-unsplash.jpg","","","","","","","","","","","","","","","","","","","","","","","","","","","","","","","","","","","","","","","","","","","","","","","","","","","","","","","","","","","","","","","",""
"","rating","","html-slider-response","45","1111271","0.0-1.0-42.0","28","76661","female","537739","","","","","75","40","24","Stimuli/Experimental_stims/body_parts/clay-banks-LjqARJaJotc-unsplash.jpg","","","","","","","","","","","","","","","","","","","","","","","","","","","","","","","","","","","","","","","","","","","","","","","","","","","","","","","","","","","","","","","",""
"","rating","","html-slider-response","46","1112895","0.0-1.0-43.0","28","76661","female","1613","","","","","78","41","21","Stimuli/Experimental_stims/faces/leilani-angel-K84vnnzxmTQ-unsplash.jpg","","","","","","","","","","","","","","","","","","","","","","","","","","","","","","","","","","","","","","","","","","","","","","","","","","","","","","","","","","","","","","","",""
"","rating","","html-slider-response","47","1114577","0.0-1.0-44.0","28","76661","female","1674","","","","","84","42","7","Stimuli/Experimental_stims/outdoor_scenes/petr-vysohlid-9fqwGqGLUxc-unsplash.jpg","","","","","","","","","","","","","","","","","","","","","","","","","","","","","","","","","","","","","","","","","","","","","","","","","","","","","","","","","","","","","","","",""
"","rating","","html-slider-response","48","1116641","0.0-1.0-45.0","28","76661","female","2056","","","","","50","43","46","Stimuli/Experimental_stims/objects/mockup-graphics-PNsj6RiHAF4-unsplash.jpg","","","","","","","","","","","","","","","","","","","","","","","","","","","","","","","","","","","","","","","","","","","","","","","","","","","","","","","","","","","","","","","",""
"","rating","","html-slider-response","49","1118250","0.0-1.0-46.0","28","76661","female","1601","","","","","67","44","38","Stimuli/Experimental_stims/objects/art-lasovsky-8XddFc6NkBY-unsplash.jpg","","","","","","","","","","","","","","","","","","","","","","","","","","","","","","","","","","","","","","","","","","","","","","","","","","","","","","","","","","","","","","","",""
"","rating","","html-slider-response","50","1119613","0.0-1.0-47.0","28","76661","female","1356","","","","","79","45","8","Stimuli/Experimental_stims/outdoor_scenes/samsommer-vddccTqwal8-unsplash.jpg","","","","","","","","","","","","","","","","","","","","","","","","","","","","","","","","","","","","","","","","","","","","","","","","","","","","","","","","","","","","","","","",""
"","rating","","html-slider-response","51","1121375","0.0-1.0-48.0","28","76661","female","1747","","","","","44","46","10","Stimuli/Experimental_stims/outdoor_scenes/shannon-kunkle-dM8INmkyDas-unsplash.jpg","","","","","","","","","","","","","","","","","","","","","","","","","","","","","","","","","","","","","","","","","","","","","","","","","","","","","","","","","","","","","","","",""
"","rating","","html-slider-response","52","1122671","0.0-1.0-49.0","28","76661","female","1280","","","","","74","47","39","Stimuli/Experimental_stims/objects/charlesdeluvio-1-nx1QR5dTE-unsplash.jpg","","","","","","","","","","","","","","","","","","","","","","","","","","","","","","","","","","","","","","","","","","","","","","","","","","","","","","","","","","","","","","","",""
"","localizer_instructions","","instructions","53","1146157","0.0-2.0-0.0-0.0","28","76661","female","23403","","[{""page_index"":0,""viewing_time"":18020},{""page_index"":1,""viewing_time"":3204},{""page_index"":2,""viewing_time"":2178}]","","","","","","","","","","","","","","","","","","","","","","","","","","","","","","","","","","","","","","","","","","","","","","","","","","","","","","","","","","","","","","","","","","","","","",""
"","localizer_comprehension_check","","survey-multi-choice","54","1161171","0.0-2.0-0.0-1.0","28","76661","female","14996","{""Q0"":""True"",""Q1"":""K"",""Q2"":""D""}","","0","","","","","","","","","","","","","","","","","","","","","","","","","","","","","","","","","","","","","","","","","","","","","","","","","","","","","","","","","","","","","","","","","","","","",""
"","","","html-keyboard-response","55","1163478","0.0-2.0-1.0","28","76661","female","2296","","","","68","","","","","","","","","","","","","","","","","","","","","","","","","","","","","","","","","","","","","","","","","","","","","","","","","","","","","","","","","","","","","","","","","","","",""
"","localizer","","html-keyboard-response","56","1163899","0.0-2.0-2.0-0.0","28","76661","female","NaN","","","","null","NaN","0","","Stimuli/Practice_stims/Localizer/annie-spratt-g9KFpAfQ5bc-unsplash.jpg","1163478","0","NaN","","0","1","0","400","0","421","0","","","","","","","","","","","","","","","","","","","","","","","","","","","","","","","","","","","","","","","","","","","","","","","","","","","","",""
"","iti_localizer","","html-keyboard-response","57","1164219","0.0-2.0-2.0-1.0","28","76661","female","null","","","","null","","0","","","1163899","0","","","","","","300","400","320","421","300","","","","","","","","","","","","","","","","","","","","","","","","","","","","","","","","","","","","","","","","","","","","","","","","","","","",""
"","localizer","","html-keyboard-response","58","1164632","0.0-2.0-2.1-0.1","28","76661","female","NaN","","","","null","NaN","0","","Stimuli/Practice_stims/Localizer/annie-spratt-g9KFpAfQ5bc-unsplash.jpg","1164219","0","NaN","","0","1","0","400","700","413","741","","","","","","","","","","","","","","","","","","","","","","","","","","","","","","","","","","","","","","","","","","","","","","","","","","","","",""
"","iti_localizer","","html-keyboard-response","59","1164939","0.0-2.0-2.1-1.1","28","76661","female","null","","","","null","","0","","","1164632","0","","","","","","300","1100","307","1154","300","","","","","","","","","","","","","","","","","","","","","","","","","","","","","","","","","","","","","","","","","","","","","","","","","","","",""
"","localizer","","html-keyboard-response","60","1165389","0.0-2.0-2.2-0.2","28","76661","female","339","","","","68","0","0","","Stimuli/Practice_stims/Localizer/annie-spratt-g9KFpAfQ5bc-unsplash.jpg","1164939","0","NaN","","0","0","1","400","1400","450","1461","","","","","","","","","","","","","","","","","","","","","","","","","","","","","","","","","","","","","","","","","","","","","","","","","","","","",""
"","iti_localizer","","html-keyboard-response","61","1165703","0.0-2.0-2.2-1.2","28","76661","female","null","","","","null","","0","","","1165389","0","","","","","","300","1800","314","1911","300","","","","","","","","","","","","","","","","","","","","","","","","","","","","","","","","","","","","","","","","","","","","","","","","","","","",""
"","localizer","","html-keyboard-response","62","1166120","0.0-2.0-3.0-0.0","28","76661","female","1","","","","68","0","1","","Stimuli/Practice_stims/Localizer/becca-tapert-sY5RjMB1KkE-unsplash.jpg","1165703","0","NaN","","0","0","1","400","2100","417","2225","","","","","","","","","","","","","","","","","","","","","","","","","","","","","","","","","","","","","","","","","","","","","","","","","","","","",""
"","iti_localizer","","html-keyboard-response","63","1166436","0.0-2.0-3.0-1.0","28","76661","female","null","","","","null","","1","","","1166120","0","","","","","","300","2500","316","2642","300","","","","","","","","","","","","","","","","","","","","","","","","","","","","","","","","","","","","","","","","","","","","","","","","","","","",""
"","localizer","","html-keyboard-response","64","1166856","0.0-2.0-4.0-0.0","28","76661","female","245","","","","68","0","2","","Stimuli/Practice_stims/Localizer/charl-durand-bsfXvI25iNg-unsplash.jpg","1166436","0","NaN","","1","0","0","400","2800","420","2958","","","","","","","","","","","","","","","","","","","","","","","","","","","","","","","","","","","","","","","","","","","","","","","","","","","","",""
"","iti_localizer","","html-keyboard-response","65","1167174","0.0-2.0-4.0-1.0","28","76661","female","null","","","","null","","2","","","1166856","0","","","","","","300","3200","318","3378","300","","","","","","","","","","","","","","","","","","","","","","","","","","","","","","","","","","","","","","","","","","","","","","","","","","","",""
"","localizer","","html-keyboard-response","66","1167595","0.0-2.0-5.0-0.0","28","76661","female","404","","","","75","1","3","","Stimuli/Practice_stims/Localizer/nizar-albusaidy-B2r2SWAf5CE-unsplash.jpg","1167174","0","NaN","","0","0","0","400","3500","421","3696","","","","","","","","","","","","","","","","","","","","","","","","","","","","","","","","","","","","","","","","","","","","","","","","","","","","",""
"","iti_localizer","","html-keyboard-response","67","1167913","0.0-2.0-5.0-1.0","28","76661","female","null","","","","null","","3","","","1167595","0","","","","","","300","3900","318","4117","300","","","","","","","","","","","","","","","","","","","","","","","","","","","","","","","","","","","","","","","","","","","","","","","","","","","",""
"","localizer","","html-keyboard-response","68","1168324","0.0-2.0-6.0-0.0","28","76661","female","221","","","","75","1","4","","Stimuli/Practice_stims/Localizer/randy-fath-epf1tdtIIkM-unsplash.jpg","1167913","0","NaN","","1","0","1","400","4200","411","4435","","","","","","","","","","","","","","","","","","","","","","","","","","","","","","","","","","","","","","","","","","","","","","","","","","","","",""
"","iti_localizer","","html-keyboard-response","69","1168640","0.0-2.0-6.0-1.0","28","76661","female","null","","","","null","","4","","","1168324","0","","","","","","300","4600","316","4846","300","","","","","","","","","","","","","","","","","","","","","","","","","","","","","","","","","","","","","","","","","","","","","","","","","","","",""
"","localizer","","html-keyboard-response","70","1169055","0.0-2.0-7.0-0.0","28","76661","female","NaN","","","","null","NaN","5","","Stimuli/Practice_stims/Localizer/yassine-khalfalli-adsQ9d_Cx0c-unsplash.jpg","1168640","0","NaN","","0","1","0","400","4900","415","5162","","","","","","","","","","","","","","","","","","","","","","","","","","","","","","","","","","","","","","","","","","","","","","","","","","","","",""
"","iti_localizer","","html-keyboard-response","71","1169390","0.0-2.0-7.0-1.0","28","76661","female","null","","","","null","","5","","","1169055","0","","","","","","300","5300","335","5577","300","","","","","","","","","","","","","","","","","","","","","","","","","","","","","","","","","","","","","","","","","","","","","","","","","","","",""
"","localizer","","html-keyboard-response","72","1169806","0.0-2.0-7.1-0.1","28","76661","female","NaN","","","","null","NaN","5","","Stimuli/Practice_stims/Localizer/yassine-khalfalli-adsQ9d_Cx0c-unsplash.jpg","1169390","0","NaN","","0","1","0","400","5600","416","5912","","","","","","","","","","","","","","","","","","","","","","","","","","","","","","","","","","","","","","","","","","","","","","","","","","","","",""
"","iti_localizer","","html-keyboard-response","73","1170119","0.0-2.0-7.1-1.1","28","76661","female","null","","","","null","","5","","","1169806","0","","","","","","300","6000","313","6328","300","","","","","","","","","","","","","","","","","","","","","","","","","","","","","","","","","","","","","","","","","","","","","","","","","","","",""
"","localizer","","html-keyboard-response","74","1170536","0.0-2.0-7.2-0.2","28","76661","female","23","","","","68","0","5","","Stimuli/Practice_stims/Localizer/yassine-khalfalli-adsQ9d_Cx0c-unsplash.jpg","1170119","0","NaN","","0","0","1","400","6300","417","6641","","","","","","","","","","","","","","","","","","","","","","","","","","","","","","","","","","","","","","","","","","","","","","","","","","","","",""
"","iti_localizer","","html-keyboard-response","75","1170847","0.0-2.0-7.2-1.2","28","76661","female","null","","","","null","","5","","","1170536","0","","","","","","300","6700","311","7058","300","","","","","","","","","","","","","","","","","","","","","","","","","","","","","","","","","","","","","","","","","","","","","","","","","","","",""
"","practice_over","","html-keyboard-response","76","1171087","0.0-2.0-7.2-2.2-0.2","28","76661","female","232","","","","68","","","","","","","","","","","","","","","","","","","","","","","","","","","","","","","","","","","","","","","","","","","","","","","","","","","","","","","","","","","","","","","","","","","",""
"","start_run","","html-keyboard-response","77","1172987","0.0-2.0-7.2-2.2-1.2","28","76661","female","1891","","","","84","","","","","","","","","","","","","","","","","","","","","","","","","","","","","","","","","","","","","","","","","","","","","","","","","","","","","","","","","","","","","","","","","","","",""
"","localizer","","html-keyboard-response","78","1173402","0.0-2.0-8.0-0.0","28","76661","female","NaN","","","","null","NaN","6","","Stimuli/Experimental_stims/localizer/body_parts/igordoon-primus-CdyHqfrbGIs-unsplash.jpg","1172987","1","body_parts","","0","1","0","400","0","415","0","","","","","","","","","","","","","","","","","","","","","","","","","","","","","","","","","","","","","","","","","","","","","","","","","","","","",""
"","iti_localizer","","html-keyboard-response","79","1173712","0.0-2.0-8.0-1.0","28","76661","female","null","","","","null","","6","","","1173402","1","","","","","","300","400","310","415","300","","","","","","","","","","","","","","","","","","","","","","","","","","","","","","","","","","","","","","","","","","","","","","","","","","","",""
"","localizer","","html-keyboard-response","80","1174129","0.0-2.0-9.0-0.0","28","76661","female","228","","","","68","0","7","","Stimuli/Experimental_stims/localizer/body_parts/jonathan-borba-hTwH8QFkPMs-unsplash.jpg","1173712","1","body_parts","","0","0","1","400","700","417","725","","","","","","","","","","","","","","","","","","","","","","","","","","","","","","","","","","","","","","","","","","","","","","","","","","","","",""
"","iti_localizer","","html-keyboard-response","81","1174444","0.0-2.0-9.0-1.0","28","76661","female","null","","","","null","","7","","","1174129","1","","","","","","300","1100","315","1142","300","","","","","","","","","","","","","","","","","","","","","","","","","","","","","","","","","","","","","","","","","","","","","","","","","","","",""
"","localizer","","html-keyboard-response","82","1174861","0.0-2.0-10.0-0.0","28","76661","female","81","","","","68","0","8","","Stimuli/Experimental_stims/localizer/body_parts/marcel-fagin-OUYg0Q3ec-Y-unsplash.jpg","1174444","1","body_parts","","1","0","0","400","1400","417","1457","","","","","","","","","","","","","","","","","","","","","","","","","","","","","","","","","","","","","","","","","","","","","","","","","","","","",""
"","iti_localizer","","html-keyboard-response","83","1175172","0.0-2.0-10.0-1.0","28","76661","female","null","","","","null","","8","","","1174861","1","","","","","","300","1800","311","1874","300","","","","","","","","","","","","","","","","","","","","","","","","","","","","","","","","","","","","","","","","","","","","","","","","","","","",""
"","localizer","","html-keyboard-response","84","1175594","0.0-2.0-11.0-0.0","28","76661","female","NaN","","","","null","NaN","9","","Stimuli/Experimental_stims/localizer/body_parts/anelya-okapova-V69kmOyZ3SU-unsplash.jpg","1175172","1","body_parts","","0","1","0","400","2100","422","2185","","","","","","","","","","","","","","","","","","","","","","","","","","","","","","","","","","","","","","","","","","","","","","","","","","","","",""
"","iti_localizer","","html-keyboard-response","85","1175911","0.0-2.0-11.0-1.0","28","76661","female","null","","","","null","","9","","","1175594","1","","","","","","300","2500","317","2607","300","","","","","","","","","","","","","","","","","","","","","","","","","","","","","","","","","","","","","","","","","","","","","","","","","","","",""
"","localizer","","html-keyboard-response","86","1176329","0.0-2.0-12.0-0.0","28","76661","female","253","","","","68","0","10","","Stimuli/Experimental_stims/localizer/body_parts/jan-romero-DL4DDQb8yjc-unsplash.jpg","1175911","1","body_parts","","0","0","1","400","2800","418","2924","","","","","","","","","","","","","","","","","","","","","","","","","","","","","","","","","","","","","","","","","","","","","","","","","","","","",""
"","iti_localizer","","html-keyboard-response","87","1176640","0.0-2.0-12.0-1.0","28","76661","female","null","","","","null","","10","","","1176329","1","","","","","","300","3200","311","3342","300","","","","","","","","","","","","","","","","","","","","","","","","","","","","","","","","","","","","","","","","","","","","","","","","","","","",""
"","localizer","","html-keyboard-response","88","1177053","0.0-2.0-13.0-0.0","28","76661","female","89","","","","68","0","11","","Stimuli/Experimental_stims/localizer/body_parts/pure-julia-9lVaya31sMk-unsplash.jpg","1176640","1","body_parts","","0","0","1","400","3500","413","3653","","","","","","","","","","","","","","","","","","","","","","","","","","","","","","","","","","","","","","","","","","","","","","","","","","","","",""
"","iti_localizer","","html-keyboard-response","89","1177388","0.0-2.0-13.0-1.0","28","76661","female","null","","","","null","","11","","","1177053","1","","","","","","300","3900","335","4066","300","","","","","","","","","","","","","","","","","","","","","","","","","","","","","","","","","","","","","","","","","","","","","","","","","","","",""
"","localizer","","html-keyboard-response","90","1177815","0.0-2.0-14.0-0.0","28","76661","female","NaN","","","","null","NaN","12","","Stimuli/Experimental_stims/localizer/body_parts/jasper-garratt-Ng_Kl7K6V8Y-unsplash.jpg","1177388","1","body_parts","","0","1","0","400","4200","427","4401","","","","","","","","","","","","","","","","","","","","","","","","","","","","","","","","","","","","","","","","","","","","","","","","","","","","",""
"","iti_localizer","","html-keyboard-response","91","1178126","0.0-2.0-14.0-1.0","28","76661","female","null","","","","null","","12","","","1177815","1","","","","","","300","4600","311","4828","300","","","","","","","","","","","","","","","","","","","","","","","","","","","","","","","","","","","","","","","","","","","","","","","","","","","",""
"","localizer","","html-keyboard-response","92","1178544","0.0-2.0-15.0-0.0","28","76661","female","NaN","","","","null","NaN","13","","Stimuli/Experimental_stims/localizer/body_parts/i-am_nah--S4OsO0c6Ts-unsplash.jpg","1178126","1","body_parts","","0","1","0","400","4900","418","5139","","","","","","","","","","","","","","","","","","","","","","","","","","","","","","","","","","","","","","","","","","","","","","","","","","","","",""
"","iti_localizer","","html-keyboard-response","93","1178862","0.0-2.0-15.0-1.0","28","76661","female","null","","","","null","","13","","","1178544","1","","","","","","300","5300","318","5557","300","","","","","","","","","","","","","","","","","","","","","","","","","","","","","","","","","","","","","","","","","","","","","","","","","","","",""
"","localizer","","html-keyboard-response","94","1179398","0.0-2.0-16.0-0.0","28","76661","female","NaN","","","","null","NaN","14","","Stimuli/Experimental_stims/localizer/body_parts/femme-spirit-RGYBDUHYbyM-unsplash.jpg","1178862","1","body_parts","","0","1","0","400","5600","536","5875","","","","","","","","","","","","","","","","","","","","","","","","","","","","","","","","","","","","","","","","","","","","","","","","","","","","",""
"","iti_localizer","","html-keyboard-response","95","1179707","0.0-2.0-16.0-1.0","28","76661","female","null","","","","null","","14","","","1179398","1","","","","","","300","6000","309","6411","300","","","","","","","","","","","","","","","","","","","","","","","","","","","","","","","","","","","","","","","","","","","","","","","","","","","",""
"","localizer","","html-keyboard-response","96","1180123","0.0-2.0-17.0-0.0","28","76661","female","NaN","","","","null","NaN","15","","Stimuli/Experimental_stims/localizer/body_parts/liv-bruce-M0oVPGsWk1E-unsplash.jpg","1179707","1","body_parts","","0","1","0","400","6300","416","6720","","","","","","","","","","","","","","","","","","","","","","","","","","","","","","","","","","","","","","","","","","","","","","","","","","","","",""
"","iti_localizer","","html-keyboard-response","97","1180436","0.0-2.0-17.0-1.0","28","76661","female","null","","","","null","","15","","","1180123","1","","","","","","300","6700","313","7136","300","","","","","","","","","","","","","","","","","","","","","","","","","","","","","","","","","","","","","","","","","","","","","","","","","","","",""
"","localizer","","html-keyboard-response","98","1180845","0.0-2.0-18.0-0.0","28","76661","female","376","","","","68","0","16","","Stimuli/Experimental_stims/localizer/body_parts/bady-abbas-N-VEeMnm7gE-unsplash.jpg","1180436","1","body_parts","","0","0","1","400","7000","409","7449","","","","","","","","","","","","","","","","","","","","","","","","","","","","","","","","","","","","","","","","","","","","","","","","","","","","",""
"","iti_localizer","","html-keyboard-response","99","1181161","0.0-2.0-18.0-1.0","28","76661","female","null","","","","null","","16","","","1180845","1","","","","","","300","7400","316","7858","300","","","","","","","","","","","","","","","","","","","","","","","","","","","","","","","","","","","","","","","","","","","","","","","","","","","",""
"","localizer","","html-keyboard-response","100","1181580","0.0-2.0-19.0-0.0","28","76661","female","288","","","","68","0","17","","Stimuli/Experimental_stims/localizer/body_parts/lucaxx-freire-CacZwMexYdk-unsplash.jpg","1181161","1","body_parts","","0","0","1","400","7700","419","8174","","","","","","","","","","","","","","","","","","","","","","","","","","","","","","","","","","","","","","","","","","","","","","","","","","","","",""
"","iti_localizer","","html-keyboard-response","101","1181893","0.0-2.0-19.0-1.0","28","76661","female","null","","","","null","","17","","","1181580","1","","","","","","300","8100","313","8593","300","","","","","","","","","","","","","","","","","","","","","","","","","","","","","","","","","","","","","","","","","","","","","","","","","","","",""
"","localizer","","html-keyboard-response","102","1182304","0.0-2.0-20.0-0.0","28","76661","female","245","","","","68","0","18","","Stimuli/Experimental_stims/localizer/body_parts/hu-chen-tCbTGNwrFNM-unsplash.jpg","1181893","1","body_parts","","0","0","1","400","8400","411","8906","","","","","","","","","","","","","","","","","","","","","","","","","","","","","","","","","","","","","","","","","","","","","","","","","","","","",""
"","iti_localizer","","html-keyboard-response","103","1182624","0.0-2.0-20.0-1.0","28","76661","female","null","","","","null","","18","","","1182304","1","","","","","","300","8800","320","9317","300","","","","","","","","","","","","","","","","","","","","","","","","","","","","","","","","","","","","","","","","","","","","","","","","","","","",""
"","localizer","","html-keyboard-response","104","1183035","0.0-2.0-21.0-0.0","28","76661","female","204","","","","68","0","19","","Stimuli/Experimental_stims/localizer/body_parts/megan-menegay-UojxG_BJxnI-unsplash.jpg","1182624","1","body_parts","","0","0","1","400","9100","411","9637","","","","","","","","","","","","","","","","","","","","","","","","","","","","","","","","","","","","","","","","","","","","","","","","","","","","",""
"","iti_localizer","","html-keyboard-response","105","1183353","0.0-2.0-21.0-1.0","28","76661","female","null","","","","null","","19","","","1183035","1","","","","","","300","9500","318","10048","300","","","","","","","","","","","","","","","","","","","","","","","","","","","","","","","","","","","","","","","","","","","","","","","","","","","",""
"","localizer","","html-keyboard-response","106","1183776","0.0-2.0-22.0-0.0","28","76661","female","253","","","","68","0","20","","Stimuli/Experimental_stims/localizer/body_parts/toan-nguyen-VIeLuUFzesg-unsplash.jpg","1183353","1","body_parts","","1","0","0","400","9800","423","10366","","","","","","","","","","","","","","","","","","","","","","","","","","","","","","","","","","","","","","","","","","","","","","","","","","","","",""
"","iti_localizer","","html-keyboard-response","107","1184098","0.0-2.0-22.0-1.0","28","76661","female","null","","","","null","","20","","","1183776","1","","","","","","300","10200","322","10789","300","","","","","","","","","","","","","","","","","","","","","","","","","","","","","","","","","","","","","","","","","","","","","","","","","","","",""
"","localizer","","html-keyboard-response","108","1184506","0.0-2.0-23.0-0.0","28","76661","female","2","","","","75","1","21","","Stimuli/Experimental_stims/localizer/body_parts/sippakorn-yamkasikorn-32_sJlJa5gA-unsplash.jpg","1184098","1","body_parts","","0","0","0","400","10500","408","11111","","","","","","","","","","","","","","","","","","","","","","","","","","","","","","","","","","","","","","","","","","","","","","","","","","","","",""
"","iti_localizer","","html-keyboard-response","109","1184822","0.0-2.0-23.0-1.0","28","76661","female","null","","","","null","","21","","","1184506","1","","","","","","300","10900","316","11519","300","","","","","","","","","","","","","","","","","","","","","","","","","","","","","","","","","","","","","","","","","","","","","","","","","","","",""
"","localizer","","html-keyboard-response","110","1185269","0.0-2.0-24.0-0.0","28","76661","female","NaN","","","","null","NaN","22","","Stimuli/Experimental_stims/localizer/body_parts/louis-hansel-FjKTMRTQYAs-unsplash.jpg","1184822","1","body_parts","","0","1","0","400","11200","447","11835","","","","","","","","","","","","","","","","","","","","","","","","","","","","","","","","","","","","","","","","","","","","","","","","","","","","",""
"","iti_localizer","","html-keyboard-response","111","1185577","0.0-2.0-24.0-1.0","28","76661","female","null","","","","null","","22","","","1185269","1","","","","","","300","11600","308","12282","300","","","","","","","","","","","","","","","","","","","","","","","","","","","","","","","","","","","","","","","","","","","","","","","","","","","",""
"","localizer","","html-keyboard-response","112","1185989","0.0-2.0-25.0-0.0","28","76661","female","NaN","","","","null","NaN","23","","Stimuli/Experimental_stims/localizer/body_parts/sydney-herron-b2W04fGuS70-unsplash.jpg","1185577","1","body_parts","","0","1","0","400","11900","412","12590","","","","","","","","","","","","","","","","","","","","","","","","","","","","","","","","","","","","","","","","","","","","","","","","","","","","",""
"","iti_localizer","","html-keyboard-response","113","1186297","0.0-2.0-25.0-1.0","28","76661","female","null","","","","null","","23","","","1185989","1","","","","","","300","12300","308","13002","300","","","","","","","","","","","","","","","","","","","","","","","","","","","","","","","","","","","","","","","","","","","","","","","","","","","",""
"","localizer","","html-keyboard-response","114","1186716","0.0-2.0-26.0-0.0","28","76661","female","NaN","","","","null","NaN","24","","Stimuli/Experimental_stims/localizer/body_parts/danie-franco-jyyNiSEcCl4-unsplash.jpg","1186297","1","body_parts","","0","1","0","400","12600","419","13310","","","","","","","","","","","","","","","","","","","","","","","","","","","","","","","","","","","","","","","","","","","","","","","","","","","","",""
"","iti_localizer","","html-keyboard-response","115","1187024","0.0-2.0-26.0-1.0","28","76661","female","null","","","","null","","24","","","1186716","1","","","","","","300","13000","308","13729","300","","","","","","","","","","","","","","","","","","","","","","","","","","","","","","","","","","","","","","","","","","","","","","","","","","","",""
"","localizer","","html-keyboard-response","116","1187475","0.0-2.0-27.0-0.0","28","76661","female","NaN","","","","null","NaN","25","","Stimuli/Experimental_stims/localizer/body_parts/ramesh-iyer-CRhznMXoJlc-unsplash.jpg","1187024","1","body_parts","","0","1","0","400","13300","451","14037","","","","","","","","","","","","","","","","","","","","","","","","","","","","","","","","","","","","","","","","","","","","","","","","","","","","",""
"","iti_localizer","","html-keyboard-response","117","1201498","0.0-2.0-27.0-1.0","28","76661","female","null","","","","null","","25","","","1187475","1","","","","","","14000","13700","14023","14488","14000","","","","","","","","","","","","","","","","","","","","","","","","","","","","","","","","","","","","","","","","","","","","","","","","","","","",""
"","localizer","","html-keyboard-response","118","1201930","0.0-2.0-28.0-0.0","28","76661","female","NaN","","","","null","NaN","26","","Stimuli/Experimental_stims/localizer/objects/adriano-pucciarelli-BE7yaZnZX6o-unsplash.jpg","1201498","1","objects","","0","1","0","400","27700","432","28511","","","","","","","","","","","","","","","","","","","","","","","","","","","","","","","","","","","","","","","","","","","","","","","","","","","","",""
"","iti_localizer","","html-keyboard-response","119","1202242","0.0-2.0-28.0-1.0","28","76661","female","null","","","","null","","26","","","1201930","1","","","","","","300","28100","312","28943","300","","","","","","","","","","","","","","","","","","","","","","","","","","","","","","","","","","","","","","","","","","","","","","","","","","","",""
"","localizer","","html-keyboard-response","120","1202659","0.0-2.0-29.0-0.0","28","76661","female","232","","","","68","0","27","","Stimuli/Experimental_stims/localizer/objects/petr-sidorov-3jm5TGqtULU-unsplash.jpg","1202242","1","objects","","0","0","1","400","28400","417","29255","","","","","","","","","","","","","","","","","","","","","","","","","","","","","","","","","","","","","","","","","","","","","","","","","","","","",""
"","iti_localizer","","html-keyboard-response","121","1202970","0.0-2.0-29.0-1.0","28","76661","female","null","","","","null","","27","","","1202659","1","","","","","","300","28800","311","29672","300","","","","","","","","","","","","","","","","","","","","","","","","","","","","","","","","","","","","","","","","","","","","","","","","","","","",""
"","localizer","","html-keyboard-response","122","1203428","0.0-2.0-30.0-0.0","28","76661","female","113","","","","68","0","28","","Stimuli/Experimental_stims/localizer/objects/carlos-felipe-ramirez-mesa-HW7bfB3ERSQ-unsplash.jpg","1202970","1","objects","","0","0","1","400","29100","458","29983","","","","","","","","","","","","","","","","","","","","","","","","","","","","","","","","","","","","","","","","","","","","","","","","","","","","",""
"","iti_localizer","","html-keyboard-response","123","1203750","0.0-2.0-30.0-1.0","28","76661","female","null","","","","null","","28","","","1203428","1","","","","","","300","29500","322","30441","300","","","","","","","","","","","","","","","","","","","","","","","","","","","","","","","","","","","","","","","","","","","","","","","","","","","",""
"","localizer","","html-keyboard-response","124","1204171","0.0-2.0-31.0-0.0","28","76661","female","NaN","","","","null","NaN","29","","Stimuli/Experimental_stims/localizer/objects/raimond-klavins-ZdvDPXVvcKs-unsplash.jpg","1203750","1","objects","","1","1","0","400","29800","421","30763","","","","","","","","","","","","","","","","","","","","","","","","","","","","","","","","","","","","","","","","","","","","","","","","","","","","",""
"","iti_localizer","","html-keyboard-response","125","1204494","0.0-2.0-31.0-1.0","28","76661","female","null","","","","null","","29","","","1204171","1","","","","","","300","30200","323","31184","300","","","","","","","","","","","","","","","","","","","","","","","","","","","","","","","","","","","","","","","","","","","","","","","","","","","",""
"","localizer","","html-keyboard-response","126","1204923","0.0-2.0-32.0-0.0","28","76661","female","199","","","","75","1","30","","Stimuli/Experimental_stims/localizer/objects/adriano-pucciarelli-Jl3S1yM8gi8-unsplash.jpg","1204494","1","objects","","0","0","0","400","30500","429","31507","","","","","","","","","","","","","","","","","","","","","","","","","","","","","","","","","","","","","","","","","","","","","","","","","","","","",""
"","iti_localizer","","html-keyboard-response","127","1205337","0.0-2.0-32.0-1.0","28","76661","female","null","","","","null","","30","","","1204923","1","","","","","","300","30900","414","31936","300","","","","","","","","","","","","","","","","","","","","","","","","","","","","","","","","","","","","","","","","","","","","","","","","","","","",""
"","localizer","","html-keyboard-response","128","1205756","0.0-2.0-33.0-0.0","28","76661","female","207","","","","75","1","31","","Stimuli/Experimental_stims/localizer/objects/engin-akyurt-bbbKzTmY2Gg-unsplash.jpg","1205337","1","objects","","0","0","0","400","31200","419","32350","","","","","","","","","","","","","","","","","","","","","","","","","","","","","","","","","","","","","","","","","","","","","","","","","","","","",""
"","iti_localizer","","html-keyboard-response","129","1206078","0.0-2.0-33.0-1.0","28","76661","female","null","","","","null","","31","","","1205756","1","","","","","","300","31600","322","32769","300","","","","","","","","","","","","","","","","","","","","","","","","","","","","","","","","","","","","","","","","","","","","","","","","","","","",""
"","localizer","","html-keyboard-response","130","1206497","0.0-2.0-34.0-0.0","28","76661","female","247","","","","68","0","32","","Stimuli/Experimental_stims/localizer/objects/sam-moghadam-khamseh-kvmdsTrGOBM-unsplash.jpg","1206078","1","objects","","0","0","1","400","31900","419","33091","","","","","","","","","","","","","","","","","","","","","","","","","","","","","","","","","","","","","","","","","","","","","","","","","","","","",""
"","iti_localizer","","html-keyboard-response","131","1206812","0.0-2.0-34.0-1.0","28","76661","female","null","","","","null","","32","","","1206497","1","","","","","","300","32300","315","33510","300","","","","","","","","","","","","","","","","","","","","","","","","","","","","","","","","","","","","","","","","","","","","","","","","","","","",""
"","localizer","","html-keyboard-response","132","1207221","0.0-2.0-35.0-0.0","28","76661","female","186","","","","68","0","33","","Stimuli/Experimental_stims/localizer/objects/jiangxulei1990-eIzzzwtkBjU-unsplash.jpg","1206812","1","objects","","0","0","1","400","32600","409","33825","","","","","","","","","","","","","","","","","","","","","","","","","","","","","","","","","","","","","","","","","","","","","","","","","","","","",""
"","iti_localizer","","html-keyboard-response","133","1207558","0.0-2.0-35.0-1.0","28","76661","female","null","","","","null","","33","","","1207221","1","","","","","","300","33000","337","34234","300","","","","","","","","","","","","","","","","","","","","","","","","","","","","","","","","","","","","","","","","","","","","","","","","","","","",""
"","localizer","","html-keyboard-response","134","1207975","0.0-2.0-36.0-0.0","28","76661","female","37","","","","68","0","34","","Stimuli/Experimental_stims/localizer/objects/florian-klauer-nptLmg6jqDo-unsplash.jpg","1207558","1","objects","","0","0","1","400","33300","417","34571","","","","","","","","","","","","","","","","","","","","","","","","","","","","","","","","","","","","","","","","","","","","","","","","","","","","",""
"","iti_localizer","","html-keyboard-response","135","1208295","0.0-2.0-36.0-1.0","28","76661","female","null","","","","null","","34","","","1207975","1","","","","","","300","33700","320","34988","300","","","","","","","","","","","","","","","","","","","","","","","","","","","","","","","","","","","","","","","","","","","","","","","","","","","",""
"","localizer","","html-keyboard-response","136","1208706","0.0-2.0-37.0-0.0","28","76661","female","NaN","","","","null","NaN","35","","Stimuli/Experimental_stims/localizer/objects/ignat-dolomanov-kFBDVnmskPA-unsplash.jpg","1208295","1","objects","","0","1","0","400","34000","411","35308","","","","","","","","","","","","","","","","","","","","","","","","","","","","","","","","","","","","","","","","","","","","","","","","","","","","",""
"","iti_localizer","","html-keyboard-response","137","1209022","0.0-2.0-37.0-1.0","28","76661","female","null","","","","null","","35","","","1208706","1","","","","","","300","34400","316","35719","300","","","","","","","","","","","","","","","","","","","","","","","","","","","","","","","","","","","","","","","","","","","","","","","","","","","",""
"","localizer","","html-keyboard-response","138","1209440","0.0-2.0-38.0-0.0","28","76661","female","NaN","","","","null","NaN","36","","Stimuli/Experimental_stims/localizer/objects/andrew-petrov-TVJqDat4MAw-unsplash.jpg","1209022","1","objects","","0","1","0","400","34700","418","36035","","","","","","","","","","","","","","","","","","","","","","","","","","","","","","","","","","","","","","","","","","","","","","","","","","","","",""
"","iti_localizer","","html-keyboard-response","139","1209755","0.0-2.0-38.0-1.0","28","76661","female","null","","","","null","","36","","","1209440","1","","","","","","300","35100","315","36453","300","","","","","","","","","","","","","","","","","","","","","","","","","","","","","","","","","","","","","","","","","","","","","","","","","","","",""
"","localizer","","html-keyboard-response","140","1210172","0.0-2.0-39.0-0.0","28","76661","female","364","","","","68","0","37","","Stimuli/Experimental_stims/localizer/objects/sam-moghadam-khamseh-L_7MQsHl_aU-unsplash.jpg","1209755","1","objects","","0","0","1","400","35400","417","36768","","","","","","","","","","","","","","","","","","","","","","","","","","","","","","","","","","","","","","","","","","","","","","","","","","","","",""
"","iti_localizer","","html-keyboard-response","141","1210491","0.0-2.0-39.0-1.0","28","76661","female","null","","","","null","","37","","","1210172","1","","","","","","300","35800","319","37185","300","","","","","","","","","","","","","","","","","","","","","","","","","","","","","","","","","","","","","","","","","","","","","","","","","","","",""
"","localizer","","html-keyboard-response","142","1210907","0.0-2.0-40.0-0.0","28","76661","female","255","","","","68","0","38","","Stimuli/Experimental_stims/localizer/objects/ana-9GmAaEMMKho-unsplash.jpg","1210491","1","objects","","0","0","1","400","36100","416","37504","","","","","","","","","","","","","","","","","","","","","","","","","","","","","","","","","","","","","","","","","","","","","","","","","","","","",""
"","iti_localizer","","html-keyboard-response","143","1211299","0.0-2.0-40.0-1.0","28","76661","female","null","","","","null","","38","","","1210907","1","","","","","","300","36500","392","37920","300","","","","","","","","","","","","","","","","","","","","","","","","","","","","","","","","","","","","","","","","","","","","","","","","","","","",""
"","localizer","","html-keyboard-response","144","1211722","0.0-2.0-41.0-0.0","28","76661","female","72","","","","68","0","39","","Stimuli/Experimental_stims/localizer/objects/mockup-graphics-U6ZMEefFGx8-unsplash.jpg","1211299","1","objects","","0","0","1","400","36800","423","38312","","","","","","","","","","","","","","","","","","","","","","","","","","","","","","","","","","","","","","","","","","","","","","","","","","","","",""
"","iti_localizer","","html-keyboard-response","145","1212035","0.0-2.0-41.0-1.0","28","76661","female","null","","","","null","","39","","","1211722","1","","","","","","300","37200","313","38735","300","","","","","","","","","","","","","","","","","","","","","","","","","","","","","","","","","","","","","","","","","","","","","","","","","","","",""
"","localizer","","html-keyboard-response","146","1212448","0.0-2.0-42.0-0.0","28","76661","female","NaN","","","","null","NaN","40","","Stimuli/Experimental_stims/localizer/objects/kelly-jean-cKjbI0Y00X0-unsplash.jpg","1212035","1","objects","","0","1","0","400","37500","413","39048","","","","","","","","","","","","","","","","","","","","","","","","","","","","","","","","","","","","","","","","","","","","","","","","","","","","",""
"","iti_localizer","","html-keyboard-response","147","1212755","0.0-2.0-42.0-1.0","28","76661","female","null","","","","null","","40","","","1212448","1","","","","","","300","37900","307","39461","300","","","","","","","","","","","","","","","","","","","","","","","","","","","","","","","","","","","","","","","","","","","","","","","","","","","",""
"","localizer","","html-keyboard-response","148","1213191","0.0-2.0-43.0-0.0","28","76661","female","NaN","","","","null","NaN","41","","Stimuli/Experimental_stims/localizer/objects/eugene-chystiakov-3neSwyntbQ8-unsplash.jpg","1212755","1","objects","","0","1","0","400","38200","436","39768","","","","","","","","","","","","","","","","","","","","","","","","","","","","","","","","","","","","","","","","","","","","","","","","","","","","",""
"","iti_localizer","","html-keyboard-response","149","1213504","0.0-2.0-43.0-1.0","28","76661","female","null","","","","null","","41","","","1213191","1","","","","","","300","38600","313","40204","300","","","","","","","","","","","","","","","","","","","","","","","","","","","","","","","","","","","","","","","","","","","","","","","","","","","",""
"","localizer","","html-keyboard-response","150","1213924","0.0-2.0-44.0-0.0","28","76661","female","NaN","","","","null","NaN","42","","Stimuli/Experimental_stims/localizer/objects/lance-reis-v0FYj9iioQg-unsplash.jpg","1213504","1","objects","","0","1","0","400","38900","420","40517","","","","","","","","","","","","","","","","","","","","","","","","","","","","","","","","","","","","","","","","","","","","","","","","","","","","",""
"","iti_localizer","","html-keyboard-response","151","1214245","0.0-2.0-44.0-1.0","28","76661","female","null","","","","null","","42","","","1213924","1","","","","","","300","39300","321","40937","300","","","","","","","","","","","","","","","","","","","","","","","","","","","","","","","","","","","","","","","","","","","","","","","","","","","",""
"","localizer","","html-keyboard-response","152","1214661","0.0-2.0-45.0-0.0","28","76661","female","323","","","","68","0","43","","Stimuli/Experimental_stims/localizer/objects/annie-spratt-fbAnIjhrOL4-unsplash.jpg","1214245","1","objects","","0","0","1","400","39600","416","41258","","","","","","","","","","","","","","","","","","","","","","","","","","","","","","","","","","","","","","","","","","","","","","","","","","","","",""
"","iti_localizer","","html-keyboard-response","153","1214972","0.0-2.0-45.0-1.0","28","76661","female","null","","","","null","","43","","","1214661","1","","","","","","300","40000","311","41674","300","","","","","","","","","","","","","","","","","","","","","","","","","","","","","","","","","","","","","","","","","","","","","","","","","","","",""
"","localizer","","html-keyboard-response","154","1215383","0.0-2.0-46.0-0.0","28","76661","female","272","","","","68","0","44","","Stimuli/Experimental_stims/localizer/objects/mockup-graphics-Pj2PY-E-LfM-unsplash.jpg","1214972","1","objects","","1","0","0","400","40300","411","41985","","","","","","","","","","","","","","","","","","","","","","","","","","","","","","","","","","","","","","","","","","","","","","","","","","","","",""
"","iti_localizer","","html-keyboard-response","155","1215704","0.0-2.0-46.0-1.0","28","76661","female","null","","","","null","","44","","","1215383","1","","","","","","300","40700","321","42396","300","","","","","","","","","","","","","","","","","","","","","","","","","","","","","","","","","","","","","","","","","","","","","","","","","","","",""
"","localizer","","html-keyboard-response","156","1216119","0.0-2.0-47.0-0.0","28","76661","female","29","","","","75","1","45","","Stimuli/Experimental_stims/localizer/objects/dario-mendez-hnJ2VNZzbns-unsplash.jpg","1215704","1","objects","","0","0","0","400","41000","415","42717","","","","","","","","","","","","","","","","","","","","","","","","","","","","","","","","","","","","","","","","","","","","","","","","","","","","",""
"","iti_localizer","","html-keyboard-response","157","1230156","0.0-2.0-47.0-1.0","28","76661","female","null","","","","null","","45","","","1216119","1","","","","","","14000","41400","14037","43132","14000","","","","","","","","","","","","","","","","","","","","","","","","","","","","","","","","","","","","","","","","","","","","","","","","","","","",""
"","localizer","","html-keyboard-response","158","1230573","0.0-2.0-48.0-0.0","28","76661","female","NaN","","","","null","NaN","46","","Stimuli/Experimental_stims/localizer/faces/christian-ferrer-8vT-DgHZDG4-unsplash.jpg","1230156","1","faces","","1","1","0","400","55400","417","57169","","","","","","","","","","","","","","","","","","","","","","","","","","","","","","","","","","","","","","","","","","","","","","","","","","","","",""
"","iti_localizer","","html-keyboard-response","159","1230887","0.0-2.0-48.0-1.0","28","76661","female","null","","","","null","","46","","","1230573","1","","","","","","300","55800","314","57586","300","","","","","","","","","","","","","","","","","","","","","","","","","","","","","","","","","","","","","","","","","","","","","","","","","","","",""
"","localizer","","html-keyboard-response","160","1231332","0.0-2.0-49.0-0.0","28","76661","female","NaN","","","","null","NaN","47","","Stimuli/Experimental_stims/localizer/faces/mathias-huysmans-U4JDjYmjn1g-unsplash.jpg","1230887","1","faces","","0","1","0","400","56100","445","57900","","","","","","","","","","","","","","","","","","","","","","","","","","","","","","","","","","","","","","","","","","","","","","","","","","","","",""
"","iti_localizer","","html-keyboard-response","161","1231653","0.0-2.0-49.0-1.0","28","76661","female","null","","","","null","","47","","","1231332","1","","","","","","300","56500","321","58345","300","","","","","","","","","","","","","","","","","","","","","","","","","","","","","","","","","","","","","","","","","","","","","","","","","","","",""
"","localizer","","html-keyboard-response","162","1232075","0.0-2.0-50.0-0.0","28","76661","female","NaN","","","","null","NaN","48","","Stimuli/Experimental_stims/localizer/faces/filipe-almeida-mnEWC72eWDM-unsplash.jpg","1231653","1","faces","","0","1","0","400","56800","422","58666","","","","","","","","","","","","","","","","","","","","","","","","","","","","","","","","","","","","","","","","","","","","","","","","","","","","",""
"","iti_localizer","","html-keyboard-response","163","1232386","0.0-2.0-50.0-1.0","28","76661","female","null","","","","null","","48","","","1232075","1","","","","","","300","57200","311","59088","300","","","","","","","","","","","","","","","","","","","","","","","","","","","","","","","","","","","","","","","","","","","","","","","","","","","",""
"","localizer","","html-keyboard-response","164","1232812","0.0-2.0-51.0-0.0","28","76661","female","346","","","","68","0","49","","Stimuli/Experimental_stims/localizer/faces/midas-hofstra-tidSLv-UaNs-unsplash.jpg","1232386","1","faces","","0","0","1","400","57500","426","59399","","","","","","","","","","","","","","","","","","","","","","","","","","","","","","","","","","","","","","","","","","","","","","","","","","","","",""
"","iti_localizer","","html-keyboard-response","165","1233132","0.0-2.0-51.0-1.0","28","76661","female","null","","","","null","","49","","","1232812","1","","","","","","300","57900","320","59825","300","","","","","","","","","","","","","","","","","","","","","","","","","","","","","","","","","","","","","","","","","","","","","","","","","","","",""
"","localizer","","html-keyboard-response","166","1233624","0.0-2.0-52.0-0.0","28","76661","female","288","","","","68","0","50","","Stimuli/Experimental_stims/localizer/faces/darshan-patel-QJEVpydulGs-unsplash.jpg","1233132","1","faces","","0","0","1","400","58200","492","60145","","","","","","","","","","","","","","","","","","","","","","","","","","","","","","","","","","","","","","","","","","","","","","","","","","","","",""
"","iti_localizer","","html-keyboard-response","167","1233931","0.0-2.0-52.0-1.0","28","76661","female","null","","","","null","","50","","","1233624","1","","","","","","300","58600","307","60637","300","","","","","","","","","","","","","","","","","","","","","","","","","","","","","","","","","","","","","","","","","","","","","","","","","","","",""
"","localizer","","html-keyboard-response","168","1234344","0.0-2.0-53.0-0.0","28","76661","female","NaN","","","","null","NaN","51","","Stimuli/Experimental_stims/localizer/faces/ivan-dodig-R21SyyJDFgc-unsplash.jpg","1233931","1","faces","","0","1","0","400","58900","413","60944","","","","","","","","","","","","","","","","","","","","","","","","","","","","","","","","","","","","","","","","","","","","","","","","","","","","",""
"","iti_localizer","","html-keyboard-response","169","1234661","0.0-2.0-53.0-1.0","28","76661","female","null","","","","null","","51","","","1234344","1","","","","","","300","59300","317","61357","300","","","","","","","","","","","","","","","","","","","","","","","","","","","","","","","","","","","","","","","","","","","","","","","","","","","",""
"","localizer","","html-keyboard-response","170","1235084","0.0-2.0-54.0-0.0","28","76661","female","NaN","","","","null","NaN","52","","Stimuli/Experimental_stims/localizer/faces/austin-wade-X6Uj51n5CE8-unsplash.jpg","1234661","1","faces","","0","1","0","400","59600","423","61674","","","","","","","","","","","","","","","","","","","","","","","","","","","","","","","","","","","","","","","","","","","","","","","","","","","","",""
"","iti_localizer","","html-keyboard-response","171","1235407","0.0-2.0-54.0-1.0","28","76661","female","null","","","","null","","52","","","1235084","1","","","","","","300","60000","323","62097","300","","","","","","","","","","","","","","","","","","","","","","","","","","","","","","","","","","","","","","","","","","","","","","","","","","","",""
"","localizer","","html-keyboard-response","172","1235845","0.0-2.0-55.0-0.0","28","76661","female","NaN","","","","null","NaN","53","","Stimuli/Experimental_stims/localizer/faces/linkedin-sales-solutions-pAtA8xe_iVM-unsplash.jpg","1235407","1","faces","","0","1","0","400","60300","438","62420","","","","","","","","","","","","","","","","","","","","","","","","","","","","","","","","","","","","","","","","","","","","","","","","","","","","",""
"","iti_localizer","","html-keyboard-response","173","1236153","0.0-2.0-55.0-1.0","28","76661","female","null","","","","null","","53","","","1235845","1","","","","","","300","60700","308","62858","300","","","","","","","","","","","","","","","","","","","","","","","","","","","","","","","","","","","","","","","","","","","","","","","","","","","",""
"","localizer","","html-keyboard-response","174","1236564","0.0-2.0-56.0-0.0","28","76661","female","372","","","","68","0","54","","Stimuli/Experimental_stims/localizer/faces/pavel-anoshin-d0peGya6R5Y-unsplash.jpg","1236153","1","faces","","0","0","1","400","61000","411","63166","","","","","","","","","","","","","","","","","","","","","","","","","","","","","","","","","","","","","","","","","","","","","","","","","","","","",""
"","iti_localizer","","html-keyboard-response","175","1236876","0.0-2.0-56.0-1.0","28","76661","female","null","","","","null","","54","","","1236564","1","","","","","","300","61400","312","63577","300","","","","","","","","","","","","","","","","","","","","","","","","","","","","","","","","","","","","","","","","","","","","","","","","","","","",""
"","localizer","","html-keyboard-response","176","1237301","0.0-2.0-57.0-0.0","28","76661","female","276","","","","68","0","55","","Stimuli/Experimental_stims/localizer/faces/jeffery-erhunse-vp9mRauo68c-unsplash.jpg","1236876","1","faces","","0","0","1","400","61700","425","63889","","","","","","","","","","","","","","","","","","","","","","","","","","","","","","","","","","","","","","","","","","","","","","","","","","","","",""
"","iti_localizer","","html-keyboard-response","177","1237621","0.0-2.0-57.0-1.0","28","76661","female","null","","","","null","","55","","","1237301","1","","","","","","300","62100","320","64314","300","","","","","","","","","","","","","","","","","","","","","","","","","","","","","","","","","","","","","","","","","","","","","","","","","","","",""
"","localizer","","html-keyboard-response","178","1238039","0.0-2.0-58.0-0.0","28","76661","female","250","","","","68","0","56","","Stimuli/Experimental_stims/localizer/faces/aatik-tasneem-7omHUGhhmZ0-unsplash.jpg","1237621","1","faces","","0","0","1","400","62400","418","64634","","","","","","","","","","","","","","","","","","","","","","","","","","","","","","","","","","","","","","","","","","","","","","","","","","","","",""
"","iti_localizer","","html-keyboard-response","179","1238356","0.0-2.0-58.0-1.0","28","76661","female","null","","","","null","","56","","","1238039","1","","","","","","300","62800","317","65052","300","","","","","","","","","","","","","","","","","","","","","","","","","","","","","","","","","","","","","","","","","","","","","","","","","","","",""
"","localizer","","html-keyboard-response","180","1238777","0.0-2.0-59.0-0.0","28","76661","female","250","","","","68","0","57","","Stimuli/Experimental_stims/localizer/faces/abstral-official-cyOKLSgkgCE-unsplash.jpg","1238356","1","faces","","0","0","1","400","63100","421","65369","","","","","","","","","","","","","","","","","","","","","","","","","","","","","","","","","","","","","","","","","","","","","","","","","","","","",""
"","iti_localizer","","html-keyboard-response","181","1239089","0.0-2.0-59.0-1.0","28","76661","female","null","","","","null","","57","","","1238777","1","","","","","","300","63500","312","65790","300","","","","","","","","","","","","","","","","","","","","","","","","","","","","","","","","","","","","","","","","","","","","","","","","","","","",""
"","localizer","","html-keyboard-response","182","1239559","0.0-2.0-60.0-0.0","28","76661","female","259","","","","68","0","58","","Stimuli/Experimental_stims/localizer/faces/brooke-cagle-Nm70URdtf3c-unsplash (1).jpg","1239089","1","faces","","0","0","1","400","63800","470","66102","","","","","","","","","","","","","","","","","","","","","","","","","","","","","","","","","","","","","","","","","","","","","","","","","","","","",""
"","iti_localizer","","html-keyboard-response","183","1239871","0.0-2.0-60.0-1.0","28","76661","female","null","","","","null","","58","","","1239559","1","","","","","","300","64200","312","66572","300","","","","","","","","","","","","","","","","","","","","","","","","","","","","","","","","","","","","","","","","","","","","","","","","","","","",""
"","localizer","","html-keyboard-response","184","1240293","0.0-2.0-61.0-0.0","28","76661","female","149","","","","68","0","59","","Stimuli/Experimental_stims/localizer/faces/icons8-team-6LZuSzSwso0-unsplash.jpg","1239871","1","faces","","0","0","1","400","64500","422","66884","","","","","","","","","","","","","","","","","","","","","","","","","","","","","","","","","","","","","","","","","","","","","","","","","","","","",""
"","iti_localizer","","html-keyboard-response","185","1240608","0.0-2.0-61.0-1.0","28","76661","female","null","","","","null","","59","","","1240293","1","","","","","","300","64900","315","67306","300","","","","","","","","","","","","","","","","","","","","","","","","","","","","","","","","","","","","","","","","","","","","","","","","","","","",""
"","localizer","","html-keyboard-response","186","1241029","0.0-2.0-62.0-0.0","28","76661","female","32","","","","68","0","60","","Stimuli/Experimental_stims/localizer/faces/christina-wocintechchat-com-0Zx1bDv5BNY-unsplash.jpg","1240608","1","faces","","0","0","1","400","65200","421","67621","","","","","","","","","","","","","","","","","","","","","","","","","","","","","","","","","","","","","","","","","","","","","","","","","","","","",""
"","iti_localizer","","html-keyboard-response","187","1241360","0.0-2.0-62.0-1.0","28","76661","female","null","","","","null","","60","","","1241029","1","","","","","","300","65600","331","68042","300","","","","","","","","","","","","","","","","","","","","","","","","","","","","","","","","","","","","","","","","","","","","","","","","","","","",""
"","localizer","","html-keyboard-response","188","1241783","0.0-2.0-63.0-0.0","28","76661","female","NaN","","","","null","NaN","61","","Stimuli/Experimental_stims/localizer/faces/juan-encalada-WC7KIHo13Fc-unsplash.jpg","1241360","1","faces","","0","1","0","400","65900","423","68373","","","","","","","","","","","","","","","","","","","","","","","","","","","","","","","","","","","","","","","","","","","","","","","","","","","","",""
"","iti_localizer","","html-keyboard-response","189","1242093","0.0-2.0-63.0-1.0","28","76661","female","null","","","","null","","61","","","1241783","1","","","","","","300","66300","310","68796","300","","","","","","","","","","","","","","","","","","","","","","","","","","","","","","","","","","","","","","","","","","","","","","","","","","","",""
"","localizer","","html-keyboard-response","190","1242512","0.0-2.0-64.0-0.0","28","76661","female","NaN","","","","null","NaN","62","","Stimuli/Experimental_stims/localizer/faces/nick-karvounis-JyO_szjGvUw-unsplash.jpg","1242093","1","faces","","0","1","0","400","66600","419","69106","","","","","","","","","","","","","","","","","","","","","","","","","","","","","","","","","","","","","","","","","","","","","","","","","","","","",""
"","iti_localizer","","html-keyboard-response","191","1242826","0.0-2.0-64.0-1.0","28","76661","female","null","","","","null","","62","","","1242512","1","","","","","","300","67000","314","69525","300","","","","","","","","","","","","","","","","","","","","","","","","","","","","","","","","","","","","","","","","","","","","","","","","","","","",""
"","localizer","","html-keyboard-response","192","1243265","0.0-2.0-65.0-0.0","28","76661","female","NaN","","","","null","NaN","63","","Stimuli/Experimental_stims/localizer/faces/carlos-vaz-KP4bxnxAilU-unsplash.jpg","1242826","1","faces","","0","1","0","400","67300","439","69839","","","","","","","","","","","","","","","","","","","","","","","","","","","","","","","","","","","","","","","","","","","","","","","","","","","","",""
"","iti_localizer","","html-keyboard-response","193","1243576","0.0-2.0-65.0-1.0","28","76661","female","null","","","","null","","63","","","1243265","1","","","","","","300","67700","311","70278","300","","","","","","","","","","","","","","","","","","","","","","","","","","","","","","","","","","","","","","","","","","","","","","","","","","","",""
"","localizer","","html-keyboard-response","194","1243996","0.0-2.0-66.0-0.0","28","76661","female","NaN","","","","null","NaN","64","","Stimuli/Experimental_stims/localizer/faces/tyler-nix-ZGa9d1a_4tA-unsplash.jpg","1243576","1","faces","","1","1","0","400","68000","420","70589","","","","","","","","","","","","","","","","","","","","","","","","","","","","","","","","","","","","","","","","","","","","","","","","","","","","",""
"","iti_localizer","","html-keyboard-response","195","1244312","0.0-2.0-66.0-1.0","28","76661","female","null","","","","null","","64","","","1243996","1","","","","","","300","68400","316","71009","300","","","","","","","","","","","","","","","","","","","","","","","","","","","","","","","","","","","","","","","","","","","","","","","","","","","",""
"","localizer","","html-keyboard-response","196","1244724","0.0-2.0-67.0-0.0","28","76661","female","124","","","","75","1","65","","Stimuli/Experimental_stims/localizer/faces/samuel-dixon--fQ5XNOcqFQ-unsplash.jpg","1244312","1","faces","","0","0","0","400","68700","412","71325","","","","","","","","","","","","","","","","","","","","","","","","","","","","","","","","","","","","","","","","","","","","","","","","","","","","",""
"","iti_localizer","","html-keyboard-response","197","1258752","0.0-2.0-67.0-1.0","28","76661","female","null","","","","null","","65","","","1244724","1","","","","","","14000","69100","14028","71737","14000","","","","","","","","","","","","","","","","","","","","","","","","","","","","","","","","","","","","","","","","","","","","","","","","","","","",""
"","localizer","","html-keyboard-response","198","1259180","0.0-2.0-68.0-0.0","28","76661","female","NaN","","","","null","NaN","66","","Stimuli/Experimental_stims/localizer/body_parts/nihal-karkala-LlOfbQD-IJ0-unsplash.jpg","1258752","1","body_parts","","1","1","0","400","83100","428","85765","","","","","","","","","","","","","","","","","","","","","","","","","","","","","","","","","","","","","","","","","","","","","","","","","","","","",""
"","iti_localizer","","html-keyboard-response","199","1259514","0.0-2.0-68.0-1.0","28","76661","female","null","","","","null","","66","","","1259180","1","","","","","","300","83500","334","86193","300","","","","","","","","","","","","","","","","","","","","","","","","","","","","","","","","","","","","","","","","","","","","","","","","","","","",""
"","localizer","","html-keyboard-response","200","1259926","0.0-2.0-69.0-0.0","28","76661","female","NaN","","","","null","NaN","67","","Stimuli/Experimental_stims/localizer/body_parts/nick-page-WTNmgJtwzGI-unsplash.jpg","1259514","1","body_parts","","0","1","0","400","83800","412","86527","","","","","","","","","","","","","","","","","","","","","","","","","","","","","","","","","","","","","","","","","","","","","","","","","","","","",""
"","iti_localizer","","html-keyboard-response","201","1260232","0.0-2.0-69.0-1.0","28","76661","female","null","","","","null","","67","","","1259926","1","","","","","","300","84200","306","86939","300","","","","","","","","","","","","","","","","","","","","","","","","","","","","","","","","","","","","","","","","","","","","","","","","","","","",""
"","localizer","","html-keyboard-response","202","1260650","0.0-2.0-70.0-0.0","28","76661","female","NaN","","","","null","NaN","68","","Stimuli/Experimental_stims/localizer/body_parts/sina-rezakhani-d1gQi0Jl05U-unsplash (1).jpg","1260232","1","body_parts","","0","1","0","400","84500","418","87245","","","","","","","","","","","","","","","","","","","","","","","","","","","","","","","","","","","","","","","","","","","","","","","","","","","","",""
"","iti_localizer","","html-keyboard-response","203","1260968","0.0-2.0-70.0-1.0","28","76661","female","null","","","","null","","68","","","1260650","1","","","","","","300","84900","318","87663","300","","","","","","","","","","","","","","","","","","","","","","","","","","","","","","","","","","","","","","","","","","","","","","","","","","","",""
"","localizer","","html-keyboard-response","204","1261387","0.0-2.0-71.0-0.0","28","76661","female","352","","","","68","0","69","","Stimuli/Experimental_stims/localizer/body_parts/meghan-thompson-U1b8OB0QpIo-unsplash.jpg","1260968","1","body_parts","","0","0","1","400","85200","419","87981","","","","","","","","","","","","","","","","","","","","","","","","","","","","","","","","","","","","","","","","","","","","","","","","","","","","",""
"","iti_localizer","","html-keyboard-response","205","1261700","0.0-2.0-71.0-1.0","28","76661","female","null","","","","null","","69","","","1261387","1","","","","","","300","85600","313","88400","300","","","","","","","","","","","","","","","","","","","","","","","","","","","","","","","","","","","","","","","","","","","","","","","","","","","",""
"","localizer","","html-keyboard-response","206","1262117","0.0-2.0-72.0-0.0","28","76661","female","217","","","","68","0","70","","Stimuli/Experimental_stims/localizer/body_parts/davidcohen-qghuLqyh3nE-unsplash.jpg","1261700","1","body_parts","","0","0","1","400","85900","417","88713","","","","","","","","","","","","","","","","","","","","","","","","","","","","","","","","","","","","","","","","","","","","","","","","","","","","",""
"","iti_localizer","","html-keyboard-response","207","1262431","0.0-2.0-72.0-1.0","28","76661","female","null","","","","null","","70","","","1262117","1","","","","","","300","86300","314","89130","300","","","","","","","","","","","","","","","","","","","","","","","","","","","","","","","","","","","","","","","","","","","","","","","","","","","",""
"","localizer","","html-keyboard-response","208","1262850","0.0-2.0-73.0-0.0","28","76661","female","140","","","","68","0","71","","Stimuli/Experimental_stims/localizer/body_parts/sincerely-media-QyzlAZjm0r0-unsplash.jpg","1262431","1","body_parts","","0","0","1","400","86600","419","89444","","","","","","","","","","","","","","","","","","","","","","","","","","","","","","","","","","","","","","","","","","","","","","","","","","","","",""
"","iti_localizer","","html-keyboard-response","209","1263164","0.0-2.0-73.0-1.0","28","76661","female","null","","","","null","","71","","","1262850","1","","","","","","300","87000","314","89863","300","","","","","","","","","","","","","","","","","","","","","","","","","","","","","","","","","","","","","","","","","","","","","","","","","","","",""
"","localizer","","html-keyboard-response","210","1263584","0.0-2.0-74.0-0.0","28","76661","female","35","","","","68","0","72","","Stimuli/Experimental_stims/localizer/body_parts/juja-han-Z8-6EI2tYtw-unsplash.jpg","1263164","1","body_parts","","0","0","1","400","87300","420","90177","","","","","","","","","","","","","","","","","","","","","","","","","","","","","","","","","","","","","","","","","","","","","","","","","","","","",""
"","iti_localizer","","html-keyboard-response","211","1263896","0.0-2.0-74.0-1.0","28","76661","female","null","","","","null","","72","","","1263584","1","","","","","","300","87700","312","90597","300","","","","","","","","","","","","","","","","","","","","","","","","","","","","","","","","","","","","","","","","","","","","","","","","","","","",""
"","localizer","","html-keyboard-response","212","1264312","0.0-2.0-75.0-0.0","28","76661","female","42","","","","68","0","73","","Stimuli/Experimental_stims/localizer/body_parts/natalie-grainger-8uB5kFKWWkk-unsplash.jpg","1263896","1","body_parts","","0","0","1","400","88000","416","90909","","","","","","","","","","","","","","","","","","","","","","","","","","","","","","","","","","","","","","","","","","","","","","","","","","","","",""
"","iti_localizer","","html-keyboard-response","213","1264627","0.0-2.0-75.0-1.0","28","76661","female","null","","","","null","","73","","","1264312","1","","","","","","300","88400","315","91325","300","","","","","","","","","","","","","","","","","","","","","","","","","","","","","","","","","","","","","","","","","","","","","","","","","","","",""
"","localizer","","html-keyboard-response","214","1265044","0.0-2.0-76.0-0.0","28","76661","female","NaN","","","","null","NaN","74","","Stimuli/Experimental_stims/localizer/body_parts/debby-hudson--B_757qSA4k-unsplash.jpg","1264627","1","body_parts","","0","1","0","400","88700","417","91640","","","","","","","","","","","","","","","","","","","","","","","","","","","","","","","","","","","","","","","","","","","","","","","","","","","","",""
"","iti_localizer","","html-keyboard-response","215","1265487","0.0-2.0-76.0-1.0","28","76661","female","null","","","","null","","74","","","1265044","1","","","","","","300","89100","443","92057","300","","","","","","","","","","","","","","","","","","","","","","","","","","","","","","","","","","","","","","","","","","","","","","","","","","","",""
"","localizer","","html-keyboard-response","216","1265893","0.0-2.0-77.0-0.0","28","76661","female","197","","","","68","0","75","","Stimuli/Experimental_stims/localizer/body_parts/pure-julia-E9Q4bqYHtIM-unsplash.jpg","1265487","1","body_parts","","0","0","1","400","89400","406","92500","","","","","","","","","","","","","","","","","","","","","","","","","","","","","","","","","","","","","","","","","","","","","","","","","","","","",""
"","iti_localizer","","html-keyboard-response","217","1266203","0.0-2.0-77.0-1.0","28","76661","female","null","","","","null","","75","","","1265893","1","","","","","","300","89800","310","92906","300","","","","","","","","","","","","","","","","","","","","","","","","","","","","","","","","","","","","","","","","","","","","","","","","","","","",""
"","localizer","","html-keyboard-response","218","1266620","0.0-2.0-78.0-0.0","28","76661","female","69","","","","68","0","76","","Stimuli/Experimental_stims/localizer/body_parts/charles-etoroma-1fo0biloDOc-unsplash.jpg","1266203","1","body_parts","","0","0","1","400","90100","417","93216","","","","","","","","","","","","","","","","","","","","","","","","","","","","","","","","","","","","","","","","","","","","","","","","","","","","",""
"","iti_localizer","","html-keyboard-response","219","1266936","0.0-2.0-78.0-1.0","28","76661","female","null","","","","null","","76","","","1266620","1","","","","","","300","90500","316","93633","300","","","","","","","","","","","","","","","","","","","","","","","","","","","","","","","","","","","","","","","","","","","","","","","","","","","",""
"","localizer","","html-keyboard-response","220","1267357","0.0-2.0-79.0-0.0","28","76661","female","NaN","","","","null","NaN","77","","Stimuli/Experimental_stims/localizer/body_parts/david-fanuel-qnV8X7OViNY-unsplash.jpg","1266936","1","body_parts","","0","1","0","400","90800","421","93949","","","","","","","","","","","","","","","","","","","","","","","","","","","","","","","","","","","","","","","","","","","","","","","","","","","","",""
"","iti_localizer","","html-keyboard-response","221","1267665","0.0-2.0-79.0-1.0","28","76661","female","null","","","","null","","77","","","1267357","1","","","","","","300","91200","308","94370","300","","","","","","","","","","","","","","","","","","","","","","","","","","","","","","","","","","","","","","","","","","","","","","","","","","","",""
"","localizer","","html-keyboard-response","222","1268076","0.0-2.0-80.0-0.0","28","76661","female","NaN","","","","null","NaN","78","","Stimuli/Experimental_stims/localizer/body_parts/diana-polekhina-SwWjCbIIoFE-unsplash.jpg","1267665","1","body_parts","","0","1","0","400","91500","411","94678","","","","","","","","","","","","","","","","","","","","","","","","","","","","","","","","","","","","","","","","","","","","","","","","","","","","",""
"","iti_localizer","","html-keyboard-response","223","1268399","0.0-2.0-80.0-1.0","28","76661","female","null","","","","null","","78","","","1268076","1","","","","","","300","91900","323","95089","300","","","","","","","","","","","","","","","","","","","","","","","","","","","","","","","","","","","","","","","","","","","","","","","","","","","",""
"","localizer","","html-keyboard-response","224","1268812","0.0-2.0-81.0-0.0","28","76661","female","NaN","","","","null","NaN","79","","Stimuli/Experimental_stims/localizer/body_parts/ant-rozetsky-bXQd8JXx0vs-unsplash.jpg","1268399","1","body_parts","","0","1","0","400","92200","413","95412","","","","","","","","","","","","","","","","","","","","","","","","","","","","","","","","","","","","","","","","","","","","","","","","","","","","",""
"","iti_localizer","","html-keyboard-response","225","1269136","0.0-2.0-81.0-1.0","28","76661","female","null","","","","null","","79","","","1268812","1","","","","","","300","92600","324","95825","300","","","","","","","","","","","","","","","","","","","","","","","","","","","","","","","","","","","","","","","","","","","","","","","","","","","",""
"","localizer","","html-keyboard-response","226","1269562","0.0-2.0-82.0-0.0","28","76661","female","NaN","","","","null","NaN","80","","Stimuli/Experimental_stims/localizer/body_parts/callum-skelton-3KLMq7y46nA-unsplash.jpg","1269136","1","body_parts","","0","1","0","400","92900","426","96149","","","","","","","","","","","","","","","","","","","","","","","","","","","","","","","","","","","","","","","","","","","","","","","","","","","","",""
"","iti_localizer","","html-keyboard-response","227","1269879","0.0-2.0-82.0-1.0","28","76661","female","null","","","","null","","80","","","1269562","1","","","","","","300","93300","317","96575","300","","","","","","","","","","","","","","","","","","","","","","","","","","","","","","","","","","","","","","","","","","","","","","","","","","","",""
"","localizer","","html-keyboard-response","228","1270302","0.0-2.0-83.0-0.0","28","76661","female","NaN","","","","null","NaN","81","","Stimuli/Experimental_stims/localizer/body_parts/freestocks-qw9LFf5T790-unsplash.jpg","1269879","1","body_parts","","0","1","0","400","93600","423","96892","","","","","","","","","","","","","","","","","","","","","","","","","","","","","","","","","","","","","","","","","","","","","","","","","","","","",""
"","iti_localizer","","html-keyboard-response","229","1270617","0.0-2.0-83.0-1.0","28","76661","female","null","","","","null","","81","","","1270302","1","","","","","","300","94000","315","97315","300","","","","","","","","","","","","","","","","","","","","","","","","","","","","","","","","","","","","","","","","","","","","","","","","","","","",""
"","localizer","","html-keyboard-response","230","1271036","0.0-2.0-84.0-0.0","28","76661","female","NaN","","","","null","NaN","82","","Stimuli/Experimental_stims/localizer/body_parts/carlos-henrique-NAOJKwZswbs-unsplash.jpg","1270617","1","body_parts","","0","1","0","400","94300","419","97630","","","","","","","","","","","","","","","","","","","","","","","","","","","","","","","","","","","","","","","","","","","","","","","","","","","","",""
"","iti_localizer","","html-keyboard-response","231","1271345","0.0-2.0-84.0-1.0","28","76661","female","null","","","","null","","82","","","1271036","1","","","","","","300","94700","309","98049","300","","","","","","","","","","","","","","","","","","","","","","","","","","","","","","","","","","","","","","","","","","","","","","","","","","","",""
"","localizer","","html-keyboard-response","232","1271759","0.0-2.0-85.0-0.0","28","76661","female","NaN","","","","null","NaN","83","","Stimuli/Experimental_stims/localizer/body_parts/boyd-christiansen-uVj7kewrZ-o-unsplash.jpg","1271345","1","body_parts","","1","1","0","400","95000","414","98358","","","","","","","","","","","","","","","","","","","","","","","","","","","","","","","","","","","","","","","","","","","","","","","","","","","","",""
"","iti_localizer","","html-keyboard-response","233","1272071","0.0-2.0-85.0-1.0","28","76661","female","null","","","","null","","83","","","1271759","1","","","","","","300","95400","312","98772","300","","","","","","","","","","","","","","","","","","","","","","","","","","","","","","","","","","","","","","","","","","","","","","","","","","","",""
"","localizer","","html-keyboard-response","234","1272486","0.0-2.0-86.0-0.0","28","76661","female","65","","","","75","1","84","","Stimuli/Experimental_stims/localizer/body_parts/nick-page-jAGdpOGvLAA-unsplash.jpg","1272071","1","body_parts","","0","0","0","400","95700","415","99084","","","","","","","","","","","","","","","","","","","","","","","","","","","","","","","","","","","","","","","","","","","","","","","","","","","","",""
"","iti_localizer","","html-keyboard-response","235","1272804","0.0-2.0-86.0-1.0","28","76661","female","null","","","","null","","84","","","1272486","1","","","","","","300","96100","318","99499","300","","","","","","","","","","","","","","","","","","","","","","","","","","","","","","","","","","","","","","","","","","","","","","","","","","","",""
"","localizer","","html-keyboard-response","236","1273450","0.0-2.0-87.0-0.0","28","76661","female","195","","","","68","0","85","","Stimuli/Experimental_stims/localizer/body_parts/lilartsy-1KkhQ8uL28g-unsplash.jpg","1272804","1","body_parts","","0","0","1","400","96400","646","99817","","","","","","","","","","","","","","","","","","","","","","","","","","","","","","","","","","","","","","","","","","","","","","","","","","","","",""
"","iti_localizer","","html-keyboard-response","237","1287481","0.0-2.0-87.0-1.0","28","76661","female","null","","","","null","","85","","","1273450","1","","","","","","14000","96800","14031","100463","14000","","","","","","","","","","","","","","","","","","","","","","","","","","","","","","","","","","","","","","","","","","","","","","","","","","","",""
"","localizer","","html-keyboard-response","238","1287939","0.0-2.0-88.0-0.0","28","76661","female","NaN","","","","null","NaN","86","","Stimuli/Experimental_stims/localizer/objects/yossy-made-yulian-WaEqwDSIeTY-unsplash.jpg","1287481","1","objects","","1","1","0","400","110800","458","114494","","","","","","","","","","","","","","","","","","","","","","","","","","","","","","","","","","","","","","","","","","","","","","","","","","","","",""
"","iti_localizer","","html-keyboard-response","239","1288260","0.0-2.0-88.0-1.0","28","76661","female","null","","","","null","","86","","","1287939","1","","","","","","300","111200","321","114952","300","","","","","","","","","","","","","","","","","","","","","","","","","","","","","","","","","","","","","","","","","","","","","","","","","","","",""
"","localizer","","html-keyboard-response","240","1288682","0.0-2.0-89.0-0.0","28","76661","female","NaN","","","","null","NaN","87","","Stimuli/Experimental_stims/localizer/objects/namroud-gorguis-FZWivbri0Xk-unsplash.jpg","1288260","1","objects","","0","1","0","400","111500","422","115273","","","","","","","","","","","","","","","","","","","","","","","","","","","","","","","","","","","","","","","","","","","","","","","","","","","","",""
"","iti_localizer","","html-keyboard-response","241","1288998","0.0-2.0-89.0-1.0","28","76661","female","null","","","","null","","87","","","1288682","1","","","","","","300","111900","316","115695","300","","","","","","","","","","","","","","","","","","","","","","","","","","","","","","","","","","","","","","","","","","","","","","","","","","","",""
"","localizer","","html-keyboard-response","242","1289421","0.0-2.0-90.0-0.0","28","76661","female","NaN","","","","null","NaN","88","","Stimuli/Experimental_stims/localizer/objects/muhammad-toqeer-NRJ9ipvz2iE-unsplash.jpg","1288998","1","objects","","0","1","0","400","112200","423","116011","","","","","","","","","","","","","","","","","","","","","","","","","","","","","","","","","","","","","","","","","","","","","","","","","","","","",""
"","iti_localizer","","html-keyboard-response","243","1289743","0.0-2.0-90.0-1.0","28","76661","female","null","","","","null","","88","","","1289421","1","","","","","","300","112600","322","116434","300","","","","","","","","","","","","","","","","","","","","","","","","","","","","","","","","","","","","","","","","","","","","","","","","","","","",""
"","localizer","","html-keyboard-response","244","1290168","0.0-2.0-91.0-0.0","28","76661","female","NaN","","","","null","NaN","89","","Stimuli/Experimental_stims/localizer/objects/chris-briggs-x9TCnxNBofE-unsplash.jpg","1289743","1","objects","","0","1","0","400","112900","425","116756","","","","","","","","","","","","","","","","","","","","","","","","","","","","","","","","","","","","","","","","","","","","","","","","","","","","",""
"","iti_localizer","","html-keyboard-response","245","1290603","0.0-2.0-91.0-1.0","28","76661","female","null","","","","null","","89","","","1290168","1","","","","","","300","113300","435","117181","300","","","","","","","","","","","","","","","","","","","","","","","","","","","","","","","","","","","","","","","","","","","","","","","","","","","",""
"","localizer","","html-keyboard-response","246","1291014","0.0-2.0-92.0-0.0","28","76661","female","381","","","","68","0","90","","Stimuli/Experimental_stims/localizer/objects/collab-media-eddtBBbaw0Y-unsplash.jpg","1290603","1","objects","","0","0","1","400","113600","411","117616","","","","","","","","","","","","","","","","","","","","","","","","","","","","","","","","","","","","","","","","","","","","","","","","","","","","",""
