"success","ttype","start_time","trial_type","trial_index","time_elapsed","internal_node_id","age","PID","gender","rt","responses","view_history","repeat_instructions","key_press","response","index","stimulus_index","path","start_time_elapsed","run","task","isi","is_odd_ball","no_response","acc","duration","onset","duration_time_elapsed","onset_time_elapsed","trial_duration","left_chosen","chosen_stimulus","unchosen_stimulus","chosen_category","unchosen_category","chosen_rating","unchosen_rating","chosen_path","unchosen_path","pair_id","practice","scramble_screen_time","scramble_instructed_side","stim_type","iti","block","left_stimulus","right_stimulus","left_category","right_category","left_path","right_path","left_rating","right_rating","scramble_acc","warning","stimulus_id","item_id","outcome","response_rt","deliberation_reward_tally","choice_type","gain_left","left_item_id","right_item_id","higher_outcome_chosen","missed_checkup","chosen_left","old_pair","pair_type","old_response","pair_acc","reward_type","outcome_response","outcome_rt","outcome_acc","category","choice","deliberated_stim","old_rating","new_rating"
"true","full_screen","d08172023hr1821","fullscreen","0","2538","0.0-0.0-0.0","33","23013","female","","","","","","","","","","","","","","","","","","","","","","","","","","","","","","","","","","","","","","","","","","","","","","","","","","","","","","","","","","","","","","","","","","","","","","","",""
"","get_id","","survey-text","1","10857","0.0-0.0-1.0","33","23013","female","8300","{""Q0"":""33"",""Q1"":""female""}","","","","","","","","","","","","","","","","","","","","","","","","","","","","","","","","","","","","","","","","","","","","","","","","","","","","","","","","","","","","","","","","","","","","","",""
"","ratings_instructions","","instructions","2","16927","0.0-1.0-0.0-0.0","33","23013","female","5883","","[{""page_index"":0,""viewing_time"":4650},{""page_index"":1,""viewing_time"":1232}]","","","","","","","","","","","","","","","","","","","","","","","","","","","","","","","","","","","","","","","","","","","","","","","","","","","","","","","","","","","","","","","","","","","","",""
"","rating_comprehension_check","","survey-multi-choice","3","22477","0.0-1.0-0.0-1.0","33","23013","female","5529","{""Q0"":""True"",""Q1"":""Mouse""}","","0","","","","","","","","","","","","","","","","","","","","","","","","","","","","","","","","","","","","","","","","","","","","","","","","","","","","","","","","","","","","","","","","","","","",""
"","","","html-keyboard-response","4","24287","0.0-1.0-1.0","33","23013","female","1799","","","","68","","","","","","","","","","","","","","","","","","","","","","","","","","","","","","","","","","","","","","","","","","","","","","","","","","","","","","","","","","","","","","","","","","",""
"","rating","","html-slider-response","5","28595","0.0-1.0-2.0","33","23013","female","4294","","","","","76","0","28","Stimuli/Experimental_stims/body_parts/ira-vishnevskaya-8DQAvdCby1I-unsplash.jpg","","","","","","","","","","","","","","","","","","","","","","","","","","","","","","","","","","","","","","","","","","","","","","","","","","","","","","","","","","","","","","",""
"","rating","","html-slider-response","6","36994","0.0-1.0-3.0","33","23013","female","8387","","","","","72","1","4","Stimuli/Experimental_stims/outdoor_scenes/jarrett-kow-1ZOyYPOBn7I-unsplash.jpg","","","","","","","","","","","","","","","","","","","","","","","","","","","","","","","","","","","","","","","","","","","","","","","","","","","","","","","","","","","","","","",""
"","rating","","html-slider-response","7","40696","0.0-1.0-4.0","33","23013","female","3690","","","","","40","2","35","Stimuli/Experimental_stims/body_parts/wc-so-KH4AAPjb-tI-unsplash.jpg","","","","","","","","","","","","","","","","","","","","","","","","","","","","","","","","","","","","","","","","","","","","","","","","","","","","","","","","","","","","","","",""
"","rating","","html-slider-response","8","46276","0.0-1.0-5.0","33","23013","female","5528","","","","","67","3","47","Stimuli/Experimental_stims/objects/ronaldo-arthur-vidal-Cdz_lvnl37k-unsplash.jpg","","","","","","","","","","","","","","","","","","","","","","","","","","","","","","","","","","","","","","","","","","","","","","","","","","","","","","","","","","","","","","",""
"","rating","","html-slider-response","9","50138","0.0-1.0-6.0","33","23013","female","3847","","","","","64","4","9","Stimuli/Experimental_stims/outdoor_scenes/sergey-pesterev-y-b_FOmJXdg-unsplash.jpg","","","","","","","","","","","","","","","","","","","","","","","","","","","","","","","","","","","","","","","","","","","","","","","","","","","","","","","","","","","","","","",""
"","rating","","html-slider-response","10","54514","0.0-1.0-7.0","33","23013","female","4363","","","","","66","5","31","Stimuli/Experimental_stims/body_parts/sincerely-media-VN6DbKajo5s-unsplash.jpg","","","","","","","","","","","","","","","","","","","","","","","","","","","","","","","","","","","","","","","","","","","","","","","","","","","","","","","","","","","","","","",""
"","rating","","html-slider-response","11","57461","0.0-1.0-8.0","33","23013","female","2934","","","","","71","6","5","Stimuli/Experimental_stims/outdoor_scenes/jeff-king-bJHWJeiHfHc-unsplash.jpg","","","","","","","","","","","","","","","","","","","","","","","","","","","","","","","","","","","","","","","","","","","","","","","","","","","","","","","","","","","","","","",""
"","rating","","html-slider-response","12","61934","0.0-1.0-9.0","33","23013","female","4458","","","","","62","7","27","Stimuli/Experimental_stims/body_parts/heike-mintel-i_Gns0ELnLw-unsplash.jpg","","","","","","","","","","","","","","","","","","","","","","","","","","","","","","","","","","","","","","","","","","","","","","","","","","","","","","","","","","","","","","",""
"","rating","","html-slider-response","13","64763","0.0-1.0-10.0","33","23013","female","2815","","","","","70","8","37","Stimuli/Experimental_stims/objects/alexander-andrews-VLGWE_SumrA-unsplash.jpg","","","","","","","","","","","","","","","","","","","","","","","","","","","","","","","","","","","","","","","","","","","","","","","","","","","","","","","","","","","","","","",""
"","rating","","html-slider-response","14","68071","0.0-1.0-11.0","33","23013","female","3294","","","","","75","9","19","Stimuli/Experimental_stims/faces/joel-mott-LaK153ghdig-unsplash.jpg","","","","","","","","","","","","","","","","","","","","","","","","","","","","","","","","","","","","","","","","","","","","","","","","","","","","","","","","","","","","","","",""
"","rating","","html-slider-response","15","71545","0.0-1.0-12.0","33","23013","female","3460","","","","","79","10","34","Stimuli/Experimental_stims/body_parts/wagner-santos-mBWMvIuVnso-unsplash.jpg","","","","","","","","","","","","","","","","","","","","","","","","","","","","","","","","","","","","","","","","","","","","","","","","","","","","","","","","","","","","","","",""
"","rating","","html-slider-response","16","74509","0.0-1.0-13.0","33","23013","female","2953","","","","","77","11","22","Stimuli/Experimental_stims/faces/ravi-patel-VMGAbeeJTKo-unsplash.jpg","","","","","","","","","","","","","","","","","","","","","","","","","","","","","","","","","","","","","","","","","","","","","","","","","","","","","","","","","","","","","","",""
"","rating","","html-slider-response","17","77492","0.0-1.0-14.0","33","23013","female","2971","","","","","81","12","1","Stimuli/Experimental_stims/outdoor_scenes/ashim-d-silva-S2Q5mdOrrVc-unsplash.jpg","","","","","","","","","","","","","","","","","","","","","","","","","","","","","","","","","","","","","","","","","","","","","","","","","","","","","","","","","","","","","","",""
"","rating","","html-slider-response","18","81661","0.0-1.0-15.0","33","23013","female","4156","","","","","78","13","15","Stimuli/Experimental_stims/faces/erik-lucatero-d2MSDujJl2g-unsplash.jpg","","","","","","","","","","","","","","","","","","","","","","","","","","","","","","","","","","","","","","","","","","","","","","","","","","","","","","","","","","","","","","",""
"","rating","","html-slider-response","19","84558","0.0-1.0-16.0","33","23013","female","2885","","","","","83","14","17","Stimuli/Experimental_stims/faces/good-faces-xmSWVeGEnJw-unsplash.jpg","","","","","","","","","","","","","","","","","","","","","","","","","","","","","","","","","","","","","","","","","","","","","","","","","","","","","","","","","","","","","","",""
"","rating","","html-slider-response","20","86989","0.0-1.0-17.0","33","23013","female","2418","","","","","86","15","12","Stimuli/Experimental_stims/faces/aiony-haust-jmATI5Q_YgY-unsplash.jpg","","","","","","","","","","","","","","","","","","","","","","","","","","","","","","","","","","","","","","","","","","","","","","","","","","","","","","","","","","","","","","",""
"","rating","","html-slider-response","21","90166","0.0-1.0-18.0","33","23013","female","3163","","","","","89","16","0","Stimuli/Experimental_stims/outdoor_scenes/aleksandra-boguslawska-MS7KD9Ti7FQ-unsplash.jpg","","","","","","","","","","","","","","","","","","","","","","","","","","","","","","","","","","","","","","","","","","","","","","","","","","","","","","","","","","","","","","",""
"","rating","","html-slider-response","22","93122","0.0-1.0-19.0","33","23013","female","2942","","","","","66","17","41","Stimuli/Experimental_stims/objects/insung-yoon-w2JtIQQXoRU-unsplash.jpg","","","","","","","","","","","","","","","","","","","","","","","","","","","","","","","","","","","","","","","","","","","","","","","","","","","","","","","","","","","","","","",""
"","rating","","html-slider-response","23","95752","0.0-1.0-20.0","33","23013","female","2610","","","","","84","18","18","Stimuli/Experimental_stims/faces/jessica-radanavong-mrYkTuAesKE-unsplash.jpg","","","","","","","","","","","","","","","","","","","","","","","","","","","","","","","","","","","","","","","","","","","","","","","","","","","","","","","","","","","","","","",""
"","rating","","html-slider-response","24","98413","0.0-1.0-21.0","33","23013","female","2649","","","","","72","19","11","Stimuli/Experimental_stims/outdoor_scenes/stephen-leonardi-gyIRjKPXupE-unsplash.jpg","","","","","","","","","","","","","","","","","","","","","","","","","","","","","","","","","","","","","","","","","","","","","","","","","","","","","","","","","","","","","","",""
"","rating","","html-slider-response","25","101090","0.0-1.0-22.0","33","23013","female","2661","","","","","84","20","20","Stimuli/Experimental_stims/faces/justin-chen-J7Cf1Gch49E-unsplash.jpg","","","","","","","","","","","","","","","","","","","","","","","","","","","","","","","","","","","","","","","","","","","","","","","","","","","","","","","","","","","","","","",""
"","rating","","html-slider-response","26","103861","0.0-1.0-23.0","33","23013","female","2752","","","","","87","21","23","Stimuli/Experimental_stims/faces/rikonavt-HQjfrvdTfak-unsplash.jpg","","","","","","","","","","","","","","","","","","","","","","","","","","","","","","","","","","","","","","","","","","","","","","","","","","","","","","","","","","","","","","",""
"","rating","","html-slider-response","27","106755","0.0-1.0-24.0","33","23013","female","2878","","","","","92","22","25","Stimuli/Experimental_stims/body_parts/engin-akyurt-Q2rfH3GW39c-unsplash.jpg","","","","","","","","","","","","","","","","","","","","","","","","","","","","","","","","","","","","","","","","","","","","","","","","","","","","","","","","","","","","","","",""
"","rating","","html-slider-response","28","109484","0.0-1.0-25.0","33","23013","female","2718","","","","","79","23","33","Stimuli/Experimental_stims/body_parts/tucker-good-36skLT5jZcc-unsplash.jpg","","","","","","","","","","","","","","","","","","","","","","","","","","","","","","","","","","","","","","","","","","","","","","","","","","","","","","","","","","","","","","",""
"","rating","","html-slider-response","29","112068","0.0-1.0-26.0","33","23013","female","2571","","","","","81","24","32","Stimuli/Experimental_stims/body_parts/towfiqu-barbhuiya-3AsiVDsZnHg-unsplash.jpg","","","","","","","","","","","","","","","","","","","","","","","","","","","","","","","","","","","","","","","","","","","","","","","","","","","","","","","","","","","","","","",""
"","rating","","html-slider-response","30","115014","0.0-1.0-27.0","33","23013","female","2936","","","","","87","25","30","Stimuli/Experimental_stims/body_parts/mika-korhonen-Xodzxosar18-unsplash.jpg","","","","","","","","","","","","","","","","","","","","","","","","","","","","","","","","","","","","","","","","","","","","","","","","","","","","","","","","","","","","","","",""
"","rating","","html-slider-response","31","123297","0.0-1.0-28.0","33","23013","female","8266","","","","","66","26","16","Stimuli/Experimental_stims/faces/freddy-kearney-o-ioeoATbIM-unsplash.jpg","","","","","","","","","","","","","","","","","","","","","","","","","","","","","","","","","","","","","","","","","","","","","","","","","","","","","","","","","","","","","","",""
"","rating","","html-slider-response","32","169372","0.0-1.0-29.0","33","23013","female","46057","","","","","73","27","14","Stimuli/Experimental_stims/faces/david-siglin-UuW4psOb388-unsplash.jpg","","","","","","","","","","","","","","","","","","","","","","","","","","","","","","","","","","","","","","","","","","","","","","","","","","","","","","","","","","","","","","",""
"","rating","","html-slider-response","33","172271","0.0-1.0-30.0","33","23013","female","2885","","","","","73","28","36","Stimuli/Experimental_stims/objects/alexander-andrews-JYGnB9gTCls-unsplash.jpg","","","","","","","","","","","","","","","","","","","","","","","","","","","","","","","","","","","","","","","","","","","","","","","","","","","","","","","","","","","","","","",""
"","rating","","html-slider-response","34","176604","0.0-1.0-31.0","33","23013","female","4313","","","","","69","29","3","Stimuli/Experimental_stims/outdoor_scenes/henry-be-NLF6hTe4PAg-unsplash.jpg","","","","","","","","","","","","","","","","","","","","","","","","","","","","","","","","","","","","","","","","","","","","","","","","","","","","","","","","","","","","","","",""
"","rating","","html-slider-response","35","179254","0.0-1.0-32.0","33","23013","female","2629","","","","","76","30","29","Stimuli/Experimental_stims/body_parts/manuel-schinner-ZwjFuJ7ebpk-unsplash.jpg","","","","","","","","","","","","","","","","","","","","","","","","","","","","","","","","","","","","","","","","","","","","","","","","","","","","","","","","","","","","","","",""
"","rating","","html-slider-response","36","181521","0.0-1.0-33.0","33","23013","female","2256","","","","","84","31","43","Stimuli/Experimental_stims/objects/jonathan-greenaway-Y4hGgeiFn3s-unsplash.jpg","","","","","","","","","","","","","","","","","","","","","","","","","","","","","","","","","","","","","","","","","","","","","","","","","","","","","","","","","","","","","","",""
"","rating","","html-slider-response","37","184024","0.0-1.0-34.0","33","23013","female","2489","","","","","71","32","40","Stimuli/Experimental_stims/objects/fabian-blank-pElSkGRA2NU-unsplash.jpg","","","","","","","","","","","","","","","","","","","","","","","","","","","","","","","","","","","","","","","","","","","","","","","","","","","","","","","","","","","","","","",""
"","rating","","html-slider-response","38","186665","0.0-1.0-35.0","33","23013","female","2625","","","","","79","33","2","Stimuli/Experimental_stims/outdoor_scenes/bruno-van-der-kraan-qez8mNJ3ilU-unsplash.jpg","","","","","","","","","","","","","","","","","","","","","","","","","","","","","","","","","","","","","","","","","","","","","","","","","","","","","","","","","","","","","","",""
"","rating","","html-slider-response","39","188986","0.0-1.0-36.0","33","23013","female","2307","","","","","86","34","26","Stimuli/Experimental_stims/body_parts/engin-akyurt-x_3gyC42btc-unsplash.jpg","","","","","","","","","","","","","","","","","","","","","","","","","","","","","","","","","","","","","","","","","","","","","","","","","","","","","","","","","","","","","","",""
"","rating","","html-slider-response","40","191066","0.0-1.0-37.0","33","23013","female","2067","","","","","93","35","45","Stimuli/Experimental_stims/objects/leohoho-rngTKHXumy0-unsplash.jpg","","","","","","","","","","","","","","","","","","","","","","","","","","","","","","","","","","","","","","","","","","","","","","","","","","","","","","","","","","","","","","",""
"","rating","","html-slider-response","41","193686","0.0-1.0-38.0","33","23013","female","2603","","","","","81","36","6","Stimuli/Experimental_stims/outdoor_scenes/meng-ji-8BH_M-53CyA-unsplash.jpg","","","","","","","","","","","","","","","","","","","","","","","","","","","","","","","","","","","","","","","","","","","","","","","","","","","","","","","","","","","","","","",""
"","rating","","html-slider-response","42","197485","0.0-1.0-39.0","33","23013","female","3783","","","","","86","37","13","Stimuli/Experimental_stims/faces/daniel-rigdon-dXmXKPP2L4E-unsplash.jpg","","","","","","","","","","","","","","","","","","","","","","","","","","","","","","","","","","","","","","","","","","","","","","","","","","","","","","","","","","","","","","",""
"","rating","","html-slider-response","43","200910","0.0-1.0-40.0","33","23013","female","3409","","","","","78","38","44","Stimuli/Experimental_stims/objects/kuiye-chen-NuOGFo4PudE-unsplash.jpg","","","","","","","","","","","","","","","","","","","","","","","","","","","","","","","","","","","","","","","","","","","","","","","","","","","","","","","","","","","","","","",""
"","rating","","html-slider-response","44","203415","0.0-1.0-41.0","33","23013","female","2486","","","","","80","39","42","Stimuli/Experimental_stims/objects/jess-bailey-nOeVi8DsN8U-unsplash.jpg","","","","","","","","","","","","","","","","","","","","","","","","","","","","","","","","","","","","","","","","","","","","","","","","","","","","","","","","","","","","","","",""
"","rating","","html-slider-response","45","205843","0.0-1.0-42.0","33","23013","female","2415","","","","","86","40","24","Stimuli/Experimental_stims/body_parts/clay-banks-LjqARJaJotc-unsplash.jpg","","","","","","","","","","","","","","","","","","","","","","","","","","","","","","","","","","","","","","","","","","","","","","","","","","","","","","","","","","","","","","",""
"","rating","","html-slider-response","46","209349","0.0-1.0-43.0","33","23013","female","3491","","","","","91","41","21","Stimuli/Experimental_stims/faces/leilani-angel-K84vnnzxmTQ-unsplash.jpg","","","","","","","","","","","","","","","","","","","","","","","","","","","","","","","","","","","","","","","","","","","","","","","","","","","","","","","","","","","","","","",""
"","rating","","html-slider-response","47","212385","0.0-1.0-44.0","33","23013","female","3022","","","","","76","42","7","Stimuli/Experimental_stims/outdoor_scenes/petr-vysohlid-9fqwGqGLUxc-unsplash.jpg","","","","","","","","","","","","","","","","","","","","","","","","","","","","","","","","","","","","","","","","","","","","","","","","","","","","","","","","","","","","","","",""
"","rating","","html-slider-response","48","215484","0.0-1.0-45.0","33","23013","female","3086","","","","","77","43","46","Stimuli/Experimental_stims/objects/mockup-graphics-PNsj6RiHAF4-unsplash.jpg","","","","","","","","","","","","","","","","","","","","","","","","","","","","","","","","","","","","","","","","","","","","","","","","","","","","","","","","","","","","","","",""
"","rating","","html-slider-response","49","218011","0.0-1.0-46.0","33","23013","female","2509","","","","","66","44","38","Stimuli/Experimental_stims/objects/art-lasovsky-8XddFc6NkBY-unsplash.jpg","","","","","","","","","","","","","","","","","","","","","","","","","","","","","","","","","","","","","","","","","","","","","","","","","","","","","","","","","","","","","","",""
"","rating","","html-slider-response","50","220302","0.0-1.0-47.0","33","23013","female","2276","","","","","81","45","8","Stimuli/Experimental_stims/outdoor_scenes/samsommer-vddccTqwal8-unsplash.jpg","","","","","","","","","","","","","","","","","","","","","","","","","","","","","","","","","","","","","","","","","","","","","","","","","","","","","","","","","","","","","","",""
"","rating","","html-slider-response","51","222992","0.0-1.0-48.0","33","23013","female","2675","","","","","93","46","10","Stimuli/Experimental_stims/outdoor_scenes/shannon-kunkle-dM8INmkyDas-unsplash.jpg","","","","","","","","","","","","","","","","","","","","","","","","","","","","","","","","","","","","","","","","","","","","","","","","","","","","","","","","","","","","","","",""
"","rating","","html-slider-response","52","225839","0.0-1.0-49.0","33","23013","female","2834","","","","","80","47","39","Stimuli/Experimental_stims/objects/charlesdeluvio-1-nx1QR5dTE-unsplash.jpg","","","","","","","","","","","","","","","","","","","","","","","","","","","","","","","","","","","","","","","","","","","","","","","","","","","","","","","","","","","","","","",""
"","localizer_instructions","","instructions","53","232145","0.0-2.0-0.0-0.0","33","23013","female","6234","","[{""page_index"":0,""viewing_time"":2811},{""page_index"":1,""viewing_time"":2213},{""page_index"":2,""viewing_time"":1209}]","","","","","","","","","","","","","","","","","","","","","","","","","","","","","","","","","","","","","","","","","","","","","","","","","","","","","","","","","","","","","","","","","","","","",""
"","localizer_comprehension_check","","survey-multi-choice","54","241681","0.0-2.0-0.0-1.0","33","23013","female","9517","{""Q0"":""True"",""Q1"":""K"",""Q2"":""D""}","","0","","","","","","","","","","","","","","","","","","","","","","","","","","","","","","","","","","","","","","","","","","","","","","","","","","","","","","","","","","","","","","","","","","","",""
"","","","html-keyboard-response","55","243261","0.0-2.0-1.0","33","23013","female","1566","","","","68","","","","","","","","","","","","","","","","","","","","","","","","","","","","","","","","","","","","","","","","","","","","","","","","","","","","","","","","","","","","","","","","","","",""
"","localizer","","html-keyboard-response","56","243672","0.0-2.0-2.0-0.0","33","23013","female","NaN","","","","null","NaN","0","","Stimuli/Practice_stims/Localizer/annie-spratt-g9KFpAfQ5bc-unsplash.jpg","243261","0","NaN","","0","1","0","400","0","411","0","","","","","","","","","","","","","","","","","","","","","","","","","","","","","","","","","","","","","","","","","","","","","","","","","","","",""
"","iti_localizer","","html-keyboard-response","57","243991","0.0-2.0-2.0-1.0","33","23013","female","null","","","","null","","0","","","243672","0","","","","","","300","400","319","411","300","","","","","","","","","","","","","","","","","","","","","","","","","","","","","","","","","","","","","","","","","","","","","","","","","","",""
"","localizer","","html-keyboard-response","58","244407","0.0-2.0-2.1-0.1","33","23013","female","NaN","","","","null","NaN","0","","Stimuli/Practice_stims/Localizer/annie-spratt-g9KFpAfQ5bc-unsplash.jpg","243991","0","NaN","","0","1","0","400","700","416","730","","","","","","","","","","","","","","","","","","","","","","","","","","","","","","","","","","","","","","","","","","","","","","","","","","","",""
"","iti_localizer","","html-keyboard-response","59","244720","0.0-2.0-2.1-1.1","33","23013","female","null","","","","null","","0","","","244407","0","","","","","","300","1100","313","1146","300","","","","","","","","","","","","","","","","","","","","","","","","","","","","","","","","","","","","","","","","","","","","","","","","","","",""
"","localizer","","html-keyboard-response","60","245158","0.0-2.0-2.2-0.2","33","23013","female","41","","","","68","0","0","","Stimuli/Practice_stims/Localizer/annie-spratt-g9KFpAfQ5bc-unsplash.jpg","244720","0","NaN","","0","0","1","400","1400","438","1459","","","","","","","","","","","","","","","","","","","","","","","","","","","","","","","","","","","","","","","","","","","","","","","","","","","",""
"","iti_localizer","","html-keyboard-response","61","245473","0.0-2.0-2.2-1.2","33","23013","female","null","","","","null","","0","","","245158","0","","","","","","300","1800","315","1897","300","","","","","","","","","","","","","","","","","","","","","","","","","","","","","","","","","","","","","","","","","","","","","","","","","","",""
"","localizer","","html-keyboard-response","62","245884","0.0-2.0-3.0-0.0","33","23013","female","NaN","","","","null","NaN","1","","Stimuli/Practice_stims/Localizer/becca-tapert-sY5RjMB1KkE-unsplash.jpg","245473","0","NaN","","0","1","0","400","2100","411","2212","","","","","","","","","","","","","","","","","","","","","","","","","","","","","","","","","","","","","","","","","","","","","","","","","","","",""
"","iti_localizer","","html-keyboard-response","63","246197","0.0-2.0-3.0-1.0","33","23013","female","null","","","","null","","1","","","245884","0","","","","","","300","2500","313","2623","300","","","","","","","","","","","","","","","","","","","","","","","","","","","","","","","","","","","","","","","","","","","","","","","","","","",""
"","localizer","","html-keyboard-response","64","246615","0.0-2.0-3.1-0.1","33","23013","female","290","","","","68","0","1","","Stimuli/Practice_stims/Localizer/becca-tapert-sY5RjMB1KkE-unsplash.jpg","246197","0","NaN","","0","0","1","400","2800","418","2936","","","","","","","","","","","","","","","","","","","","","","","","","","","","","","","","","","","","","","","","","","","","","","","","","","","",""
"","iti_localizer","","html-keyboard-response","65","246956","0.0-2.0-3.1-1.1","33","23013","female","null","","","","null","","1","","","246615","0","","","","","","300","3200","341","3354","300","","","","","","","","","","","","","","","","","","","","","","","","","","","","","","","","","","","","","","","","","","","","","","","","","","",""
"","localizer","","html-keyboard-response","66","247372","0.0-2.0-4.0-0.0","33","23013","female","NaN","","","","null","NaN","2","","Stimuli/Practice_stims/Localizer/charl-durand-bsfXvI25iNg-unsplash.jpg","246956","0","NaN","","1","1","0","400","3500","416","3695","","","","","","","","","","","","","","","","","","","","","","","","","","","","","","","","","","","","","","","","","","","","","","","","","","","",""
"","iti_localizer","","html-keyboard-response","67","247683","0.0-2.0-4.0-1.0","33","23013","female","null","","","","null","","2","","","247372","0","","","","","","300","3900","311","4111","300","","","","","","","","","","","","","","","","","","","","","","","","","","","","","","","","","","","","","","","","","","","","","","","","","","",""
"","localizer","","html-keyboard-response","68","248103","0.0-2.0-4.1-0.1","33","23013","female","171","","","","75","1","2","","Stimuli/Practice_stims/Localizer/charl-durand-bsfXvI25iNg-unsplash.jpg","247683","0","NaN","","1","0","1","400","4200","420","4422","","","","","","","","","","","","","","","","","","","","","","","","","","","","","","","","","","","","","","","","","","","","","","","","","","","",""
"","iti_localizer","","html-keyboard-response","69","248414","0.0-2.0-4.1-1.1","33","23013","female","null","","","","null","","2","","","248103","0","","","","","","300","4600","311","4842","300","","","","","","","","","","","","","","","","","","","","","","","","","","","","","","","","","","","","","","","","","","","","","","","","","","",""
"","localizer","","html-keyboard-response","70","248843","0.0-2.0-5.0-0.0","33","23013","female","NaN","","","","null","NaN","3","","Stimuli/Practice_stims/Localizer/nizar-albusaidy-B2r2SWAf5CE-unsplash.jpg","248414","0","NaN","","0","1","0","400","4900","429","5153","","","","","","","","","","","","","","","","","","","","","","","","","","","","","","","","","","","","","","","","","","","","","","","","","","","",""
"","iti_localizer","","html-keyboard-response","71","249264","0.0-2.0-5.0-1.0","33","23013","female","null","","","","null","","3","","","248843","0","","","","","","300","5300","421","5582","300","","","","","","","","","","","","","","","","","","","","","","","","","","","","","","","","","","","","","","","","","","","","","","","","","","",""
"","localizer","","html-keyboard-response","72","249675","0.0-2.0-5.1-0.1","33","23013","female","16","","","","68","0","3","","Stimuli/Practice_stims/Localizer/nizar-albusaidy-B2r2SWAf5CE-unsplash.jpg","249264","0","NaN","","0","0","1","400","5600","411","6003","","","","","","","","","","","","","","","","","","","","","","","","","","","","","","","","","","","","","","","","","","","","","","","","","","","",""
"","iti_localizer","","html-keyboard-response","73","249983","0.0-2.0-5.1-1.1","33","23013","female","null","","","","null","","3","","","249675","0","","","","","","300","6000","308","6414","300","","","","","","","","","","","","","","","","","","","","","","","","","","","","","","","","","","","","","","","","","","","","","","","","","","",""
"","localizer","","html-keyboard-response","74","250404","0.0-2.0-6.0-0.0","33","23013","female","NaN","","","","null","NaN","4","","Stimuli/Practice_stims/Localizer/randy-fath-epf1tdtIIkM-unsplash.jpg","249983","0","NaN","","1","1","0","400","6300","421","6722","","","","","","","","","","","","","","","","","","","","","","","","","","","","","","","","","","","","","","","","","","","","","","","","","","","",""
"","iti_localizer","","html-keyboard-response","75","250714","0.0-2.0-6.0-1.0","33","23013","female","null","","","","null","","4","","","250404","0","","","","","","300","6700","310","7143","300","","","","","","","","","","","","","","","","","","","","","","","","","","","","","","","","","","","","","","","","","","","","","","","","","","",""
"","localizer","","html-keyboard-response","76","251146","0.0-2.0-6.1-0.1","33","23013","female","31","","","","68","0","4","","Stimuli/Practice_stims/Localizer/randy-fath-epf1tdtIIkM-unsplash.jpg","250714","0","NaN","","1","0","0","400","7000","432","7453","","","","","","","","","","","","","","","","","","","","","","","","","","","","","","","","","","","","","","","","","","","","","","","","","","","",""
"","iti_localizer","","html-keyboard-response","77","251460","0.0-2.0-6.1-1.1","33","23013","female","null","","","","null","","4","","","251146","0","","","","","","300","7400","314","7885","300","","","","","","","","","","","","","","","","","","","","","","","","","","","","","","","","","","","","","","","","","","","","","","","","","","",""
"","localizer","","html-keyboard-response","78","251876","0.0-2.0-7.0-0.0","33","23013","female","NaN","","","","null","NaN","5","","Stimuli/Practice_stims/Localizer/yassine-khalfalli-adsQ9d_Cx0c-unsplash.jpg","251460","0","NaN","","0","1","0","400","7700","416","8199","","","","","","","","","","","","","","","","","","","","","","","","","","","","","","","","","","","","","","","","","","","","","","","","","","","",""
"","iti_localizer","","html-keyboard-response","79","252195","0.0-2.0-7.0-1.0","33","23013","female","null","","","","null","","5","","","251876","0","","","","","","300","8100","319","8615","300","","","","","","","","","","","","","","","","","","","","","","","","","","","","","","","","","","","","","","","","","","","","","","","","","","",""
"","localizer","","html-keyboard-response","80","252611","0.0-2.0-7.1-0.1","33","23013","female","NaN","","","","null","NaN","5","","Stimuli/Practice_stims/Localizer/yassine-khalfalli-adsQ9d_Cx0c-unsplash.jpg","252195","0","NaN","","0","1","0","400","8400","416","8934","","","","","","","","","","","","","","","","","","","","","","","","","","","","","","","","","","","","","","","","","","","","","","","","","","","",""
"","iti_localizer","","html-keyboard-response","81","252923","0.0-2.0-7.1-1.1","33","23013","female","null","","","","null","","5","","","252611","0","","","","","","300","8800","312","9350","300","","","","","","","","","","","","","","","","","","","","","","","","","","","","","","","","","","","","","","","","","","","","","","","","","","",""
"","localizer","","html-keyboard-response","82","253334","0.0-2.0-7.2-0.2","33","23013","female","108","","","","68","0","5","","Stimuli/Practice_stims/Localizer/yassine-khalfalli-adsQ9d_Cx0c-unsplash.jpg","252923","0","NaN","","0","0","1","400","9100","411","9662","","","","","","","","","","","","","","","","","","","","","","","","","","","","","","","","","","","","","","","","","","","","","","","","","","","",""
"","iti_localizer","","html-keyboard-response","83","253650","0.0-2.0-7.2-1.2","33","23013","female","null","","","","null","","5","","","253334","0","","","","","","300","9500","316","10073","300","","","","","","","","","","","","","","","","","","","","","","","","","","","","","","","","","","","","","","","","","","","","","","","","","","",""
"","practice_over","","html-keyboard-response","84","255115","0.0-2.0-7.2-2.2-0.2","33","23013","female","1450","","","","68","","","","","","","","","","","","","","","","","","","","","","","","","","","","","","","","","","","","","","","","","","","","","","","","","","","","","","","","","","","","","","","","","","",""
"","start_run","","html-keyboard-response","85","256659","0.0-2.0-7.2-2.2-1.2","33","23013","female","1536","","","","84","","","","","","","","","","","","","","","","","","","","","","","","","","","","","","","","","","","","","","","","","","","","","","","","","","","","","","","","","","","","","","","","","","",""
"","localizer","","html-keyboard-response","86","257121","0.0-2.0-8.0-0.0","33","23013","female","NaN","","","","null","NaN","6","","Stimuli/Experimental_stims/localizer/body_parts/igordoon-primus-CdyHqfrbGIs-unsplash.jpg","256659","1","body_parts","","0","1","0","400","0","462","0","","","","","","","","","","","","","","","","","","","","","","","","","","","","","","","","","","","","","","","","","","","","","","","","","","","",""
"","iti_localizer","","html-keyboard-response","87","257438","0.0-2.0-8.0-1.0","33","23013","female","null","","","","null","","6","","","257121","1","","","","","","300","400","317","462","300","","","","","","","","","","","","","","","","","","","","","","","","","","","","","","","","","","","","","","","","","","","","","","","","","","",""
"","localizer","","html-keyboard-response","88","257848","0.0-2.0-9.0-0.0","33","23013","female","146","","","","68","0","7","","Stimuli/Experimental_stims/localizer/body_parts/jonathan-borba-hTwH8QFkPMs-unsplash.jpg","257438","1","body_parts","","0","0","1","400","700","410","779","","","","","","","","","","","","","","","","","","","","","","","","","","","","","","","","","","","","","","","","","","","","","","","","","","","",""
"","iti_localizer","","html-keyboard-response","89","258162","0.0-2.0-9.0-1.0","33","23013","female","null","","","","null","","7","","","257848","1","","","","","","300","1100","314","1189","300","","","","","","","","","","","","","","","","","","","","","","","","","","","","","","","","","","","","","","","","","","","","","","","","","","",""
"","localizer","","html-keyboard-response","90","258569","0.0-2.0-10.0-0.0","33","23013","female","50","","","","68","0","8","","Stimuli/Experimental_stims/localizer/body_parts/marcel-fagin-OUYg0Q3ec-Y-unsplash.jpg","258162","1","body_parts","","1","0","0","400","1400","407","1503","","","","","","","","","","","","","","","","","","","","","","","","","","","","","","","","","","","","","","","","","","","","","","","","","","","",""
"","iti_localizer","","html-keyboard-response","91","258881","0.0-2.0-10.0-1.0","33","23013","female","null","","","","null","","8","","","258569","1","","","","","","300","1800","312","1910","300","","","","","","","","","","","","","","","","","","","","","","","","","","","","","","","","","","","","","","","","","","","","","","","","","","",""
"","localizer","","html-keyboard-response","92","259290","0.0-2.0-11.0-0.0","33","23013","female","199","","","","75","1","9","","Stimuli/Experimental_stims/localizer/body_parts/anelya-okapova-V69kmOyZ3SU-unsplash.jpg","258881","1","body_parts","","0","0","0","400","2100","409","2222","","","","","","","","","","","","","","","","","","","","","","","","","","","","","","","","","","","","","","","","","","","","","","","","","","","",""
"","iti_localizer","","html-keyboard-response","93","259601","0.0-2.0-11.0-1.0","33","23013","female","null","","","","null","","9","","","259290","1","","","","","","300","2500","311","2631","300","","","","","","","","","","","","","","","","","","","","","","","","","","","","","","","","","","","","","","","","","","","","","","","","","","",""
"","localizer","","html-keyboard-response","94","260010","0.0-2.0-12.0-0.0","33","23013","female","NaN","","","","null","NaN","10","","Stimuli/Experimental_stims/localizer/body_parts/jan-romero-DL4DDQb8yjc-unsplash.jpg","259601","1","body_parts","","0","1","0","400","2800","409","2942","","","","","","","","","","","","","","","","","","","","","","","","","","","","","","","","","","","","","","","","","","","","","","","","","","","",""
"","iti_localizer","","html-keyboard-response","95","260327","0.0-2.0-12.0-1.0","33","23013","female","null","","","","null","","10","","","260010","1","","","","","","300","3200","317","3351","300","","","","","","","","","","","","","","","","","","","","","","","","","","","","","","","","","","","","","","","","","","","","","","","","","","",""
"","localizer","","html-keyboard-response","96","260743","0.0-2.0-13.0-0.0","33","23013","female","NaN","","","","null","NaN","11","","Stimuli/Experimental_stims/localizer/body_parts/pure-julia-9lVaya31sMk-unsplash.jpg","260327","1","body_parts","","0","1","0","400","3500","416","3668","","","","","","","","","","","","","","","","","","","","","","","","","","","","","","","","","","","","","","","","","","","","","","","","","","","",""
"","iti_localizer","","html-keyboard-response","97","261059","0.0-2.0-13.0-1.0","33","23013","female","null","","","","null","","11","","","260743","1","","","","","","300","3900","316","4084","300","","","","","","","","","","","","","","","","","","","","","","","","","","","","","","","","","","","","","","","","","","","","","","","","","","",""
"","localizer","","html-keyboard-response","98","261485","0.0-2.0-14.0-0.0","33","23013","female","166","","","","68","0","12","","Stimuli/Experimental_stims/localizer/body_parts/jasper-garratt-Ng_Kl7K6V8Y-unsplash.jpg","261059","1","body_parts","","0","0","1","400","4200","426","4400","","","","","","","","","","","","","","","","","","","","","","","","","","","","","","","","","","","","","","","","","","","","","","","","","","","",""
"","iti_localizer","","html-keyboard-response","99","261797","0.0-2.0-14.0-1.0","33","23013","female","null","","","","null","","12","","","261485","1","","","","","","300","4600","312","4826","300","","","","","","","","","","","","","","","","","","","","","","","","","","","","","","","","","","","","","","","","","","","","","","","","","","",""
"","localizer","","html-keyboard-response","100","262207","0.0-2.0-15.0-0.0","33","23013","female","133","","","","68","0","13","","Stimuli/Experimental_stims/localizer/body_parts/i-am_nah--S4OsO0c6Ts-unsplash.jpg","261797","1","body_parts","","0","0","1","400","4900","410","5138","","","","","","","","","","","","","","","","","","","","","","","","","","","","","","","","","","","","","","","","","","","","","","","","","","","",""
"","iti_localizer","","html-keyboard-response","101","262526","0.0-2.0-15.0-1.0","33","23013","female","null","","","","null","","13","","","262207","1","","","","","","300","5300","319","5548","300","","","","","","","","","","","","","","","","","","","","","","","","","","","","","","","","","","","","","","","","","","","","","","","","","","",""
"","localizer","","html-keyboard-response","102","262946","0.0-2.0-16.0-0.0","33","23013","female","145","","","","68","0","14","","Stimuli/Experimental_stims/localizer/body_parts/femme-spirit-RGYBDUHYbyM-unsplash.jpg","262526","1","body_parts","","0","0","1","400","5600","420","5867","","","","","","","","","","","","","","","","","","","","","","","","","","","","","","","","","","","","","","","","","","","","","","","","","","","",""
"","iti_localizer","","html-keyboard-response","103","263256","0.0-2.0-16.0-1.0","33","23013","female","null","","","","null","","14","","","262946","1","","","","","","300","6000","310","6287","300","","","","","","","","","","","","","","","","","","","","","","","","","","","","","","","","","","","","","","","","","","","","","","","","","","",""
"","localizer","","html-keyboard-response","104","263689","0.0-2.0-17.0-0.0","33","23013","female","5","","","","68","0","15","","Stimuli/Experimental_stims/localizer/body_parts/liv-bruce-M0oVPGsWk1E-unsplash.jpg","263256","1","body_parts","","0","0","1","400","6300","433","6597","","","","","","","","","","","","","","","","","","","","","","","","","","","","","","","","","","","","","","","","","","","","","","","","","","","",""
"","iti_localizer","","html-keyboard-response","105","264006","0.0-2.0-17.0-1.0","33","23013","female","null","","","","null","","15","","","263689","1","","","","","","300","6700","317","7030","300","","","","","","","","","","","","","","","","","","","","","","","","","","","","","","","","","","","","","","","","","","","","","","","","","","",""
"","localizer","","html-keyboard-response","106","264422","0.0-2.0-18.0-0.0","33","23013","female","NaN","","","","null","NaN","16","","Stimuli/Experimental_stims/localizer/body_parts/bady-abbas-N-VEeMnm7gE-unsplash.jpg","264006","1","body_parts","","0","1","0","400","7000","416","7347","","","","","","","","","","","","","","","","","","","","","","","","","","","","","","","","","","","","","","","","","","","","","","","","","","","",""
"","iti_localizer","","html-keyboard-response","107","264733","0.0-2.0-18.0-1.0","33","23013","female","null","","","","null","","16","","","264422","1","","","","","","300","7400","311","7763","300","","","","","","","","","","","","","","","","","","","","","","","","","","","","","","","","","","","","","","","","","","","","","","","","","","",""
"","localizer","","html-keyboard-response","108","265157","0.0-2.0-19.0-0.0","33","23013","female","NaN","","","","null","NaN","17","","Stimuli/Experimental_stims/localizer/body_parts/lucaxx-freire-CacZwMexYdk-unsplash.jpg","264733","1","body_parts","","0","1","0","400","7700","424","8074","","","","","","","","","","","","","","","","","","","","","","","","","","","","","","","","","","","","","","","","","","","","","","","","","","","",""
"","iti_localizer","","html-keyboard-response","109","265469","0.0-2.0-19.0-1.0","33","23013","female","null","","","","null","","17","","","265157","1","","","","","","300","8100","312","8498","300","","","","","","","","","","","","","","","","","","","","","","","","","","","","","","","","","","","","","","","","","","","","","","","","","","",""
"","localizer","","html-keyboard-response","110","265887","0.0-2.0-20.0-0.0","33","23013","female","32","","","","68","0","18","","Stimuli/Experimental_stims/localizer/body_parts/hu-chen-tCbTGNwrFNM-unsplash.jpg","265469","1","body_parts","","0","0","1","400","8400","418","8810","","","","","","","","","","","","","","","","","","","","","","","","","","","","","","","","","","","","","","","","","","","","","","","","","","","",""
"","iti_localizer","","html-keyboard-response","111","266198","0.0-2.0-20.0-1.0","33","23013","female","null","","","","null","","18","","","265887","1","","","","","","300","8800","311","9228","300","","","","","","","","","","","","","","","","","","","","","","","","","","","","","","","","","","","","","","","","","","","","","","","","","","",""
"","localizer","","html-keyboard-response","112","266608","0.0-2.0-21.0-0.0","33","23013","female","62","","","","68","0","19","","Stimuli/Experimental_stims/localizer/body_parts/megan-menegay-UojxG_BJxnI-unsplash.jpg","266198","1","body_parts","","0","0","1","400","9100","410","9539","","","","","","","","","","","","","","","","","","","","","","","","","","","","","","","","","","","","","","","","","","","","","","","","","","","",""
"","iti_localizer","","html-keyboard-response","113","266945","0.0-2.0-21.0-1.0","33","23013","female","null","","","","null","","19","","","266608","1","","","","","","300","9500","337","9949","300","","","","","","","","","","","","","","","","","","","","","","","","","","","","","","","","","","","","","","","","","","","","","","","","","","",""
"","localizer","","html-keyboard-response","114","267368","0.0-2.0-22.0-0.0","33","23013","female","27","","","","68","0","20","","Stimuli/Experimental_stims/localizer/body_parts/toan-nguyen-VIeLuUFzesg-unsplash.jpg","266945","1","body_parts","","1","0","0","400","9800","423","10286","","","","","","","","","","","","","","","","","","","","","","","","","","","","","","","","","","","","","","","","","","","","","","","","","","","",""
"","iti_localizer","","html-keyboard-response","115","267685","0.0-2.0-22.0-1.0","33","23013","female","null","","","","null","","20","","","267368","1","","","","","","300","10200","317","10709","300","","","","","","","","","","","","","","","","","","","","","","","","","","","","","","","","","","","","","","","","","","","","","","","","","","",""
"","localizer","","html-keyboard-response","116","268098","0.0-2.0-23.0-0.0","33","23013","female","64","","","","75","1","21","","Stimuli/Experimental_stims/localizer/body_parts/sippakorn-yamkasikorn-32_sJlJa5gA-unsplash.jpg","267685","1","body_parts","","0","0","0","400","10500","413","11026","","","","","","","","","","","","","","","","","","","","","","","","","","","","","","","","","","","","","","","","","","","","","","","","","","","",""
"","iti_localizer","","html-keyboard-response","117","268414","0.0-2.0-23.0-1.0","33","23013","female","null","","","","null","","21","","","268098","1","","","","","","300","10900","316","11439","300","","","","","","","","","","","","","","","","","","","","","","","","","","","","","","","","","","","","","","","","","","","","","","","","","","",""
"","localizer","","html-keyboard-response","118","268830","0.0-2.0-24.0-0.0","33","23013","female","NaN","","","","null","NaN","22","","Stimuli/Experimental_stims/localizer/body_parts/louis-hansel-FjKTMRTQYAs-unsplash.jpg","268414","1","body_parts","","0","1","0","400","11200","416","11755","","","","","","","","","","","","","","","","","","","","","","","","","","","","","","","","","","","","","","","","","","","","","","","","","","","",""
"","iti_localizer","","html-keyboard-response","119","269164","0.0-2.0-24.0-1.0","33","23013","female","null","","","","null","","22","","","268830","1","","","","","","300","11600","334","12171","300","","","","","","","","","","","","","","","","","","","","","","","","","","","","","","","","","","","","","","","","","","","","","","","","","","",""
"","localizer","","html-keyboard-response","120","269577","0.0-2.0-25.0-0.0","33","23013","female","NaN","","","","null","NaN","23","","Stimuli/Experimental_stims/localizer/body_parts/sydney-herron-b2W04fGuS70-unsplash.jpg","269164","1","body_parts","","0","1","0","400","11900","413","12505","","","","","","","","","","","","","","","","","","","","","","","","","","","","","","","","","","","","","","","","","","","","","","","","","","","",""
"","iti_localizer","","html-keyboard-response","121","269886","0.0-2.0-25.0-1.0","33","23013","female","null","","","","null","","23","","","269577","1","","","","","","300","12300","309","12918","300","","","","","","","","","","","","","","","","","","","","","","","","","","","","","","","","","","","","","","","","","","","","","","","","","","",""
"","localizer","","html-keyboard-response","122","270300","0.0-2.0-26.0-0.0","33","23013","female","218","","","","68","0","24","","Stimuli/Experimental_stims/localizer/body_parts/danie-franco-jyyNiSEcCl4-unsplash.jpg","269886","1","body_parts","","0","0","1","400","12600","414","13227","","","","","","","","","","","","","","","","","","","","","","","","","","","","","","","","","","","","","","","","","","","","","","","","","","","",""
"","iti_localizer","","html-keyboard-response","123","270620","0.0-2.0-26.0-1.0","33","23013","female","null","","","","null","","24","","","270300","1","","","","","","300","13000","320","13641","300","","","","","","","","","","","","","","","","","","","","","","","","","","","","","","","","","","","","","","","","","","","","","","","","","","",""
"","localizer","","html-keyboard-response","124","271038","0.0-2.0-27.0-0.0","33","23013","female","84","","","","68","0","25","","Stimuli/Experimental_stims/localizer/body_parts/ramesh-iyer-CRhznMXoJlc-unsplash.jpg","270620","1","body_parts","","0","0","1","400","13300","418","13961","","","","","","","","","","","","","","","","","","","","","","","","","","","","","","","","","","","","","","","","","","","","","","","","","","","",""
"","iti_localizer","","html-keyboard-response","125","285059","0.0-2.0-27.0-1.0","33","23013","female","null","","","","null","","25","","","271038","1","","","","","","14000","13700","14021","14379","14000","","","","","","","","","","","","","","","","","","","","","","","","","","","","","","","","","","","","","","","","","","","","","","","","","","",""
"","localizer","","html-keyboard-response","126","285481","0.0-2.0-28.0-0.0","33","23013","female","NaN","","","","null","NaN","26","","Stimuli/Experimental_stims/localizer/objects/adriano-pucciarelli-BE7yaZnZX6o-unsplash.jpg","285059","1","objects","","0","1","0","400","27700","422","28400","","","","","","","","","","","","","","","","","","","","","","","","","","","","","","","","","","","","","","","","","","","","","","","","","","","",""
"","iti_localizer","","html-keyboard-response","127","285800","0.0-2.0-28.0-1.0","33","23013","female","null","","","","null","","26","","","285481","1","","","","","","300","28100","319","28822","300","","","","","","","","","","","","","","","","","","","","","","","","","","","","","","","","","","","","","","","","","","","","","","","","","","",""
"","localizer","","html-keyboard-response","128","286216","0.0-2.0-29.0-0.0","33","23013","female","NaN","","","","null","NaN","27","","Stimuli/Experimental_stims/localizer/objects/petr-sidorov-3jm5TGqtULU-unsplash.jpg","285800","1","objects","","0","1","0","400","28400","416","29141","","","","","","","","","","","","","","","","","","","","","","","","","","","","","","","","","","","","","","","","","","","","","","","","","","","",""
"","iti_localizer","","html-keyboard-response","129","286530","0.0-2.0-29.0-1.0","33","23013","female","null","","","","null","","27","","","286216","1","","","","","","300","28800","314","29557","300","","","","","","","","","","","","","","","","","","","","","","","","","","","","","","","","","","","","","","","","","","","","","","","","","","",""
"","localizer","","html-keyboard-response","130","286943","0.0-2.0-30.0-0.0","33","23013","female","91","","","","68","0","28","","Stimuli/Experimental_stims/localizer/objects/carlos-felipe-ramirez-mesa-HW7bfB3ERSQ-unsplash.jpg","286530","1","objects","","0","0","1","400","29100","413","29871","","","","","","","","","","","","","","","","","","","","","","","","","","","","","","","","","","","","","","","","","","","","","","","","","","","",""
"","iti_localizer","","html-keyboard-response","131","287273","0.0-2.0-30.0-1.0","33","23013","female","null","","","","null","","28","","","286943","1","","","","","","300","29500","330","30284","300","","","","","","","","","","","","","","","","","","","","","","","","","","","","","","","","","","","","","","","","","","","","","","","","","","",""
"","localizer","","html-keyboard-response","132","287698","0.0-2.0-31.0-0.0","33","23013","female","95","","","","68","0","29","","Stimuli/Experimental_stims/localizer/objects/raimond-klavins-ZdvDPXVvcKs-unsplash.jpg","287273","1","objects","","1","0","0","400","29800","425","30614","","","","","","","","","","","","","","","","","","","","","","","","","","","","","","","","","","","","","","","","","","","","","","","","","","","",""
"","iti_localizer","","html-keyboard-response","133","288020","0.0-2.0-31.0-1.0","33","23013","female","null","","","","null","","29","","","287698","1","","","","","","300","30200","322","31039","300","","","","","","","","","","","","","","","","","","","","","","","","","","","","","","","","","","","","","","","","","","","","","","","","","","",""
"","localizer","","html-keyboard-response","134","288442","0.0-2.0-32.0-0.0","33","23013","female","NaN","","","","null","NaN","30","","Stimuli/Experimental_stims/localizer/objects/adriano-pucciarelli-Jl3S1yM8gi8-unsplash.jpg","288020","1","objects","","0","1","0","400","30500","422","31361","","","","","","","","","","","","","","","","","","","","","","","","","","","","","","","","","","","","","","","","","","","","","","","","","","","",""
"","iti_localizer","","html-keyboard-response","135","288753","0.0-2.0-32.0-1.0","33","23013","female","null","","","","null","","30","","","288442","1","","","","","","300","30900","311","31783","300","","","","","","","","","","","","","","","","","","","","","","","","","","","","","","","","","","","","","","","","","","","","","","","","","","",""
"","localizer","","html-keyboard-response","136","289206","0.0-2.0-33.0-0.0","33","23013","female","NaN","","","","null","NaN","31","","Stimuli/Experimental_stims/localizer/objects/engin-akyurt-bbbKzTmY2Gg-unsplash.jpg","288753","1","objects","","0","1","0","400","31200","453","32094","","","","","","","","","","","","","","","","","","","","","","","","","","","","","","","","","","","","","","","","","","","","","","","","","","","",""
"","iti_localizer","","html-keyboard-response","137","289523","0.0-2.0-33.0-1.0","33","23013","female","null","","","","null","","31","","","289206","1","","","","","","300","31600","317","32547","300","","","","","","","","","","","","","","","","","","","","","","","","","","","","","","","","","","","","","","","","","","","","","","","","","","",""
"","localizer","","html-keyboard-response","138","289932","0.0-2.0-34.0-0.0","33","23013","female","132","","","","68","0","32","","Stimuli/Experimental_stims/localizer/objects/sam-moghadam-khamseh-kvmdsTrGOBM-unsplash.jpg","289523","1","objects","","0","0","1","400","31900","409","32864","","","","","","","","","","","","","","","","","","","","","","","","","","","","","","","","","","","","","","","","","","","","","","","","","","","",""
"","iti_localizer","","html-keyboard-response","139","290260","0.0-2.0-34.0-1.0","33","23013","female","null","","","","null","","32","","","289932","1","","","","","","300","32300","328","33273","300","","","","","","","","","","","","","","","","","","","","","","","","","","","","","","","","","","","","","","","","","","","","","","","","","","",""
"","localizer","","html-keyboard-response","140","290687","0.0-2.0-35.0-0.0","33","23013","female","NaN","","","","null","NaN","33","","Stimuli/Experimental_stims/localizer/objects/jiangxulei1990-eIzzzwtkBjU-unsplash.jpg","290260","1","objects","","0","1","0","400","32600","427","33601","","","","","","","","","","","","","","","","","","","","","","","","","","","","","","","","","","","","","","","","","","","","","","","","","","","",""
"","iti_localizer","","html-keyboard-response","141","291002","0.0-2.0-35.0-1.0","33","23013","female","null","","","","null","","33","","","290687","1","","","","","","300","33000","315","34028","300","","","","","","","","","","","","","","","","","","","","","","","","","","","","","","","","","","","","","","","","","","","","","","","","","","",""
"","localizer","","html-keyboard-response","142","291415","0.0-2.0-36.0-0.0","33","23013","female","NaN","","","","null","NaN","34","","Stimuli/Experimental_stims/localizer/objects/florian-klauer-nptLmg6jqDo-unsplash.jpg","291002","1","objects","","0","1","0","400","33300","413","34343","","","","","","","","","","","","","","","","","","","","","","","","","","","","","","","","","","","","","","","","","","","","","","","","","","","",""
"","iti_localizer","","html-keyboard-response","143","291726","0.0-2.0-36.0-1.0","33","23013","female","null","","","","null","","34","","","291415","1","","","","","","300","33700","311","34756","300","","","","","","","","","","","","","","","","","","","","","","","","","","","","","","","","","","","","","","","","","","","","","","","","","","",""
"","localizer","","html-keyboard-response","144","292137","0.0-2.0-37.0-0.0","33","23013","female","106","","","","68","0","35","","Stimuli/Experimental_stims/localizer/objects/ignat-dolomanov-kFBDVnmskPA-unsplash.jpg","291726","1","objects","","0","0","1","400","34000","411","35067","","","","","","","","","","","","","","","","","","","","","","","","","","","","","","","","","","","","","","","","","","","","","","","","","","","",""
"","iti_localizer","","html-keyboard-response","145","292451","0.0-2.0-37.0-1.0","33","23013","female","null","","","","null","","35","","","292137","1","","","","","","300","34400","314","35478","300","","","","","","","","","","","","","","","","","","","","","","","","","","","","","","","","","","","","","","","","","","","","","","","","","","",""
"","localizer","","html-keyboard-response","146","292860","0.0-2.0-38.0-0.0","33","23013","female","339","","","","68","0","36","","Stimuli/Experimental_stims/localizer/objects/andrew-petrov-TVJqDat4MAw-unsplash.jpg","292451","1","objects","","0","0","1","400","34700","409","35792","","","","","","","","","","","","","","","","","","","","","","","","","","","","","","","","","","","","","","","","","","","","","","","","","","","",""
"","iti_localizer","","html-keyboard-response","147","293171","0.0-2.0-38.0-1.0","33","23013","female","null","","","","null","","36","","","292860","1","","","","","","300","35100","311","36201","300","","","","","","","","","","","","","","","","","","","","","","","","","","","","","","","","","","","","","","","","","","","","","","","","","","",""
"","localizer","","html-keyboard-response","148","293584","0.0-2.0-39.0-0.0","33","23013","female","NaN","","","","null","NaN","37","","Stimuli/Experimental_stims/localizer/objects/sam-moghadam-khamseh-L_7MQsHl_aU-unsplash.jpg","293171","1","objects","","0","1","0","400","35400","413","36512","","","","","","","","","","","","","","","","","","","","","","","","","","","","","","","","","","","","","","","","","","","","","","","","","","","",""
"","iti_localizer","","html-keyboard-response","149","293893","0.0-2.0-39.0-1.0","33","23013","female","null","","","","null","","37","","","293584","1","","","","","","300","35800","309","36925","300","","","","","","","","","","","","","","","","","","","","","","","","","","","","","","","","","","","","","","","","","","","","","","","","","","",""
"","localizer","","html-keyboard-response","150","294316","0.0-2.0-40.0-0.0","33","23013","female","40","","","","68","0","38","","Stimuli/Experimental_stims/localizer/objects/ana-9GmAaEMMKho-unsplash.jpg","293893","1","objects","","0","0","1","400","36100","423","37234","","","","","","","","","","","","","","","","","","","","","","","","","","","","","","","","","","","","","","","","","","","","","","","","","","","",""
"","iti_localizer","","html-keyboard-response","151","294628","0.0-2.0-40.0-1.0","33","23013","female","null","","","","null","","38","","","294316","1","","","","","","300","36500","312","37657","300","","","","","","","","","","","","","","","","","","","","","","","","","","","","","","","","","","","","","","","","","","","","","","","","","","",""
"","localizer","","html-keyboard-response","152","295044","0.0-2.0-41.0-0.0","33","23013","female","NaN","","","","null","NaN","39","","Stimuli/Experimental_stims/localizer/objects/mockup-graphics-U6ZMEefFGx8-unsplash.jpg","294628","1","objects","","0","1","0","400","36800","416","37969","","","","","","","","","","","","","","","","","","","","","","","","","","","","","","","","","","","","","","","","","","","","","","","","","","","",""
"","iti_localizer","","html-keyboard-response","153","295392","0.0-2.0-41.0-1.0","33","23013","female","null","","","","null","","39","","","295044","1","","","","","","300","37200","348","38385","300","","","","","","","","","","","","","","","","","","","","","","","","","","","","","","","","","","","","","","","","","","","","","","","","","","",""
"","localizer","","html-keyboard-response","154","295802","0.0-2.0-42.0-0.0","33","23013","female","401","","","","68","0","40","","Stimuli/Experimental_stims/localizer/objects/kelly-jean-cKjbI0Y00X0-unsplash.jpg","295392","1","objects","","0","0","1","400","37500","410","38733","","","","","","","","","","","","","","","","","","","","","","","","","","","","","","","","","","","","","","","","","","","","","","","","","","","",""
"","iti_localizer","","html-keyboard-response","155","296113","0.0-2.0-42.0-1.0","33","23013","female","null","","","","null","","40","","","295802","1","","","","","","300","37900","311","39143","300","","","","","","","","","","","","","","","","","","","","","","","","","","","","","","","","","","","","","","","","","","","","","","","","","","",""
"","localizer","","html-keyboard-response","156","296533","0.0-2.0-43.0-0.0","33","23013","female","NaN","","","","null","NaN","41","","Stimuli/Experimental_stims/localizer/objects/eugene-chystiakov-3neSwyntbQ8-unsplash.jpg","296113","1","objects","","0","1","0","400","38200","420","39454","","","","","","","","","","","","","","","","","","","","","","","","","","","","","","","","","","","","","","","","","","","","","","","","","","","",""
"","iti_localizer","","html-keyboard-response","157","296850","0.0-2.0-43.0-1.0","33","23013","female","null","","","","null","","41","","","296533","1","","","","","","300","38600","317","39874","300","","","","","","","","","","","","","","","","","","","","","","","","","","","","","","","","","","","","","","","","","","","","","","","","","","",""
"","localizer","","html-keyboard-response","158","297281","0.0-2.0-44.0-0.0","33","23013","female","57","","","","68","0","42","","Stimuli/Experimental_stims/localizer/objects/lance-reis-v0FYj9iioQg-unsplash.jpg","296850","1","objects","","0","0","1","400","38900","431","40191","","","","","","","","","","","","","","","","","","","","","","","","","","","","","","","","","","","","","","","","","","","","","","","","","","","",""
"","iti_localizer","","html-keyboard-response","159","297595","0.0-2.0-44.0-1.0","33","23013","female","null","","","","null","","42","","","297281","1","","","","","","300","39300","314","40622","300","","","","","","","","","","","","","","","","","","","","","","","","","","","","","","","","","","","","","","","","","","","","","","","","","","",""
"","localizer","","html-keyboard-response","160","298007","0.0-2.0-45.0-0.0","33","23013","female","NaN","","","","null","NaN","43","","Stimuli/Experimental_stims/localizer/objects/annie-spratt-fbAnIjhrOL4-unsplash.jpg","297595","1","objects","","0","1","0","400","39600","412","40936","","","","","","","","","","","","","","","","","","","","","","","","","","","","","","","","","","","","","","","","","","","","","","","","","","","",""
"","iti_localizer","","html-keyboard-response","161","298323","0.0-2.0-45.0-1.0","33","23013","female","null","","","","null","","43","","","298007","1","","","","","","300","40000","316","41348","300","","","","","","","","","","","","","","","","","","","","","","","","","","","","","","","","","","","","","","","","","","","","","","","","","","",""
"","localizer","","html-keyboard-response","162","298743","0.0-2.0-46.0-0.0","33","23013","female","NaN","","","","null","NaN","44","","Stimuli/Experimental_stims/localizer/objects/mockup-graphics-Pj2PY-E-LfM-unsplash.jpg","298323","1","objects","","1","1","0","400","40300","420","41664","","","","","","","","","","","","","","","","","","","","","","","","","","","","","","","","","","","","","","","","","","","","","","","","","","","",""
"","iti_localizer","","html-keyboard-response","163","299060","0.0-2.0-46.0-1.0","33","23013","female","null","","","","null","","44","","","298743","1","","","","","","300","40700","317","42084","300","","","","","","","","","","","","","","","","","","","","","","","","","","","","","","","","","","","","","","","","","","","","","","","","","","",""
"","localizer","","html-keyboard-response","164","299485","0.0-2.0-47.0-0.0","33","23013","female","186","","","","75","1","45","","Stimuli/Experimental_stims/localizer/objects/dario-mendez-hnJ2VNZzbns-unsplash.jpg","299060","1","objects","","0","0","0","400","41000","425","42401","","","","","","","","","","","","","","","","","","","","","","","","","","","","","","","","","","","","","","","","","","","","","","","","","","","",""
"","iti_localizer","","html-keyboard-response","165","313509","0.0-2.0-47.0-1.0","33","23013","female","null","","","","null","","45","","","299485","1","","","","","","14000","41400","14024","42826","14000","","","","","","","","","","","","","","","","","","","","","","","","","","","","","","","","","","","","","","","","","","","","","","","","","","",""
"","localizer","","html-keyboard-response","166","313926","0.0-2.0-48.0-0.0","33","23013","female","NaN","","","","null","NaN","46","","Stimuli/Experimental_stims/localizer/faces/christian-ferrer-8vT-DgHZDG4-unsplash.jpg","313509","1","faces","","1","1","0","400","55400","417","56850","","","","","","","","","","","","","","","","","","","","","","","","","","","","","","","","","","","","","","","","","","","","","","","","","","","",""
"","iti_localizer","","html-keyboard-response","167","314234","0.0-2.0-48.0-1.0","33","23013","female","null","","","","null","","46","","","313926","1","","","","","","300","55800","308","57267","300","","","","","","","","","","","","","","","","","","","","","","","","","","","","","","","","","","","","","","","","","","","","","","","","","","",""
"","localizer","","html-keyboard-response","168","314645","0.0-2.0-49.0-0.0","33","23013","female","NaN","","","","null","NaN","47","","Stimuli/Experimental_stims/localizer/faces/mathias-huysmans-U4JDjYmjn1g-unsplash.jpg","314234","1","faces","","0","1","0","400","56100","411","57575","","","","","","","","","","","","","","","","","","","","","","","","","","","","","","","","","","","","","","","","","","","","","","","","","","","",""
"","iti_localizer","","html-keyboard-response","169","314963","0.0-2.0-49.0-1.0","33","23013","female","null","","","","null","","47","","","314645","1","","","","","","300","56500","318","57986","300","","","","","","","","","","","","","","","","","","","","","","","","","","","","","","","","","","","","","","","","","","","","","","","","","","",""
"","localizer","","html-keyboard-response","170","315380","0.0-2.0-50.0-0.0","33","23013","female","NaN","","","","null","NaN","48","","Stimuli/Experimental_stims/localizer/faces/filipe-almeida-mnEWC72eWDM-unsplash.jpg","314963","1","faces","","0","1","0","400","56800","417","58304","","","","","","","","","","","","","","","","","","","","","","","","","","","","","","","","","","","","","","","","","","","","","","","","","","","",""
"","iti_localizer","","html-keyboard-response","171","315699","0.0-2.0-50.0-1.0","33","23013","female","null","","","","null","","48","","","315380","1","","","","","","300","57200","319","58721","300","","","","","","","","","","","","","","","","","","","","","","","","","","","","","","","","","","","","","","","","","","","","","","","","","","",""
"","localizer","","html-keyboard-response","172","316113","0.0-2.0-51.0-0.0","33","23013","female","240","","","","68","0","49","","Stimuli/Experimental_stims/localizer/faces/midas-hofstra-tidSLv-UaNs-unsplash.jpg","315699","1","faces","","0","0","1","400","57500","414","59040","","","","","","","","","","","","","","","","","","","","","","","","","","","","","","","","","","","","","","","","","","","","","","","","","","","",""
"","iti_localizer","","html-keyboard-response","173","316425","0.0-2.0-51.0-1.0","33","23013","female","null","","","","null","","49","","","316113","1","","","","","","300","57900","312","59454","300","","","","","","","","","","","","","","","","","","","","","","","","","","","","","","","","","","","","","","","","","","","","","","","","","","",""
"","localizer","","html-keyboard-response","174","316838","0.0-2.0-52.0-0.0","33","23013","female","NaN","","","","null","NaN","50","","Stimuli/Experimental_stims/localizer/faces/darshan-patel-QJEVpydulGs-unsplash.jpg","316425","1","faces","","0","1","0","400","58200","413","59766","","","","","","","","","","","","","","","","","","","","","","","","","","","","","","","","","","","","","","","","","","","","","","","","","","","",""
"","iti_localizer","","html-keyboard-response","175","317155","0.0-2.0-52.0-1.0","33","23013","female","null","","","","null","","50","","","316838","1","","","","","","300","58600","317","60179","300","","","","","","","","","","","","","","","","","","","","","","","","","","","","","","","","","","","","","","","","","","","","","","","","","","",""
"","localizer","","html-keyboard-response","176","317567","0.0-2.0-53.0-0.0","33","23013","female","NaN","","","","null","NaN","51","","Stimuli/Experimental_stims/localizer/faces/ivan-dodig-R21SyyJDFgc-unsplash.jpg","317155","1","faces","","0","1","0","400","58900","412","60496","","","","","","","","","","","","","","","","","","","","","","","","","","","","","","","","","","","","","","","","","","","","","","","","","","","",""
"","iti_localizer","","html-keyboard-response","177","317881","0.0-2.0-53.0-1.0","33","23013","female","null","","","","null","","51","","","317567","1","","","","","","300","59300","314","60908","300","","","","","","","","","","","","","","","","","","","","","","","","","","","","","","","","","","","","","","","","","","","","","","","","","","",""
"","localizer","","html-keyboard-response","178","318297","0.0-2.0-54.0-0.0","33","23013","female","NaN","","","","null","NaN","52","","Stimuli/Experimental_stims/localizer/faces/austin-wade-X6Uj51n5CE8-unsplash.jpg","317881","1","faces","","0","1","0","400","59600","416","61222","","","","","","","","","","","","","","","","","","","","","","","","","","","","","","","","","","","","","","","","","","","","","","","","","","","",""
"","iti_localizer","","html-keyboard-response","179","318610","0.0-2.0-54.0-1.0","33","23013","female","null","","","","null","","52","","","318297","1","","","","","","300","60000","313","61638","300","","","","","","","","","","","","","","","","","","","","","","","","","","","","","","","","","","","","","","","","","","","","","","","","","","",""
"","localizer","","html-keyboard-response","180","319022","0.0-2.0-55.0-0.0","33","23013","female","NaN","","","","null","NaN","53","","Stimuli/Experimental_stims/localizer/faces/linkedin-sales-solutions-pAtA8xe_iVM-unsplash.jpg","318610","1","faces","","0","1","0","400","60300","412","61951","","","","","","","","","","","","","","","","","","","","","","","","","","","","","","","","","","","","","","","","","","","","","","","","","","","",""
"","iti_localizer","","html-keyboard-response","181","319340","0.0-2.0-55.0-1.0","33","23013","female","null","","","","null","","53","","","319022","1","","","","","","300","60700","318","62363","300","","","","","","","","","","","","","","","","","","","","","","","","","","","","","","","","","","","","","","","","","","","","","","","","","","",""
"","localizer","","html-keyboard-response","182","319751","0.0-2.0-56.0-0.0","33","23013","female","95","","","","68","0","54","","Stimuli/Experimental_stims/localizer/faces/pavel-anoshin-d0peGya6R5Y-unsplash.jpg","319340","1","faces","","0","0","1","400","61000","411","62681","","","","","","","","","","","","","","","","","","","","","","","","","","","","","","","","","","","","","","","","","","","","","","","","","","","",""
"","iti_localizer","","html-keyboard-response","183","320061","0.0-2.0-56.0-1.0","33","23013","female","null","","","","null","","54","","","319751","1","","","","","","300","61400","310","63092","300","","","","","","","","","","","","","","","","","","","","","","","","","","","","","","","","","","","","","","","","","","","","","","","","","","",""
"","localizer","","html-keyboard-response","184","320484","0.0-2.0-57.0-0.0","33","23013","female","199","","","","68","0","55","","Stimuli/Experimental_stims/localizer/faces/jeffery-erhunse-vp9mRauo68c-unsplash.jpg","320061","1","faces","","0","0","1","400","61700","423","63402","","","","","","","","","","","","","","","","","","","","","","","","","","","","","","","","","","","","","","","","","","","","","","","","","","","",""
"","iti_localizer","","html-keyboard-response","185","320796","0.0-2.0-57.0-1.0","33","23013","female","null","","","","null","","55","","","320484","1","","","","","","300","62100","312","63825","300","","","","","","","","","","","","","","","","","","","","","","","","","","","","","","","","","","","","","","","","","","","","","","","","","","",""
"","localizer","","html-keyboard-response","186","321255","0.0-2.0-58.0-0.0","33","23013","female","60","","","","68","0","56","","Stimuli/Experimental_stims/localizer/faces/aatik-tasneem-7omHUGhhmZ0-unsplash.jpg","320796","1","faces","","0","0","1","400","62400","459","64137","","","","","","","","","","","","","","","","","","","","","","","","","","","","","","","","","","","","","","","","","","","","","","","","","","","",""
"","iti_localizer","","html-keyboard-response","187","321572","0.0-2.0-58.0-1.0","33","23013","female","null","","","","null","","56","","","321255","1","","","","","","300","62800","317","64596","300","","","","","","","","","","","","","","","","","","","","","","","","","","","","","","","","","","","","","","","","","","","","","","","","","","",""
"","localizer","","html-keyboard-response","188","321990","0.0-2.0-59.0-0.0","33","23013","female","17","","","","68","0","57","","Stimuli/Experimental_stims/localizer/faces/abstral-official-cyOKLSgkgCE-unsplash.jpg","321572","1","faces","","0","0","1","400","63100","418","64913","","","","","","","","","","","","","","","","","","","","","","","","","","","","","","","","","","","","","","","","","","","","","","","","","","","",""
"","iti_localizer","","html-keyboard-response","189","322315","0.0-2.0-59.0-1.0","33","23013","female","null","","","","null","","57","","","321990","1","","","","","","300","63500","325","65331","300","","","","","","","","","","","","","","","","","","","","","","","","","","","","","","","","","","","","","","","","","","","","","","","","","","",""
"","localizer","","html-keyboard-response","190","322734","0.0-2.0-60.0-0.0","33","23013","female","43","","","","68","0","58","","Stimuli/Experimental_stims/localizer/faces/brooke-cagle-Nm70URdtf3c-unsplash (1).jpg","322315","1","faces","","0","0","1","400","63800","419","65656","","","","","","","","","","","","","","","","","","","","","","","","","","","","","","","","","","","","","","","","","","","","","","","","","","","",""
"","iti_localizer","","html-keyboard-response","191","323053","0.0-2.0-60.0-1.0","33","23013","female","null","","","","null","","58","","","322734","1","","","","","","300","64200","319","66075","300","","","","","","","","","","","","","","","","","","","","","","","","","","","","","","","","","","","","","","","","","","","","","","","","","","",""
"","localizer","","html-keyboard-response","192","323469","0.0-2.0-61.0-0.0","33","23013","female","96","","","","68","0","59","","Stimuli/Experimental_stims/localizer/faces/icons8-team-6LZuSzSwso0-unsplash.jpg","323053","1","faces","","0","0","1","400","64500","416","66394","","","","","","","","","","","","","","","","","","","","","","","","","","","","","","","","","","","","","","","","","","","","","","","","","","","",""
"","iti_localizer","","html-keyboard-response","193","323793","0.0-2.0-61.0-1.0","33","23013","female","null","","","","null","","59","","","323469","1","","","","","","300","64900","324","66810","300","","","","","","","","","","","","","","","","","","","","","","","","","","","","","","","","","","","","","","","","","","","","","","","","","","",""
"","localizer","","html-keyboard-response","194","324211","0.0-2.0-62.0-0.0","33","23013","female","NaN","","","","null","NaN","60","","Stimuli/Experimental_stims/localizer/faces/christina-wocintechchat-com-0Zx1bDv5BNY-unsplash.jpg","323793","1","faces","","0","1","0","400","65200","418","67134","","","","","","","","","","","","","","","","","","","","","","","","","","","","","","","","","","","","","","","","","","","","","","","","","","","",""
"","iti_localizer","","html-keyboard-response","195","324522","0.0-2.0-62.0-1.0","33","23013","female","null","","","","null","","60","","","324211","1","","","","","","300","65600","311","67552","300","","","","","","","","","","","","","","","","","","","","","","","","","","","","","","","","","","","","","","","","","","","","","","","","","","",""
"","localizer","","html-keyboard-response","196","324941","0.0-2.0-63.0-0.0","33","23013","female","NaN","","","","null","NaN","61","","Stimuli/Experimental_stims/localizer/faces/juan-encalada-WC7KIHo13Fc-unsplash.jpg","324522","1","faces","","0","1","0","400","65900","419","67863","","","","","","","","","","","","","","","","","","","","","","","","","","","","","","","","","","","","","","","","","","","","","","","","","","","",""
"","iti_localizer","","html-keyboard-response","197","325252","0.0-2.0-63.0-1.0","33","23013","female","null","","","","null","","61","","","324941","1","","","","","","300","66300","311","68282","300","","","","","","","","","","","","","","","","","","","","","","","","","","","","","","","","","","","","","","","","","","","","","","","","","","",""
"","localizer","","html-keyboard-response","198","325666","0.0-2.0-64.0-0.0","33","23013","female","383","","","","68","0","62","","Stimuli/Experimental_stims/localizer/faces/nick-karvounis-JyO_szjGvUw-unsplash.jpg","325252","1","faces","","0","0","1","400","66600","414","68593","","","","","","","","","","","","","","","","","","","","","","","","","","","","","","","","","","","","","","","","","","","","","","","","","","","",""
"","iti_localizer","","html-keyboard-response","199","325976","0.0-2.0-64.0-1.0","33","23013","female","null","","","","null","","62","","","325666","1","","","","","","300","67000","310","69007","300","","","","","","","","","","","","","","","","","","","","","","","","","","","","","","","","","","","","","","","","","","","","","","","","","","",""
"","localizer","","html-keyboard-response","200","326388","0.0-2.0-65.0-0.0","33","23013","female","NaN","","","","null","NaN","63","","Stimuli/Experimental_stims/localizer/faces/carlos-vaz-KP4bxnxAilU-unsplash.jpg","325976","1","faces","","0","1","0","400","67300","412","69317","","","","","","","","","","","","","","","","","","","","","","","","","","","","","","","","","","","","","","","","","","","","","","","","","","","",""
"","iti_localizer","","html-keyboard-response","201","326701","0.0-2.0-65.0-1.0","33","23013","female","null","","","","null","","63","","","326388","1","","","","","","300","67700","313","69729","300","","","","","","","","","","","","","","","","","","","","","","","","","","","","","","","","","","","","","","","","","","","","","","","","","","",""
"","localizer","","html-keyboard-response","202","327119","0.0-2.0-66.0-0.0","33","23013","female","234","","","","68","0","64","","Stimuli/Experimental_stims/localizer/faces/tyler-nix-ZGa9d1a_4tA-unsplash.jpg","326701","1","faces","","1","0","0","400","68000","418","70042","","","","","","","","","","","","","","","","","","","","","","","","","","","","","","","","","","","","","","","","","","","","","","","","","","","",""
"","iti_localizer","","html-keyboard-response","203","327432","0.0-2.0-66.0-1.0","33","23013","female","null","","","","null","","64","","","327119","1","","","","","","300","68400","313","70460","300","","","","","","","","","","","","","","","","","","","","","","","","","","","","","","","","","","","","","","","","","","","","","","","","","","",""
"","localizer","","html-keyboard-response","204","327843","0.0-2.0-67.0-0.0","33","23013","female","NaN","","","","null","NaN","65","","Stimuli/Experimental_stims/localizer/faces/samuel-dixon--fQ5XNOcqFQ-unsplash.jpg","327432","1","faces","","0","1","0","400","68700","411","70773","","","","","","","","","","","","","","","","","","","","","","","","","","","","","","","","","","","","","","","","","","","","","","","","","","","",""
"","iti_localizer","","html-keyboard-response","205","341865","0.0-2.0-67.0-1.0","33","23013","female","null","","","","null","","65","","","327843","1","","","","","","14000","69100","14022","71184","14000","","","","","","","","","","","","","","","","","","","","","","","","","","","","","","","","","","","","","","","","","","","","","","","","","","",""
"","localizer","","html-keyboard-response","206","342279","0.0-2.0-68.0-0.0","33","23013","female","NaN","","","","null","NaN","66","","Stimuli/Experimental_stims/localizer/body_parts/nihal-karkala-LlOfbQD-IJ0-unsplash.jpg","341865","1","body_parts","","1","1","0","400","83100","414","85206","","","","","","","","","","","","","","","","","","","","","","","","","","","","","","","","","","","","","","","","","","","","","","","","","","","",""
"","iti_localizer","","html-keyboard-response","207","342594","0.0-2.0-68.0-1.0","33","23013","female","null","","","","null","","66","","","342279","1","","","","","","300","83500","315","85620","300","","","","","","","","","","","","","","","","","","","","","","","","","","","","","","","","","","","","","","","","","","","","","","","","","","",""
"","localizer","","html-keyboard-response","208","343014","0.0-2.0-69.0-0.0","33","23013","female","124","","","","68","0","67","","Stimuli/Experimental_stims/localizer/body_parts/nick-page-WTNmgJtwzGI-unsplash.jpg","342594","1","body_parts","","0","0","1","400","83800","420","85935","","","","","","","","","","","","","","","","","","","","","","","","","","","","","","","","","","","","","","","","","","","","","","","","","","","",""
"","iti_localizer","","html-keyboard-response","209","343330","0.0-2.0-69.0-1.0","33","23013","female","null","","","","null","","67","","","343014","1","","","","","","300","84200","316","86355","300","","","","","","","","","","","","","","","","","","","","","","","","","","","","","","","","","","","","","","","","","","","","","","","","","","",""
"","localizer","","html-keyboard-response","210","343748","0.0-2.0-70.0-0.0","33","23013","female","NaN","","","","null","NaN","68","","Stimuli/Experimental_stims/localizer/body_parts/sina-rezakhani-d1gQi0Jl05U-unsplash (1).jpg","343330","1","body_parts","","0","1","0","400","84500","418","86671","","","","","","","","","","","","","","","","","","","","","","","","","","","","","","","","","","","","","","","","","","","","","","","","","","","",""
"","iti_localizer","","html-keyboard-response","211","344062","0.0-2.0-70.0-1.0","33","23013","female","null","","","","null","","68","","","343748","1","","","","","","300","84900","314","87089","300","","","","","","","","","","","","","","","","","","","","","","","","","","","","","","","","","","","","","","","","","","","","","","","","","","",""
"","localizer","","html-keyboard-response","212","344475","0.0-2.0-71.0-0.0","33","23013","female","NaN","","","","null","NaN","69","","Stimuli/Experimental_stims/localizer/body_parts/meghan-thompson-U1b8OB0QpIo-unsplash.jpg","344062","1","body_parts","","0","1","0","400","85200","413","87403","","","","","","","","","","","","","","","","","","","","","","","","","","","","","","","","","","","","","","","","","","","","","","","","","","","",""
"","iti_localizer","","html-keyboard-response","213","344788","0.0-2.0-71.0-1.0","33","23013","female","null","","","","null","","69","","","344475","1","","","","","","300","85600","313","87816","300","","","","","","","","","","","","","","","","","","","","","","","","","","","","","","","","","","","","","","","","","","","","","","","","","","",""
"","localizer","","html-keyboard-response","214","345197","0.0-2.0-72.0-0.0","33","23013","female","392","","","","68","0","70","","Stimuli/Experimental_stims/localizer/body_parts/davidcohen-qghuLqyh3nE-unsplash.jpg","344788","1","body_parts","","0","0","1","400","85900","409","88129","","","","","","","","","","","","","","","","","","","","","","","","","","","","","","","","","","","","","","","","","","","","","","","","","","","",""
"","iti_localizer","","html-keyboard-response","215","345505","0.0-2.0-72.0-1.0","33","23013","female","null","","","","null","","70","","","345197","1","","","","","","300","86300","308","88538","300","","","","","","","","","","","","","","","","","","","","","","","","","","","","","","","","","","","","","","","","","","","","","","","","","","",""
"","localizer","","html-keyboard-response","216","345921","0.0-2.0-73.0-0.0","33","23013","female","152","","","","68","0","71","","Stimuli/Experimental_stims/localizer/body_parts/sincerely-media-QyzlAZjm0r0-unsplash.jpg","345505","1","body_parts","","0","0","1","400","86600","416","88846","","","","","","","","","","","","","","","","","","","","","","","","","","","","","","","","","","","","","","","","","","","","","","","","","","","",""
"","iti_localizer","","html-keyboard-response","217","346236","0.0-2.0-73.0-1.0","33","23013","female","null","","","","null","","71","","","345921","1","","","","","","300","87000","315","89262","300","","","","","","","","","","","","","","","","","","","","","","","","","","","","","","","","","","","","","","","","","","","","","","","","","","",""
"","localizer","","html-keyboard-response","218","346650","0.0-2.0-74.0-0.0","33","23013","female","97","","","","68","0","72","","Stimuli/Experimental_stims/localizer/body_parts/juja-han-Z8-6EI2tYtw-unsplash.jpg","346236","1","body_parts","","0","0","1","400","87300","414","89577","","","","","","","","","","","","","","","","","","","","","","","","","","","","","","","","","","","","","","","","","","","","","","","","","","","",""
"","iti_localizer","","html-keyboard-response","219","346967","0.0-2.0-74.0-1.0","33","23013","female","null","","","","null","","72","","","346650","1","","","","","","300","87700","317","89991","300","","","","","","","","","","","","","","","","","","","","","","","","","","","","","","","","","","","","","","","","","","","","","","","","","","",""
"","localizer","","html-keyboard-response","220","347378","0.0-2.0-75.0-0.0","33","23013","female","NaN","","","","null","NaN","73","","Stimuli/Experimental_stims/localizer/body_parts/natalie-grainger-8uB5kFKWWkk-unsplash.jpg","346967","1","body_parts","","0","1","0","400","88000","411","90308","","","","","","","","","","","","","","","","","","","","","","","","","","","","","","","","","","","","","","","","","","","","","","","","","","","",""
"","iti_localizer","","html-keyboard-response","221","347691","0.0-2.0-75.0-1.0","33","23013","female","null","","","","null","","73","","","347378","1","","","","","","300","88400","313","90719","300","","","","","","","","","","","","","","","","","","","","","","","","","","","","","","","","","","","","","","","","","","","","","","","","","","",""
"","localizer","","html-keyboard-response","222","348106","0.0-2.0-76.0-0.0","33","23013","female","NaN","","","","null","NaN","74","","Stimuli/Experimental_stims/localizer/body_parts/debby-hudson--B_757qSA4k-unsplash.jpg","347691","1","body_parts","","0","1","0","400","88700","415","91032","","","","","","","","","","","","","","","","","","","","","","","","","","","","","","","","","","","","","","","","","","","","","","","","","","","",""
"","iti_localizer","","html-keyboard-response","223","348425","0.0-2.0-76.0-1.0","33","23013","female","null","","","","null","","74","","","348106","1","","","","","","300","89100","319","91447","300","","","","","","","","","","","","","","","","","","","","","","","","","","","","","","","","","","","","","","","","","","","","","","","","","","",""
"","localizer","","html-keyboard-response","224","348840","0.0-2.0-77.0-0.0","33","23013","female","139","","","","68","0","75","","Stimuli/Experimental_stims/localizer/body_parts/pure-julia-E9Q4bqYHtIM-unsplash.jpg","348425","1","body_parts","","0","0","1","400","89400","415","91766","","","","","","","","","","","","","","","","","","","","","","","","","","","","","","","","","","","","","","","","","","","","","","","","","","","",""
"","iti_localizer","","html-keyboard-response","225","349183","0.0-2.0-77.0-1.0","33","23013","female","null","","","","null","","75","","","348840","1","","","","","","300","89800","343","92181","300","","","","","","","","","","","","","","","","","","","","","","","","","","","","","","","","","","","","","","","","","","","","","","","","","","",""
"","localizer","","html-keyboard-response","226","349594","0.0-2.0-78.0-0.0","33","23013","female","14","","","","68","0","76","","Stimuli/Experimental_stims/localizer/body_parts/charles-etoroma-1fo0biloDOc-unsplash.jpg","349183","1","body_parts","","0","0","1","400","90100","411","92524","","","","","","","","","","","","","","","","","","","","","","","","","","","","","","","","","","","","","","","","","","","","","","","","","","","",""
"","iti_localizer","","html-keyboard-response","227","349906","0.0-2.0-78.0-1.0","33","23013","female","null","","","","null","","76","","","349594","1","","","","","","300","90500","312","92935","300","","","","","","","","","","","","","","","","","","","","","","","","","","","","","","","","","","","","","","","","","","","","","","","","","","",""
"","localizer","","html-keyboard-response","228","350316","0.0-2.0-79.0-0.0","33","23013","female","170","","","","68","0","77","","Stimuli/Experimental_stims/localizer/body_parts/david-fanuel-qnV8X7OViNY-unsplash.jpg","349906","1","body_parts","","0","0","1","400","90800","410","93247","","","","","","","","","","","","","","","","","","","","","","","","","","","","","","","","","","","","","","","","","","","","","","","","","","","",""
"","iti_localizer","","html-keyboard-response","229","350631","0.0-2.0-79.0-1.0","33","23013","female","null","","","","null","","77","","","350316","1","","","","","","300","91200","315","93657","300","","","","","","","","","","","","","","","","","","","","","","","","","","","","","","","","","","","","","","","","","","","","","","","","","","",""
"","localizer","","html-keyboard-response","230","351050","0.0-2.0-80.0-0.0","33","23013","female","NaN","","","","null","NaN","78","","Stimuli/Experimental_stims/localizer/body_parts/diana-polekhina-SwWjCbIIoFE-unsplash.jpg","350631","1","body_parts","","0","1","0","400","91500","419","93972","","","","","","","","","","","","","","","","","","","","","","","","","","","","","","","","","","","","","","","","","","","","","","","","","","","",""
"","iti_localizer","","html-keyboard-response","231","351362","0.0-2.0-80.0-1.0","33","23013","female","null","","","","null","","78","","","351050","1","","","","","","300","91900","312","94391","300","","","","","","","","","","","","","","","","","","","","","","","","","","","","","","","","","","","","","","","","","","","","","","","","","","",""
"","localizer","","html-keyboard-response","232","351772","0.0-2.0-81.0-0.0","33","23013","female","NaN","","","","null","NaN","79","","Stimuli/Experimental_stims/localizer/body_parts/ant-rozetsky-bXQd8JXx0vs-unsplash.jpg","351362","1","body_parts","","0","1","0","400","92200","410","94703","","","","","","","","","","","","","","","","","","","","","","","","","","","","","","","","","","","","","","","","","","","","","","","","","","","",""
"","iti_localizer","","html-keyboard-response","233","352088","0.0-2.0-81.0-1.0","33","23013","female","null","","","","null","","79","","","351772","1","","","","","","300","92600","316","95113","300","","","","","","","","","","","","","","","","","","","","","","","","","","","","","","","","","","","","","","","","","","","","","","","","","","",""
"","localizer","","html-keyboard-response","234","352504","0.0-2.0-82.0-0.0","33","23013","female","78","","","","68","0","80","","Stimuli/Experimental_stims/localizer/body_parts/callum-skelton-3KLMq7y46nA-unsplash.jpg","352088","1","body_parts","","0","0","1","400","92900","416","95429","","","","","","","","","","","","","","","","","","","","","","","","","","","","","","","","","","","","","","","","","","","","","","","","","","","",""
"","iti_localizer","","html-keyboard-response","235","352817","0.0-2.0-82.0-1.0","33","23013","female","null","","","","null","","80","","","352504","1","","","","","","300","93300","313","95845","300","","","","","","","","","","","","","","","","","","","","","","","","","","","","","","","","","","","","","","","","","","","","","","","","","","",""
"","localizer","","html-keyboard-response","236","353227","0.0-2.0-83.0-0.0","33","23013","female","59","","","","68","0","81","","Stimuli/Experimental_stims/localizer/body_parts/freestocks-qw9LFf5T790-unsplash.jpg","352817","1","body_parts","","0","0","1","400","93600","410","96158","","","","","","","","","","","","","","","","","","","","","","","","","","","","","","","","","","","","","","","","","","","","","","","","","","","",""
"","iti_localizer","","html-keyboard-response","237","353541","0.0-2.0-83.0-1.0","33","23013","female","null","","","","null","","81","","","353227","1","","","","","","300","94000","314","96568","300","","","","","","","","","","","","","","","","","","","","","","","","","","","","","","","","","","","","","","","","","","","","","","","","","","",""
"","localizer","","html-keyboard-response","238","353958","0.0-2.0-84.0-0.0","33","23013","female","93","","","","68","0","82","","Stimuli/Experimental_stims/localizer/body_parts/carlos-henrique-NAOJKwZswbs-unsplash.jpg","353541","1","body_parts","","0","0","1","400","94300","417","96882","","","","","","","","","","","","","","","","","","","","","","","","","","","","","","","","","","","","","","","","","","","","","","","","","","","",""
"","iti_localizer","","html-keyboard-response","239","354281","0.0-2.0-84.0-1.0","33","23013","female","null","","","","null","","82","","","353958","1","","","","","","300","94700","323","97299","300","","","","","","","","","","","","","","","","","","","","","","","","","","","","","","","","","","","","","","","","","","","","","","","","","","",""
"","localizer","","html-keyboard-response","240","354694","0.0-2.0-85.0-0.0","33","23013","female","NaN","","","","null","NaN","83","","Stimuli/Experimental_stims/localizer/body_parts/boyd-christiansen-uVj7kewrZ-o-unsplash.jpg","354281","1","body_parts","","1","1","0","400","95000","413","97622","","","","","","","","","","","","","","","","","","","","","","","","","","","","","","","","","","","","","","","","","","","","","","","","","","","",""
"","iti_localizer","","html-keyboard-response","241","355010","0.0-2.0-85.0-1.0","33","23013","female","null","","","","null","","83","","","354694","1","","","","","","300","95400","316","98035","300","","","","","","","","","","","","","","","","","","","","","","","","","","","","","","","","","","","","","","","","","","","","","","","","","","",""
"","localizer","","html-keyboard-response","242","355420","0.0-2.0-86.0-0.0","33","23013","female","237","","","","75","1","84","","Stimuli/Experimental_stims/localizer/body_parts/nick-page-jAGdpOGvLAA-unsplash.jpg","355010","1","body_parts","","0","0","0","400","95700","410","98351","","","","","","","","","","","","","","","","","","","","","","","","","","","","","","","","","","","","","","","","","","","","","","","","","","","",""
"","iti_localizer","","html-keyboard-response","243","355736","0.0-2.0-86.0-1.0","33","23013","female","null","","","","null","","84","","","355420","1","","","","","","300","96100","316","98761","300","","","","","","","","","","","","","","","","","","","","","","","","","","","","","","","","","","","","","","","","","","","","","","","","","","",""
"","localizer","","html-keyboard-response","244","356146","0.0-2.0-87.0-0.0","33","23013","female","NaN","","","","null","NaN","85","","Stimuli/Experimental_stims/localizer/body_parts/lilartsy-1KkhQ8uL28g-unsplash.jpg","355736","1","body_parts","","0","1","0","400","96400","410","99077","","","","","","","","","","","","","","","","","","","","","","","","","","","","","","","","","","","","","","","","","","","","","","","","","","","",""
"","iti_localizer","","html-keyboard-response","245","370162","0.0-2.0-87.0-1.0","33","23013","female","null","","","","null","","85","","","356146","1","","","","","","14000","96800","14016","99487","14000","","","","","","","","","","","","","","","","","","","","","","","","","","","","","","","","","","","","","","","","","","","","","","","","","","",""
"","localizer","","html-keyboard-response","246","370577","0.0-2.0-88.0-0.0","33","23013","female","NaN","","","","null","NaN","86","","Stimuli/Experimental_stims/localizer/objects/yossy-made-yulian-WaEqwDSIeTY-unsplash.jpg","370162","1","objects","","1","1","0","400","110800","415","113503","","","","","","","","","","","","","","","","","","","","","","","","","","","","","","","","","","","","","","","","","","","","","","","","","","","",""
"","iti_localizer","","html-keyboard-response","247","370888","0.0-2.0-88.0-1.0","33","23013","female","null","","","","null","","86","","","370577","1","","","","","","300","111200","311","113918","300","","","","","","","","","","","","","","","","","","","","","","","","","","","","","","","","","","","","","","","","","","","","","","","","","","",""
"","localizer","","html-keyboard-response","248","371348","0.0-2.0-89.0-0.0","33","23013","female","NaN","","","","null","NaN","87","","Stimuli/Experimental_stims/localizer/objects/namroud-gorguis-FZWivbri0Xk-unsplash.jpg","370888","1","objects","","0","1","0","400","111500","460","114229","","","","","","","","","","","","","","","","","","","","","","","","","","","","","","","","","","","","","","","","","","","","","","","","","","","",""
"","iti_localizer","","html-keyboard-response","249","371667","0.0-2.0-89.0-1.0","33","23013","female","null","","","","null","","87","","","371348","1","","","","","","300","111900","319","114689","300","","","","","","","","","","","","","","","","","","","","","","","","","","","","","","","","","","","","","","","","","","","","","","","","","","",""
