"success","ttype","start_time","trial_type","trial_index","time_elapsed","internal_node_id","age","PID","gender","rt","responses","view_history","repeat_instructions","key_press","response","index","stimulus_index","path","start_time_elapsed","run","task","isi","is_odd_ball","no_response","acc","duration","onset","duration_time_elapsed","onset_time_elapsed","trial_duration","missed_checkup","left_chosen","chosen_stimulus","unchosen_stimulus","chosen_category","unchosen_category","chosen_rating","unchosen_rating","chosen_path","unchosen_path","pair_id","practice","scramble_screen_time","scramble_instructed_side","stim_type","iti","block","left_stimulus","right_stimulus","left_category","right_category","left_path","right_path","left_rating","right_rating","scramble_acc","scramble_no_response","warning","stimulus_id","item_id","outcome","response_rt","deliberation_reward_tally","choice_type","gain_left","left_item_id","right_item_id","higher_outcome_chosen","chosen_left","old_pair","pair_type","old_response","pair_acc","reward_type","outcome_response","outcome_rt","outcome_acc","category","choice","deliberated_stim","old_rating","new_rating"
"true","full_screen","d08162023hr2308","fullscreen","0","4173","0.0-0.0-0.0","27","87740","Female","","","","","","","","","","","","","","","","","","","","","","","","","","","","","","","","","","","","","","","","","","","","","","","","","","","","","","","","","","","","","","","","","","","","","","","","",""
"","get_id","","survey-text","1","14567","0.0-0.0-1.0","27","87740","Female","10375","{""Q0"":""27"",""Q1"":""Female""}","","","","","","","","","","","","","","","","","","","","","","","","","","","","","","","","","","","","","","","","","","","","","","","","","","","","","","","","","","","","","","","","","","","","","","",""
"","ratings_instructions","","instructions","2","20445","0.0-1.0-0.0-0.0","27","87740","Female","3851","","[{""page_index"":0,""viewing_time"":2297},{""page_index"":1,""viewing_time"":1553}]","","","","","","","","","","","","","","","","","","","","","","","","","","","","","","","","","","","","","","","","","","","","","","","","","","","","","","","","","","","","","","","","","","","","","",""
"","rating_comprehension_check","","survey-multi-choice","3","24227","0.0-1.0-0.0-1.0","27","87740","Female","3768","{""Q0"":""True"",""Q1"":""Mouse""}","","0","","","","","","","","","","","","","","","","","","","","","","","","","","","","","","","","","","","","","","","","","","","","","","","","","","","","","","","","","","","","","","","","","","","","",""
"","","","html-keyboard-response","4","26059","0.0-1.0-1.0","27","87740","Female","1818","","","","68","","","","","","","","","","","","","","","","","","","","","","","","","","","","","","","","","","","","","","","","","","","","","","","","","","","","","","","","","","","","","","","","","","","",""
"","rating","","html-slider-response","5","29556","0.0-1.0-2.0","27","87740","Female","3487","","","","","76","0","38","Stimuli/Experimental_stims/objects/art-lasovsky-8XddFc6NkBY-unsplash.jpg","","","","","","","","","","","","","","","","","","","","","","","","","","","","","","","","","","","","","","","","","","","","","","","","","","","","","","","","","","","","","","","",""
"","rating","","html-slider-response","6","32519","0.0-1.0-3.0","27","87740","Female","2950","","","","","91","1","24","Stimuli/Experimental_stims/body_parts/clay-banks-LjqARJaJotc-unsplash.jpg","","","","","","","","","","","","","","","","","","","","","","","","","","","","","","","","","","","","","","","","","","","","","","","","","","","","","","","","","","","","","","","",""
"","rating","","html-slider-response","7","36222","0.0-1.0-4.0","27","87740","Female","3694","","","","","63","2","13","Stimuli/Experimental_stims/faces/daniel-rigdon-dXmXKPP2L4E-unsplash.jpg","","","","","","","","","","","","","","","","","","","","","","","","","","","","","","","","","","","","","","","","","","","","","","","","","","","","","","","","","","","","","","","",""
"","rating","","html-slider-response","8","40355","0.0-1.0-5.0","27","87740","Female","4118","","","","","99","3","2","Stimuli/Experimental_stims/outdoor_scenes/bruno-van-der-kraan-qez8mNJ3ilU-unsplash.jpg","","","","","","","","","","","","","","","","","","","","","","","","","","","","","","","","","","","","","","","","","","","","","","","","","","","","","","","","","","","","","","","",""
"","rating","","html-slider-response","9","43566","0.0-1.0-6.0","27","87740","Female","3188","","","","","71","4","36","Stimuli/Experimental_stims/objects/alexander-andrews-JYGnB9gTCls-unsplash.jpg","","","","","","","","","","","","","","","","","","","","","","","","","","","","","","","","","","","","","","","","","","","","","","","","","","","","","","","","","","","","","","","",""
"","rating","","html-slider-response","10","47271","0.0-1.0-7.0","27","87740","Female","3689","","","","","100","5","7","Stimuli/Experimental_stims/outdoor_scenes/petr-vysohlid-9fqwGqGLUxc-unsplash.jpg","","","","","","","","","","","","","","","","","","","","","","","","","","","","","","","","","","","","","","","","","","","","","","","","","","","","","","","","","","","","","","","",""
"","rating","","html-slider-response","11","52006","0.0-1.0-8.0","27","87740","Female","4725","","","","","62","6","28","Stimuli/Experimental_stims/body_parts/ira-vishnevskaya-8DQAvdCby1I-unsplash.jpg","","","","","","","","","","","","","","","","","","","","","","","","","","","","","","","","","","","","","","","","","","","","","","","","","","","","","","","","","","","","","","","",""
"","rating","","html-slider-response","12","55117","0.0-1.0-9.0","27","87740","Female","3097","","","","","59","7","14","Stimuli/Experimental_stims/faces/david-siglin-UuW4psOb388-unsplash.jpg","","","","","","","","","","","","","","","","","","","","","","","","","","","","","","","","","","","","","","","","","","","","","","","","","","","","","","","","","","","","","","","",""
"","rating","","html-slider-response","13","58252","0.0-1.0-10.0","27","87740","Female","3124","","","","","61","8","23","Stimuli/Experimental_stims/faces/rikonavt-HQjfrvdTfak-unsplash.jpg","","","","","","","","","","","","","","","","","","","","","","","","","","","","","","","","","","","","","","","","","","","","","","","","","","","","","","","","","","","","","","","",""
"","rating","","html-slider-response","14","61784","0.0-1.0-11.0","27","87740","Female","3517","","","","","57","9","39","Stimuli/Experimental_stims/objects/charlesdeluvio-1-nx1QR5dTE-unsplash.jpg","","","","","","","","","","","","","","","","","","","","","","","","","","","","","","","","","","","","","","","","","","","","","","","","","","","","","","","","","","","","","","","",""
"","rating","","html-slider-response","15","66520","0.0-1.0-12.0","27","87740","Female","4727","","","","","100","10","11","Stimuli/Experimental_stims/outdoor_scenes/stephen-leonardi-gyIRjKPXupE-unsplash.jpg","","","","","","","","","","","","","","","","","","","","","","","","","","","","","","","","","","","","","","","","","","","","","","","","","","","","","","","","","","","","","","","",""
"","rating","","html-slider-response","16","69262","0.0-1.0-13.0","27","87740","Female","2735","","","","","66","11","16","Stimuli/Experimental_stims/faces/freddy-kearney-o-ioeoATbIM-unsplash.jpg","","","","","","","","","","","","","","","","","","","","","","","","","","","","","","","","","","","","","","","","","","","","","","","","","","","","","","","","","","","","","","","",""
"","rating","","html-slider-response","17","72093","0.0-1.0-14.0","27","87740","Female","2823","","","","","72","12","46","Stimuli/Experimental_stims/objects/mockup-graphics-PNsj6RiHAF4-unsplash.jpg","","","","","","","","","","","","","","","","","","","","","","","","","","","","","","","","","","","","","","","","","","","","","","","","","","","","","","","","","","","","","","","",""
"","rating","","html-slider-response","18","76168","0.0-1.0-15.0","27","87740","Female","4067","","","","","65","13","20","Stimuli/Experimental_stims/faces/justin-chen-J7Cf1Gch49E-unsplash.jpg","","","","","","","","","","","","","","","","","","","","","","","","","","","","","","","","","","","","","","","","","","","","","","","","","","","","","","","","","","","","","","","",""
"","rating","","html-slider-response","19","78683","0.0-1.0-16.0","27","87740","Female","2503","","","","","66","14","18","Stimuli/Experimental_stims/faces/jessica-radanavong-mrYkTuAesKE-unsplash.jpg","","","","","","","","","","","","","","","","","","","","","","","","","","","","","","","","","","","","","","","","","","","","","","","","","","","","","","","","","","","","","","","",""
"","rating","","html-slider-response","20","81270","0.0-1.0-17.0","27","87740","Female","2571","","","","","58","15","42","Stimuli/Experimental_stims/objects/jess-bailey-nOeVi8DsN8U-unsplash.jpg","","","","","","","","","","","","","","","","","","","","","","","","","","","","","","","","","","","","","","","","","","","","","","","","","","","","","","","","","","","","","","","",""
"","rating","","html-slider-response","21","85043","0.0-1.0-18.0","27","87740","Female","3759","","","","","99","16","5","Stimuli/Experimental_stims/outdoor_scenes/jeff-king-bJHWJeiHfHc-unsplash.jpg","","","","","","","","","","","","","","","","","","","","","","","","","","","","","","","","","","","","","","","","","","","","","","","","","","","","","","","","","","","","","","","",""
"","rating","","html-slider-response","22","88307","0.0-1.0-19.0","27","87740","Female","3253","","","","","77","17","25","Stimuli/Experimental_stims/body_parts/engin-akyurt-Q2rfH3GW39c-unsplash.jpg","","","","","","","","","","","","","","","","","","","","","","","","","","","","","","","","","","","","","","","","","","","","","","","","","","","","","","","","","","","","","","","",""
"","rating","","html-slider-response","23","92043","0.0-1.0-20.0","27","87740","Female","3724","","","","","82","18","29","Stimuli/Experimental_stims/body_parts/manuel-schinner-ZwjFuJ7ebpk-unsplash.jpg","","","","","","","","","","","","","","","","","","","","","","","","","","","","","","","","","","","","","","","","","","","","","","","","","","","","","","","","","","","","","","","",""
"","rating","","html-slider-response","24","96418","0.0-1.0-21.0","27","87740","Female","4363","","","","","61","19","47","Stimuli/Experimental_stims/objects/ronaldo-arthur-vidal-Cdz_lvnl37k-unsplash.jpg","","","","","","","","","","","","","","","","","","","","","","","","","","","","","","","","","","","","","","","","","","","","","","","","","","","","","","","","","","","","","","","",""
"","rating","","html-slider-response","25","100301","0.0-1.0-22.0","27","87740","Female","3872","","","","","99","20","4","Stimuli/Experimental_stims/outdoor_scenes/jarrett-kow-1ZOyYPOBn7I-unsplash.jpg","","","","","","","","","","","","","","","","","","","","","","","","","","","","","","","","","","","","","","","","","","","","","","","","","","","","","","","","","","","","","","","",""
"","rating","","html-slider-response","26","103245","0.0-1.0-23.0","27","87740","Female","2934","","","","","72","21","31","Stimuli/Experimental_stims/body_parts/sincerely-media-VN6DbKajo5s-unsplash.jpg","","","","","","","","","","","","","","","","","","","","","","","","","","","","","","","","","","","","","","","","","","","","","","","","","","","","","","","","","","","","","","","",""
"","rating","","html-slider-response","27","106032","0.0-1.0-24.0","27","87740","Female","2776","","","","","74","22","44","Stimuli/Experimental_stims/objects/kuiye-chen-NuOGFo4PudE-unsplash.jpg","","","","","","","","","","","","","","","","","","","","","","","","","","","","","","","","","","","","","","","","","","","","","","","","","","","","","","","","","","","","","","","",""
"","rating","","html-slider-response","28","108512","0.0-1.0-25.0","27","87740","Female","2470","","","","","81","23","37","Stimuli/Experimental_stims/objects/alexander-andrews-VLGWE_SumrA-unsplash.jpg","","","","","","","","","","","","","","","","","","","","","","","","","","","","","","","","","","","","","","","","","","","","","","","","","","","","","","","","","","","","","","","",""
"","rating","","html-slider-response","29","112234","0.0-1.0-26.0","27","87740","Female","3712","","","","","99","24","10","Stimuli/Experimental_stims/outdoor_scenes/shannon-kunkle-dM8INmkyDas-unsplash.jpg","","","","","","","","","","","","","","","","","","","","","","","","","","","","","","","","","","","","","","","","","","","","","","","","","","","","","","","","","","","","","","","",""
"","rating","","html-slider-response","30","114945","0.0-1.0-27.0","27","87740","Female","2701","","","","","70","25","40","Stimuli/Experimental_stims/objects/fabian-blank-pElSkGRA2NU-unsplash.jpg","","","","","","","","","","","","","","","","","","","","","","","","","","","","","","","","","","","","","","","","","","","","","","","","","","","","","","","","","","","","","","","",""
"","rating","","html-slider-response","31","118050","0.0-1.0-28.0","27","87740","Female","3075","","","","","84","26","9","Stimuli/Experimental_stims/outdoor_scenes/sergey-pesterev-y-b_FOmJXdg-unsplash.jpg","","","","","","","","","","","","","","","","","","","","","","","","","","","","","","","","","","","","","","","","","","","","","","","","","","","","","","","","","","","","","","","",""
"","rating","","html-slider-response","32","123221","0.0-1.0-29.0","27","87740","Female","5159","","","","","44","27","41","Stimuli/Experimental_stims/objects/insung-yoon-w2JtIQQXoRU-unsplash.jpg","","","","","","","","","","","","","","","","","","","","","","","","","","","","","","","","","","","","","","","","","","","","","","","","","","","","","","","","","","","","","","","",""
"","rating","","html-slider-response","33","126609","0.0-1.0-30.0","27","87740","Female","3378","","","","","99","28","8","Stimuli/Experimental_stims/outdoor_scenes/samsommer-vddccTqwal8-unsplash.jpg","","","","","","","","","","","","","","","","","","","","","","","","","","","","","","","","","","","","","","","","","","","","","","","","","","","","","","","","","","","","","","","",""
"","rating","","html-slider-response","34","129665","0.0-1.0-31.0","27","87740","Female","3046","","","","","97","29","3","Stimuli/Experimental_stims/outdoor_scenes/henry-be-NLF6hTe4PAg-unsplash.jpg","","","","","","","","","","","","","","","","","","","","","","","","","","","","","","","","","","","","","","","","","","","","","","","","","","","","","","","","","","","","","","","",""
"","rating","","html-slider-response","35","132213","0.0-1.0-32.0","27","87740","Female","2529","","","","","72","30","27","Stimuli/Experimental_stims/body_parts/heike-mintel-i_Gns0ELnLw-unsplash.jpg","","","","","","","","","","","","","","","","","","","","","","","","","","","","","","","","","","","","","","","","","","","","","","","","","","","","","","","","","","","","","","","",""
"","rating","","html-slider-response","36","135132","0.0-1.0-33.0","27","87740","Female","2908","","","","","83","31","19","Stimuli/Experimental_stims/faces/joel-mott-LaK153ghdig-unsplash.jpg","","","","","","","","","","","","","","","","","","","","","","","","","","","","","","","","","","","","","","","","","","","","","","","","","","","","","","","","","","","","","","","",""
"","rating","","html-slider-response","37","138060","0.0-1.0-34.0","27","87740","Female","2915","","","","","89","32","45","Stimuli/Experimental_stims/objects/leohoho-rngTKHXumy0-unsplash.jpg","","","","","","","","","","","","","","","","","","","","","","","","","","","","","","","","","","","","","","","","","","","","","","","","","","","","","","","","","","","","","","","",""
"","rating","","html-slider-response","38","141024","0.0-1.0-35.0","27","87740","Female","2954","","","","","76","33","30","Stimuli/Experimental_stims/body_parts/mika-korhonen-Xodzxosar18-unsplash.jpg","","","","","","","","","","","","","","","","","","","","","","","","","","","","","","","","","","","","","","","","","","","","","","","","","","","","","","","","","","","","","","","",""
"","rating","","html-slider-response","39","143755","0.0-1.0-36.0","27","87740","Female","2722","","","","","89","34","21","Stimuli/Experimental_stims/faces/leilani-angel-K84vnnzxmTQ-unsplash.jpg","","","","","","","","","","","","","","","","","","","","","","","","","","","","","","","","","","","","","","","","","","","","","","","","","","","","","","","","","","","","","","","",""
"","rating","","html-slider-response","40","146438","0.0-1.0-37.0","27","87740","Female","2673","","","","","78","35","34","Stimuli/Experimental_stims/body_parts/wagner-santos-mBWMvIuVnso-unsplash.jpg","","","","","","","","","","","","","","","","","","","","","","","","","","","","","","","","","","","","","","","","","","","","","","","","","","","","","","","","","","","","","","","",""
"","rating","","html-slider-response","41","150146","0.0-1.0-38.0","27","87740","Female","3680","","","","","90","36","35","Stimuli/Experimental_stims/body_parts/wc-so-KH4AAPjb-tI-unsplash.jpg","","","","","","","","","","","","","","","","","","","","","","","","","","","","","","","","","","","","","","","","","","","","","","","","","","","","","","","","","","","","","","","",""
"","rating","","html-slider-response","42","152420","0.0-1.0-39.0","27","87740","Female","2261","","","","","73","37","15","Stimuli/Experimental_stims/faces/erik-lucatero-d2MSDujJl2g-unsplash.jpg","","","","","","","","","","","","","","","","","","","","","","","","","","","","","","","","","","","","","","","","","","","","","","","","","","","","","","","","","","","","","","","",""
"","rating","","html-slider-response","43","155053","0.0-1.0-40.0","27","87740","Female","2624","","","","","76","38","1","Stimuli/Experimental_stims/outdoor_scenes/ashim-d-silva-S2Q5mdOrrVc-unsplash.jpg","","","","","","","","","","","","","","","","","","","","","","","","","","","","","","","","","","","","","","","","","","","","","","","","","","","","","","","","","","","","","","","",""
"","rating","","html-slider-response","44","158476","0.0-1.0-41.0","27","87740","Female","3411","","","","","79","39","22","Stimuli/Experimental_stims/faces/ravi-patel-VMGAbeeJTKo-unsplash.jpg","","","","","","","","","","","","","","","","","","","","","","","","","","","","","","","","","","","","","","","","","","","","","","","","","","","","","","","","","","","","","","","",""
"","rating","","html-slider-response","45","161071","0.0-1.0-42.0","27","87740","Female","2581","","","","","78","40","26","Stimuli/Experimental_stims/body_parts/engin-akyurt-x_3gyC42btc-unsplash.jpg","","","","","","","","","","","","","","","","","","","","","","","","","","","","","","","","","","","","","","","","","","","","","","","","","","","","","","","","","","","","","","","",""
"","rating","","html-slider-response","46","164364","0.0-1.0-43.0","27","87740","Female","3270","","","","","98","41","0","Stimuli/Experimental_stims/outdoor_scenes/aleksandra-boguslawska-MS7KD9Ti7FQ-unsplash.jpg","","","","","","","","","","","","","","","","","","","","","","","","","","","","","","","","","","","","","","","","","","","","","","","","","","","","","","","","","","","","","","","",""
"","rating","","html-slider-response","47","167043","0.0-1.0-44.0","27","87740","Female","2671","","","","","66","42","43","Stimuli/Experimental_stims/objects/jonathan-greenaway-Y4hGgeiFn3s-unsplash.jpg","","","","","","","","","","","","","","","","","","","","","","","","","","","","","","","","","","","","","","","","","","","","","","","","","","","","","","","","","","","","","","","",""
"","rating","","html-slider-response","48","169563","0.0-1.0-45.0","27","87740","Female","2512","","","","","73","43","32","Stimuli/Experimental_stims/body_parts/towfiqu-barbhuiya-3AsiVDsZnHg-unsplash.jpg","","","","","","","","","","","","","","","","","","","","","","","","","","","","","","","","","","","","","","","","","","","","","","","","","","","","","","","","","","","","","","","",""
"","rating","","html-slider-response","49","172389","0.0-1.0-46.0","27","87740","Female","2811","","","","","78","44","17","Stimuli/Experimental_stims/faces/good-faces-xmSWVeGEnJw-unsplash.jpg","","","","","","","","","","","","","","","","","","","","","","","","","","","","","","","","","","","","","","","","","","","","","","","","","","","","","","","","","","","","","","","",""
"","rating","","html-slider-response","50","175666","0.0-1.0-47.0","27","87740","Female","3264","","","","","98","45","6","Stimuli/Experimental_stims/outdoor_scenes/meng-ji-8BH_M-53CyA-unsplash.jpg","","","","","","","","","","","","","","","","","","","","","","","","","","","","","","","","","","","","","","","","","","","","","","","","","","","","","","","","","","","","","","","",""
"","rating","","html-slider-response","51","178117","0.0-1.0-48.0","27","87740","Female","2443","","","","","68","46","33","Stimuli/Experimental_stims/body_parts/tucker-good-36skLT5jZcc-unsplash.jpg","","","","","","","","","","","","","","","","","","","","","","","","","","","","","","","","","","","","","","","","","","","","","","","","","","","","","","","","","","","","","","","",""
"","rating","","html-slider-response","52","180862","0.0-1.0-49.0","27","87740","Female","2733","","","","","78","47","12","Stimuli/Experimental_stims/faces/aiony-haust-jmATI5Q_YgY-unsplash.jpg","","","","","","","","","","","","","","","","","","","","","","","","","","","","","","","","","","","","","","","","","","","","","","","","","","","","","","","","","","","","","","","",""
"","localizer_instructions","","instructions","53","199237","0.0-2.0-0.0-0.0","27","87740","Female","18308","","[{""page_index"":0,""viewing_time"":11613},{""page_index"":1,""viewing_time"":5370},{""page_index"":2,""viewing_time"":1324}]","","","","","","","","","","","","","","","","","","","","","","","","","","","","","","","","","","","","","","","","","","","","","","","","","","","","","","","","","","","","","","","","","","","","","",""
"","localizer_comprehension_check","","survey-multi-choice","54","213955","0.0-2.0-0.0-1.0","27","87740","Female","14697","{""Q0"":""True"",""Q1"":""K"",""Q2"":""D""}","","0","","","","","","","","","","","","","","","","","","","","","","","","","","","","","","","","","","","","","","","","","","","","","","","","","","","","","","","","","","","","","","","","","","","","",""
"","","","html-keyboard-response","55","216530","0.0-2.0-1.0","27","87740","Female","2566","","","","68","","","","","","","","","","","","","","","","","","","","","","","","","","","","","","","","","","","","","","","","","","","","","","","","","","","","","","","","","","","","","","","","","","","",""
"","localizer","","html-keyboard-response","56","216955","0.0-2.0-2.0-0.0","27","87740","Female","NaN","","","","null","NaN","0","","Stimuli/Practice_stims/Localizer/annie-spratt-g9KFpAfQ5bc-unsplash.jpg","216530","0","NaN","","0","1","0","400","0","425","0","","","","","","","","","","","","","","","","","","","","","","","","","","","","","","","","","","","","","","","","","","","","","","","","","","","","",""
"","iti_localizer","","html-keyboard-response","57","217267","0.0-2.0-2.0-1.0","27","87740","Female","null","","","","null","","0","","","216955","0","","","","","","300","400","312","425","300","","","","","","","","","","","","","","","","","","","","","","","","","","","","","","","","","","","","","","","","","","","","","","","","","","","",""
"","localizer","","html-keyboard-response","58","217720","0.0-2.0-2.1-0.1","27","87740","Female","NaN","","","","null","NaN","0","","Stimuli/Practice_stims/Localizer/annie-spratt-g9KFpAfQ5bc-unsplash.jpg","217267","0","NaN","","0","1","0","400","700","453","737","","","","","","","","","","","","","","","","","","","","","","","","","","","","","","","","","","","","","","","","","","","","","","","","","","","","",""
"","iti_localizer","","html-keyboard-response","59","218031","0.0-2.0-2.1-1.1","27","87740","Female","null","","","","null","","0","","","217720","0","","","","","","300","1100","311","1190","300","","","","","","","","","","","","","","","","","","","","","","","","","","","","","","","","","","","","","","","","","","","","","","","","","","","",""
"","localizer","","html-keyboard-response","60","218448","0.0-2.0-2.2-0.2","27","87740","Female","NaN","","","","null","NaN","0","","Stimuli/Practice_stims/Localizer/annie-spratt-g9KFpAfQ5bc-unsplash.jpg","218031","0","NaN","","0","1","0","400","1400","417","1501","","","","","","","","","","","","","","","","","","","","","","","","","","","","","","","","","","","","","","","","","","","","","","","","","","","","",""
"","iti_localizer","","html-keyboard-response","61","218758","0.0-2.0-2.2-1.2","27","87740","Female","null","","","","null","","0","","","218448","0","","","","","","300","1800","310","1918","300","","","","","","","","","","","","","","","","","","","","","","","","","","","","","","","","","","","","","","","","","","","","","","","","","","","",""
"","localizer","","html-keyboard-response","62","219173","0.0-2.0-2.3-0.3","27","87740","Female","307","","","","68","0","0","","Stimuli/Practice_stims/Localizer/annie-spratt-g9KFpAfQ5bc-unsplash.jpg","218758","0","NaN","","0","0","1","400","2100","415","2228","","","","","","","","","","","","","","","","","","","","","","","","","","","","","","","","","","","","","","","","","","","","","","","","","","","","",""
"","iti_localizer","","html-keyboard-response","63","219480","0.0-2.0-2.3-1.3","27","87740","Female","null","","","","null","","0","","","219173","0","","","","","","300","2500","307","2643","300","","","","","","","","","","","","","","","","","","","","","","","","","","","","","","","","","","","","","","","","","","","","","","","","","","","",""
"","localizer","","html-keyboard-response","64","219913","0.0-2.0-3.0-0.0","27","87740","Female","NaN","","","","null","NaN","1","","Stimuli/Practice_stims/Localizer/becca-tapert-sY5RjMB1KkE-unsplash.jpg","219480","0","NaN","","0","1","0","400","2800","433","2950","","","","","","","","","","","","","","","","","","","","","","","","","","","","","","","","","","","","","","","","","","","","","","","","","","","","",""
"","iti_localizer","","html-keyboard-response","65","220227","0.0-2.0-3.0-1.0","27","87740","Female","null","","","","null","","1","","","219913","0","","","","","","300","3200","314","3383","300","","","","","","","","","","","","","","","","","","","","","","","","","","","","","","","","","","","","","","","","","","","","","","","","","","","",""
"","localizer","","html-keyboard-response","66","220639","0.0-2.0-3.1-0.1","27","87740","Female","NaN","","","","null","NaN","1","","Stimuli/Practice_stims/Localizer/becca-tapert-sY5RjMB1KkE-unsplash.jpg","220227","0","NaN","","0","1","0","400","3500","412","3697","","","","","","","","","","","","","","","","","","","","","","","","","","","","","","","","","","","","","","","","","","","","","","","","","","","","",""
"","iti_localizer","","html-keyboard-response","67","220946","0.0-2.0-3.1-1.1","27","87740","Female","null","","","","null","","1","","","220639","0","","","","","","300","3900","307","4109","300","","","","","","","","","","","","","","","","","","","","","","","","","","","","","","","","","","","","","","","","","","","","","","","","","","","",""
"","localizer","","html-keyboard-response","68","221358","0.0-2.0-3.2-0.2","27","87740","Female","NaN","","","","null","NaN","1","","Stimuli/Practice_stims/Localizer/becca-tapert-sY5RjMB1KkE-unsplash.jpg","220946","0","NaN","","0","1","0","400","4200","412","4416","","","","","","","","","","","","","","","","","","","","","","","","","","","","","","","","","","","","","","","","","","","","","","","","","","","","",""
"","iti_localizer","","html-keyboard-response","69","221703","0.0-2.0-3.2-1.2","27","87740","Female","null","","","","null","","1","","","221358","0","","","","","","300","4600","345","4828","300","","","","","","","","","","","","","","","","","","","","","","","","","","","","","","","","","","","","","","","","","","","","","","","","","","","",""
"","localizer","","html-keyboard-response","70","222125","0.0-2.0-3.3-0.3","27","87740","Female","294","","","","68","0","1","","Stimuli/Practice_stims/Localizer/becca-tapert-sY5RjMB1KkE-unsplash.jpg","221703","0","NaN","","0","0","1","400","4900","422","5173","","","","","","","","","","","","","","","","","","","","","","","","","","","","","","","","","","","","","","","","","","","","","","","","","","","","",""
"","iti_localizer","","html-keyboard-response","71","222436","0.0-2.0-3.3-1.3","27","87740","Female","null","","","","null","","1","","","222125","0","","","","","","300","5300","311","5595","300","","","","","","","","","","","","","","","","","","","","","","","","","","","","","","","","","","","","","","","","","","","","","","","","","","","",""
"","localizer","","html-keyboard-response","72","222851","0.0-2.0-4.0-0.0","27","87740","Female","NaN","","","","null","NaN","2","","Stimuli/Practice_stims/Localizer/charl-durand-bsfXvI25iNg-unsplash.jpg","222436","0","NaN","","1","1","0","400","5600","415","5906","","","","","","","","","","","","","","","","","","","","","","","","","","","","","","","","","","","","","","","","","","","","","","","","","","","","",""
"","iti_localizer","","html-keyboard-response","73","223162","0.0-2.0-4.0-1.0","27","87740","Female","null","","","","null","","2","","","222851","0","","","","","","300","6000","311","6321","300","","","","","","","","","","","","","","","","","","","","","","","","","","","","","","","","","","","","","","","","","","","","","","","","","","","",""
"","localizer","","html-keyboard-response","74","223577","0.0-2.0-4.1-0.1","27","87740","Female","NaN","","","","null","NaN","2","","Stimuli/Practice_stims/Localizer/charl-durand-bsfXvI25iNg-unsplash.jpg","223162","0","NaN","","1","1","0","400","6300","415","6632","","","","","","","","","","","","","","","","","","","","","","","","","","","","","","","","","","","","","","","","","","","","","","","","","","","","",""
"","iti_localizer","","html-keyboard-response","75","223911","0.0-2.0-4.1-1.1","27","87740","Female","null","","","","null","","2","","","223577","0","","","","","","300","6700","334","7047","300","","","","","","","","","","","","","","","","","","","","","","","","","","","","","","","","","","","","","","","","","","","","","","","","","","","",""
"","localizer","","html-keyboard-response","76","224325","0.0-2.0-4.2-0.2","27","87740","Female","114","","","","75","1","2","","Stimuli/Practice_stims/Localizer/charl-durand-bsfXvI25iNg-unsplash.jpg","223911","0","NaN","","1","0","1","400","7000","414","7381","","","","","","","","","","","","","","","","","","","","","","","","","","","","","","","","","","","","","","","","","","","","","","","","","","","","",""
"","iti_localizer","","html-keyboard-response","77","224635","0.0-2.0-4.2-1.2","27","87740","Female","null","","","","null","","2","","","224325","0","","","","","","300","7400","310","7795","300","","","","","","","","","","","","","","","","","","","","","","","","","","","","","","","","","","","","","","","","","","","","","","","","","","","",""
"","localizer","","html-keyboard-response","78","225047","0.0-2.0-5.0-0.0","27","87740","Female","179","","","","75","1","3","","Stimuli/Practice_stims/Localizer/nizar-albusaidy-B2r2SWAf5CE-unsplash.jpg","224635","0","NaN","","0","0","0","400","7700","412","8105","","","","","","","","","","","","","","","","","","","","","","","","","","","","","","","","","","","","","","","","","","","","","","","","","","","","",""
"","iti_localizer","","html-keyboard-response","79","225361","0.0-2.0-5.0-1.0","27","87740","Female","null","","","","null","","3","","","225047","0","","","","","","300","8100","314","8517","300","","","","","","","","","","","","","","","","","","","","","","","","","","","","","","","","","","","","","","","","","","","","","","","","","","","",""
"","localizer","","html-keyboard-response","80","225857","0.0-2.0-6.0-0.0","27","87740","Female","NaN","","","","null","NaN","4","","Stimuli/Practice_stims/Localizer/randy-fath-epf1tdtIIkM-unsplash.jpg","225361","0","NaN","","1","1","0","400","8400","496","8831","","","","","","","","","","","","","","","","","","","","","","","","","","","","","","","","","","","","","","","","","","","","","","","","","","","","",""
"","iti_localizer","","html-keyboard-response","81","226166","0.0-2.0-6.0-1.0","27","87740","Female","null","","","","null","","4","","","225857","0","","","","","","300","8800","309","9327","300","","","","","","","","","","","","","","","","","","","","","","","","","","","","","","","","","","","","","","","","","","","","","","","","","","","",""
"","localizer","","html-keyboard-response","82","226585","0.0-2.0-6.1-0.1","27","87740","Female","313","","","","75","1","4","","Stimuli/Practice_stims/Localizer/randy-fath-epf1tdtIIkM-unsplash.jpg","226166","0","NaN","","1","0","1","400","9100","419","9636","","","","","","","","","","","","","","","","","","","","","","","","","","","","","","","","","","","","","","","","","","","","","","","","","","","","",""
"","iti_localizer","","html-keyboard-response","83","226899","0.0-2.0-6.1-1.1","27","87740","Female","null","","","","null","","4","","","226585","0","","","","","","300","9500","314","10055","300","","","","","","","","","","","","","","","","","","","","","","","","","","","","","","","","","","","","","","","","","","","","","","","","","","","",""
"","localizer","","html-keyboard-response","84","227313","0.0-2.0-7.0-0.0","27","87740","Female","182","","","","75","1","5","","Stimuli/Practice_stims/Localizer/yassine-khalfalli-adsQ9d_Cx0c-unsplash.jpg","226899","0","NaN","","0","0","0","400","9800","414","10369","","","","","","","","","","","","","","","","","","","","","","","","","","","","","","","","","","","","","","","","","","","","","","","","","","","","",""
"","iti_localizer","","html-keyboard-response","85","228021","0.0-2.0-7.0-1.0","27","87740","Female","null","","","","null","","5","","","227313","0","","","","","","300","10200","708","10783","300","","","","","","","","","","","","","","","","","","","","","","","","","","","","","","","","","","","","","","","","","","","","","","","","","","","",""
"","practice_over","","html-keyboard-response","86","229628","0.0-2.0-7.0-2.0-0.0","27","87740","Female","1598","","","","68","","","","","","","","","","","","","","","","","","","","","","","","","","","","","","","","","","","","","","","","","","","","","","","","","","","","","","","","","","","","","","","","","","","",""
"","start_run","","html-keyboard-response","87","231426","0.0-2.0-7.0-2.0-1.0","27","87740","Female","1791","","","","84","","","","","","","","","","","","","","","","","","","","","","","","","","","","","","","","","","","","","","","","","","","","","","","","","","","","","","","","","","","","","","","","","","","",""
"","localizer","","html-keyboard-response","88","231932","0.0-2.0-8.0-0.0","27","87740","Female","NaN","","","","null","NaN","6","","Stimuli/Experimental_stims/localizer/faces/christina-wocintechchat-com-0Zx1bDv5BNY-unsplash.jpg","231426","1","faces","","0","1","0","400","0","506","0","","","","","","","","","","","","","","","","","","","","","","","","","","","","","","","","","","","","","","","","","","","","","","","","","","","","",""
"","iti_localizer","","html-keyboard-response","89","232262","0.0-2.0-8.0-1.0","27","87740","Female","null","","","","null","","6","","","231932","1","","","","","","300","400","330","506","300","","","","","","","","","","","","","","","","","","","","","","","","","","","","","","","","","","","","","","","","","","","","","","","","","","","",""
"","localizer","","html-keyboard-response","90","232668","0.0-2.0-9.0-0.0","27","87740","Female","134","","","","68","0","7","","Stimuli/Experimental_stims/localizer/faces/jeffery-erhunse-BQMZ5ligqps-unsplash.jpg","232262","1","faces","","0","0","1","400","700","406","836","","","","","","","","","","","","","","","","","","","","","","","","","","","","","","","","","","","","","","","","","","","","","","","","","","","","",""
"","iti_localizer","","html-keyboard-response","91","232980","0.0-2.0-9.0-1.0","27","87740","Female","null","","","","null","","7","","","232668","1","","","","","","300","1100","312","1242","300","","","","","","","","","","","","","","","","","","","","","","","","","","","","","","","","","","","","","","","","","","","","","","","","","","","",""
"","localizer","","html-keyboard-response","92","233391","0.0-2.0-10.0-0.0","27","87740","Female","181","","","","68","0","8","","Stimuli/Experimental_stims/localizer/faces/matheus-ferrero-W7b3eDUb_2I-unsplash.jpg","232980","1","faces","","0","0","1","400","1400","411","1554","","","","","","","","","","","","","","","","","","","","","","","","","","","","","","","","","","","","","","","","","","","","","","","","","","","","",""
"","iti_localizer","","html-keyboard-response","93","233704","0.0-2.0-10.0-1.0","27","87740","Female","null","","","","null","","8","","","233391","1","","","","","","300","1800","313","1965","300","","","","","","","","","","","","","","","","","","","","","","","","","","","","","","","","","","","","","","","","","","","","","","","","","","","",""
"","localizer","","html-keyboard-response","94","234157","0.0-2.0-11.0-0.0","27","87740","Female","148","","","","68","0","9","","Stimuli/Experimental_stims/localizer/faces/jurica-koletic-7YVZYZeITc8-unsplash.jpg","233704","1","faces","","1","0","0","400","2100","453","2278","","","","","","","","","","","","","","","","","","","","","","","","","","","","","","","","","","","","","","","","","","","","","","","","","","","","",""
"","iti_localizer","","html-keyboard-response","95","234468","0.0-2.0-11.0-1.0","27","87740","Female","null","","","","null","","9","","","234157","1","","","","","","300","2500","311","2731","300","","","","","","","","","","","","","","","","","","","","","","","","","","","","","","","","","","","","","","","","","","","","","","","","","","","",""
"","localizer","","html-keyboard-response","96","234889","0.0-2.0-12.0-0.0","27","87740","Female","116","","","","75","1","10","","Stimuli/Experimental_stims/localizer/faces/drew-hays-agGIKYs4mYs-unsplash.jpg","234468","1","faces","","0","0","0","400","2800","421","3042","","","","","","","","","","","","","","","","","","","","","","","","","","","","","","","","","","","","","","","","","","","","","","","","","","","","",""
"","iti_localizer","","html-keyboard-response","97","235200","0.0-2.0-12.0-1.0","27","87740","Female","null","","","","null","","10","","","234889","1","","","","","","300","3200","311","3463","300","","","","","","","","","","","","","","","","","","","","","","","","","","","","","","","","","","","","","","","","","","","","","","","","","","","",""
"","localizer","","html-keyboard-response","98","235625","0.0-2.0-13.0-0.0","27","87740","Female","52","","","","68","0","11","","Stimuli/Experimental_stims/localizer/faces/rui-silvestre-hAMJpesMeDE-unsplash.jpg","235200","1","faces","","0","0","1","400","3500","425","3774","","","","","","","","","","","","","","","","","","","","","","","","","","","","","","","","","","","","","","","","","","","","","","","","","","","","",""
"","iti_localizer","","html-keyboard-response","99","235939","0.0-2.0-13.0-1.0","27","87740","Female","null","","","","null","","11","","","235625","1","","","","","","300","3900","314","4199","300","","","","","","","","","","","","","","","","","","","","","","","","","","","","","","","","","","","","","","","","","","","","","","","","","","","",""
"","localizer","","html-keyboard-response","100","236350","0.0-2.0-14.0-0.0","27","87740","Female","0","","","","68","0","12","","Stimuli/Experimental_stims/localizer/faces/sean-kong--1B_y4wGs-s-unsplash.jpg","235939","1","faces","","0","0","1","400","4200","411","4513","","","","","","","","","","","","","","","","","","","","","","","","","","","","","","","","","","","","","","","","","","","","","","","","","","","","",""
"","iti_localizer","","html-keyboard-response","101","236659","0.0-2.0-14.0-1.0","27","87740","Female","null","","","","null","","12","","","236350","1","","","","","","300","4600","309","4924","300","","","","","","","","","","","","","","","","","","","","","","","","","","","","","","","","","","","","","","","","","","","","","","","","","","","",""
"","localizer","","html-keyboard-response","102","237073","0.0-2.0-15.0-0.0","27","87740","Female","367","","","","68","0","13","","Stimuli/Experimental_stims/localizer/faces/vince-fleming-j3lf-Jn6deo-unsplash.jpg","236659","1","faces","","0","0","1","400","4900","414","5233","","","","","","","","","","","","","","","","","","","","","","","","","","","","","","","","","","","","","","","","","","","","","","","","","","","","",""
"","iti_localizer","","html-keyboard-response","103","237384","0.0-2.0-15.0-1.0","27","87740","Female","null","","","","null","","13","","","237073","1","","","","","","300","5300","311","5647","300","","","","","","","","","","","","","","","","","","","","","","","","","","","","","","","","","","","","","","","","","","","","","","","","","","","",""
"","localizer","","html-keyboard-response","104","237940","0.0-2.0-16.0-0.0","27","87740","Female","53","","","","75","1","14","","Stimuli/Experimental_stims/localizer/faces/tyler-nix-ZGa9d1a_4tA-unsplash.jpg","237384","1","faces","","0","0","0","400","5600","556","5958","","","","","","","","","","","","","","","","","","","","","","","","","","","","","","","","","","","","","","","","","","","","","","","","","","","","",""
"","iti_localizer","","html-keyboard-response","105","238253","0.0-2.0-16.0-1.0","27","87740","Female","null","","","","null","","14","","","237940","1","","","","","","300","6000","313","6514","300","","","","","","","","","","","","","","","","","","","","","","","","","","","","","","","","","","","","","","","","","","","","","","","","","","","",""
"","localizer","","html-keyboard-response","106","238670","0.0-2.0-17.0-0.0","27","87740","Female","29","","","","68","0","15","","Stimuli/Experimental_stims/localizer/faces/abstral-official-cyOKLSgkgCE-unsplash.jpg","238253","1","faces","","0","0","1","400","6300","417","6827","","","","","","","","","","","","","","","","","","","","","","","","","","","","","","","","","","","","","","","","","","","","","","","","","","","","",""
"","iti_localizer","","html-keyboard-response","107","238983","0.0-2.0-17.0-1.0","27","87740","Female","null","","","","null","","15","","","238670","1","","","","","","300","6700","313","7244","300","","","","","","","","","","","","","","","","","","","","","","","","","","","","","","","","","","","","","","","","","","","","","","","","","","","",""
"","localizer","","html-keyboard-response","108","239398","0.0-2.0-18.0-0.0","27","87740","Female","26","","","","75","1","16","","Stimuli/Experimental_stims/localizer/faces/ethan-haddox-__ng3cRXmFE-unsplash.jpg","238983","1","faces","","0","0","0","400","7000","415","7557","","","","","","","","","","","","","","","","","","","","","","","","","","","","","","","","","","","","","","","","","","","","","","","","","","","","",""
"","iti_localizer","","html-keyboard-response","109","239716","0.0-2.0-18.0-1.0","27","87740","Female","null","","","","null","","16","","","239398","1","","","","","","300","7400","318","7972","300","","","","","","","","","","","","","","","","","","","","","","","","","","","","","","","","","","","","","","","","","","","","","","","","","","","",""
"","localizer","","html-keyboard-response","110","240131","0.0-2.0-19.0-0.0","27","87740","Female","35","","","","68","0","17","","Stimuli/Experimental_stims/localizer/faces/foto-sushi-6anudmpILw4-unsplash.jpg","239716","1","faces","","0","0","1","400","7700","415","8290","","","","","","","","","","","","","","","","","","","","","","","","","","","","","","","","","","","","","","","","","","","","","","","","","","","","",""
"","iti_localizer","","html-keyboard-response","111","240446","0.0-2.0-19.0-1.0","27","87740","Female","null","","","","null","","17","","","240131","1","","","","","","300","8100","315","8705","300","","","","","","","","","","","","","","","","","","","","","","","","","","","","","","","","","","","","","","","","","","","","","","","","","","","",""
"","localizer","","html-keyboard-response","112","240925","0.0-2.0-20.0-0.0","27","87740","Female","194","","","","68","0","18","","Stimuli/Experimental_stims/localizer/faces/christian-ferrer-8vT-DgHZDG4-unsplash.jpg","240446","1","faces","","0","0","1","400","8400","479","9020","","","","","","","","","","","","","","","","","","","","","","","","","","","","","","","","","","","","","","","","","","","","","","","","","","","","",""
"","iti_localizer","","html-keyboard-response","113","241240","0.0-2.0-20.0-1.0","27","87740","Female","null","","","","null","","18","","","240925","1","","","","","","300","8800","315","9499","300","","","","","","","","","","","","","","","","","","","","","","","","","","","","","","","","","","","","","","","","","","","","","","","","","","","",""
"","localizer","","html-keyboard-response","114","241649","0.0-2.0-21.0-0.0","27","87740","Female","228","","","","68","0","19","","Stimuli/Experimental_stims/localizer/faces/stephanie-nakagawa-ADSKIn0ScDg-unsplash.jpg","241240","1","faces","","0","0","1","400","9100","409","9814","","","","","","","","","","","","","","","","","","","","","","","","","","","","","","","","","","","","","","","","","","","","","","","","","","","","",""
"","iti_localizer","","html-keyboard-response","115","241962","0.0-2.0-21.0-1.0","27","87740","Female","null","","","","null","","19","","","241649","1","","","","","","300","9500","313","10223","300","","","","","","","","","","","","","","","","","","","","","","","","","","","","","","","","","","","","","","","","","","","","","","","","","","","",""
"","localizer","","html-keyboard-response","116","242372","0.0-2.0-22.0-0.0","27","87740","Female","154","","","","75","1","20","","Stimuli/Experimental_stims/localizer/faces/toa-heftiba-2O1EUSTRBrY-unsplash.jpg","241962","1","faces","","1","0","1","400","9800","410","10536","","","","","","","","","","","","","","","","","","","","","","","","","","","","","","","","","","","","","","","","","","","","","","","","","","","","",""
"","iti_localizer","","html-keyboard-response","117","242685","0.0-2.0-22.0-1.0","27","87740","Female","null","","","","null","","20","","","242372","1","","","","","","300","10200","313","10946","300","","","","","","","","","","","","","","","","","","","","","","","","","","","","","","","","","","","","","","","","","","","","","","","","","","","",""
"","localizer","","html-keyboard-response","118","243093","0.0-2.0-23.0-0.0","27","87740","Female","154","","","","75","1","21","","Stimuli/Experimental_stims/localizer/faces/darshan-patel-QJEVpydulGs-unsplash.jpg","242685","1","faces","","0","0","0","400","10500","408","11259","","","","","","","","","","","","","","","","","","","","","","","","","","","","","","","","","","","","","","","","","","","","","","","","","","","","",""
"","iti_localizer","","html-keyboard-response","119","243469","0.0-2.0-23.0-1.0","27","87740","Female","null","","","","null","","21","","","243093","1","","","","","","300","10900","376","11667","300","","","","","","","","","","","","","","","","","","","","","","","","","","","","","","","","","","","","","","","","","","","","","","","","","","","",""
"","localizer","","html-keyboard-response","120","243891","0.0-2.0-24.0-0.0","27","87740","Female","24","","","","68","0","22","","Stimuli/Experimental_stims/localizer/faces/mubariz-mehdizadeh-o-wlIFT4zE4-unsplash.jpg","243469","1","faces","","0","0","1","400","11200","422","12043","","","","","","","","","","","","","","","","","","","","","","","","","","","","","","","","","","","","","","","","","","","","","","","","","","","","",""
"","iti_localizer","","html-keyboard-response","121","244203","0.0-2.0-24.0-1.0","27","87740","Female","null","","","","null","","22","","","243891","1","","","","","","300","11600","312","12465","300","","","","","","","","","","","","","","","","","","","","","","","","","","","","","","","","","","","","","","","","","","","","","","","","","","","",""
"","localizer","","html-keyboard-response","122","244743","0.0-2.0-25.0-0.0","27","87740","Female","35","","","","68","0","23","","Stimuli/Experimental_stims/localizer/faces/midas-hofstra-tidSLv-UaNs-unsplash.jpg","244203","1","faces","","0","0","1","400","11900","540","12777","","","","","","","","","","","","","","","","","","","","","","","","","","","","","","","","","","","","","","","","","","","","","","","","","","","","",""
"","iti_localizer","","html-keyboard-response","123","245058","0.0-2.0-25.0-1.0","27","87740","Female","null","","","","null","","23","","","244743","1","","","","","","300","12300","315","13317","300","","","","","","","","","","","","","","","","","","","","","","","","","","","","","","","","","","","","","","","","","","","","","","","","","","","",""
"","localizer","","html-keyboard-response","124","245476","0.0-2.0-26.0-0.0","27","87740","Female","136","","","","75","1","24","","Stimuli/Experimental_stims/localizer/faces/toa-heftiba-O3ymvT7Wf9U-unsplash.jpg","245058","1","faces","","0","0","0","400","12600","418","13632","","","","","","","","","","","","","","","","","","","","","","","","","","","","","","","","","","","","","","","","","","","","","","","","","","","","",""
"","iti_localizer","","html-keyboard-response","125","245789","0.0-2.0-26.0-1.0","27","87740","Female","null","","","","null","","24","","","245476","1","","","","","","300","13000","313","14050","300","","","","","","","","","","","","","","","","","","","","","","","","","","","","","","","","","","","","","","","","","","","","","","","","","","","",""
"","localizer","","html-keyboard-response","126","246229","0.0-2.0-27.0-0.0","27","87740","Female","15","","","","68","0","25","","Stimuli/Experimental_stims/localizer/faces/katsiaryna-endruszkiewicz-BteCp6aq4GI-unsplash.jpg","245789","1","faces","","0","0","1","400","13300","440","14363","","","","","","","","","","","","","","","","","","","","","","","","","","","","","","","","","","","","","","","","","","","","","","","","","","","","",""
"","iti_localizer","","html-keyboard-response","127","260254","0.0-2.0-27.0-1.0","27","87740","Female","null","","","","null","","25","","","246229","1","","","","","","14000","13700","14025","14803","14000","","","","","","","","","","","","","","","","","","","","","","","","","","","","","","","","","","","","","","","","","","","","","","","","","","","",""
"","localizer","","html-keyboard-response","128","260675","0.0-2.0-28.0-0.0","27","87740","Female","NaN","","","","null","NaN","26","","Stimuli/Experimental_stims/localizer/outdoor_scenes/jaanus-jagomagi-FddgewYQF2M-unsplash.jpg","260254","1","outdoor_scenes","","0","1","0","400","27700","421","28828","","","","","","","","","","","","","","","","","","","","","","","","","","","","","","","","","","","","","","","","","","","","","","","","","","","","",""
"","iti_localizer","","html-keyboard-response","129","260997","0.0-2.0-28.0-1.0","27","87740","Female","null","","","","null","","26","","","260675","1","","","","","","300","28100","322","29249","300","","","","","","","","","","","","","","","","","","","","","","","","","","","","","","","","","","","","","","","","","","","","","","","","","","","",""
"","localizer","","html-keyboard-response","130","261409","0.0-2.0-29.0-0.0","27","87740","Female","NaN","","","","null","NaN","27","","Stimuli/Experimental_stims/localizer/outdoor_scenes/v2osk-1Z2niiBPg5A-unsplash.jpg","260997","1","outdoor_scenes","","1","1","0","400","28400","412","29571","","","","","","","","","","","","","","","","","","","","","","","","","","","","","","","","","","","","","","","","","","","","","","","","","","","","",""
"","iti_localizer","","html-keyboard-response","131","261723","0.0-2.0-29.0-1.0","27","87740","Female","null","","","","null","","27","","","261409","1","","","","","","300","28800","314","29983","300","","","","","","","","","","","","","","","","","","","","","","","","","","","","","","","","","","","","","","","","","","","","","","","","","","","",""
"","localizer","","html-keyboard-response","132","262202","0.0-2.0-30.0-0.0","27","87740","Female","NaN","","","","null","NaN","28","","Stimuli/Experimental_stims/localizer/outdoor_scenes/wai-siew-mTFyV8oNDzU-unsplash.jpg","261723","1","outdoor_scenes","","0","1","0","400","29100","479","30297","","","","","","","","","","","","","","","","","","","","","","","","","","","","","","","","","","","","","","","","","","","","","","","","","","","","",""
"","iti_localizer","","html-keyboard-response","133","262511","0.0-2.0-30.0-1.0","27","87740","Female","null","","","","null","","28","","","262202","1","","","","","","300","29500","309","30776","300","","","","","","","","","","","","","","","","","","","","","","","","","","","","","","","","","","","","","","","","","","","","","","","","","","","",""
"","localizer","","html-keyboard-response","134","262924","0.0-2.0-31.0-0.0","27","87740","Female","NaN","","","","null","NaN","29","","Stimuli/Experimental_stims/localizer/outdoor_scenes/jay-cai-F_laX9E8CUo-unsplash.jpg","262511","1","outdoor_scenes","","0","1","0","400","29800","413","31085","","","","","","","","","","","","","","","","","","","","","","","","","","","","","","","","","","","","","","","","","","","","","","","","","","","","",""
"","iti_localizer","","html-keyboard-response","135","263240","0.0-2.0-31.0-1.0","27","87740","Female","null","","","","null","","29","","","262924","1","","","","","","300","30200","316","31498","300","","","","","","","","","","","","","","","","","","","","","","","","","","","","","","","","","","","","","","","","","","","","","","","","","","","",""
"","localizer","","html-keyboard-response","136","263655","0.0-2.0-32.0-0.0","27","87740","Female","NaN","","","","null","NaN","30","","Stimuli/Experimental_stims/localizer/outdoor_scenes/jeremy-cai-ucYWe5mzTMU-unsplash.jpg","263240","1","outdoor_scenes","","0","1","0","400","30500","415","31814","","","","","","","","","","","","","","","","","","","","","","","","","","","","","","","","","","","","","","","","","","","","","","","","","","","","",""
"","iti_localizer","","html-keyboard-response","137","263967","0.0-2.0-32.0-1.0","27","87740","Female","null","","","","null","","30","","","263655","1","","","","","","300","30900","312","32229","300","","","","","","","","","","","","","","","","","","","","","","","","","","","","","","","","","","","","","","","","","","","","","","","","","","","",""
"","localizer","","html-keyboard-response","138","264380","0.0-2.0-33.0-0.0","27","87740","Female","NaN","","","","null","NaN","31","","Stimuli/Experimental_stims/localizer/outdoor_scenes/erol-ahmed-d3pTF3r_hwY-unsplash.jpg","263967","1","outdoor_scenes","","0","1","0","400","31200","413","32541","","","","","","","","","","","","","","","","","","","","","","","","","","","","","","","","","","","","","","","","","","","","","","","","","","","","",""
"","iti_localizer","","html-keyboard-response","139","264795","0.0-2.0-33.0-1.0","27","87740","Female","null","","","","null","","31","","","264380","1","","","","","","300","31600","415","32954","300","","","","","","","","","","","","","","","","","","","","","","","","","","","","","","","","","","","","","","","","","","","","","","","","","","","",""
"","localizer","","html-keyboard-response","140","265209","0.0-2.0-34.0-0.0","27","87740","Female","NaN","","","","null","NaN","32","","Stimuli/Experimental_stims/localizer/outdoor_scenes/quino-al-vmZ2DehWQ3Q-unsplash.jpg","264795","1","outdoor_scenes","","0","1","0","400","31900","414","33369","","","","","","","","","","","","","","","","","","","","","","","","","","","","","","","","","","","","","","","","","","","","","","","","","","","","",""
"","iti_localizer","","html-keyboard-response","141","265521","0.0-2.0-34.0-1.0","27","87740","Female","null","","","","null","","32","","","265209","1","","","","","","300","32300","312","33783","300","","","","","","","","","","","","","","","","","","","","","","","","","","","","","","","","","","","","","","","","","","","","","","","","","","","",""
"","localizer","","html-keyboard-response","142","266034","0.0-2.0-35.0-0.0","27","87740","Female","NaN","","","","null","NaN","33","","Stimuli/Experimental_stims/localizer/outdoor_scenes/kenneth-thewissen-D76DklsG-5U-unsplash.jpg","265521","1","outdoor_scenes","","0","1","0","400","32600","513","34095","","","","","","","","","","","","","","","","","","","","","","","","","","","","","","","","","","","","","","","","","","","","","","","","","","","","",""
"","iti_localizer","","html-keyboard-response","143","266342","0.0-2.0-35.0-1.0","27","87740","Female","null","","","","null","","33","","","266034","1","","","","","","300","33000","308","34608","300","","","","","","","","","","","","","","","","","","","","","","","","","","","","","","","","","","","","","","","","","","","","","","","","","","","",""
"","localizer","","html-keyboard-response","144","266751","0.0-2.0-36.0-0.0","27","87740","Female","NaN","","","","null","NaN","34","","Stimuli/Experimental_stims/localizer/outdoor_scenes/johny-goerend-U_diPCXCBxU-unsplash.jpg","266342","1","outdoor_scenes","","0","1","0","400","33300","409","34916","","","","","","","","","","","","","","","","","","","","","","","","","","","","","","","","","","","","","","","","","","","","","","","","","","","","",""
"","iti_localizer","","html-keyboard-response","145","267064","0.0-2.0-36.0-1.0","27","87740","Female","null","","","","null","","34","","","266751","1","","","","","","300","33700","313","35325","300","","","","","","","","","","","","","","","","","","","","","","","","","","","","","","","","","","","","","","","","","","","","","","","","","","","",""
"","localizer","","html-keyboard-response","146","267478","0.0-2.0-37.0-0.0","27","87740","Female","NaN","","","","null","NaN","35","","Stimuli/Experimental_stims/localizer/outdoor_scenes/ken-cheung-KonWFWUaAuk-unsplash.jpg","267064","1","outdoor_scenes","","0","1","0","400","34000","414","35638","","","","","","","","","","","","","","","","","","","","","","","","","","","","","","","","","","","","","","","","","","","","","","","","","","","","",""
"","iti_localizer","","html-keyboard-response","147","267791","0.0-2.0-37.0-1.0","27","87740","Female","null","","","","null","","35","","","267478","1","","","","","","300","34400","313","36052","300","","","","","","","","","","","","","","","","","","","","","","","","","","","","","","","","","","","","","","","","","","","","","","","","","","","",""
"","localizer","","html-keyboard-response","148","268200","0.0-2.0-38.0-0.0","27","87740","Female","298","","","","75","1","36","","Stimuli/Experimental_stims/localizer/outdoor_scenes/alessio-furlan-Vw3a0HgE7AM-unsplash.jpg","267791","1","outdoor_scenes","","0","0","0","400","34700","409","36365","","","","","","","","","","","","","","","","","","","","","","","","","","","","","","","","","","","","","","","","","","","","","","","","","","","","",""
"","iti_localizer","","html-keyboard-response","149","268538","0.0-2.0-38.0-1.0","27","87740","Female","null","","","","null","","36","","","268200","1","","","","","","300","35100","338","36774","300","","","","","","","","","","","","","","","","","","","","","","","","","","","","","","","","","","","","","","","","","","","","","","","","","","","",""
"","localizer","","html-keyboard-response","150","268959","0.0-2.0-39.0-0.0","27","87740","Female","74","","","","68","0","37","","Stimuli/Experimental_stims/localizer/outdoor_scenes/ricardo-gomez-angel-dTSaC-S-7fs-unsplash.jpg","268538","1","outdoor_scenes","","0","0","1","400","35400","421","37112","","","","","","","","","","","","","","","","","","","","","","","","","","","","","","","","","","","","","","","","","","","","","","","","","","","","",""
"","iti_localizer","","html-keyboard-response","151","269274","0.0-2.0-39.0-1.0","27","87740","Female","null","","","","null","","37","","","268959","1","","","","","","300","35800","315","37533","300","","","","","","","","","","","","","","","","","","","","","","","","","","","","","","","","","","","","","","","","","","","","","","","","","","","",""
"","localizer","","html-keyboard-response","152","269757","0.0-2.0-40.0-0.0","27","87740","Female","NaN","","","","null","NaN","38","","Stimuli/Experimental_stims/localizer/outdoor_scenes/samuel-ferrara-IEHPDNk2-8w-unsplash.jpg","269274","1","outdoor_scenes","","0","1","0","400","36100","483","37848","","","","","","","","","","","","","","","","","","","","","","","","","","","","","","","","","","","","","","","","","","","","","","","","","","","","",""
"","iti_localizer","","html-keyboard-response","153","270070","0.0-2.0-40.0-1.0","27","87740","Female","null","","","","null","","38","","","269757","1","","","","","","300","36500","313","38331","300","","","","","","","","","","","","","","","","","","","","","","","","","","","","","","","","","","","","","","","","","","","","","","","","","","","",""
"","localizer","","html-keyboard-response","154","270495","0.0-2.0-41.0-0.0","27","87740","Female","109","","","","68","0","39","","Stimuli/Experimental_stims/localizer/outdoor_scenes/pietro-de-grandi-T7K4aEPoGGk-unsplash.jpg","270070","1","outdoor_scenes","","0","0","1","400","36800","425","38644","","","","","","","","","","","","","","","","","","","","","","","","","","","","","","","","","","","","","","","","","","","","","","","","","","","","",""
"","iti_localizer","","html-keyboard-response","155","270840","0.0-2.0-41.0-1.0","27","87740","Female","null","","","","null","","39","","","270495","1","","","","","","300","37200","345","39069","300","","","","","","","","","","","","","","","","","","","","","","","","","","","","","","","","","","","","","","","","","","","","","","","","","","","",""
"","localizer","","html-keyboard-response","156","271250","0.0-2.0-42.0-0.0","27","87740","Female","NaN","","","","null","NaN","40","","Stimuli/Experimental_stims/localizer/outdoor_scenes/tomasz-filipek-CUWC-6MRcNg-unsplash.jpg","270840","1","outdoor_scenes","","0","1","0","400","37500","410","39414","","","","","","","","","","","","","","","","","","","","","","","","","","","","","","","","","","","","","","","","","","","","","","","","","","","","",""
"","iti_localizer","","html-keyboard-response","157","271563","0.0-2.0-42.0-1.0","27","87740","Female","null","","","","null","","40","","","271250","1","","","","","","300","37900","313","39824","300","","","","","","","","","","","","","","","","","","","","","","","","","","","","","","","","","","","","","","","","","","","","","","","","","","","",""
"","localizer","","html-keyboard-response","158","271982","0.0-2.0-43.0-0.0","27","87740","Female","NaN","","","","null","NaN","41","","Stimuli/Experimental_stims/localizer/outdoor_scenes/cayetano-gil-rguHxZmOF5U-unsplash.jpg","271563","1","outdoor_scenes","","0","1","0","400","38200","419","40137","","","","","","","","","","","","","","","","","","","","","","","","","","","","","","","","","","","","","","","","","","","","","","","","","","","","",""
"","iti_localizer","","html-keyboard-response","159","272296","0.0-2.0-43.0-1.0","27","87740","Female","null","","","","null","","41","","","271982","1","","","","","","300","38600","314","40556","300","","","","","","","","","","","","","","","","","","","","","","","","","","","","","","","","","","","","","","","","","","","","","","","","","","","",""
"","localizer","","html-keyboard-response","160","272708","0.0-2.0-44.0-0.0","27","87740","Female","NaN","","","","null","NaN","42","","Stimuli/Experimental_stims/localizer/outdoor_scenes/nikola-majksner-hXNGeAFOgT4-unsplash.jpg","272296","1","outdoor_scenes","","0","1","0","400","38900","412","40870","","","","","","","","","","","","","","","","","","","","","","","","","","","","","","","","","","","","","","","","","","","","","","","","","","","","",""
"","iti_localizer","","html-keyboard-response","161","273024","0.0-2.0-44.0-1.0","27","87740","Female","null","","","","null","","42","","","272708","1","","","","","","300","39300","316","41282","300","","","","","","","","","","","","","","","","","","","","","","","","","","","","","","","","","","","","","","","","","","","","","","","","","","","",""
"","localizer","","html-keyboard-response","162","273439","0.0-2.0-45.0-0.0","27","87740","Female","NaN","","","","null","NaN","43","","Stimuli/Experimental_stims/localizer/outdoor_scenes/wil-stewart-pHANr-CpbYM-unsplash.jpg","273024","1","outdoor_scenes","","1","1","0","400","39600","415","41598","","","","","","","","","","","","","","","","","","","","","","","","","","","","","","","","","","","","","","","","","","","","","","","","","","","","",""
"","iti_localizer","","html-keyboard-response","163","273751","0.0-2.0-45.0-1.0","27","87740","Female","null","","","","null","","43","","","273439","1","","","","","","300","40000","312","42013","300","","","","","","","","","","","","","","","","","","","","","","","","","","","","","","","","","","","","","","","","","","","","","","","","","","","",""
"","localizer","","html-keyboard-response","164","274176","0.0-2.0-46.0-0.0","27","87740","Female","NaN","","","","null","NaN","44","","Stimuli/Experimental_stims/localizer/outdoor_scenes/chang-qing-2YQoKbyGvDc-unsplash.jpg","273751","1","outdoor_scenes","","0","1","0","400","40300","425","42325","","","","","","","","","","","","","","","","","","","","","","","","","","","","","","","","","","","","","","","","","","","","","","","","","","","","",""
"","iti_localizer","","html-keyboard-response","165","274492","0.0-2.0-46.0-1.0","27","87740","Female","null","","","","null","","44","","","274176","1","","","","","","300","40700","316","42750","300","","","","","","","","","","","","","","","","","","","","","","","","","","","","","","","","","","","","","","","","","","","","","","","","","","","",""
"","localizer","","html-keyboard-response","166","274910","0.0-2.0-47.0-0.0","27","87740","Female","NaN","","","","null","NaN","45","","Stimuli/Experimental_stims/localizer/outdoor_scenes/solotravelgoals-7kLufxYoqWk-unsplash.jpg","274492","1","outdoor_scenes","","0","1","0","400","41000","418","43066","","","","","","","","","","","","","","","","","","","","","","","","","","","","","","","","","","","","","","","","","","","","","","","","","","","","",""
"","iti_localizer","","html-keyboard-response","167","288935","0.0-2.0-47.0-1.0","27","87740","Female","null","","","","null","","45","","","274910","1","","","","","","14000","41400","14025","43484","14000","","","","","","","","","","","","","","","","","","","","","","","","","","","","","","","","","","","","","","","","","","","","","","","","","","","",""
"","localizer","","html-keyboard-response","168","289347","0.0-2.0-48.0-0.0","27","87740","Female","NaN","","","","null","NaN","46","","Stimuli/Experimental_stims/localizer/body_parts/jeremy-bishop-mLd3hAaH2ns-unsplash.jpg","288935","1","body_parts","","0","1","0","400","55400","412","57509","","","","","","","","","","","","","","","","","","","","","","","","","","","","","","","","","","","","","","","","","","","","","","","","","","","","",""
"","iti_localizer","","html-keyboard-response","169","289679","0.0-2.0-48.0-1.0","27","87740","Female","null","","","","null","","46","","","289347","1","","","","","","300","55800","332","57921","300","","","","","","","","","","","","","","","","","","","","","","","","","","","","","","","","","","","","","","","","","","","","","","","","","","","",""
"","localizer","","html-keyboard-response","170","290091","0.0-2.0-49.0-0.0","27","87740","Female","NaN","","","","null","NaN","47","","Stimuli/Experimental_stims/localizer/body_parts/lilartsy-1KkhQ8uL28g-unsplash.jpg","289679","1","body_parts","","0","1","0","400","56100","412","58253","","","","","","","","","","","","","","","","","","","","","","","","","","","","","","","","","","","","","","","","","","","","","","","","","","","","",""
"","iti_localizer","","html-keyboard-response","171","290402","0.0-2.0-49.0-1.0","27","87740","Female","null","","","","null","","47","","","290091","1","","","","","","300","56500","311","58665","300","","","","","","","","","","","","","","","","","","","","","","","","","","","","","","","","","","","","","","","","","","","","","","","","","","","",""
"","localizer","","html-keyboard-response","172","290814","0.0-2.0-50.0-0.0","27","87740","Female","NaN","","","","null","NaN","48","","Stimuli/Experimental_stims/localizer/body_parts/toa-heftiba-qxvWnfHb3-M-unsplash.jpg","290402","1","body_parts","","0","1","0","400","56800","412","58976","","","","","","","","","","","","","","","","","","","","","","","","","","","","","","","","","","","","","","","","","","","","","","","","","","","","",""
"","iti_localizer","","html-keyboard-response","173","291130","0.0-2.0-50.0-1.0","27","87740","Female","null","","","","null","","48","","","290814","1","","","","","","300","57200","316","59388","300","","","","","","","","","","","","","","","","","","","","","","","","","","","","","","","","","","","","","","","","","","","","","","","","","","","",""
"","localizer","","html-keyboard-response","174","291547","0.0-2.0-51.0-0.0","27","87740","Female","NaN","","","","null","NaN","49","","Stimuli/Experimental_stims/localizer/body_parts/callum-skelton-3KLMq7y46nA-unsplash.jpg","291130","1","body_parts","","1","1","0","400","57500","417","59704","","","","","","","","","","","","","","","","","","","","","","","","","","","","","","","","","","","","","","","","","","","","","","","","","","","","",""
"","iti_localizer","","html-keyboard-response","175","291941","0.0-2.0-51.0-1.0","27","87740","Female","null","","","","null","","49","","","291547","1","","","","","","300","57900","394","60121","300","","","","","","","","","","","","","","","","","","","","","","","","","","","","","","","","","","","","","","","","","","","","","","","","","","","",""
"","localizer","","html-keyboard-response","176","292359","0.0-2.0-52.0-0.0","27","87740","Female","212","","","","75","1","50","","Stimuli/Experimental_stims/localizer/body_parts/ant-rozetsky-bXQd8JXx0vs-unsplash.jpg","291941","1","body_parts","","0","0","0","400","58200","418","60515","","","","","","","","","","","","","","","","","","","","","","","","","","","","","","","","","","","","","","","","","","","","","","","","","","","","",""
"","iti_localizer","","html-keyboard-response","177","292669","0.0-2.0-52.0-1.0","27","87740","Female","null","","","","null","","50","","","292359","1","","","","","","300","58600","310","60933","300","","","","","","","","","","","","","","","","","","","","","","","","","","","","","","","","","","","","","","","","","","","","","","","","","","","",""
"","localizer","","html-keyboard-response","178","293081","0.0-2.0-53.0-0.0","27","87740","Female","346","","","","68","0","51","","Stimuli/Experimental_stims/localizer/body_parts/boyd-christiansen-uVj7kewrZ-o-unsplash.jpg","292669","1","body_parts","","0","0","1","400","58900","412","61243","","","","","","","","","","","","","","","","","","","","","","","","","","","","","","","","","","","","","","","","","","","","","","","","","","","","",""
"","iti_localizer","","html-keyboard-response","179","293389","0.0-2.0-53.0-1.0","27","87740","Female","null","","","","null","","51","","","293081","1","","","","","","300","59300","308","61655","300","","","","","","","","","","","","","","","","","","","","","","","","","","","","","","","","","","","","","","","","","","","","","","","","","","","",""
"","localizer","","html-keyboard-response","180","293809","0.0-2.0-54.0-0.0","27","87740","Female","253","","","","75","1","52","","Stimuli/Experimental_stims/localizer/body_parts/helen-ast-l2iY5Sh0mTg-unsplash.jpg","293389","1","body_parts","","0","0","0","400","59600","420","61963","","","","","","","","","","","","","","","","","","","","","","","","","","","","","","","","","","","","","","","","","","","","","","","","","","","","",""
"","iti_localizer","","html-keyboard-response","181","294169","0.0-2.0-54.0-1.0","27","87740","Female","null","","","","null","","52","","","293809","1","","","","","","300","60000","360","62383","300","","","","","","","","","","","","","","","","","","","","","","","","","","","","","","","","","","","","","","","","","","","","","","","","","","","",""
"","localizer","","html-keyboard-response","182","294593","0.0-2.0-55.0-0.0","27","87740","Female","NaN","","","","null","NaN","53","","Stimuli/Experimental_stims/localizer/body_parts/pure-julia-E9Q4bqYHtIM-unsplash.jpg","294169","1","body_parts","","0","1","0","400","60300","424","62743","","","","","","","","","","","","","","","","","","","","","","","","","","","","","","","","","","","","","","","","","","","","","","","","","","","","",""
"","iti_localizer","","html-keyboard-response","183","294901","0.0-2.0-55.0-1.0","27","87740","Female","null","","","","null","","53","","","294593","1","","","","","","300","60700","308","63167","300","","","","","","","","","","","","","","","","","","","","","","","","","","","","","","","","","","","","","","","","","","","","","","","","","","","",""
"","localizer","","html-keyboard-response","184","295336","0.0-2.0-56.0-0.0","27","87740","Female","NaN","","","","null","NaN","54","","Stimuli/Experimental_stims/localizer/body_parts/sina-rezakhani-d1gQi0Jl05U-unsplash (1).jpg","294901","1","body_parts","","0","1","0","400","61000","435","63475","","","","","","","","","","","","","","","","","","","","","","","","","","","","","","","","","","","","","","","","","","","","","","","","","","","","",""
"","iti_localizer","","html-keyboard-response","185","295644","0.0-2.0-56.0-1.0","27","87740","Female","null","","","","null","","54","","","295336","1","","","","","","300","61400","308","63910","300","","","","","","","","","","","","","","","","","","","","","","","","","","","","","","","","","","","","","","","","","","","","","","","","","","","",""
"","localizer","","html-keyboard-response","186","296058","0.0-2.0-57.0-0.0","27","87740","Female","NaN","","","","null","NaN","55","","Stimuli/Experimental_stims/localizer/body_parts/megan-menegay-UojxG_BJxnI-unsplash.jpg","295644","1","body_parts","","0","1","0","400","61700","414","64218","","","","","","","","","","","","","","","","","","","","","","","","","","","","","","","","","","","","","","","","","","","","","","","","","","","","",""
"","iti_localizer","","html-keyboard-response","187","296369","0.0-2.0-57.0-1.0","27","87740","Female","null","","","","null","","55","","","296058","1","","","","","","300","62100","311","64632","300","","","","","","","","","","","","","","","","","","","","","","","","","","","","","","","","","","","","","","","","","","","","","","","","","","","",""
"","localizer","","html-keyboard-response","188","296786","0.0-2.0-58.0-0.0","27","87740","Female","118","","","","68","0","56","","Stimuli/Experimental_stims/localizer/body_parts/sincerely-media-7TBFwUQA6Xk-unsplash.jpg","296369","1","body_parts","","0","0","1","400","62400","417","64943","","","","","","","","","","","","","","","","","","","","","","","","","","","","","","","","","","","","","","","","","","","","","","","","","","","","",""
"","iti_localizer","","html-keyboard-response","189","297097","0.0-2.0-58.0-1.0","27","87740","Female","null","","","","null","","56","","","296786","1","","","","","","300","62800","311","65360","300","","","","","","","","","","","","","","","","","","","","","","","","","","","","","","","","","","","","","","","","","","","","","","","","","","","",""
"","localizer","","html-keyboard-response","190","297557","0.0-2.0-59.0-0.0","27","87740","Female","91","","","","68","0","57","","Stimuli/Experimental_stims/localizer/body_parts/sincerely-media-pdynOoM7xmA-unsplash.jpg","297097","1","body_parts","","0","0","1","400","63100","460","65671","","","","","","","","","","","","","","","","","","","","","","","","","","","","","","","","","","","","","","","","","","","","","","","","","","","","",""
"","iti_localizer","","html-keyboard-response","191","297880","0.0-2.0-59.0-1.0","27","87740","Female","null","","","","null","","57","","","297557","1","","","","","","300","63500","323","66131","300","","","","","","","","","","","","","","","","","","","","","","","","","","","","","","","","","","","","","","","","","","","","","","","","","","","",""
"","localizer","","html-keyboard-response","192","298293","0.0-2.0-60.0-0.0","27","87740","Female","NaN","","","","null","NaN","58","","Stimuli/Experimental_stims/localizer/body_parts/adrien-king-XzBluXxBoyQ-unsplash.jpg","297880","1","body_parts","","0","1","0","400","63800","413","66454","","","","","","","","","","","","","","","","","","","","","","","","","","","","","","","","","","","","","","","","","","","","","","","","","","","","",""
"","iti_localizer","","html-keyboard-response","193","298600","0.0-2.0-60.0-1.0","27","87740","Female","null","","","","null","","58","","","298293","1","","","","","","300","64200","307","66867","300","","","","","","","","","","","","","","","","","","","","","","","","","","","","","","","","","","","","","","","","","","","","","","","","","","","",""
"","localizer","","html-keyboard-response","194","299015","0.0-2.0-61.0-0.0","27","87740","Female","NaN","","","","null","NaN","59","","Stimuli/Experimental_stims/localizer/body_parts/nattalia-nunez-MB9sdDfZMSg-unsplash.jpg","298600","1","body_parts","","1","1","0","400","64500","415","67174","","","","","","","","","","","","","","","","","","","","","","","","","","","","","","","","","","","","","","","","","","","","","","","","","","","","",""
"","iti_localizer","","html-keyboard-response","195","299325","0.0-2.0-61.0-1.0","27","87740","Female","null","","","","null","","59","","","299015","1","","","","","","300","64900","310","67589","300","","","","","","","","","","","","","","","","","","","","","","","","","","","","","","","","","","","","","","","","","","","","","","","","","","","",""
"","localizer","","html-keyboard-response","196","299751","0.0-2.0-62.0-0.0","27","87740","Female","314","","","","75","1","60","","Stimuli/Experimental_stims/localizer/body_parts/louis-hansel-FjKTMRTQYAs-unsplash.jpg","299325","1","body_parts","","0","0","0","400","65200","426","67899","","","","","","","","","","","","","","","","","","","","","","","","","","","","","","","","","","","","","","","","","","","","","","","","","","","","",""
"","iti_localizer","","html-keyboard-response","197","300059","0.0-2.0-62.0-1.0","27","87740","Female","null","","","","null","","60","","","299751","1","","","","","","300","65600","308","68325","300","","","","","","","","","","","","","","","","","","","","","","","","","","","","","","","","","","","","","","","","","","","","","","","","","","","",""
"","localizer","","html-keyboard-response","198","300478","0.0-2.0-63.0-0.0","27","87740","Female","131","","","","68","0","61","","Stimuli/Experimental_stims/localizer/body_parts/jonathan-borba-hTwH8QFkPMs-unsplash.jpg","300059","1","body_parts","","0","0","1","400","65900","419","68633","","","","","","","","","","","","","","","","","","","","","","","","","","","","","","","","","","","","","","","","","","","","","","","","","","","","",""
"","iti_localizer","","html-keyboard-response","199","300785","0.0-2.0-63.0-1.0","27","87740","Female","null","","","","null","","61","","","300478","1","","","","","","300","66300","307","69052","300","","","","","","","","","","","","","","","","","","","","","","","","","","","","","","","","","","","","","","","","","","","","","","","","","","","",""
"","localizer","","html-keyboard-response","200","301202","0.0-2.0-64.0-0.0","27","87740","Female","40","","","","68","0","62","","Stimuli/Experimental_stims/localizer/body_parts/hu-chen-tCbTGNwrFNM-unsplash.jpg","300785","1","body_parts","","0","0","1","400","66600","417","69359","","","","","","","","","","","","","","","","","","","","","","","","","","","","","","","","","","","","","","","","","","","","","","","","","","","","",""
"","iti_localizer","","html-keyboard-response","201","301514","0.0-2.0-64.0-1.0","27","87740","Female","null","","","","null","","62","","","301202","1","","","","","","300","67000","312","69776","300","","","","","","","","","","","","","","","","","","","","","","","","","","","","","","","","","","","","","","","","","","","","","","","","","","","",""
"","localizer","","html-keyboard-response","202","301947","0.0-2.0-65.0-0.0","27","87740","Female","23","","","","68","0","63","","Stimuli/Experimental_stims/localizer/body_parts/danie-franco-jyyNiSEcCl4-unsplash.jpg","301514","1","body_parts","","0","0","1","400","67300","433","70088","","","","","","","","","","","","","","","","","","","","","","","","","","","","","","","","","","","","","","","","","","","","","","","","","","","","",""
"","iti_localizer","","html-keyboard-response","203","302261","0.0-2.0-65.0-1.0","27","87740","Female","null","","","","null","","63","","","301947","1","","","","","","300","67700","314","70521","300","","","","","","","","","","","","","","","","","","","","","","","","","","","","","","","","","","","","","","","","","","","","","","","","","","","",""
"","localizer","","html-keyboard-response","204","302677","0.0-2.0-66.0-0.0","27","87740","Female","NaN","","","","null","NaN","64","","Stimuli/Experimental_stims/localizer/body_parts/natalie-grainger-8uB5kFKWWkk-unsplash.jpg","302261","1","body_parts","","0","1","0","400","68000","416","70835","","","","","","","","","","","","","","","","","","","","","","","","","","","","","","","","","","","","","","","","","","","","","","","","","","","","",""
"","iti_localizer","","html-keyboard-response","205","302985","0.0-2.0-66.0-1.0","27","87740","Female","null","","","","null","","64","","","302677","1","","","","","","300","68400","308","71251","300","","","","","","","","","","","","","","","","","","","","","","","","","","","","","","","","","","","","","","","","","","","","","","","","","","","",""
"","localizer","","html-keyboard-response","206","303398","0.0-2.0-67.0-0.0","27","87740","Female","75","","","","68","0","65","","Stimuli/Experimental_stims/localizer/body_parts/apostolos-vamvouras-g5wKHRu2QW0-unsplash.jpg","302985","1","body_parts","","0","0","1","400","68700","413","71559","","","","","","","","","","","","","","","","","","","","","","","","","","","","","","","","","","","","","","","","","","","","","","","","","","","","",""
"","iti_localizer","","html-keyboard-response","207","317421","0.0-2.0-67.0-1.0","27","87740","Female","null","","","","null","","65","","","303398","1","","","","","","14000","69100","14023","71972","14000","","","","","","","","","","","","","","","","","","","","","","","","","","","","","","","","","","","","","","","","","","","","","","","","","","","",""
"","localizer","","html-keyboard-response","208","317868","0.0-2.0-68.0-0.0","27","87740","Female","NaN","","","","null","NaN","66","","Stimuli/Experimental_stims/localizer/objects/quaritsch-photography-lZ8onQ1wuY8-unsplash.jpg","317421","1","objects","","1","1","0","400","83100","447","85995","","","","","","","","","","","","","","","","","","","","","","","","","","","","","","","","","","","","","","","","","","","","","","","","","","","","",""
"","iti_localizer","","html-keyboard-response","209","318189","0.0-2.0-68.0-1.0","27","87740","Female","null","","","","null","","66","","","317868","1","","","","","","300","83500","321","86442","300","","","","","","","","","","","","","","","","","","","","","","","","","","","","","","","","","","","","","","","","","","","","","","","","","","","",""
"","localizer","","html-keyboard-response","210","318599","0.0-2.0-69.0-0.0","27","87740","Female","NaN","","","","null","NaN","67","","Stimuli/Experimental_stims/localizer/objects/ana-9GmAaEMMKho-unsplash.jpg","318189","1","objects","","0","1","0","400","83800","410","86763","","","","","","","","","","","","","","","","","","","","","","","","","","","","","","","","","","","","","","","","","","","","","","","","","","","","",""
"","iti_localizer","","html-keyboard-response","211","318911","0.0-2.0-69.0-1.0","27","87740","Female","null","","","","null","","67","","","318599","1","","","","","","300","84200","312","87173","300","","","","","","","","","","","","","","","","","","","","","","","","","","","","","","","","","","","","","","","","","","","","","","","","","","","",""
"","localizer","","html-keyboard-response","212","319343","0.0-2.0-70.0-0.0","27","87740","Female","NaN","","","","null","NaN","68","","Stimuli/Experimental_stims/localizer/objects/nordwood-themes-nDd3dIkkOLo-unsplash.jpg","318911","1","objects","","0","1","0","400","84500","432","87485","","","","","","","","","","","","","","","","","","","","","","","","","","","","","","","","","","","","","","","","","","","","","","","","","","","","",""
"","iti_localizer","","html-keyboard-response","213","319681","0.0-2.0-70.0-1.0","27","87740","Female","null","","","","null","","68","","","319343","1","","","","","","300","84900","338","87917","300","","","","","","","","","","","","","","","","","","","","","","","","","","","","","","","","","","","","","","","","","","","","","","","","","","","",""
"","localizer","","html-keyboard-response","214","320091","0.0-2.0-71.0-0.0","27","87740","Female","395","","","","68","0","69","","Stimuli/Experimental_stims/localizer/objects/kelly-jean-cKjbI0Y00X0-unsplash.jpg","319681","1","objects","","0","0","1","400","85200","410","88255","","","","","","","","","","","","","","","","","","","","","","","","","","","","","","","","","","","","","","","","","","","","","","","","","","","","",""
"","iti_localizer","","html-keyboard-response","215","320403","0.0-2.0-71.0-1.0","27","87740","Female","null","","","","null","","69","","","320091","1","","","","","","300","85600","312","88665","300","","","","","","","","","","","","","","","","","","","","","","","","","","","","","","","","","","","","","","","","","","","","","","","","","","","",""
"","localizer","","html-keyboard-response","216","320817","0.0-2.0-72.0-0.0","27","87740","Female","116","","","","68","0","70","","Stimuli/Experimental_stims/localizer/objects/florian-klauer-nptLmg6jqDo-unsplash.jpg","320403","1","objects","","0","0","1","400","85900","414","88977","","","","","","","","","","","","","","","","","","","","","","","","","","","","","","","","","","","","","","","","","","","","","","","","","","","","",""
"","iti_localizer","","html-keyboard-response","217","321131","0.0-2.0-72.0-1.0","27","87740","Female","null","","","","null","","70","","","320817","1","","","","","","300","86300","314","89391","300","","","","","","","","","","","","","","","","","","","","","","","","","","","","","","","","","","","","","","","","","","","","","","","","","","","",""
"","localizer","","html-keyboard-response","218","321544","0.0-2.0-73.0-0.0","27","87740","Female","155","","","","68","0","71","","Stimuli/Experimental_stims/localizer/objects/nicolas-hippert-SVgX47QIUlc-unsplash.jpg","321131","1","objects","","0","0","1","400","86600","413","89705","","","","","","","","","","","","","","","","","","","","","","","","","","","","","","","","","","","","","","","","","","","","","","","","","","","","",""
"","iti_localizer","","html-keyboard-response","219","321858","0.0-2.0-73.0-1.0","27","87740","Female","null","","","","null","","71","","","321544","1","","","","","","300","87000","314","90118","300","","","","","","","","","","","","","","","","","","","","","","","","","","","","","","","","","","","","","","","","","","","","","","","","","","","",""
"","localizer","","html-keyboard-response","220","322275","0.0-2.0-74.0-0.0","27","87740","Female","161","","","","68","0","72","","Stimuli/Experimental_stims/localizer/objects/florian-klauer-mk7D-4UCfmg-unsplash.jpg","321858","1","objects","","0","0","1","400","87300","417","90432","","","","","","","","","","","","","","","","","","","","","","","","","","","","","","","","","","","","","","","","","","","","","","","","","","","","",""
"","iti_localizer","","html-keyboard-response","221","322591","0.0-2.0-74.0-1.0","27","87740","Female","null","","","","null","","72","","","322275","1","","","","","","300","87700","316","90849","300","","","","","","","","","","","","","","","","","","","","","","","","","","","","","","","","","","","","","","","","","","","","","","","","","","","",""
"","localizer","","html-keyboard-response","222","323005","0.0-2.0-75.0-0.0","27","87740","Female","NaN","","","","null","NaN","73","","Stimuli/Experimental_stims/localizer/objects/alex-lvrs-2zDw14yCYqk-unsplash.jpg","322591","1","objects","","0","1","0","400","88000","414","91165","","","","","","","","","","","","","","","","","","","","","","","","","","","","","","","","","","","","","","","","","","","","","","","","","","","","",""
"","iti_localizer","","html-keyboard-response","223","323318","0.0-2.0-75.0-1.0","27","87740","Female","null","","","","null","","73","","","323005","1","","","","","","300","88400","313","91579","300","","","","","","","","","","","","","","","","","","","","","","","","","","","","","","","","","","","","","","","","","","","","","","","","","","","",""
"","localizer","","html-keyboard-response","224","323753","0.0-2.0-76.0-0.0","27","87740","Female","NaN","","","","null","NaN","74","","Stimuli/Experimental_stims/localizer/objects/hipster-mum-XookgCxFw6Q-unsplash.jpg","323318","1","objects","","0","1","0","400","88700","435","91892","","","","","","","","","","","","","","","","","","","","","","","","","","","","","","","","","","","","","","","","","","","","","","","","","","","","",""
"","iti_localizer","","html-keyboard-response","225","324134","0.0-2.0-76.0-1.0","27","87740","Female","null","","","","null","","74","","","323753","1","","","","","","300","89100","381","92327","300","","","","","","","","","","","","","","","","","","","","","","","","","","","","","","","","","","","","","","","","","","","","","","","","","","","",""
"","localizer","","html-keyboard-response","226","324549","0.0-2.0-77.0-0.0","27","87740","Female","NaN","","","","null","NaN","75","","Stimuli/Experimental_stims/localizer/objects/ian-talmacs-ugqU0a4P18U-unsplash.jpg","324134","1","objects","","0","1","0","400","89400","415","92708","","","","","","","","","","","","","","","","","","","","","","","","","","","","","","","","","","","","","","","","","","","","","","","","","","","","",""
"","iti_localizer","","html-keyboard-response","227","324859","0.0-2.0-77.0-1.0","27","87740","Female","null","","","","null","","75","","","324549","1","","","","","","300","89800","310","93123","300","","","","","","","","","","","","","","","","","","","","","","","","","","","","","","","","","","","","","","","","","","","","","","","","","","","",""
"","localizer","","html-keyboard-response","228","325275","0.0-2.0-78.0-0.0","27","87740","Female","NaN","","","","null","NaN","76","","Stimuli/Experimental_stims/localizer/objects/chris-briggs-FobzAZJGM9M-unsplash.jpg","324859","1","objects","","0","1","0","400","90100","416","93433","","","","","","","","","","","","","","","","","","","","","","","","","","","","","","","","","","","","","","","","","","","","","","","","","","","","",""
"","iti_localizer","","html-keyboard-response","229","325595","0.0-2.0-78.0-1.0","27","87740","Female","null","","","","null","","76","","","325275","1","","","","","","300","90500","320","93849","300","","","","","","","","","","","","","","","","","","","","","","","","","","","","","","","","","","","","","","","","","","","","","","","","","","","",""
"","localizer","","html-keyboard-response","230","326004","0.0-2.0-79.0-0.0","27","87740","Female","NaN","","","","null","NaN","77","","Stimuli/Experimental_stims/localizer/objects/recha-oktaviani-t__61ap00Mc-unsplash.jpg","325595","1","objects","","0","1","0","400","90800","409","94169","","","","","","","","","","","","","","","","","","","","","","","","","","","","","","","","","","","","","","","","","","","","","","","","","","","","",""
"","iti_localizer","","html-keyboard-response","231","326316","0.0-2.0-79.0-1.0","27","87740","Female","null","","","","null","","77","","","326004","1","","","","","","300","91200","312","94578","300","","","","","","","","","","","","","","","","","","","","","","","","","","","","","","","","","","","","","","","","","","","","","","","","","","","",""
"","localizer","","html-keyboard-response","232","326727","0.0-2.0-80.0-0.0","27","87740","Female","NaN","","","","null","NaN","78","","Stimuli/Experimental_stims/localizer/objects/jonny-caspari-wsvCC6UyKjs-unsplash.jpg","326316","1","objects","","0","1","0","400","91500","411","94890","","","","","","","","","","","","","","","","","","","","","","","","","","","","","","","","","","","","","","","","","","","","","","","","","","","","",""
"","iti_localizer","","html-keyboard-response","233","327035","0.0-2.0-80.0-1.0","27","87740","Female","null","","","","null","","78","","","326727","1","","","","","","300","91900","308","95301","300","","","","","","","","","","","","","","","","","","","","","","","","","","","","","","","","","","","","","","","","","","","","","","","","","","","",""
"","localizer","","html-keyboard-response","234","327448","0.0-2.0-81.0-0.0","27","87740","Female","NaN","","","","null","NaN","79","","Stimuli/Experimental_stims/localizer/objects/markus-spiske-ANrVtttbNss-unsplash.jpg","327035","1","objects","","0","1","0","400","92200","413","95609","","","","","","","","","","","","","","","","","","","","","","","","","","","","","","","","","","","","","","","","","","","","","","","","","","","","",""
"","iti_localizer","","html-keyboard-response","235","327811","0.0-2.0-81.0-1.0","27","87740","Female","null","","","","null","","79","","","327448","1","","","","","","300","92600","363","96022","300","","","","","","","","","","","","","","","","","","","","","","","","","","","","","","","","","","","","","","","","","","","","","","","","","","","",""
"","localizer","","html-keyboard-response","236","328220","0.0-2.0-82.0-0.0","27","87740","Female","NaN","","","","null","NaN","80","","Stimuli/Experimental_stims/localizer/objects/ignat-dolomanov-kFBDVnmskPA-unsplash.jpg","327811","1","objects","","0","1","0","400","92900","409","96385","","","","","","","","","","","","","","","","","","","","","","","","","","","","","","","","","","","","","","","","","","","","","","","","","","","","",""
"","iti_localizer","","html-keyboard-response","237","328544","0.0-2.0-82.0-1.0","27","87740","Female","null","","","","null","","80","","","328220","1","","","","","","300","93300","324","96794","300","","","","","","","","","","","","","","","","","","","","","","","","","","","","","","","","","","","","","","","","","","","","","","","","","","","",""
"","localizer","","html-keyboard-response","238","328960","0.0-2.0-83.0-0.0","27","87740","Female","1","","","","68","0","81","","Stimuli/Experimental_stims/localizer/objects/mockup-graphics-Pj2PY-E-LfM-unsplash.jpg","328544","1","objects","","0","0","1","400","93600","416","97118","","","","","","","","","","","","","","","","","","","","","","","","","","","","","","","","","","","","","","","","","","","","","","","","","","","","",""
"","iti_localizer","","html-keyboard-response","239","329276","0.0-2.0-83.0-1.0","27","87740","Female","null","","","","null","","81","","","328960","1","","","","","","300","94000","316","97534","300","","","","","","","","","","","","","","","","","","","","","","","","","","","","","","","","","","","","","","","","","","","","","","","","","","","",""
"","localizer","","html-keyboard-response","240","329701","0.0-2.0-84.0-0.0","27","87740","Female","1","","","","68","0","82","","Stimuli/Experimental_stims/localizer/objects/lance-reis-v0FYj9iioQg-unsplash.jpg","329276","1","objects","","0","0","1","400","94300","425","97850","","","","","","","","","","","","","","","","","","","","","","","","","","","","","","","","","","","","","","","","","","","","","","","","","","","","",""
"","iti_localizer","","html-keyboard-response","241","330015","0.0-2.0-84.0-1.0","27","87740","Female","null","","","","null","","82","","","329701","1","","","","","","300","94700","314","98275","300","","","","","","","","","","","","","","","","","","","","","","","","","","","","","","","","","","","","","","","","","","","","","","","","","","","",""
"","localizer","","html-keyboard-response","242","330433","0.0-2.0-85.0-0.0","27","87740","Female","0","","","","68","0","83","","Stimuli/Experimental_stims/localizer/objects/mockup-graphics-U6ZMEefFGx8-unsplash.jpg","330015","1","objects","","0","0","1","400","95000","418","98589","","","","","","","","","","","","","","","","","","","","","","","","","","","","","","","","","","","","","","","","","","","","","","","","","","","","",""
"","iti_localizer","","html-keyboard-response","243","330740","0.0-2.0-85.0-1.0","27","87740","Female","null","","","","null","","83","","","330433","1","","","","","","300","95400","307","99007","300","","","","","","","","","","","","","","","","","","","","","","","","","","","","","","","","","","","","","","","","","","","","","","","","","","","",""
"","localizer","","html-keyboard-response","244","331154","0.0-2.0-86.0-0.0","27","87740","Female","NaN","","","","null","NaN","84","","Stimuli/Experimental_stims/localizer/objects/engin-akyurt-bbbKzTmY2Gg-unsplash.jpg","330740","1","objects","","1","1","0","400","95700","414","99314","","","","","","","","","","","","","","","","","","","","","","","","","","","","","","","","","","","","","","","","","","","","","","","","","","","","",""
"","iti_localizer","","html-keyboard-response","245","331470","0.0-2.0-86.0-1.0","27","87740","Female","null","","","","null","","84","","","331154","1","","","","","","300","96100","316","99728","300","","","","","","","","","","","","","","","","","","","","","","","","","","","","","","","","","","","","","","","","","","","","","","","","","","","",""
"","localizer","","html-keyboard-response","246","331880","0.0-2.0-87.0-0.0","27","87740","Female","130","","","","75","1","85","","Stimuli/Experimental_stims/localizer/objects/eugene-chystiakov-3neSwyntbQ8-unsplash.jpg","331470","1","objects","","0","0","0","400","96400","410","100044","","","","","","","","","","","","","","","","","","","","","","","","","","","","","","","","","","","","","","","","","","","","","","","","","","","","",""
"","iti_localizer","","html-keyboard-response","247","345898","0.0-2.0-87.0-1.0","27","87740","Female","null","","","","null","","85","","","331880","1","","","","","","14000","96800","14018","100454","14000","","","","","","","","","","","","","","","","","","","","","","","","","","","","","","","","","","","","","","","","","","","","","","","","","","","",""
