"success","ttype","start_time","trial_type","trial_index","time_elapsed","internal_node_id","age","PID","gender","rt","responses","view_history","repeat_instructions","key_press","response","index","stimulus_index","path","start_time_elapsed","run","task","isi","is_odd_ball","no_response","acc","duration","onset","duration_time_elapsed","onset_time_elapsed","trial_duration","left_chosen","chosen_stimulus","unchosen_stimulus","chosen_category","unchosen_category","chosen_rating","unchosen_rating","chosen_path","unchosen_path","pair_id","practice","scramble_screen_time","scramble_instructed_side","stim_type","iti","block","left_stimulus","right_stimulus","left_category","right_category","left_path","right_path","left_rating","right_rating","warning","scramble_acc","scramble_no_response","stimulus_id","item_id","outcome","response_rt","deliberation_reward_tally","choice_type","gain_left","left_item_id","right_item_id","higher_outcome_chosen","missed_checkup","chosen_left","old_pair","pair_type","old_response","pair_acc","reward_type","outcome_response","outcome_rt","outcome_acc","category","choice","deliberated_stim","old_rating","new_rating"
"true","full_screen","d08162023hr1930","fullscreen","0","64086","0.0-0.0-0.0","35","95708","MALE","","","","","","","","","","","","","","","","","","","","","","","","","","","","","","","","","","","","","","","","","","","","","","","","","","","","","","","","","","","","","","","","","","","","","","","","",""
"","get_id","","survey-text","1","81128","0.0-0.0-1.0","35","95708","MALE","16984","{""Q0"":""35"",""Q1"":""MALE""}","","","","","","","","","","","","","","","","","","","","","","","","","","","","","","","","","","","","","","","","","","","","","","","","","","","","","","","","","","","","","","","","","","","","","","",""
"","ratings_instructions","","instructions","2","138066","0.0-1.0-0.0-0.0","35","95708","MALE","55030","","[{""page_index"":0,""viewing_time"":35855},{""page_index"":1,""viewing_time"":19174}]","","","","","","","","","","","","","","","","","","","","","","","","","","","","","","","","","","","","","","","","","","","","","","","","","","","","","","","","","","","","","","","","","","","","","",""
"","rating_comprehension_check","","survey-multi-choice","3","171106","0.0-1.0-0.0-1.0","35","95708","MALE","33013","{""Q0"":""True"",""Q1"":""Mouse""}","","0","","","","","","","","","","","","","","","","","","","","","","","","","","","","","","","","","","","","","","","","","","","","","","","","","","","","","","","","","","","","","","","","","","","","",""
"","","","html-keyboard-response","4","178096","0.0-1.0-1.0","35","95708","MALE","6974","","","","68","","","","","","","","","","","","","","","","","","","","","","","","","","","","","","","","","","","","","","","","","","","","","","","","","","","","","","","","","","","","","","","","","","","",""
"","rating","","html-slider-response","5","186683","0.0-1.0-2.0","35","95708","MALE","8559","","","","","83","0","38","Stimuli/Experimental_stims/objects/art-lasovsky-8XddFc6NkBY-unsplash.jpg","","","","","","","","","","","","","","","","","","","","","","","","","","","","","","","","","","","","","","","","","","","","","","","","","","","","","","","","","","","","","","","",""
"","rating","","html-slider-response","6","195654","0.0-1.0-3.0","35","95708","MALE","8941","","","","","68","1","24","Stimuli/Experimental_stims/body_parts/clay-banks-LjqARJaJotc-unsplash.jpg","","","","","","","","","","","","","","","","","","","","","","","","","","","","","","","","","","","","","","","","","","","","","","","","","","","","","","","","","","","","","","","",""
"","rating","","html-slider-response","7","203516","0.0-1.0-4.0","35","95708","MALE","7843","","","","","77","2","13","Stimuli/Experimental_stims/faces/daniel-rigdon-dXmXKPP2L4E-unsplash.jpg","","","","","","","","","","","","","","","","","","","","","","","","","","","","","","","","","","","","","","","","","","","","","","","","","","","","","","","","","","","","","","","",""
"","rating","","html-slider-response","8","215022","0.0-1.0-5.0","35","95708","MALE","11474","","","","","66","3","2","Stimuli/Experimental_stims/outdoor_scenes/bruno-van-der-kraan-qez8mNJ3ilU-unsplash.jpg","","","","","","","","","","","","","","","","","","","","","","","","","","","","","","","","","","","","","","","","","","","","","","","","","","","","","","","","","","","","","","","",""
"","rating","","html-slider-response","9","222978","0.0-1.0-6.0","35","95708","MALE","7939","","","","","77","4","36","Stimuli/Experimental_stims/objects/alexander-andrews-JYGnB9gTCls-unsplash.jpg","","","","","","","","","","","","","","","","","","","","","","","","","","","","","","","","","","","","","","","","","","","","","","","","","","","","","","","","","","","","","","","",""
"","rating","","html-slider-response","10","231705","0.0-1.0-7.0","35","95708","MALE","8706","","","","","63","5","7","Stimuli/Experimental_stims/outdoor_scenes/petr-vysohlid-9fqwGqGLUxc-unsplash.jpg","","","","","","","","","","","","","","","","","","","","","","","","","","","","","","","","","","","","","","","","","","","","","","","","","","","","","","","","","","","","","","","",""
"","rating","","html-slider-response","11","276155","0.0-1.0-8.0","35","95708","MALE","44423","","","","","50","6","28","Stimuli/Experimental_stims/body_parts/ira-vishnevskaya-8DQAvdCby1I-unsplash.jpg","","","","","","","","","","","","","","","","","","","","","","","","","","","","","","","","","","","","","","","","","","","","","","","","","","","","","","","","","","","","","","","",""
"","rating","","html-slider-response","12","283736","0.0-1.0-9.0","35","95708","MALE","7558","","","","","79","7","14","Stimuli/Experimental_stims/faces/david-siglin-UuW4psOb388-unsplash.jpg","","","","","","","","","","","","","","","","","","","","","","","","","","","","","","","","","","","","","","","","","","","","","","","","","","","","","","","","","","","","","","","",""
"","rating","","html-slider-response","13","301774","0.0-1.0-10.0","35","95708","MALE","18010","","","","","82","8","23","Stimuli/Experimental_stims/faces/rikonavt-HQjfrvdTfak-unsplash.jpg","","","","","","","","","","","","","","","","","","","","","","","","","","","","","","","","","","","","","","","","","","","","","","","","","","","","","","","","","","","","","","","",""
"","rating","","html-slider-response","14","307155","0.0-1.0-11.0","35","95708","MALE","5355","","","","","79","9","39","Stimuli/Experimental_stims/objects/charlesdeluvio-1-nx1QR5dTE-unsplash.jpg","","","","","","","","","","","","","","","","","","","","","","","","","","","","","","","","","","","","","","","","","","","","","","","","","","","","","","","","","","","","","","","",""
"","rating","","html-slider-response","15","321567","0.0-1.0-12.0","35","95708","MALE","14378","","","","","76","10","11","Stimuli/Experimental_stims/outdoor_scenes/stephen-leonardi-gyIRjKPXupE-unsplash.jpg","","","","","","","","","","","","","","","","","","","","","","","","","","","","","","","","","","","","","","","","","","","","","","","","","","","","","","","","","","","","","","","",""
"","rating","","html-slider-response","16","335169","0.0-1.0-13.0","35","95708","MALE","13574","","","","","78","11","16","Stimuli/Experimental_stims/faces/freddy-kearney-o-ioeoATbIM-unsplash.jpg","","","","","","","","","","","","","","","","","","","","","","","","","","","","","","","","","","","","","","","","","","","","","","","","","","","","","","","","","","","","","","","",""
"","rating","","html-slider-response","17","340331","0.0-1.0-14.0","35","95708","MALE","5140","","","","","74","12","46","Stimuli/Experimental_stims/objects/mockup-graphics-PNsj6RiHAF4-unsplash.jpg","","","","","","","","","","","","","","","","","","","","","","","","","","","","","","","","","","","","","","","","","","","","","","","","","","","","","","","","","","","","","","","",""
"","rating","","html-slider-response","18","345862","0.0-1.0-15.0","35","95708","MALE","5499","","","","","72","13","20","Stimuli/Experimental_stims/faces/justin-chen-J7Cf1Gch49E-unsplash.jpg","","","","","","","","","","","","","","","","","","","","","","","","","","","","","","","","","","","","","","","","","","","","","","","","","","","","","","","","","","","","","","","",""
"","rating","","html-slider-response","19","352425","0.0-1.0-16.0","35","95708","MALE","6531","","","","","73","14","18","Stimuli/Experimental_stims/faces/jessica-radanavong-mrYkTuAesKE-unsplash.jpg","","","","","","","","","","","","","","","","","","","","","","","","","","","","","","","","","","","","","","","","","","","","","","","","","","","","","","","","","","","","","","","",""
"","rating","","html-slider-response","20","367722","0.0-1.0-17.0","35","95708","MALE","15246","","","","","78","15","42","Stimuli/Experimental_stims/objects/jess-bailey-nOeVi8DsN8U-unsplash.jpg","","","","","","","","","","","","","","","","","","","","","","","","","","","","","","","","","","","","","","","","","","","","","","","","","","","","","","","","","","","","","","","",""
"","rating","","html-slider-response","21","375235","0.0-1.0-18.0","35","95708","MALE","7473","","","","","79","16","5","Stimuli/Experimental_stims/outdoor_scenes/jeff-king-bJHWJeiHfHc-unsplash.jpg","","","","","","","","","","","","","","","","","","","","","","","","","","","","","","","","","","","","","","","","","","","","","","","","","","","","","","","","","","","","","","","",""
"","rating","","html-slider-response","22","380902","0.0-1.0-19.0","35","95708","MALE","5643","","","","","84","17","25","Stimuli/Experimental_stims/body_parts/engin-akyurt-Q2rfH3GW39c-unsplash.jpg","","","","","","","","","","","","","","","","","","","","","","","","","","","","","","","","","","","","","","","","","","","","","","","","","","","","","","","","","","","","","","","",""
"","rating","","html-slider-response","23","388205","0.0-1.0-20.0","35","95708","MALE","7273","","","","","78","18","29","Stimuli/Experimental_stims/body_parts/manuel-schinner-ZwjFuJ7ebpk-unsplash.jpg","","","","","","","","","","","","","","","","","","","","","","","","","","","","","","","","","","","","","","","","","","","","","","","","","","","","","","","","","","","","","","","",""
"","rating","","html-slider-response","24","391916","0.0-1.0-21.0","35","95708","MALE","3692","","","","","70","19","47","Stimuli/Experimental_stims/objects/ronaldo-arthur-vidal-Cdz_lvnl37k-unsplash.jpg","","","","","","","","","","","","","","","","","","","","","","","","","","","","","","","","","","","","","","","","","","","","","","","","","","","","","","","","","","","","","","","",""
"","rating","","html-slider-response","25","400145","0.0-1.0-22.0","35","95708","MALE","8211","","","","","75","20","4","Stimuli/Experimental_stims/outdoor_scenes/jarrett-kow-1ZOyYPOBn7I-unsplash.jpg","","","","","","","","","","","","","","","","","","","","","","","","","","","","","","","","","","","","","","","","","","","","","","","","","","","","","","","","","","","","","","","",""
"","rating","","html-slider-response","26","404660","0.0-1.0-23.0","35","95708","MALE","4496","","","","","73","21","31","Stimuli/Experimental_stims/body_parts/sincerely-media-VN6DbKajo5s-unsplash.jpg","","","","","","","","","","","","","","","","","","","","","","","","","","","","","","","","","","","","","","","","","","","","","","","","","","","","","","","","","","","","","","","",""
"","rating","","html-slider-response","27","409188","0.0-1.0-24.0","35","95708","MALE","4510","","","","","68","22","44","Stimuli/Experimental_stims/objects/kuiye-chen-NuOGFo4PudE-unsplash.jpg","","","","","","","","","","","","","","","","","","","","","","","","","","","","","","","","","","","","","","","","","","","","","","","","","","","","","","","","","","","","","","","",""
"","rating","","html-slider-response","28","412628","0.0-1.0-25.0","35","95708","MALE","3413","","","","","69","23","37","Stimuli/Experimental_stims/objects/alexander-andrews-VLGWE_SumrA-unsplash.jpg","","","","","","","","","","","","","","","","","","","","","","","","","","","","","","","","","","","","","","","","","","","","","","","","","","","","","","","","","","","","","","","",""
"","rating","","html-slider-response","29","417787","0.0-1.0-26.0","35","95708","MALE","5135","","","","","73","24","10","Stimuli/Experimental_stims/outdoor_scenes/shannon-kunkle-dM8INmkyDas-unsplash.jpg","","","","","","","","","","","","","","","","","","","","","","","","","","","","","","","","","","","","","","","","","","","","","","","","","","","","","","","","","","","","","","","",""
"","rating","","html-slider-response","30","421211","0.0-1.0-27.0","35","95708","MALE","3403","","","","","70","25","40","Stimuli/Experimental_stims/objects/fabian-blank-pElSkGRA2NU-unsplash.jpg","","","","","","","","","","","","","","","","","","","","","","","","","","","","","","","","","","","","","","","","","","","","","","","","","","","","","","","","","","","","","","","",""
"","rating","","html-slider-response","31","425461","0.0-1.0-28.0","35","95708","MALE","4237","","","","","73","26","9","Stimuli/Experimental_stims/outdoor_scenes/sergey-pesterev-y-b_FOmJXdg-unsplash.jpg","","","","","","","","","","","","","","","","","","","","","","","","","","","","","","","","","","","","","","","","","","","","","","","","","","","","","","","","","","","","","","","",""
"","rating","","html-slider-response","32","428364","0.0-1.0-29.0","35","95708","MALE","2890","","","","","73","27","41","Stimuli/Experimental_stims/objects/insung-yoon-w2JtIQQXoRU-unsplash.jpg","","","","","","","","","","","","","","","","","","","","","","","","","","","","","","","","","","","","","","","","","","","","","","","","","","","","","","","","","","","","","","","",""
"","rating","","html-slider-response","33","432052","0.0-1.0-30.0","35","95708","MALE","3658","","","","","76","28","8","Stimuli/Experimental_stims/outdoor_scenes/samsommer-vddccTqwal8-unsplash.jpg","","","","","","","","","","","","","","","","","","","","","","","","","","","","","","","","","","","","","","","","","","","","","","","","","","","","","","","","","","","","","","","",""
"","rating","","html-slider-response","34","436157","0.0-1.0-31.0","35","95708","MALE","4093","","","","","81","29","3","Stimuli/Experimental_stims/outdoor_scenes/henry-be-NLF6hTe4PAg-unsplash.jpg","","","","","","","","","","","","","","","","","","","","","","","","","","","","","","","","","","","","","","","","","","","","","","","","","","","","","","","","","","","","","","","",""
"","rating","","html-slider-response","35","439615","0.0-1.0-32.0","35","95708","MALE","3443","","","","","73","30","27","Stimuli/Experimental_stims/body_parts/heike-mintel-i_Gns0ELnLw-unsplash.jpg","","","","","","","","","","","","","","","","","","","","","","","","","","","","","","","","","","","","","","","","","","","","","","","","","","","","","","","","","","","","","","","",""
"","rating","","html-slider-response","36","447142","0.0-1.0-33.0","35","95708","MALE","7503","","","","","73","31","19","Stimuli/Experimental_stims/faces/joel-mott-LaK153ghdig-unsplash.jpg","","","","","","","","","","","","","","","","","","","","","","","","","","","","","","","","","","","","","","","","","","","","","","","","","","","","","","","","","","","","","","","",""
"","rating","","html-slider-response","37","457947","0.0-1.0-34.0","35","95708","MALE","10779","","","","","73","32","45","Stimuli/Experimental_stims/objects/leohoho-rngTKHXumy0-unsplash.jpg","","","","","","","","","","","","","","","","","","","","","","","","","","","","","","","","","","","","","","","","","","","","","","","","","","","","","","","","","","","","","","","",""
"","rating","","html-slider-response","38","463593","0.0-1.0-35.0","35","95708","MALE","5632","","","","","75","33","30","Stimuli/Experimental_stims/body_parts/mika-korhonen-Xodzxosar18-unsplash.jpg","","","","","","","","","","","","","","","","","","","","","","","","","","","","","","","","","","","","","","","","","","","","","","","","","","","","","","","","","","","","","","","",""
"","rating","","html-slider-response","39","468010","0.0-1.0-36.0","35","95708","MALE","4399","","","","","77","34","21","Stimuli/Experimental_stims/faces/leilani-angel-K84vnnzxmTQ-unsplash.jpg","","","","","","","","","","","","","","","","","","","","","","","","","","","","","","","","","","","","","","","","","","","","","","","","","","","","","","","","","","","","","","","",""
"","rating","","html-slider-response","40","475264","0.0-1.0-37.0","35","95708","MALE","7148","","","","","76","35","34","Stimuli/Experimental_stims/body_parts/wagner-santos-mBWMvIuVnso-unsplash.jpg","","","","","","","","","","","","","","","","","","","","","","","","","","","","","","","","","","","","","","","","","","","","","","","","","","","","","","","","","","","","","","","",""
"","rating","","html-slider-response","41","481115","0.0-1.0-38.0","35","95708","MALE","5780","","","","","73","36","35","Stimuli/Experimental_stims/body_parts/wc-so-KH4AAPjb-tI-unsplash.jpg","","","","","","","","","","","","","","","","","","","","","","","","","","","","","","","","","","","","","","","","","","","","","","","","","","","","","","","","","","","","","","","",""
"","rating","","html-slider-response","42","485589","0.0-1.0-39.0","35","95708","MALE","4453","","","","","72","37","15","Stimuli/Experimental_stims/faces/erik-lucatero-d2MSDujJl2g-unsplash.jpg","","","","","","","","","","","","","","","","","","","","","","","","","","","","","","","","","","","","","","","","","","","","","","","","","","","","","","","","","","","","","","","",""
"","rating","","html-slider-response","43","491176","0.0-1.0-40.0","35","95708","MALE","5572","","","","","68","38","1","Stimuli/Experimental_stims/outdoor_scenes/ashim-d-silva-S2Q5mdOrrVc-unsplash.jpg","","","","","","","","","","","","","","","","","","","","","","","","","","","","","","","","","","","","","","","","","","","","","","","","","","","","","","","","","","","","","","","",""
"","rating","","html-slider-response","44","500048","0.0-1.0-41.0","35","95708","MALE","8854","","","","","80","39","22","Stimuli/Experimental_stims/faces/ravi-patel-VMGAbeeJTKo-unsplash.jpg","","","","","","","","","","","","","","","","","","","","","","","","","","","","","","","","","","","","","","","","","","","","","","","","","","","","","","","","","","","","","","","",""
"","rating","","html-slider-response","45","507344","0.0-1.0-42.0","35","95708","MALE","7279","","","","","79","40","26","Stimuli/Experimental_stims/body_parts/engin-akyurt-x_3gyC42btc-unsplash.jpg","","","","","","","","","","","","","","","","","","","","","","","","","","","","","","","","","","","","","","","","","","","","","","","","","","","","","","","","","","","","","","","",""
"","rating","","html-slider-response","46","515207","0.0-1.0-43.0","35","95708","MALE","7841","","","","","81","41","0","Stimuli/Experimental_stims/outdoor_scenes/aleksandra-boguslawska-MS7KD9Ti7FQ-unsplash.jpg","","","","","","","","","","","","","","","","","","","","","","","","","","","","","","","","","","","","","","","","","","","","","","","","","","","","","","","","","","","","","","","",""
"","rating","","html-slider-response","47","519950","0.0-1.0-44.0","35","95708","MALE","4727","","","","","89","42","43","Stimuli/Experimental_stims/objects/jonathan-greenaway-Y4hGgeiFn3s-unsplash.jpg","","","","","","","","","","","","","","","","","","","","","","","","","","","","","","","","","","","","","","","","","","","","","","","","","","","","","","","","","","","","","","","",""
"","rating","","html-slider-response","48","526997","0.0-1.0-45.0","35","95708","MALE","7033","","","","","71","43","32","Stimuli/Experimental_stims/body_parts/towfiqu-barbhuiya-3AsiVDsZnHg-unsplash.jpg","","","","","","","","","","","","","","","","","","","","","","","","","","","","","","","","","","","","","","","","","","","","","","","","","","","","","","","","","","","","","","","",""
"","rating","","html-slider-response","49","532718","0.0-1.0-46.0","35","95708","MALE","5707","","","","","75","44","17","Stimuli/Experimental_stims/faces/good-faces-xmSWVeGEnJw-unsplash.jpg","","","","","","","","","","","","","","","","","","","","","","","","","","","","","","","","","","","","","","","","","","","","","","","","","","","","","","","","","","","","","","","",""
"","rating","","html-slider-response","50","538107","0.0-1.0-47.0","35","95708","MALE","5374","","","","","80","45","6","Stimuli/Experimental_stims/outdoor_scenes/meng-ji-8BH_M-53CyA-unsplash.jpg","","","","","","","","","","","","","","","","","","","","","","","","","","","","","","","","","","","","","","","","","","","","","","","","","","","","","","","","","","","","","","","",""
"","rating","","html-slider-response","51","545296","0.0-1.0-48.0","35","95708","MALE","7159","","","","","67","46","33","Stimuli/Experimental_stims/body_parts/tucker-good-36skLT5jZcc-unsplash.jpg","","","","","","","","","","","","","","","","","","","","","","","","","","","","","","","","","","","","","","","","","","","","","","","","","","","","","","","","","","","","","","","",""
"","rating","","html-slider-response","52","551722","0.0-1.0-49.0","35","95708","MALE","6400","","","","","72","47","12","Stimuli/Experimental_stims/faces/aiony-haust-jmATI5Q_YgY-unsplash.jpg","","","","","","","","","","","","","","","","","","","","","","","","","","","","","","","","","","","","","","","","","","","","","","","","","","","","","","","","","","","","","","","",""
"","localizer_instructions","","instructions","53","569804","0.0-2.0-0.0-0.0","35","95708","MALE","17972","","[{""page_index"":0,""viewing_time"":10883},{""page_index"":1,""viewing_time"":4719},{""page_index"":2,""viewing_time"":2370}]","","","","","","","","","","","","","","","","","","","","","","","","","","","","","","","","","","","","","","","","","","","","","","","","","","","","","","","","","","","","","","","","","","","","","",""
"","localizer_comprehension_check","","survey-multi-choice","54","616798","0.0-2.0-0.0-1.0","35","95708","MALE","46964","{""Q0"":""True"",""Q1"":""K"",""Q2"":""D""}","","0","","","","","","","","","","","","","","","","","","","","","","","","","","","","","","","","","","","","","","","","","","","","","","","","","","","","","","","","","","","","","","","","","","","","",""
"","","","html-keyboard-response","55","621128","0.0-2.0-1.0","35","95708","MALE","4314","","","","68","","","","","","","","","","","","","","","","","","","","","","","","","","","","","","","","","","","","","","","","","","","","","","","","","","","","","","","","","","","","","","","","","","","",""
"","localizer","","html-keyboard-response","56","621542","0.0-2.0-2.0-0.0","35","95708","MALE","NaN","","","","null","NaN","0","","Stimuli/Practice_stims/Localizer/annie-spratt-g9KFpAfQ5bc-unsplash.jpg","621128","0","NaN","","0","1","0","400","0","414","0","","","","","","","","","","","","","","","","","","","","","","","","","","","","","","","","","","","","","","","","","","","","","","","","","","","","",""
"","iti_localizer","","html-keyboard-response","57","621852","0.0-2.0-2.0-1.0","35","95708","MALE","null","","","","null","","0","","","621542","0","","","","","","300","400","310","414","300","","","","","","","","","","","","","","","","","","","","","","","","","","","","","","","","","","","","","","","","","","","","","","","","","","","",""
"","localizer","","html-keyboard-response","58","622271","0.0-2.0-2.1-0.1","35","95708","MALE","NaN","","","","null","NaN","0","","Stimuli/Practice_stims/Localizer/annie-spratt-g9KFpAfQ5bc-unsplash.jpg","621852","0","NaN","","0","1","0","400","700","419","724","","","","","","","","","","","","","","","","","","","","","","","","","","","","","","","","","","","","","","","","","","","","","","","","","","","","",""
"","iti_localizer","","html-keyboard-response","59","622590","0.0-2.0-2.1-1.1","35","95708","MALE","null","","","","null","","0","","","622271","0","","","","","","300","1100","319","1143","300","","","","","","","","","","","","","","","","","","","","","","","","","","","","","","","","","","","","","","","","","","","","","","","","","","","",""
"","localizer","","html-keyboard-response","60","623005","0.0-2.0-2.2-0.2","35","95708","MALE","NaN","","","","null","NaN","0","","Stimuli/Practice_stims/Localizer/annie-spratt-g9KFpAfQ5bc-unsplash.jpg","622590","0","NaN","","0","1","0","400","1400","415","1462","","","","","","","","","","","","","","","","","","","","","","","","","","","","","","","","","","","","","","","","","","","","","","","","","","","","",""
"","iti_localizer","","html-keyboard-response","61","623338","0.0-2.0-2.2-1.2","35","95708","MALE","null","","","","null","","0","","","623005","0","","","","","","300","1800","333","1877","300","","","","","","","","","","","","","","","","","","","","","","","","","","","","","","","","","","","","","","","","","","","","","","","","","","","",""
"","localizer","","html-keyboard-response","62","623767","0.0-2.0-2.3-0.3","35","95708","MALE","NaN","","","","null","NaN","0","","Stimuli/Practice_stims/Localizer/annie-spratt-g9KFpAfQ5bc-unsplash.jpg","623338","0","NaN","","0","1","0","400","2100","429","2210","","","","","","","","","","","","","","","","","","","","","","","","","","","","","","","","","","","","","","","","","","","","","","","","","","","","",""
"","iti_localizer","","html-keyboard-response","63","624173","0.0-2.0-2.3-1.3","35","95708","MALE","null","","","","null","","0","","","623767","0","","","","","","300","2500","406","2639","300","","","","","","","","","","","","","","","","","","","","","","","","","","","","","","","","","","","","","","","","","","","","","","","","","","","",""
"","localizer","","html-keyboard-response","64","624592","0.0-2.0-2.4-0.4","35","95708","MALE","NaN","","","","null","NaN","0","","Stimuli/Practice_stims/Localizer/annie-spratt-g9KFpAfQ5bc-unsplash.jpg","624173","0","NaN","","0","1","0","400","2800","419","3045","","","","","","","","","","","","","","","","","","","","","","","","","","","","","","","","","","","","","","","","","","","","","","","","","","","","",""
"","iti_localizer","","html-keyboard-response","65","624909","0.0-2.0-2.4-1.4","35","95708","MALE","null","","","","null","","0","","","624592","0","","","","","","300","3200","317","3464","300","","","","","","","","","","","","","","","","","","","","","","","","","","","","","","","","","","","","","","","","","","","","","","","","","","","",""
"","localizer","","html-keyboard-response","66","625333","0.0-2.0-2.5-0.5","35","95708","MALE","NaN","","","","null","NaN","0","","Stimuli/Practice_stims/Localizer/annie-spratt-g9KFpAfQ5bc-unsplash.jpg","624909","0","NaN","","0","1","0","400","3500","424","3781","","","","","","","","","","","","","","","","","","","","","","","","","","","","","","","","","","","","","","","","","","","","","","","","","","","","",""
"","iti_localizer","","html-keyboard-response","67","625648","0.0-2.0-2.5-1.5","35","95708","MALE","null","","","","null","","0","","","625333","0","","","","","","300","3900","315","4205","300","","","","","","","","","","","","","","","","","","","","","","","","","","","","","","","","","","","","","","","","","","","","","","","","","","","",""
"","localizer","","html-keyboard-response","68","626087","0.0-2.0-2.6-0.6","35","95708","MALE","NaN","","","","null","NaN","0","","Stimuli/Practice_stims/Localizer/annie-spratt-g9KFpAfQ5bc-unsplash.jpg","625648","0","NaN","","0","1","0","400","4200","439","4520","","","","","","","","","","","","","","","","","","","","","","","","","","","","","","","","","","","","","","","","","","","","","","","","","","","","",""
"","iti_localizer","","html-keyboard-response","69","626418","0.0-2.0-2.6-1.6","35","95708","MALE","null","","","","null","","0","","","626087","0","","","","","","300","4600","331","4959","300","","","","","","","","","","","","","","","","","","","","","","","","","","","","","","","","","","","","","","","","","","","","","","","","","","","",""
"","localizer","","html-keyboard-response","70","626834","0.0-2.0-2.7-0.7","35","95708","MALE","NaN","","","","null","NaN","0","","Stimuli/Practice_stims/Localizer/annie-spratt-g9KFpAfQ5bc-unsplash.jpg","626418","0","NaN","","0","1","0","400","4900","416","5290","","","","","","","","","","","","","","","","","","","","","","","","","","","","","","","","","","","","","","","","","","","","","","","","","","","","",""
"","iti_localizer","","html-keyboard-response","71","627144","0.0-2.0-2.7-1.7","35","95708","MALE","null","","","","null","","0","","","626834","0","","","","","","300","5300","310","5706","300","","","","","","","","","","","","","","","","","","","","","","","","","","","","","","","","","","","","","","","","","","","","","","","","","","","",""
"","localizer","","html-keyboard-response","72","627565","0.0-2.0-2.8-0.8","35","95708","MALE","NaN","","","","null","NaN","0","","Stimuli/Practice_stims/Localizer/annie-spratt-g9KFpAfQ5bc-unsplash.jpg","627144","0","NaN","","0","1","0","400","5600","421","6016","","","","","","","","","","","","","","","","","","","","","","","","","","","","","","","","","","","","","","","","","","","","","","","","","","","","",""
"","iti_localizer","","html-keyboard-response","73","627877","0.0-2.0-2.8-1.8","35","95708","MALE","null","","","","null","","0","","","627565","0","","","","","","300","6000","312","6437","300","","","","","","","","","","","","","","","","","","","","","","","","","","","","","","","","","","","","","","","","","","","","","","","","","","","",""
"","localizer","","html-keyboard-response","74","628313","0.0-2.0-2.9-0.9","35","95708","MALE","99","","","","75","1","0","","Stimuli/Practice_stims/Localizer/annie-spratt-g9KFpAfQ5bc-unsplash.jpg","627877","0","NaN","","0","0","0","400","6300","436","6749","","","","","","","","","","","","","","","","","","","","","","","","","","","","","","","","","","","","","","","","","","","","","","","","","","","","",""
"","iti_localizer","","html-keyboard-response","75","628627","0.0-2.0-2.9-1.9","35","95708","MALE","null","","","","null","","0","","","628313","0","","","","","","300","6700","314","7185","300","","","","","","","","","","","","","","","","","","","","","","","","","","","","","","","","","","","","","","","","","","","","","","","","","","","",""
"","localizer","","html-keyboard-response","76","629046","0.0-2.0-3.0-0.0","35","95708","MALE","174","","","","68","0","1","","Stimuli/Practice_stims/Localizer/becca-tapert-sY5RjMB1KkE-unsplash.jpg","628627","0","NaN","","0","0","1","400","7000","419","7499","","","","","","","","","","","","","","","","","","","","","","","","","","","","","","","","","","","","","","","","","","","","","","","","","","","","",""
"","iti_localizer","","html-keyboard-response","77","629362","0.0-2.0-3.0-1.0","35","95708","MALE","null","","","","null","","1","","","629046","0","","","","","","300","7400","316","7918","300","","","","","","","","","","","","","","","","","","","","","","","","","","","","","","","","","","","","","","","","","","","","","","","","","","","",""
"","localizer","","html-keyboard-response","78","629772","0.0-2.0-4.0-0.0","35","95708","MALE","NaN","","","","null","NaN","2","","Stimuli/Practice_stims/Localizer/charl-durand-bsfXvI25iNg-unsplash.jpg","629362","0","NaN","","1","1","0","400","7700","410","8234","","","","","","","","","","","","","","","","","","","","","","","","","","","","","","","","","","","","","","","","","","","","","","","","","","","","",""
"","iti_localizer","","html-keyboard-response","79","630111","0.0-2.0-4.0-1.0","35","95708","MALE","null","","","","null","","2","","","629772","0","","","","","","300","8100","339","8644","300","","","","","","","","","","","","","","","","","","","","","","","","","","","","","","","","","","","","","","","","","","","","","","","","","","","",""
"","localizer","","html-keyboard-response","80","630521","0.0-2.0-4.1-0.1","35","95708","MALE","NaN","","","","null","NaN","2","","Stimuli/Practice_stims/Localizer/charl-durand-bsfXvI25iNg-unsplash.jpg","630111","0","NaN","","1","1","0","400","8400","410","8983","","","","","","","","","","","","","","","","","","","","","","","","","","","","","","","","","","","","","","","","","","","","","","","","","","","","",""
"","iti_localizer","","html-keyboard-response","81","630833","0.0-2.0-4.1-1.1","35","95708","MALE","null","","","","null","","2","","","630521","0","","","","","","300","8800","312","9393","300","","","","","","","","","","","","","","","","","","","","","","","","","","","","","","","","","","","","","","","","","","","","","","","","","","","",""
"","localizer","","html-keyboard-response","82","631243","0.0-2.0-4.2-0.2","35","95708","MALE","NaN","","","","null","NaN","2","","Stimuli/Practice_stims/Localizer/charl-durand-bsfXvI25iNg-unsplash.jpg","630833","0","NaN","","1","1","0","400","9100","410","9705","","","","","","","","","","","","","","","","","","","","","","","","","","","","","","","","","","","","","","","","","","","","","","","","","","","","",""
"","iti_localizer","","html-keyboard-response","83","631561","0.0-2.0-4.2-1.2","35","95708","MALE","null","","","","null","","2","","","631243","0","","","","","","300","9500","318","10115","300","","","","","","","","","","","","","","","","","","","","","","","","","","","","","","","","","","","","","","","","","","","","","","","","","","","",""
"","localizer","","html-keyboard-response","84","631997","0.0-2.0-4.3-0.3","35","95708","MALE","NaN","","","","null","NaN","2","","Stimuli/Practice_stims/Localizer/charl-durand-bsfXvI25iNg-unsplash.jpg","631561","0","NaN","","1","1","0","400","9800","436","10433","","","","","","","","","","","","","","","","","","","","","","","","","","","","","","","","","","","","","","","","","","","","","","","","","","","","",""
"","iti_localizer","","html-keyboard-response","85","632317","0.0-2.0-4.3-1.3","35","95708","MALE","null","","","","null","","2","","","631997","0","","","","","","300","10200","320","10869","300","","","","","","","","","","","","","","","","","","","","","","","","","","","","","","","","","","","","","","","","","","","","","","","","","","","",""
"","localizer","","html-keyboard-response","86","632748","0.0-2.0-4.4-0.4","35","95708","MALE","NaN","","","","null","NaN","2","","Stimuli/Practice_stims/Localizer/charl-durand-bsfXvI25iNg-unsplash.jpg","632317","0","NaN","","1","1","0","400","10500","431","11189","","","","","","","","","","","","","","","","","","","","","","","","","","","","","","","","","","","","","","","","","","","","","","","","","","","","",""
"","iti_localizer","","html-keyboard-response","87","633056","0.0-2.0-4.4-1.4","35","95708","MALE","null","","","","null","","2","","","632748","0","","","","","","300","10900","308","11620","300","","","","","","","","","","","","","","","","","","","","","","","","","","","","","","","","","","","","","","","","","","","","","","","","","","","",""
"","localizer","","html-keyboard-response","88","633474","0.0-2.0-4.5-0.5","35","95708","MALE","NaN","","","","null","NaN","2","","Stimuli/Practice_stims/Localizer/charl-durand-bsfXvI25iNg-unsplash.jpg","633056","0","NaN","","1","1","0","400","11200","418","11928","","","","","","","","","","","","","","","","","","","","","","","","","","","","","","","","","","","","","","","","","","","","","","","","","","","","",""
"","iti_localizer","","html-keyboard-response","89","633793","0.0-2.0-4.5-1.5","35","95708","MALE","null","","","","null","","2","","","633474","0","","","","","","300","11600","319","12346","300","","","","","","","","","","","","","","","","","","","","","","","","","","","","","","","","","","","","","","","","","","","","","","","","","","","",""
"","localizer","","html-keyboard-response","90","634208","0.0-2.0-4.6-0.6","35","95708","MALE","NaN","","","","null","NaN","2","","Stimuli/Practice_stims/Localizer/charl-durand-bsfXvI25iNg-unsplash.jpg","633793","0","NaN","","1","1","0","400","11900","415","12665","","","","","","","","","","","","","","","","","","","","","","","","","","","","","","","","","","","","","","","","","","","","","","","","","","","","",""
"","iti_localizer","","html-keyboard-response","91","634519","0.0-2.0-4.6-1.6","35","95708","MALE","null","","","","null","","2","","","634208","0","","","","","","300","12300","311","13080","300","","","","","","","","","","","","","","","","","","","","","","","","","","","","","","","","","","","","","","","","","","","","","","","","","","","",""
"","localizer","","html-keyboard-response","92","634930","0.0-2.0-4.7-0.7","35","95708","MALE","NaN","","","","null","NaN","2","","Stimuli/Practice_stims/Localizer/charl-durand-bsfXvI25iNg-unsplash.jpg","634519","0","NaN","","1","1","0","400","12600","411","13391","","","","","","","","","","","","","","","","","","","","","","","","","","","","","","","","","","","","","","","","","","","","","","","","","","","","",""
"","iti_localizer","","html-keyboard-response","93","635253","0.0-2.0-4.7-1.7","35","95708","MALE","null","","","","null","","2","","","634930","0","","","","","","300","13000","323","13802","300","","","","","","","","","","","","","","","","","","","","","","","","","","","","","","","","","","","","","","","","","","","","","","","","","","","",""
"","localizer","","html-keyboard-response","94","635670","0.0-2.0-4.8-0.8","35","95708","MALE","NaN","","","","null","NaN","2","","Stimuli/Practice_stims/Localizer/charl-durand-bsfXvI25iNg-unsplash.jpg","635253","0","NaN","","1","1","0","400","13300","417","14125","","","","","","","","","","","","","","","","","","","","","","","","","","","","","","","","","","","","","","","","","","","","","","","","","","","","",""
"","iti_localizer","","html-keyboard-response","95","636074","0.0-2.0-4.8-1.8","35","95708","MALE","null","","","","null","","2","","","635670","0","","","","","","300","13700","404","14542","300","","","","","","","","","","","","","","","","","","","","","","","","","","","","","","","","","","","","","","","","","","","","","","","","","","","",""
"","localizer","","html-keyboard-response","96","636502","0.0-2.0-4.9-0.9","35","95708","MALE","NaN","","","","null","NaN","2","","Stimuli/Practice_stims/Localizer/charl-durand-bsfXvI25iNg-unsplash.jpg","636074","0","NaN","","1","1","0","400","14000","428","14946","","","","","","","","","","","","","","","","","","","","","","","","","","","","","","","","","","","","","","","","","","","","","","","","","","","","",""
"","iti_localizer","","html-keyboard-response","97","636825","0.0-2.0-4.9-1.9","35","95708","MALE","null","","","","null","","2","","","636502","0","","","","","","300","14400","323","15374","300","","","","","","","","","","","","","","","","","","","","","","","","","","","","","","","","","","","","","","","","","","","","","","","","","","","",""
"","localizer","","html-keyboard-response","98","637244","0.0-2.0-4.10-0.10","35","95708","MALE","NaN","","","","null","NaN","2","","Stimuli/Practice_stims/Localizer/charl-durand-bsfXvI25iNg-unsplash.jpg","636825","0","NaN","","1","1","0","400","14700","419","15697","","","","","","","","","","","","","","","","","","","","","","","","","","","","","","","","","","","","","","","","","","","","","","","","","","","","",""
"","iti_localizer","","html-keyboard-response","99","637552","0.0-2.0-4.10-1.10","35","95708","MALE","null","","","","null","","2","","","637244","0","","","","","","300","15100","308","16116","300","","","","","","","","","","","","","","","","","","","","","","","","","","","","","","","","","","","","","","","","","","","","","","","","","","","",""
"","localizer","","html-keyboard-response","100","637969","0.0-2.0-4.11-0.11","35","95708","MALE","NaN","","","","null","NaN","2","","Stimuli/Practice_stims/Localizer/charl-durand-bsfXvI25iNg-unsplash.jpg","637552","0","NaN","","1","1","0","400","15400","417","16424","","","","","","","","","","","","","","","","","","","","","","","","","","","","","","","","","","","","","","","","","","","","","","","","","","","","",""
"","iti_localizer","","html-keyboard-response","101","638278","0.0-2.0-4.11-1.11","35","95708","MALE","null","","","","null","","2","","","637969","0","","","","","","300","15800","309","16841","300","","","","","","","","","","","","","","","","","","","","","","","","","","","","","","","","","","","","","","","","","","","","","","","","","","","",""
"","localizer","","html-keyboard-response","102","638687","0.0-2.0-4.12-0.12","35","95708","MALE","NaN","","","","null","NaN","2","","Stimuli/Practice_stims/Localizer/charl-durand-bsfXvI25iNg-unsplash.jpg","638278","0","NaN","","1","1","0","400","16100","409","17150","","","","","","","","","","","","","","","","","","","","","","","","","","","","","","","","","","","","","","","","","","","","","","","","","","","","",""
"","iti_localizer","","html-keyboard-response","103","639003","0.0-2.0-4.12-1.12","35","95708","MALE","null","","","","null","","2","","","638687","0","","","","","","300","16500","316","17559","300","","","","","","","","","","","","","","","","","","","","","","","","","","","","","","","","","","","","","","","","","","","","","","","","","","","",""
"","localizer","","html-keyboard-response","104","639430","0.0-2.0-4.13-0.13","35","95708","MALE","NaN","","","","null","NaN","2","","Stimuli/Practice_stims/Localizer/charl-durand-bsfXvI25iNg-unsplash.jpg","639003","0","NaN","","1","1","0","400","16800","427","17875","","","","","","","","","","","","","","","","","","","","","","","","","","","","","","","","","","","","","","","","","","","","","","","","","","","","",""
"","iti_localizer","","html-keyboard-response","105","639757","0.0-2.0-4.13-1.13","35","95708","MALE","null","","","","null","","2","","","639430","0","","","","","","300","17200","327","18302","300","","","","","","","","","","","","","","","","","","","","","","","","","","","","","","","","","","","","","","","","","","","","","","","","","","","",""
"","localizer","","html-keyboard-response","106","640187","0.0-2.0-4.14-0.14","35","95708","MALE","1","","","","75","1","2","","Stimuli/Practice_stims/Localizer/charl-durand-bsfXvI25iNg-unsplash.jpg","639757","0","NaN","","1","0","1","400","17500","430","18629","","","","","","","","","","","","","","","","","","","","","","","","","","","","","","","","","","","","","","","","","","","","","","","","","","","","",""
"","iti_localizer","","html-keyboard-response","107","640498","0.0-2.0-4.14-1.14","35","95708","MALE","null","","","","null","","2","","","640187","0","","","","","","300","17900","311","19059","300","","","","","","","","","","","","","","","","","","","","","","","","","","","","","","","","","","","","","","","","","","","","","","","","","","","",""
"","localizer","","html-keyboard-response","108","640916","0.0-2.0-5.0-0.0","35","95708","MALE","203","","","","68","0","3","","Stimuli/Practice_stims/Localizer/nizar-albusaidy-B2r2SWAf5CE-unsplash.jpg","640498","0","NaN","","0","0","1","400","18200","418","19370","","","","","","","","","","","","","","","","","","","","","","","","","","","","","","","","","","","","","","","","","","","","","","","","","","","","",""
"","iti_localizer","","html-keyboard-response","109","641226","0.0-2.0-5.0-1.0","35","95708","MALE","null","","","","null","","3","","","640916","0","","","","","","300","18600","310","19788","300","","","","","","","","","","","","","","","","","","","","","","","","","","","","","","","","","","","","","","","","","","","","","","","","","","","",""
"","localizer","","html-keyboard-response","110","641637","0.0-2.0-6.0-0.0","35","95708","MALE","124","","","","75","1","4","","Stimuli/Practice_stims/Localizer/randy-fath-epf1tdtIIkM-unsplash.jpg","641226","0","NaN","","1","0","1","400","18900","411","20098","","","","","","","","","","","","","","","","","","","","","","","","","","","","","","","","","","","","","","","","","","","","","","","","","","","","",""
"","iti_localizer","","html-keyboard-response","111","641980","0.0-2.0-6.0-1.0","35","95708","MALE","null","","","","null","","4","","","641637","0","","","","","","300","19300","343","20509","300","","","","","","","","","","","","","","","","","","","","","","","","","","","","","","","","","","","","","","","","","","","","","","","","","","","",""
"","localizer","","html-keyboard-response","112","642405","0.0-2.0-7.0-0.0","35","95708","MALE","137","","","","68","0","5","","Stimuli/Practice_stims/Localizer/yassine-khalfalli-adsQ9d_Cx0c-unsplash.jpg","641980","0","NaN","","0","0","1","400","19600","425","20852","","","","","","","","","","","","","","","","","","","","","","","","","","","","","","","","","","","","","","","","","","","","","","","","","","","","",""
"","iti_localizer","","html-keyboard-response","113","642723","0.0-2.0-7.0-1.0","35","95708","MALE","null","","","","null","","5","","","642405","0","","","","","","300","20000","318","21277","300","","","","","","","","","","","","","","","","","","","","","","","","","","","","","","","","","","","","","","","","","","","","","","","","","","","",""
"","practice_over","","html-keyboard-response","114","642823","0.0-2.0-7.0-2.0-0.0","35","95708","MALE","93","","","","68","","","","","","","","","","","","","","","","","","","","","","","","","","","","","","","","","","","","","","","","","","","","","","","","","","","","","","","","","","","","","","","","","","","",""
"","start_run","","html-keyboard-response","115","647260","0.0-2.0-7.0-2.0-1.0","35","95708","MALE","4428","","","","84","","","","","","","","","","","","","","","","","","","","","","","","","","","","","","","","","","","","","","","","","","","","","","","","","","","","","","","","","","","","","","","","","","","",""
"","localizer","","html-keyboard-response","116","647678","0.0-2.0-8.0-0.0","35","95708","MALE","NaN","","","","null","NaN","6","","Stimuli/Experimental_stims/localizer/faces/christina-wocintechchat-com-0Zx1bDv5BNY-unsplash.jpg","647260","1","faces","","0","1","0","400","0","418","0","","","","","","","","","","","","","","","","","","","","","","","","","","","","","","","","","","","","","","","","","","","","","","","","","","","","",""
"","iti_localizer","","html-keyboard-response","117","648031","0.0-2.0-8.0-1.0","35","95708","MALE","null","","","","null","","6","","","647678","1","","","","","","300","400","353","418","300","","","","","","","","","","","","","","","","","","","","","","","","","","","","","","","","","","","","","","","","","","","","","","","","","","","",""
"","localizer","","html-keyboard-response","118","648469","0.0-2.0-9.0-0.0","35","95708","MALE","NaN","","","","null","NaN","7","","Stimuli/Experimental_stims/localizer/faces/jeffery-erhunse-BQMZ5ligqps-unsplash.jpg","648031","1","faces","","0","1","0","400","700","438","771","","","","","","","","","","","","","","","","","","","","","","","","","","","","","","","","","","","","","","","","","","","","","","","","","","","","",""
"","iti_localizer","","html-keyboard-response","119","648782","0.0-2.0-9.0-1.0","35","95708","MALE","null","","","","null","","7","","","648469","1","","","","","","300","1100","313","1209","300","","","","","","","","","","","","","","","","","","","","","","","","","","","","","","","","","","","","","","","","","","","","","","","","","","","",""
"","localizer","","html-keyboard-response","120","649200","0.0-2.0-10.0-0.0","35","95708","MALE","NaN","","","","null","NaN","8","","Stimuli/Experimental_stims/localizer/faces/matheus-ferrero-W7b3eDUb_2I-unsplash.jpg","648782","1","faces","","0","1","0","400","1400","418","1522","","","","","","","","","","","","","","","","","","","","","","","","","","","","","","","","","","","","","","","","","","","","","","","","","","","","",""
"","iti_localizer","","html-keyboard-response","121","649521","0.0-2.0-10.0-1.0","35","95708","MALE","null","","","","null","","8","","","649200","1","","","","","","300","1800","321","1940","300","","","","","","","","","","","","","","","","","","","","","","","","","","","","","","","","","","","","","","","","","","","","","","","","","","","",""
"","localizer","","html-keyboard-response","122","649935","0.0-2.0-11.0-0.0","35","95708","MALE","253","","","","68","0","9","","Stimuli/Experimental_stims/localizer/faces/jurica-koletic-7YVZYZeITc8-unsplash.jpg","649521","1","faces","","1","0","0","400","2100","414","2261","","","","","","","","","","","","","","","","","","","","","","","","","","","","","","","","","","","","","","","","","","","","","","","","","","","","",""
"","iti_localizer","","html-keyboard-response","123","650314","0.0-2.0-11.0-1.0","35","95708","MALE","null","","","","null","","9","","","649935","1","","","","","","300","2500","379","2675","300","","","","","","","","","","","","","","","","","","","","","","","","","","","","","","","","","","","","","","","","","","","","","","","","","","","",""
"","localizer","","html-keyboard-response","124","650755","0.0-2.0-12.0-0.0","35","95708","MALE","63","","","","75","1","10","","Stimuli/Experimental_stims/localizer/faces/drew-hays-agGIKYs4mYs-unsplash.jpg","650314","1","faces","","0","0","0","400","2800","441","3054","","","","","","","","","","","","","","","","","","","","","","","","","","","","","","","","","","","","","","","","","","","","","","","","","","","","",""
"","iti_localizer","","html-keyboard-response","125","651067","0.0-2.0-12.0-1.0","35","95708","MALE","null","","","","null","","10","","","650755","1","","","","","","300","3200","312","3495","300","","","","","","","","","","","","","","","","","","","","","","","","","","","","","","","","","","","","","","","","","","","","","","","","","","","",""
"","localizer","","html-keyboard-response","126","651485","0.0-2.0-13.0-0.0","35","95708","MALE","17","","","","75","1","11","","Stimuli/Experimental_stims/localizer/faces/rui-silvestre-hAMJpesMeDE-unsplash.jpg","651067","1","faces","","0","0","0","400","3500","418","3807","","","","","","","","","","","","","","","","","","","","","","","","","","","","","","","","","","","","","","","","","","","","","","","","","","","","",""
"","iti_localizer","","html-keyboard-response","127","651807","0.0-2.0-13.0-1.0","35","95708","MALE","null","","","","null","","11","","","651485","1","","","","","","300","3900","322","4225","300","","","","","","","","","","","","","","","","","","","","","","","","","","","","","","","","","","","","","","","","","","","","","","","","","","","",""
"","localizer","","html-keyboard-response","128","652236","0.0-2.0-14.0-0.0","35","95708","MALE","108","","","","68","0","12","","Stimuli/Experimental_stims/localizer/faces/sean-kong--1B_y4wGs-s-unsplash.jpg","651807","1","faces","","0","0","1","400","4200","429","4547","","","","","","","","","","","","","","","","","","","","","","","","","","","","","","","","","","","","","","","","","","","","","","","","","","","","",""
"","iti_localizer","","html-keyboard-response","129","652556","0.0-2.0-14.0-1.0","35","95708","MALE","null","","","","null","","12","","","652236","1","","","","","","300","4600","320","4976","300","","","","","","","","","","","","","","","","","","","","","","","","","","","","","","","","","","","","","","","","","","","","","","","","","","","",""
"","localizer","","html-keyboard-response","130","652999","0.0-2.0-15.0-0.0","35","95708","MALE","NaN","","","","null","NaN","13","","Stimuli/Experimental_stims/localizer/faces/vince-fleming-j3lf-Jn6deo-unsplash.jpg","652556","1","faces","","0","1","0","400","4900","443","5296","","","","","","","","","","","","","","","","","","","","","","","","","","","","","","","","","","","","","","","","","","","","","","","","","","","","",""
"","iti_localizer","","html-keyboard-response","131","653334","0.0-2.0-15.0-1.0","35","95708","MALE","null","","","","null","","13","","","652999","1","","","","","","300","5300","335","5739","300","","","","","","","","","","","","","","","","","","","","","","","","","","","","","","","","","","","","","","","","","","","","","","","","","","","",""
"","localizer","","html-keyboard-response","132","653779","0.0-2.0-16.0-0.0","35","95708","MALE","233","","","","68","0","14","","Stimuli/Experimental_stims/localizer/faces/tyler-nix-ZGa9d1a_4tA-unsplash.jpg","653334","1","faces","","0","0","1","400","5600","445","6074","","","","","","","","","","","","","","","","","","","","","","","","","","","","","","","","","","","","","","","","","","","","","","","","","","","","",""
"","iti_localizer","","html-keyboard-response","133","654101","0.0-2.0-16.0-1.0","35","95708","MALE","null","","","","null","","14","","","653779","1","","","","","","300","6000","322","6519","300","","","","","","","","","","","","","","","","","","","","","","","","","","","","","","","","","","","","","","","","","","","","","","","","","","","",""
"","localizer","","html-keyboard-response","134","654531","0.0-2.0-17.0-0.0","35","95708","MALE","61","","","","75","1","15","","Stimuli/Experimental_stims/localizer/faces/abstral-official-cyOKLSgkgCE-unsplash.jpg","654101","1","faces","","0","0","0","400","6300","430","6841","","","","","","","","","","","","","","","","","","","","","","","","","","","","","","","","","","","","","","","","","","","","","","","","","","","","",""
"","iti_localizer","","html-keyboard-response","135","654850","0.0-2.0-17.0-1.0","35","95708","MALE","null","","","","null","","15","","","654531","1","","","","","","300","6700","319","7271","300","","","","","","","","","","","","","","","","","","","","","","","","","","","","","","","","","","","","","","","","","","","","","","","","","","","",""
"","localizer","","html-keyboard-response","136","655270","0.0-2.0-18.0-0.0","35","95708","MALE","NaN","","","","null","NaN","16","","Stimuli/Experimental_stims/localizer/faces/ethan-haddox-__ng3cRXmFE-unsplash.jpg","654850","1","faces","","0","1","0","400","7000","420","7590","","","","","","","","","","","","","","","","","","","","","","","","","","","","","","","","","","","","","","","","","","","","","","","","","","","","",""
"","iti_localizer","","html-keyboard-response","137","655596","0.0-2.0-18.0-1.0","35","95708","MALE","null","","","","null","","16","","","655270","1","","","","","","300","7400","326","8010","300","","","","","","","","","","","","","","","","","","","","","","","","","","","","","","","","","","","","","","","","","","","","","","","","","","","",""
"","localizer","","html-keyboard-response","138","656199","0.0-2.0-19.0-0.0","35","95708","MALE","71","","","","75","1","17","","Stimuli/Experimental_stims/localizer/faces/foto-sushi-6anudmpILw4-unsplash.jpg","655596","1","faces","","0","0","0","400","7700","603","8336","","","","","","","","","","","","","","","","","","","","","","","","","","","","","","","","","","","","","","","","","","","","","","","","","","","","",""
"","iti_localizer","","html-keyboard-response","139","656525","0.0-2.0-19.0-1.0","35","95708","MALE","null","","","","null","","17","","","656199","1","","","","","","300","8100","326","8939","300","","","","","","","","","","","","","","","","","","","","","","","","","","","","","","","","","","","","","","","","","","","","","","","","","","","",""
"","localizer","","html-keyboard-response","140","656944","0.0-2.0-20.0-0.0","35","95708","MALE","368","","","","68","0","18","","Stimuli/Experimental_stims/localizer/faces/christian-ferrer-8vT-DgHZDG4-unsplash.jpg","656525","1","faces","","0","0","1","400","8400","419","9265","","","","","","","","","","","","","","","","","","","","","","","","","","","","","","","","","","","","","","","","","","","","","","","","","","","","",""
"","iti_localizer","","html-keyboard-response","141","657254","0.0-2.0-20.0-1.0","35","95708","MALE","null","","","","null","","18","","","656944","1","","","","","","300","8800","310","9684","300","","","","","","","","","","","","","","","","","","","","","","","","","","","","","","","","","","","","","","","","","","","","","","","","","","","",""
"","localizer","","html-keyboard-response","142","657685","0.0-2.0-21.0-0.0","35","95708","MALE","84","","","","75","1","19","","Stimuli/Experimental_stims/localizer/faces/stephanie-nakagawa-ADSKIn0ScDg-unsplash.jpg","657254","1","faces","","0","0","0","400","9100","431","9994","","","","","","","","","","","","","","","","","","","","","","","","","","","","","","","","","","","","","","","","","","","","","","","","","","","","",""
"","iti_localizer","","html-keyboard-response","143","658001","0.0-2.0-21.0-1.0","35","95708","MALE","null","","","","null","","19","","","657685","1","","","","","","300","9500","316","10425","300","","","","","","","","","","","","","","","","","","","","","","","","","","","","","","","","","","","","","","","","","","","","","","","","","","","",""
"","localizer","","html-keyboard-response","144","658411","0.0-2.0-22.0-0.0","35","95708","MALE","122","","","","75","1","20","","Stimuli/Experimental_stims/localizer/faces/toa-heftiba-2O1EUSTRBrY-unsplash.jpg","658001","1","faces","","1","0","1","400","9800","410","10741","","","","","","","","","","","","","","","","","","","","","","","","","","","","","","","","","","","","","","","","","","","","","","","","","","","","",""
"","iti_localizer","","html-keyboard-response","145","658760","0.0-2.0-22.0-1.0","35","95708","MALE","null","","","","null","","20","","","658411","1","","","","","","300","10200","349","11151","300","","","","","","","","","","","","","","","","","","","","","","","","","","","","","","","","","","","","","","","","","","","","","","","","","","","",""
"","localizer","","html-keyboard-response","146","659176","0.0-2.0-23.0-0.0","35","95708","MALE","148","","","","68","0","21","","Stimuli/Experimental_stims/localizer/faces/darshan-patel-QJEVpydulGs-unsplash.jpg","658760","1","faces","","0","0","1","400","10500","416","11500","","","","","","","","","","","","","","","","","","","","","","","","","","","","","","","","","","","","","","","","","","","","","","","","","","","","",""
"","iti_localizer","","html-keyboard-response","147","659495","0.0-2.0-23.0-1.0","35","95708","MALE","null","","","","null","","21","","","659176","1","","","","","","300","10900","319","11916","300","","","","","","","","","","","","","","","","","","","","","","","","","","","","","","","","","","","","","","","","","","","","","","","","","","","",""
"","localizer","","html-keyboard-response","148","660031","0.0-2.0-24.0-0.0","35","95708","MALE","NaN","","","","null","NaN","22","","Stimuli/Experimental_stims/localizer/faces/mubariz-mehdizadeh-o-wlIFT4zE4-unsplash.jpg","659495","1","faces","","0","1","0","400","11200","536","12235","","","","","","","","","","","","","","","","","","","","","","","","","","","","","","","","","","","","","","","","","","","","","","","","","","","","",""
"","iti_localizer","","html-keyboard-response","149","660394","0.0-2.0-24.0-1.0","35","95708","MALE","null","","","","null","","22","","","660031","1","","","","","","300","11600","363","12771","300","","","","","","","","","","","","","","","","","","","","","","","","","","","","","","","","","","","","","","","","","","","","","","","","","","","",""
"","localizer","","html-keyboard-response","150","660811","0.0-2.0-25.0-0.0","35","95708","MALE","NaN","","","","null","NaN","23","","Stimuli/Experimental_stims/localizer/faces/midas-hofstra-tidSLv-UaNs-unsplash.jpg","660394","1","faces","","0","1","0","400","11900","417","13134","","","","","","","","","","","","","","","","","","","","","","","","","","","","","","","","","","","","","","","","","","","","","","","","","","","","",""
"","iti_localizer","","html-keyboard-response","151","661134","0.0-2.0-25.0-1.0","35","95708","MALE","null","","","","null","","23","","","660811","1","","","","","","300","12300","323","13551","300","","","","","","","","","","","","","","","","","","","","","","","","","","","","","","","","","","","","","","","","","","","","","","","","","","","",""
"","localizer","","html-keyboard-response","152","661553","0.0-2.0-26.0-0.0","35","95708","MALE","339","","","","75","1","24","","Stimuli/Experimental_stims/localizer/faces/toa-heftiba-O3ymvT7Wf9U-unsplash.jpg","661134","1","faces","","0","0","0","400","12600","419","13874","","","","","","","","","","","","","","","","","","","","","","","","","","","","","","","","","","","","","","","","","","","","","","","","","","","","",""
"","iti_localizer","","html-keyboard-response","153","661869","0.0-2.0-26.0-1.0","35","95708","MALE","null","","","","null","","24","","","661553","1","","","","","","300","13000","316","14293","300","","","","","","","","","","","","","","","","","","","","","","","","","","","","","","","","","","","","","","","","","","","","","","","","","","","",""
"","localizer","","html-keyboard-response","154","662293","0.0-2.0-27.0-0.0","35","95708","MALE","121","","","","75","1","25","","Stimuli/Experimental_stims/localizer/faces/katsiaryna-endruszkiewicz-BteCp6aq4GI-unsplash.jpg","661869","1","faces","","0","0","0","400","13300","424","14609","","","","","","","","","","","","","","","","","","","","","","","","","","","","","","","","","","","","","","","","","","","","","","","","","","","","",""
"","iti_localizer","","html-keyboard-response","155","676320","0.0-2.0-27.0-1.0","35","95708","MALE","null","","","","null","","25","","","662293","1","","","","","","14000","13700","14027","15033","14000","","","","","","","","","","","","","","","","","","","","","","","","","","","","","","","","","","","","","","","","","","","","","","","","","","","",""
"","localizer","","html-keyboard-response","156","676735","0.0-2.0-28.0-0.0","35","95708","MALE","NaN","","","","null","NaN","26","","Stimuli/Experimental_stims/localizer/outdoor_scenes/jaanus-jagomagi-FddgewYQF2M-unsplash.jpg","676320","1","outdoor_scenes","","0","1","0","400","27700","415","29060","","","","","","","","","","","","","","","","","","","","","","","","","","","","","","","","","","","","","","","","","","","","","","","","","","","","",""
"","iti_localizer","","html-keyboard-response","157","677066","0.0-2.0-28.0-1.0","35","95708","MALE","null","","","","null","","26","","","676735","1","","","","","","300","28100","331","29475","300","","","","","","","","","","","","","","","","","","","","","","","","","","","","","","","","","","","","","","","","","","","","","","","","","","","",""
"","localizer","","html-keyboard-response","158","677489","0.0-2.0-29.0-0.0","35","95708","MALE","255","","","","68","0","27","","Stimuli/Experimental_stims/localizer/outdoor_scenes/v2osk-1Z2niiBPg5A-unsplash.jpg","677066","1","outdoor_scenes","","1","0","0","400","28400","423","29806","","","","","","","","","","","","","","","","","","","","","","","","","","","","","","","","","","","","","","","","","","","","","","","","","","","","",""
"","iti_localizer","","html-keyboard-response","159","677815","0.0-2.0-29.0-1.0","35","95708","MALE","null","","","","null","","27","","","677489","1","","","","","","300","28800","326","30229","300","","","","","","","","","","","","","","","","","","","","","","","","","","","","","","","","","","","","","","","","","","","","","","","","","","","",""
"","localizer","","html-keyboard-response","160","678246","0.0-2.0-30.0-0.0","35","95708","MALE","64","","","","68","0","28","","Stimuli/Experimental_stims/localizer/outdoor_scenes/wai-siew-mTFyV8oNDzU-unsplash.jpg","677815","1","outdoor_scenes","","0","0","1","400","29100","431","30555","","","","","","","","","","","","","","","","","","","","","","","","","","","","","","","","","","","","","","","","","","","","","","","","","","","","",""
"","iti_localizer","","html-keyboard-response","161","678577","0.0-2.0-30.0-1.0","35","95708","MALE","null","","","","null","","28","","","678246","1","","","","","","300","29500","331","30986","300","","","","","","","","","","","","","","","","","","","","","","","","","","","","","","","","","","","","","","","","","","","","","","","","","","","",""
"","localizer","","html-keyboard-response","162","678997","0.0-2.0-31.0-0.0","35","95708","MALE","75","","","","68","0","29","","Stimuli/Experimental_stims/localizer/outdoor_scenes/jay-cai-F_laX9E8CUo-unsplash.jpg","678577","1","outdoor_scenes","","0","0","1","400","29800","420","31317","","","","","","","","","","","","","","","","","","","","","","","","","","","","","","","","","","","","","","","","","","","","","","","","","","","","",""
"","iti_localizer","","html-keyboard-response","163","679314","0.0-2.0-31.0-1.0","35","95708","MALE","null","","","","null","","29","","","678997","1","","","","","","300","30200","317","31737","300","","","","","","","","","","","","","","","","","","","","","","","","","","","","","","","","","","","","","","","","","","","","","","","","","","","",""
"","localizer","","html-keyboard-response","164","679733","0.0-2.0-32.0-0.0","35","95708","MALE","262","","","","68","0","30","","Stimuli/Experimental_stims/localizer/outdoor_scenes/jeremy-cai-ucYWe5mzTMU-unsplash.jpg","679314","1","outdoor_scenes","","0","0","1","400","30500","419","32054","","","","","","","","","","","","","","","","","","","","","","","","","","","","","","","","","","","","","","","","","","","","","","","","","","","","",""
"","iti_localizer","","html-keyboard-response","165","680048","0.0-2.0-32.0-1.0","35","95708","MALE","null","","","","null","","30","","","679733","1","","","","","","300","30900","315","32473","300","","","","","","","","","","","","","","","","","","","","","","","","","","","","","","","","","","","","","","","","","","","","","","","","","","","",""
"","localizer","","html-keyboard-response","166","680459","0.0-2.0-33.0-0.0","35","95708","MALE","236","","","","68","0","31","","Stimuli/Experimental_stims/localizer/outdoor_scenes/erol-ahmed-d3pTF3r_hwY-unsplash.jpg","680048","1","outdoor_scenes","","0","0","1","400","31200","411","32788","","","","","","","","","","","","","","","","","","","","","","","","","","","","","","","","","","","","","","","","","","","","","","","","","","","","",""
"","iti_localizer","","html-keyboard-response","167","680769","0.0-2.0-33.0-1.0","35","95708","MALE","null","","","","null","","31","","","680459","1","","","","","","300","31600","310","33199","300","","","","","","","","","","","","","","","","","","","","","","","","","","","","","","","","","","","","","","","","","","","","","","","","","","","",""
"","localizer","","html-keyboard-response","168","681184","0.0-2.0-34.0-0.0","35","95708","MALE","308","","","","68","0","32","","Stimuli/Experimental_stims/localizer/outdoor_scenes/quino-al-vmZ2DehWQ3Q-unsplash.jpg","680769","1","outdoor_scenes","","0","0","1","400","31900","415","33509","","","","","","","","","","","","","","","","","","","","","","","","","","","","","","","","","","","","","","","","","","","","","","","","","","","","",""
"","iti_localizer","","html-keyboard-response","169","681499","0.0-2.0-34.0-1.0","35","95708","MALE","null","","","","null","","32","","","681184","1","","","","","","300","32300","315","33924","300","","","","","","","","","","","","","","","","","","","","","","","","","","","","","","","","","","","","","","","","","","","","","","","","","","","",""
"","localizer","","html-keyboard-response","170","681919","0.0-2.0-35.0-0.0","35","95708","MALE","182","","","","68","0","33","","Stimuli/Experimental_stims/localizer/outdoor_scenes/kenneth-thewissen-D76DklsG-5U-unsplash.jpg","681499","1","outdoor_scenes","","0","0","1","400","32600","420","34239","","","","","","","","","","","","","","","","","","","","","","","","","","","","","","","","","","","","","","","","","","","","","","","","","","","","",""
"","iti_localizer","","html-keyboard-response","171","682259","0.0-2.0-35.0-1.0","35","95708","MALE","null","","","","null","","33","","","681919","1","","","","","","300","33000","340","34659","300","","","","","","","","","","","","","","","","","","","","","","","","","","","","","","","","","","","","","","","","","","","","","","","","","","","",""
"","localizer","","html-keyboard-response","172","682668","0.0-2.0-36.0-0.0","35","95708","MALE","15","","","","68","0","34","","Stimuli/Experimental_stims/localizer/outdoor_scenes/johny-goerend-U_diPCXCBxU-unsplash.jpg","682259","1","outdoor_scenes","","0","0","1","400","33300","409","34999","","","","","","","","","","","","","","","","","","","","","","","","","","","","","","","","","","","","","","","","","","","","","","","","","","","","",""
"","iti_localizer","","html-keyboard-response","173","682976","0.0-2.0-36.0-1.0","35","95708","MALE","null","","","","null","","34","","","682668","1","","","","","","300","33700","308","35408","300","","","","","","","","","","","","","","","","","","","","","","","","","","","","","","","","","","","","","","","","","","","","","","","","","","","",""
"","localizer","","html-keyboard-response","174","683393","0.0-2.0-37.0-0.0","35","95708","MALE","161","","","","68","0","35","","Stimuli/Experimental_stims/localizer/outdoor_scenes/ken-cheung-KonWFWUaAuk-unsplash.jpg","682976","1","outdoor_scenes","","0","0","1","400","34000","417","35716","","","","","","","","","","","","","","","","","","","","","","","","","","","","","","","","","","","","","","","","","","","","","","","","","","","","",""
"","iti_localizer","","html-keyboard-response","175","683702","0.0-2.0-37.0-1.0","35","95708","MALE","null","","","","null","","35","","","683393","1","","","","","","300","34400","309","36133","300","","","","","","","","","","","","","","","","","","","","","","","","","","","","","","","","","","","","","","","","","","","","","","","","","","","",""
"","localizer","","html-keyboard-response","176","684126","0.0-2.0-38.0-0.0","35","95708","MALE","377","","","","68","0","36","","Stimuli/Experimental_stims/localizer/outdoor_scenes/alessio-furlan-Vw3a0HgE7AM-unsplash.jpg","683702","1","outdoor_scenes","","0","0","1","400","34700","424","36442","","","","","","","","","","","","","","","","","","","","","","","","","","","","","","","","","","","","","","","","","","","","","","","","","","","","",""
"","iti_localizer","","html-keyboard-response","177","684434","0.0-2.0-38.0-1.0","35","95708","MALE","null","","","","null","","36","","","684126","1","","","","","","300","35100","308","36866","300","","","","","","","","","","","","","","","","","","","","","","","","","","","","","","","","","","","","","","","","","","","","","","","","","","","",""
"","localizer","","html-keyboard-response","178","684861","0.0-2.0-39.0-0.0","35","95708","MALE","182","","","","68","0","37","","Stimuli/Experimental_stims/localizer/outdoor_scenes/ricardo-gomez-angel-dTSaC-S-7fs-unsplash.jpg","684434","1","outdoor_scenes","","0","0","1","400","35400","427","37174","","","","","","","","","","","","","","","","","","","","","","","","","","","","","","","","","","","","","","","","","","","","","","","","","","","","",""
"","iti_localizer","","html-keyboard-response","179","685169","0.0-2.0-39.0-1.0","35","95708","MALE","null","","","","null","","37","","","684861","1","","","","","","300","35800","308","37601","300","","","","","","","","","","","","","","","","","","","","","","","","","","","","","","","","","","","","","","","","","","","","","","","","","","","",""
"","localizer","","html-keyboard-response","180","685577","0.0-2.0-40.0-0.0","35","95708","MALE","309","","","","68","0","38","","Stimuli/Experimental_stims/localizer/outdoor_scenes/samuel-ferrara-IEHPDNk2-8w-unsplash.jpg","685169","1","outdoor_scenes","","0","0","1","400","36100","408","37909","","","","","","","","","","","","","","","","","","","","","","","","","","","","","","","","","","","","","","","","","","","","","","","","","","","","",""
"","iti_localizer","","html-keyboard-response","181","685957","0.0-2.0-40.0-1.0","35","95708","MALE","null","","","","null","","38","","","685577","1","","","","","","300","36500","380","38317","300","","","","","","","","","","","","","","","","","","","","","","","","","","","","","","","","","","","","","","","","","","","","","","","","","","","",""
"","localizer","","html-keyboard-response","182","686375","0.0-2.0-41.0-0.0","35","95708","MALE","NaN","","","","null","NaN","39","","Stimuli/Experimental_stims/localizer/outdoor_scenes/pietro-de-grandi-T7K4aEPoGGk-unsplash.jpg","685957","1","outdoor_scenes","","0","1","0","400","36800","418","38697","","","","","","","","","","","","","","","","","","","","","","","","","","","","","","","","","","","","","","","","","","","","","","","","","","","","",""
"","iti_localizer","","html-keyboard-response","183","686735","0.0-2.0-41.0-1.0","35","95708","MALE","null","","","","null","","39","","","686375","1","","","","","","300","37200","360","39115","300","","","","","","","","","","","","","","","","","","","","","","","","","","","","","","","","","","","","","","","","","","","","","","","","","","","",""
"","localizer","","html-keyboard-response","184","687147","0.0-2.0-42.0-0.0","35","95708","MALE","50","","","","68","0","40","","Stimuli/Experimental_stims/localizer/outdoor_scenes/tomasz-filipek-CUWC-6MRcNg-unsplash.jpg","686735","1","outdoor_scenes","","0","0","1","400","37500","412","39475","","","","","","","","","","","","","","","","","","","","","","","","","","","","","","","","","","","","","","","","","","","","","","","","","","","","",""
"","iti_localizer","","html-keyboard-response","185","687467","0.0-2.0-42.0-1.0","35","95708","MALE","null","","","","null","","40","","","687147","1","","","","","","300","37900","320","39887","300","","","","","","","","","","","","","","","","","","","","","","","","","","","","","","","","","","","","","","","","","","","","","","","","","","","",""
"","localizer","","html-keyboard-response","186","687891","0.0-2.0-43.0-0.0","35","95708","MALE","171","","","","68","0","41","","Stimuli/Experimental_stims/localizer/outdoor_scenes/cayetano-gil-rguHxZmOF5U-unsplash.jpg","687467","1","outdoor_scenes","","0","0","1","400","38200","424","40207","","","","","","","","","","","","","","","","","","","","","","","","","","","","","","","","","","","","","","","","","","","","","","","","","","","","",""
"","iti_localizer","","html-keyboard-response","187","688200","0.0-2.0-43.0-1.0","35","95708","MALE","null","","","","null","","41","","","687891","1","","","","","","300","38600","309","40631","300","","","","","","","","","","","","","","","","","","","","","","","","","","","","","","","","","","","","","","","","","","","","","","","","","","","",""
"","localizer","","html-keyboard-response","188","688627","0.0-2.0-44.0-0.0","35","95708","MALE","NaN","","","","null","NaN","42","","Stimuli/Experimental_stims/localizer/outdoor_scenes/nikola-majksner-hXNGeAFOgT4-unsplash.jpg","688200","1","outdoor_scenes","","0","1","0","400","38900","427","40940","","","","","","","","","","","","","","","","","","","","","","","","","","","","","","","","","","","","","","","","","","","","","","","","","","","","",""
"","iti_localizer","","html-keyboard-response","189","688970","0.0-2.0-44.0-1.0","35","95708","MALE","null","","","","null","","42","","","688627","1","","","","","","300","39300","343","41367","300","","","","","","","","","","","","","","","","","","","","","","","","","","","","","","","","","","","","","","","","","","","","","","","","","","","",""
"","localizer","","html-keyboard-response","190","689387","0.0-2.0-45.0-0.0","35","95708","MALE","53","","","","68","0","43","","Stimuli/Experimental_stims/localizer/outdoor_scenes/wil-stewart-pHANr-CpbYM-unsplash.jpg","688970","1","outdoor_scenes","","1","0","0","400","39600","417","41710","","","","","","","","","","","","","","","","","","","","","","","","","","","","","","","","","","","","","","","","","","","","","","","","","","","","",""
"","iti_localizer","","html-keyboard-response","191","689708","0.0-2.0-45.0-1.0","35","95708","MALE","null","","","","null","","43","","","689387","1","","","","","","300","40000","321","42127","300","","","","","","","","","","","","","","","","","","","","","","","","","","","","","","","","","","","","","","","","","","","","","","","","","","","",""
"","localizer","","html-keyboard-response","192","690152","0.0-2.0-46.0-0.0","35","95708","MALE","125","","","","75","1","44","","Stimuli/Experimental_stims/localizer/outdoor_scenes/chang-qing-2YQoKbyGvDc-unsplash.jpg","689708","1","outdoor_scenes","","0","0","0","400","40300","444","42448","","","","","","","","","","","","","","","","","","","","","","","","","","","","","","","","","","","","","","","","","","","","","","","","","","","","",""
"","iti_localizer","","html-keyboard-response","193","690469","0.0-2.0-46.0-1.0","35","95708","MALE","null","","","","null","","44","","","690152","1","","","","","","300","40700","317","42892","300","","","","","","","","","","","","","","","","","","","","","","","","","","","","","","","","","","","","","","","","","","","","","","","","","","","",""
"","localizer","","html-keyboard-response","194","690877","0.0-2.0-47.0-0.0","35","95708","MALE","309","","","","75","1","45","","Stimuli/Experimental_stims/localizer/outdoor_scenes/solotravelgoals-7kLufxYoqWk-unsplash.jpg","690469","1","outdoor_scenes","","0","0","0","400","41000","408","43209","","","","","","","","","","","","","","","","","","","","","","","","","","","","","","","","","","","","","","","","","","","","","","","","","","","","",""
"","iti_localizer","","html-keyboard-response","195","704902","0.0-2.0-47.0-1.0","35","95708","MALE","null","","","","null","","45","","","690877","1","","","","","","14000","41400","14025","43617","14000","","","","","","","","","","","","","","","","","","","","","","","","","","","","","","","","","","","","","","","","","","","","","","","","","","","",""
"","localizer","","html-keyboard-response","196","705321","0.0-2.0-48.0-0.0","35","95708","MALE","NaN","","","","null","NaN","46","","Stimuli/Experimental_stims/localizer/body_parts/jeremy-bishop-mLd3hAaH2ns-unsplash.jpg","704902","1","body_parts","","0","1","0","400","55400","419","57642","","","","","","","","","","","","","","","","","","","","","","","","","","","","","","","","","","","","","","","","","","","","","","","","","","","","",""
"","iti_localizer","","html-keyboard-response","197","705668","0.0-2.0-48.0-1.0","35","95708","MALE","null","","","","null","","46","","","705321","1","","","","","","300","55800","347","58061","300","","","","","","","","","","","","","","","","","","","","","","","","","","","","","","","","","","","","","","","","","","","","","","","","","","","",""
"","localizer","","html-keyboard-response","198","706089","0.0-2.0-49.0-0.0","35","95708","MALE","NaN","","","","null","NaN","47","","Stimuli/Experimental_stims/localizer/body_parts/lilartsy-1KkhQ8uL28g-unsplash.jpg","705668","1","body_parts","","0","1","0","400","56100","421","58408","","","","","","","","","","","","","","","","","","","","","","","","","","","","","","","","","","","","","","","","","","","","","","","","","","","","",""
"","iti_localizer","","html-keyboard-response","199","706413","0.0-2.0-49.0-1.0","35","95708","MALE","null","","","","null","","47","","","706089","1","","","","","","300","56500","324","58829","300","","","","","","","","","","","","","","","","","","","","","","","","","","","","","","","","","","","","","","","","","","","","","","","","","","","",""
"","localizer","","html-keyboard-response","200","706840","0.0-2.0-50.0-0.0","35","95708","MALE","NaN","","","","null","NaN","48","","Stimuli/Experimental_stims/localizer/body_parts/toa-heftiba-qxvWnfHb3-M-unsplash.jpg","706413","1","body_parts","","0","1","0","400","56800","427","59153","","","","","","","","","","","","","","","","","","","","","","","","","","","","","","","","","","","","","","","","","","","","","","","","","","","","",""
"","iti_localizer","","html-keyboard-response","201","707156","0.0-2.0-50.0-1.0","35","95708","MALE","null","","","","null","","48","","","706840","1","","","","","","300","57200","316","59580","300","","","","","","","","","","","","","","","","","","","","","","","","","","","","","","","","","","","","","","","","","","","","","","","","","","","",""
"","localizer","","html-keyboard-response","202","707579","0.0-2.0-51.0-0.0","35","95708","MALE","NaN","","","","null","NaN","49","","Stimuli/Experimental_stims/localizer/body_parts/callum-skelton-3KLMq7y46nA-unsplash.jpg","707156","1","body_parts","","1","1","0","400","57500","423","59896","","","","","","","","","","","","","","","","","","","","","","","","","","","","","","","","","","","","","","","","","","","","","","","","","","","","",""
"","iti_localizer","","html-keyboard-response","203","707891","0.0-2.0-51.0-1.0","35","95708","MALE","null","","","","null","","49","","","707579","1","","","","","","300","57900","312","60319","300","","","","","","","","","","","","","","","","","","","","","","","","","","","","","","","","","","","","","","","","","","","","","","","","","","","",""
"","localizer","","html-keyboard-response","204","708313","0.0-2.0-52.0-0.0","35","95708","MALE","NaN","","","","null","NaN","50","","Stimuli/Experimental_stims/localizer/body_parts/ant-rozetsky-bXQd8JXx0vs-unsplash.jpg","707891","1","body_parts","","0","1","0","400","58200","422","60631","","","","","","","","","","","","","","","","","","","","","","","","","","","","","","","","","","","","","","","","","","","","","","","","","","","","",""
"","iti_localizer","","html-keyboard-response","205","708650","0.0-2.0-52.0-1.0","35","95708","MALE","null","","","","null","","50","","","708313","1","","","","","","300","58600","337","61053","300","","","","","","","","","","","","","","","","","","","","","","","","","","","","","","","","","","","","","","","","","","","","","","","","","","","",""
"","localizer","","html-keyboard-response","206","709075","0.0-2.0-53.0-0.0","35","95708","MALE","28","","","","75","1","51","","Stimuli/Experimental_stims/localizer/body_parts/boyd-christiansen-uVj7kewrZ-o-unsplash.jpg","708650","1","body_parts","","0","0","0","400","58900","425","61390","","","","","","","","","","","","","","","","","","","","","","","","","","","","","","","","","","","","","","","","","","","","","","","","","","","","",""
"","iti_localizer","","html-keyboard-response","207","709385","0.0-2.0-53.0-1.0","35","95708","MALE","null","","","","null","","51","","","709075","1","","","","","","300","59300","310","61815","300","","","","","","","","","","","","","","","","","","","","","","","","","","","","","","","","","","","","","","","","","","","","","","","","","","","",""
"","localizer","","html-keyboard-response","208","709815","0.0-2.0-54.0-0.0","35","95708","MALE","56","","","","75","1","52","","Stimuli/Experimental_stims/localizer/body_parts/helen-ast-l2iY5Sh0mTg-unsplash.jpg","709385","1","body_parts","","0","0","0","400","59600","430","62125","","","","","","","","","","","","","","","","","","","","","","","","","","","","","","","","","","","","","","","","","","","","","","","","","","","","",""
"","iti_localizer","","html-keyboard-response","209","710138","0.0-2.0-54.0-1.0","35","95708","MALE","null","","","","null","","52","","","709815","1","","","","","","300","60000","323","62555","300","","","","","","","","","","","","","","","","","","","","","","","","","","","","","","","","","","","","","","","","","","","","","","","","","","","",""
"","localizer","","html-keyboard-response","210","710569","0.0-2.0-55.0-0.0","35","95708","MALE","328","","","","68","0","53","","Stimuli/Experimental_stims/localizer/body_parts/pure-julia-E9Q4bqYHtIM-unsplash.jpg","710138","1","body_parts","","0","0","1","400","60300","431","62878","","","","","","","","","","","","","","","","","","","","","","","","","","","","","","","","","","","","","","","","","","","","","","","","","","","","",""
"","iti_localizer","","html-keyboard-response","211","710882","0.0-2.0-55.0-1.0","35","95708","MALE","null","","","","null","","53","","","710569","1","","","","","","300","60700","313","63309","300","","","","","","","","","","","","","","","","","","","","","","","","","","","","","","","","","","","","","","","","","","","","","","","","","","","",""
"","localizer","","html-keyboard-response","212","711291","0.0-2.0-56.0-0.0","35","95708","MALE","385","","","","75","1","54","","Stimuli/Experimental_stims/localizer/body_parts/sina-rezakhani-d1gQi0Jl05U-unsplash (1).jpg","710882","1","body_parts","","0","0","0","400","61000","409","63622","","","","","","","","","","","","","","","","","","","","","","","","","","","","","","","","","","","","","","","","","","","","","","","","","","","","",""
"","iti_localizer","","html-keyboard-response","213","711616","0.0-2.0-56.0-1.0","35","95708","MALE","null","","","","null","","54","","","711291","1","","","","","","300","61400","325","64031","300","","","","","","","","","","","","","","","","","","","","","","","","","","","","","","","","","","","","","","","","","","","","","","","","","","","",""
"","localizer","","html-keyboard-response","214","712078","0.0-2.0-57.0-0.0","35","95708","MALE","123","","","","75","1","55","","Stimuli/Experimental_stims/localizer/body_parts/megan-menegay-UojxG_BJxnI-unsplash.jpg","711616","1","body_parts","","0","0","0","400","61700","462","64356","","","","","","","","","","","","","","","","","","","","","","","","","","","","","","","","","","","","","","","","","","","","","","","","","","","","",""
"","iti_localizer","","html-keyboard-response","215","712414","0.0-2.0-57.0-1.0","35","95708","MALE","null","","","","null","","55","","","712078","1","","","","","","300","62100","336","64818","300","","","","","","","","","","","","","","","","","","","","","","","","","","","","","","","","","","","","","","","","","","","","","","","","","","","",""
"","localizer","","html-keyboard-response","216","712837","0.0-2.0-58.0-0.0","35","95708","MALE","169","","","","75","1","56","","Stimuli/Experimental_stims/localizer/body_parts/sincerely-media-7TBFwUQA6Xk-unsplash.jpg","712414","1","body_parts","","0","0","0","400","62400","423","65154","","","","","","","","","","","","","","","","","","","","","","","","","","","","","","","","","","","","","","","","","","","","","","","","","","","","",""
"","iti_localizer","","html-keyboard-response","217","713156","0.0-2.0-58.0-1.0","35","95708","MALE","null","","","","null","","56","","","712837","1","","","","","","300","62800","319","65577","300","","","","","","","","","","","","","","","","","","","","","","","","","","","","","","","","","","","","","","","","","","","","","","","","","","","",""
"","localizer","","html-keyboard-response","218","713584","0.0-2.0-59.0-0.0","35","95708","MALE","367","","","","75","1","57","","Stimuli/Experimental_stims/localizer/body_parts/sincerely-media-pdynOoM7xmA-unsplash.jpg","713156","1","body_parts","","0","0","0","400","63100","428","65896","","","","","","","","","","","","","","","","","","","","","","","","","","","","","","","","","","","","","","","","","","","","","","","","","","","","",""
"","iti_localizer","","html-keyboard-response","219","713924","0.0-2.0-59.0-1.0","35","95708","MALE","null","","","","null","","57","","","713584","1","","","","","","300","63500","340","66324","300","","","","","","","","","","","","","","","","","","","","","","","","","","","","","","","","","","","","","","","","","","","","","","","","","","","",""
"","localizer","","html-keyboard-response","220","714396","0.0-2.0-60.0-0.0","35","95708","MALE","336","","","","68","0","58","","Stimuli/Experimental_stims/localizer/body_parts/adrien-king-XzBluXxBoyQ-unsplash.jpg","713924","1","body_parts","","0","0","1","400","63800","472","66664","","","","","","","","","","","","","","","","","","","","","","","","","","","","","","","","","","","","","","","","","","","","","","","","","","","","",""
"","iti_localizer","","html-keyboard-response","221","714714","0.0-2.0-60.0-1.0","35","95708","MALE","null","","","","null","","58","","","714396","1","","","","","","300","64200","318","67136","300","","","","","","","","","","","","","","","","","","","","","","","","","","","","","","","","","","","","","","","","","","","","","","","","","","","",""
"","localizer","","html-keyboard-response","222","715132","0.0-2.0-61.0-0.0","35","95708","MALE","113","","","","75","1","59","","Stimuli/Experimental_stims/localizer/body_parts/nattalia-nunez-MB9sdDfZMSg-unsplash.jpg","714714","1","body_parts","","1","0","1","400","64500","418","67454","","","","","","","","","","","","","","","","","","","","","","","","","","","","","","","","","","","","","","","","","","","","","","","","","","","","",""
"","iti_localizer","","html-keyboard-response","223","715447","0.0-2.0-61.0-1.0","35","95708","MALE","null","","","","null","","59","","","715132","1","","","","","","300","64900","315","67872","300","","","","","","","","","","","","","","","","","","","","","","","","","","","","","","","","","","","","","","","","","","","","","","","","","","","",""
"","localizer","","html-keyboard-response","224","715856","0.0-2.0-62.0-0.0","35","95708","MALE","344","","","","75","1","60","","Stimuli/Experimental_stims/localizer/body_parts/louis-hansel-FjKTMRTQYAs-unsplash.jpg","715447","1","body_parts","","0","0","0","400","65200","409","68187","","","","","","","","","","","","","","","","","","","","","","","","","","","","","","","","","","","","","","","","","","","","","","","","","","","","",""
"","iti_localizer","","html-keyboard-response","225","716166","0.0-2.0-62.0-1.0","35","95708","MALE","null","","","","null","","60","","","715856","1","","","","","","300","65600","310","68596","300","","","","","","","","","","","","","","","","","","","","","","","","","","","","","","","","","","","","","","","","","","","","","","","","","","","",""
"","localizer","","html-keyboard-response","226","716583","0.0-2.0-63.0-0.0","35","95708","MALE","209","","","","75","1","61","","Stimuli/Experimental_stims/localizer/body_parts/jonathan-borba-hTwH8QFkPMs-unsplash.jpg","716166","1","body_parts","","0","0","0","400","65900","417","68906","","","","","","","","","","","","","","","","","","","","","","","","","","","","","","","","","","","","","","","","","","","","","","","","","","","","",""
"","iti_localizer","","html-keyboard-response","227","716904","0.0-2.0-63.0-1.0","35","95708","MALE","null","","","","null","","61","","","716583","1","","","","","","300","66300","321","69323","300","","","","","","","","","","","","","","","","","","","","","","","","","","","","","","","","","","","","","","","","","","","","","","","","","","","",""
"","localizer","","html-keyboard-response","228","717320","0.0-2.0-64.0-0.0","35","95708","MALE","344","","","","75","1","62","","Stimuli/Experimental_stims/localizer/body_parts/hu-chen-tCbTGNwrFNM-unsplash.jpg","716904","1","body_parts","","0","0","0","400","66600","416","69644","","","","","","","","","","","","","","","","","","","","","","","","","","","","","","","","","","","","","","","","","","","","","","","","","","","","",""
"","iti_localizer","","html-keyboard-response","229","717637","0.0-2.0-64.0-1.0","35","95708","MALE","null","","","","null","","62","","","717320","1","","","","","","300","67000","317","70060","300","","","","","","","","","","","","","","","","","","","","","","","","","","","","","","","","","","","","","","","","","","","","","","","","","","","",""
"","localizer","","html-keyboard-response","230","718054","0.0-2.0-65.0-0.0","35","95708","MALE","234","","","","75","1","63","","Stimuli/Experimental_stims/localizer/body_parts/danie-franco-jyyNiSEcCl4-unsplash.jpg","717637","1","body_parts","","0","0","0","400","67300","417","70377","","","","","","","","","","","","","","","","","","","","","","","","","","","","","","","","","","","","","","","","","","","","","","","","","","","","",""
"","iti_localizer","","html-keyboard-response","231","718374","0.0-2.0-65.0-1.0","35","95708","MALE","null","","","","null","","63","","","718054","1","","","","","","300","67700","320","70794","300","","","","","","","","","","","","","","","","","","","","","","","","","","","","","","","","","","","","","","","","","","","","","","","","","","","",""
"","localizer","","html-keyboard-response","232","718842","0.0-2.0-66.0-0.0","35","95708","MALE","27","","","","75","1","64","","Stimuli/Experimental_stims/localizer/body_parts/natalie-grainger-8uB5kFKWWkk-unsplash.jpg","718374","1","body_parts","","0","0","0","400","68000","468","71114","","","","","","","","","","","","","","","","","","","","","","","","","","","","","","","","","","","","","","","","","","","","","","","","","","","","",""
"","iti_localizer","","html-keyboard-response","233","719154","0.0-2.0-66.0-1.0","35","95708","MALE","null","","","","null","","64","","","718842","1","","","","","","300","68400","312","71582","300","","","","","","","","","","","","","","","","","","","","","","","","","","","","","","","","","","","","","","","","","","","","","","","","","","","",""
"","localizer","","html-keyboard-response","234","719575","0.0-2.0-67.0-0.0","35","95708","MALE","169","","","","75","1","65","","Stimuli/Experimental_stims/localizer/body_parts/apostolos-vamvouras-g5wKHRu2QW0-unsplash.jpg","719154","1","body_parts","","0","0","0","400","68700","421","71894","","","","","","","","","","","","","","","","","","","","","","","","","","","","","","","","","","","","","","","","","","","","","","","","","","","","",""
"","iti_localizer","","html-keyboard-response","235","733585","0.0-2.0-67.0-1.0","35","95708","MALE","null","","","","null","","65","","","719575","1","","","","","","14000","69100","14010","72315","14000","","","","","","","","","","","","","","","","","","","","","","","","","","","","","","","","","","","","","","","","","","","","","","","","","","","",""
"","localizer","","html-keyboard-response","236","734044","0.0-2.0-68.0-0.0","35","95708","MALE","317","","","","68","0","66","","Stimuli/Experimental_stims/localizer/objects/quaritsch-photography-lZ8onQ1wuY8-unsplash.jpg","733585","1","objects","","1","0","0","400","83100","459","86325","","","","","","","","","","","","","","","","","","","","","","","","","","","","","","","","","","","","","","","","","","","","","","","","","","","","",""
"","iti_localizer","","html-keyboard-response","237","734361","0.0-2.0-68.0-1.0","35","95708","MALE","null","","","","null","","66","","","734044","1","","","","","","300","83500","317","86784","300","","","","","","","","","","","","","","","","","","","","","","","","","","","","","","","","","","","","","","","","","","","","","","","","","","","",""
"","localizer","","html-keyboard-response","238","734770","0.0-2.0-69.0-0.0","35","95708","MALE","NaN","","","","null","NaN","67","","Stimuli/Experimental_stims/localizer/objects/ana-9GmAaEMMKho-unsplash.jpg","734361","1","objects","","0","1","0","400","83800","409","87101","","","","","","","","","","","","","","","","","","","","","","","","","","","","","","","","","","","","","","","","","","","","","","","","","","","","",""
"","iti_localizer","","html-keyboard-response","239","735085","0.0-2.0-69.0-1.0","35","95708","MALE","null","","","","null","","67","","","734770","1","","","","","","300","84200","315","87510","300","","","","","","","","","","","","","","","","","","","","","","","","","","","","","","","","","","","","","","","","","","","","","","","","","","","",""
"","localizer","","html-keyboard-response","240","735497","0.0-2.0-70.0-0.0","35","95708","MALE","NaN","","","","null","NaN","68","","Stimuli/Experimental_stims/localizer/objects/nordwood-themes-nDd3dIkkOLo-unsplash.jpg","735085","1","objects","","0","1","0","400","84500","412","87825","","","","","","","","","","","","","","","","","","","","","","","","","","","","","","","","","","","","","","","","","","","","","","","","","","","","",""
"","iti_localizer","","html-keyboard-response","241","735818","0.0-2.0-70.0-1.0","35","95708","MALE","null","","","","null","","68","","","735497","1","","","","","","300","84900","321","88237","300","","","","","","","","","","","","","","","","","","","","","","","","","","","","","","","","","","","","","","","","","","","","","","","","","","","",""
"","localizer","","html-keyboard-response","242","736290","0.0-2.0-71.0-0.0","35","95708","MALE","185","","","","68","0","69","","Stimuli/Experimental_stims/localizer/objects/kelly-jean-cKjbI0Y00X0-unsplash.jpg","735818","1","objects","","0","0","1","400","85200","472","88558","","","","","","","","","","","","","","","","","","","","","","","","","","","","","","","","","","","","","","","","","","","","","","","","","","","","",""
"","iti_localizer","","html-keyboard-response","243","736604","0.0-2.0-71.0-1.0","35","95708","MALE","null","","","","null","","69","","","736290","1","","","","","","300","85600","314","89030","300","","","","","","","","","","","","","","","","","","","","","","","","","","","","","","","","","","","","","","","","","","","","","","","","","","","",""
"","localizer","","html-keyboard-response","244","737022","0.0-2.0-72.0-0.0","35","95708","MALE","NaN","","","","null","NaN","70","","Stimuli/Experimental_stims/localizer/objects/florian-klauer-nptLmg6jqDo-unsplash.jpg","736604","1","objects","","0","1","0","400","85900","418","89344","","","","","","","","","","","","","","","","","","","","","","","","","","","","","","","","","","","","","","","","","","","","","","","","","","","","",""
"","iti_localizer","","html-keyboard-response","245","737334","0.0-2.0-72.0-1.0","35","95708","MALE","null","","","","null","","70","","","737022","1","","","","","","300","86300","312","89762","300","","","","","","","","","","","","","","","","","","","","","","","","","","","","","","","","","","","","","","","","","","","","","","","","","","","",""
"","localizer","","html-keyboard-response","246","737769","0.0-2.0-73.0-0.0","35","95708","MALE","NaN","","","","null","NaN","71","","Stimuli/Experimental_stims/localizer/objects/nicolas-hippert-SVgX47QIUlc-unsplash.jpg","737334","1","objects","","0","1","0","400","86600","435","90074","","","","","","","","","","","","","","","","","","","","","","","","","","","","","","","","","","","","","","","","","","","","","","","","","","","","",""
"","iti_localizer","","html-keyboard-response","247","738089","0.0-2.0-73.0-1.0","35","95708","MALE","null","","","","null","","71","","","737769","1","","","","","","300","87000","320","90509","300","","","","","","","","","","","","","","","","","","","","","","","","","","","","","","","","","","","","","","","","","","","","","","","","","","","",""
"","localizer","","html-keyboard-response","248","738506","0.0-2.0-74.0-0.0","35","95708","MALE","346","","","","75","1","72","","Stimuli/Experimental_stims/localizer/objects/florian-klauer-mk7D-4UCfmg-unsplash.jpg","738089","1","objects","","0","0","0","400","87300","417","90829","","","","","","","","","","","","","","","","","","","","","","","","","","","","","","","","","","","","","","","","","","","","","","","","","","","","",""
"","iti_localizer","","html-keyboard-response","249","738897","0.0-2.0-74.0-1.0","35","95708","MALE","null","","","","null","","72","","","738506","1","","","","","","300","87700","391","91246","300","","","","","","","","","","","","","","","","","","","","","","","","","","","","","","","","","","","","","","","","","","","","","","","","","","","",""
