"success","ttype","start_time","trial_type","trial_index","time_elapsed","internal_node_id","age","PID","gender","rt","responses","view_history","repeat_instructions","key_press","response","index","stimulus_index","path","start_time_elapsed","run","task","isi","is_odd_ball","no_response","acc","duration","onset","duration_time_elapsed","onset_time_elapsed","trial_duration","missed_checkup","left_chosen","chosen_stimulus","unchosen_stimulus","chosen_category","unchosen_category","chosen_rating","unchosen_rating","chosen_path","unchosen_path","pair_id","practice","scramble_screen_time","scramble_instructed_side","stim_type","iti","block","left_stimulus","right_stimulus","left_category","right_category","left_path","right_path","left_rating","right_rating","warning","scramble_acc","scramble_no_response","stimulus_id","item_id","outcome","response_rt","deliberation_reward_tally","choice_type","gain_left","left_item_id","right_item_id","higher_outcome_chosen"
"true","full_screen","d08172023hr1714","fullscreen","0","18297","0.0-0.0-0.0","33","75229","female","","","","","","","","","","","","","","","","","","","","","","","","","","","","","","","","","","","","","","","","","","","","","","","","","","","","","","","","","","",""
"","get_id","","survey-text","1","26207","0.0-0.0-1.0","33","75229","female","7893","{""Q0"":""33"",""Q1"":""female""}","","","","","","","","","","","","","","","","","","","","","","","","","","","","","","","","","","","","","","","","","","","","","","","","","","","","","","","","",""
"","ratings_instructions","","instructions","2","40458","0.0-1.0-0.0-0.0","33","75229","female","12914","","[{""page_index"":0,""viewing_time"":8727},{""page_index"":1,""viewing_time"":4186}]","","","","","","","","","","","","","","","","","","","","","","","","","","","","","","","","","","","","","","","","","","","","","","","","","","","","","","","",""
"","rating_comprehension_check","","survey-multi-choice","3","49214","0.0-1.0-0.0-1.0","33","75229","female","8738","{""Q0"":""True"",""Q1"":""Mouse""}","","0","","","","","","","","","","","","","","","","","","","","","","","","","","","","","","","","","","","","","","","","","","","","","","","","","","","","","","",""
"","","","html-keyboard-response","4","53369","0.0-1.0-1.0","33","75229","female","4140","","","","68","","","","","","","","","","","","","","","","","","","","","","","","","","","","","","","","","","","","","","","","","","","","","","","","","","","","","",""
"","rating","","html-slider-response","5","62761","0.0-1.0-2.0","33","75229","female","9362","","","","","64","0","28","Stimuli/Experimental_stims/body_parts/ira-vishnevskaya-8DQAvdCby1I-unsplash.jpg","","","","","","","","","","","","","","","","","","","","","","","","","","","","","","","","","","","","","","","","","","","","","","","","","",""
"","rating","","html-slider-response","6","73960","0.0-1.0-3.0","33","75229","female","11180","","","","","75","1","4","Stimuli/Experimental_stims/outdoor_scenes/jarrett-kow-1ZOyYPOBn7I-unsplash.jpg","","","","","","","","","","","","","","","","","","","","","","","","","","","","","","","","","","","","","","","","","","","","","","","","","",""
"","rating","","html-slider-response","7","78658","0.0-1.0-4.0","33","75229","female","4681","","","","","42","2","35","Stimuli/Experimental_stims/body_parts/wc-so-KH4AAPjb-tI-unsplash.jpg","","","","","","","","","","","","","","","","","","","","","","","","","","","","","","","","","","","","","","","","","","","","","","","","","",""
"","rating","","html-slider-response","8","82463","0.0-1.0-5.0","33","75229","female","3787","","","","","57","3","47","Stimuli/Experimental_stims/objects/ronaldo-arthur-vidal-Cdz_lvnl37k-unsplash.jpg","","","","","","","","","","","","","","","","","","","","","","","","","","","","","","","","","","","","","","","","","","","","","","","","","",""
"","rating","","html-slider-response","9","87534","0.0-1.0-6.0","33","75229","female","5053","","","","","87","4","9","Stimuli/Experimental_stims/outdoor_scenes/sergey-pesterev-y-b_FOmJXdg-unsplash.jpg","","","","","","","","","","","","","","","","","","","","","","","","","","","","","","","","","","","","","","","","","","","","","","","","","",""
"","rating","","html-slider-response","10","92580","0.0-1.0-7.0","33","75229","female","5023","","","","","56","5","31","Stimuli/Experimental_stims/body_parts/sincerely-media-VN6DbKajo5s-unsplash.jpg","","","","","","","","","","","","","","","","","","","","","","","","","","","","","","","","","","","","","","","","","","","","","","","","","",""
"","rating","","html-slider-response","11","102983","0.0-1.0-8.0","33","75229","female","10381","","","","","68","6","5","Stimuli/Experimental_stims/outdoor_scenes/jeff-king-bJHWJeiHfHc-unsplash.jpg","","","","","","","","","","","","","","","","","","","","","","","","","","","","","","","","","","","","","","","","","","","","","","","","","",""
"","rating","","html-slider-response","12","107245","0.0-1.0-9.0","33","75229","female","4246","","","","","93","7","27","Stimuli/Experimental_stims/body_parts/heike-mintel-i_Gns0ELnLw-unsplash.jpg","","","","","","","","","","","","","","","","","","","","","","","","","","","","","","","","","","","","","","","","","","","","","","","","","",""
"","rating","","html-slider-response","13","114754","0.0-1.0-10.0","33","75229","female","7493","","","","","59","8","37","Stimuli/Experimental_stims/objects/alexander-andrews-VLGWE_SumrA-unsplash.jpg","","","","","","","","","","","","","","","","","","","","","","","","","","","","","","","","","","","","","","","","","","","","","","","","","",""
"","rating","","html-slider-response","14","118316","0.0-1.0-11.0","33","75229","female","3546","","","","","79","9","19","Stimuli/Experimental_stims/faces/joel-mott-LaK153ghdig-unsplash.jpg","","","","","","","","","","","","","","","","","","","","","","","","","","","","","","","","","","","","","","","","","","","","","","","","","",""
"","rating","","html-slider-response","15","122848","0.0-1.0-12.0","33","75229","female","4519","","","","","58","10","34","Stimuli/Experimental_stims/body_parts/wagner-santos-mBWMvIuVnso-unsplash.jpg","","","","","","","","","","","","","","","","","","","","","","","","","","","","","","","","","","","","","","","","","","","","","","","","","",""
"","rating","","html-slider-response","16","128266","0.0-1.0-13.0","33","75229","female","5402","","","","","55","11","22","Stimuli/Experimental_stims/faces/ravi-patel-VMGAbeeJTKo-unsplash.jpg","","","","","","","","","","","","","","","","","","","","","","","","","","","","","","","","","","","","","","","","","","","","","","","","","",""
"","rating","","html-slider-response","17","131987","0.0-1.0-14.0","33","75229","female","3703","","","","","73","12","1","Stimuli/Experimental_stims/outdoor_scenes/ashim-d-silva-S2Q5mdOrrVc-unsplash.jpg","","","","","","","","","","","","","","","","","","","","","","","","","","","","","","","","","","","","","","","","","","","","","","","","","",""
"","rating","","html-slider-response","18","136418","0.0-1.0-15.0","33","75229","female","4417","","","","","40","13","15","Stimuli/Experimental_stims/faces/erik-lucatero-d2MSDujJl2g-unsplash.jpg","","","","","","","","","","","","","","","","","","","","","","","","","","","","","","","","","","","","","","","","","","","","","","","","","",""
"","rating","","html-slider-response","19","141243","0.0-1.0-16.0","33","75229","female","4811","","","","","46","14","17","Stimuli/Experimental_stims/faces/good-faces-xmSWVeGEnJw-unsplash.jpg","","","","","","","","","","","","","","","","","","","","","","","","","","","","","","","","","","","","","","","","","","","","","","","","","",""
"","rating","","html-slider-response","20","145560","0.0-1.0-17.0","33","75229","female","4301","","","","","64","15","12","Stimuli/Experimental_stims/faces/aiony-haust-jmATI5Q_YgY-unsplash.jpg","","","","","","","","","","","","","","","","","","","","","","","","","","","","","","","","","","","","","","","","","","","","","","","","","",""
"","rating","","html-slider-response","21","150499","0.0-1.0-18.0","33","75229","female","4918","","","","","84","16","0","Stimuli/Experimental_stims/outdoor_scenes/aleksandra-boguslawska-MS7KD9Ti7FQ-unsplash.jpg","","","","","","","","","","","","","","","","","","","","","","","","","","","","","","","","","","","","","","","","","","","","","","","","","",""
"","rating","","html-slider-response","22","154469","0.0-1.0-19.0","33","75229","female","3953","","","","","50","17","41","Stimuli/Experimental_stims/objects/insung-yoon-w2JtIQQXoRU-unsplash.jpg","","","","","","","","","","","","","","","","","","","","","","","","","","","","","","","","","","","","","","","","","","","","","","","","","",""
"","rating","","html-slider-response","23","158127","0.0-1.0-20.0","33","75229","female","3641","","","","","47","18","18","Stimuli/Experimental_stims/faces/jessica-radanavong-mrYkTuAesKE-unsplash.jpg","","","","","","","","","","","","","","","","","","","","","","","","","","","","","","","","","","","","","","","","","","","","","","","","","",""
"","rating","","html-slider-response","24","162091","0.0-1.0-21.0","33","75229","female","3948","","","","","80","19","11","Stimuli/Experimental_stims/outdoor_scenes/stephen-leonardi-gyIRjKPXupE-unsplash.jpg","","","","","","","","","","","","","","","","","","","","","","","","","","","","","","","","","","","","","","","","","","","","","","","","","",""
"","rating","","html-slider-response","25","169904","0.0-1.0-22.0","33","75229","female","7788","","","","","62","20","20","Stimuli/Experimental_stims/faces/justin-chen-J7Cf1Gch49E-unsplash.jpg","","","","","","","","","","","","","","","","","","","","","","","","","","","","","","","","","","","","","","","","","","","","","","","","","",""
"","rating","","html-slider-response","26","174022","0.0-1.0-23.0","33","75229","female","4104","","","","","41","21","23","Stimuli/Experimental_stims/faces/rikonavt-HQjfrvdTfak-unsplash.jpg","","","","","","","","","","","","","","","","","","","","","","","","","","","","","","","","","","","","","","","","","","","","","","","","","",""
"","rating","","html-slider-response","27","178184","0.0-1.0-24.0","33","75229","female","4147","","","","","66","22","25","Stimuli/Experimental_stims/body_parts/engin-akyurt-Q2rfH3GW39c-unsplash.jpg","","","","","","","","","","","","","","","","","","","","","","","","","","","","","","","","","","","","","","","","","","","","","","","","","",""
"","rating","","html-slider-response","28","182101","0.0-1.0-25.0","33","75229","female","3903","","","","","64","23","33","Stimuli/Experimental_stims/body_parts/tucker-good-36skLT5jZcc-unsplash.jpg","","","","","","","","","","","","","","","","","","","","","","","","","","","","","","","","","","","","","","","","","","","","","","","","","",""
"","rating","","html-slider-response","29","188725","0.0-1.0-26.0","33","75229","female","6600","","","","","57","24","32","Stimuli/Experimental_stims/body_parts/towfiqu-barbhuiya-3AsiVDsZnHg-unsplash.jpg","","","","","","","","","","","","","","","","","","","","","","","","","","","","","","","","","","","","","","","","","","","","","","","","","",""
"","rating","","html-slider-response","30","192785","0.0-1.0-27.0","33","75229","female","4044","","","","","59","25","30","Stimuli/Experimental_stims/body_parts/mika-korhonen-Xodzxosar18-unsplash.jpg","","","","","","","","","","","","","","","","","","","","","","","","","","","","","","","","","","","","","","","","","","","","","","","","","",""
"","rating","","html-slider-response","31","198247","0.0-1.0-28.0","33","75229","female","5449","","","","","57","26","16","Stimuli/Experimental_stims/faces/freddy-kearney-o-ioeoATbIM-unsplash.jpg","","","","","","","","","","","","","","","","","","","","","","","","","","","","","","","","","","","","","","","","","","","","","","","","","",""
"","rating","","html-slider-response","32","206447","0.0-1.0-29.0","33","75229","female","8179","","","","","61","27","14","Stimuli/Experimental_stims/faces/david-siglin-UuW4psOb388-unsplash.jpg","","","","","","","","","","","","","","","","","","","","","","","","","","","","","","","","","","","","","","","","","","","","","","","","","",""
"","rating","","html-slider-response","33","212129","0.0-1.0-30.0","33","75229","female","5665","","","","","68","28","36","Stimuli/Experimental_stims/objects/alexander-andrews-JYGnB9gTCls-unsplash.jpg","","","","","","","","","","","","","","","","","","","","","","","","","","","","","","","","","","","","","","","","","","","","","","","","","",""
"","rating","","html-slider-response","34","216905","0.0-1.0-31.0","33","75229","female","4758","","","","","78","29","3","Stimuli/Experimental_stims/outdoor_scenes/henry-be-NLF6hTe4PAg-unsplash.jpg","","","","","","","","","","","","","","","","","","","","","","","","","","","","","","","","","","","","","","","","","","","","","","","","","",""
"","rating","","html-slider-response","35","237953","0.0-1.0-32.0","33","75229","female","21026","","","","","83","30","29","Stimuli/Experimental_stims/body_parts/manuel-schinner-ZwjFuJ7ebpk-unsplash.jpg","","","","","","","","","","","","","","","","","","","","","","","","","","","","","","","","","","","","","","","","","","","","","","","","","",""
"","rating","","html-slider-response","36","241718","0.0-1.0-33.0","33","75229","female","3753","","","","","57","31","43","Stimuli/Experimental_stims/objects/jonathan-greenaway-Y4hGgeiFn3s-unsplash.jpg","","","","","","","","","","","","","","","","","","","","","","","","","","","","","","","","","","","","","","","","","","","","","","","","","",""
"","rating","","html-slider-response","37","246022","0.0-1.0-34.0","33","75229","female","4292","","","","","58","32","40","Stimuli/Experimental_stims/objects/fabian-blank-pElSkGRA2NU-unsplash.jpg","","","","","","","","","","","","","","","","","","","","","","","","","","","","","","","","","","","","","","","","","","","","","","","","","",""
"","rating","","html-slider-response","38","249923","0.0-1.0-35.0","33","75229","female","3890","","","","","87","33","2","Stimuli/Experimental_stims/outdoor_scenes/bruno-van-der-kraan-qez8mNJ3ilU-unsplash.jpg","","","","","","","","","","","","","","","","","","","","","","","","","","","","","","","","","","","","","","","","","","","","","","","","","",""
"","rating","","html-slider-response","39","255786","0.0-1.0-36.0","33","75229","female","5848","","","","","67","34","26","Stimuli/Experimental_stims/body_parts/engin-akyurt-x_3gyC42btc-unsplash.jpg","","","","","","","","","","","","","","","","","","","","","","","","","","","","","","","","","","","","","","","","","","","","","","","","","",""
"","rating","","html-slider-response","40","259668","0.0-1.0-37.0","33","75229","female","3872","","","","","58","35","45","Stimuli/Experimental_stims/objects/leohoho-rngTKHXumy0-unsplash.jpg","","","","","","","","","","","","","","","","","","","","","","","","","","","","","","","","","","","","","","","","","","","","","","","","","",""
"","rating","","html-slider-response","41","263193","0.0-1.0-38.0","33","75229","female","3505","","","","","84","36","6","Stimuli/Experimental_stims/outdoor_scenes/meng-ji-8BH_M-53CyA-unsplash.jpg","","","","","","","","","","","","","","","","","","","","","","","","","","","","","","","","","","","","","","","","","","","","","","","","","",""
"","rating","","html-slider-response","42","267110","0.0-1.0-39.0","33","75229","female","3903","","","","","76","37","13","Stimuli/Experimental_stims/faces/daniel-rigdon-dXmXKPP2L4E-unsplash.jpg","","","","","","","","","","","","","","","","","","","","","","","","","","","","","","","","","","","","","","","","","","","","","","","","","",""
"","rating","","html-slider-response","43","276716","0.0-1.0-40.0","33","75229","female","9586","","","","","56","38","44","Stimuli/Experimental_stims/objects/kuiye-chen-NuOGFo4PudE-unsplash.jpg","","","","","","","","","","","","","","","","","","","","","","","","","","","","","","","","","","","","","","","","","","","","","","","","","",""
"","rating","","html-slider-response","44","283680","0.0-1.0-41.0","33","75229","female","6946","","","","","48","39","42","Stimuli/Experimental_stims/objects/jess-bailey-nOeVi8DsN8U-unsplash.jpg","","","","","","","","","","","","","","","","","","","","","","","","","","","","","","","","","","","","","","","","","","","","","","","","","",""
"","rating","","html-slider-response","45","289072","0.0-1.0-42.0","33","75229","female","5375","","","","","72","40","24","Stimuli/Experimental_stims/body_parts/clay-banks-LjqARJaJotc-unsplash.jpg","","","","","","","","","","","","","","","","","","","","","","","","","","","","","","","","","","","","","","","","","","","","","","","","","",""
"","rating","","html-slider-response","46","293041","0.0-1.0-43.0","33","75229","female","3952","","","","","64","41","21","Stimuli/Experimental_stims/faces/leilani-angel-K84vnnzxmTQ-unsplash.jpg","","","","","","","","","","","","","","","","","","","","","","","","","","","","","","","","","","","","","","","","","","","","","","","","","",""
"","rating","","html-slider-response","47","298596","0.0-1.0-44.0","33","75229","female","5536","","","","","65","42","7","Stimuli/Experimental_stims/outdoor_scenes/petr-vysohlid-9fqwGqGLUxc-unsplash.jpg","","","","","","","","","","","","","","","","","","","","","","","","","","","","","","","","","","","","","","","","","","","","","","","","","",""
"","rating","","html-slider-response","48","302152","0.0-1.0-45.0","33","75229","female","3538","","","","","75","43","46","Stimuli/Experimental_stims/objects/mockup-graphics-PNsj6RiHAF4-unsplash.jpg","","","","","","","","","","","","","","","","","","","","","","","","","","","","","","","","","","","","","","","","","","","","","","","","","",""
"","rating","","html-slider-response","49","306834","0.0-1.0-46.0","33","75229","female","4671","","","","","73","44","38","Stimuli/Experimental_stims/objects/art-lasovsky-8XddFc6NkBY-unsplash.jpg","","","","","","","","","","","","","","","","","","","","","","","","","","","","","","","","","","","","","","","","","","","","","","","","","",""
"","rating","","html-slider-response","50","310995","0.0-1.0-47.0","33","75229","female","4150","","","","","80","45","8","Stimuli/Experimental_stims/outdoor_scenes/samsommer-vddccTqwal8-unsplash.jpg","","","","","","","","","","","","","","","","","","","","","","","","","","","","","","","","","","","","","","","","","","","","","","","","","",""
"","rating","","html-slider-response","51","314925","0.0-1.0-48.0","33","75229","female","3909","","","","","86","46","10","Stimuli/Experimental_stims/outdoor_scenes/shannon-kunkle-dM8INmkyDas-unsplash.jpg","","","","","","","","","","","","","","","","","","","","","","","","","","","","","","","","","","","","","","","","","","","","","","","","","",""
"","rating","","html-slider-response","52","319271","0.0-1.0-49.0","33","75229","female","4335","","","","","57","47","39","Stimuli/Experimental_stims/objects/charlesdeluvio-1-nx1QR5dTE-unsplash.jpg","","","","","","","","","","","","","","","","","","","","","","","","","","","","","","","","","","","","","","","","","","","","","","","","","",""
"","localizer_instructions","","instructions","53","418912","0.0-2.0-0.0-0.0","33","75229","female","99559","","[{""page_index"":0,""viewing_time"":43979},{""page_index"":1,""viewing_time"":53235},{""page_index"":2,""viewing_time"":2344}]","","","","","","","","","","","","","","","","","","","","","","","","","","","","","","","","","","","","","","","","","","","","","","","","","","","","","","","",""
"","localizer_comprehension_check","","survey-multi-choice","54","439258","0.0-2.0-0.0-1.0","33","75229","female","20326","{""Q0"":""True"",""Q1"":""K"",""Q2"":""D""}","","0","","","","","","","","","","","","","","","","","","","","","","","","","","","","","","","","","","","","","","","","","","","","","","","","","","","","","","",""
"","","","html-keyboard-response","55","445539","0.0-2.0-1.0","33","75229","female","6266","","","","68","","","","","","","","","","","","","","","","","","","","","","","","","","","","","","","","","","","","","","","","","","","","","","","","","","","","","",""
"","localizer","","html-keyboard-response","56","445953","0.0-2.0-2.0-0.0","33","75229","female","NaN","","","","null","NaN","0","","Stimuli/Practice_stims/Localizer/annie-spratt-g9KFpAfQ5bc-unsplash.jpg","445539","0","NaN","","0","1","0","400","0","414","0","","","","","","","","","","","","","","","","","","","","","","","","","","","","","","","","","","","","","","",""
"","iti_localizer","","html-keyboard-response","57","446268","0.0-2.0-2.0-1.0","33","75229","female","null","","","","null","","0","","","445953","0","","","","","","300","400","315","414","300","","","","","","","","","","","","","","","","","","","","","","","","","","","","","","","","","","","","","",""
"","localizer","","html-keyboard-response","58","446681","0.0-2.0-2.1-0.1","33","75229","female","NaN","","","","null","NaN","0","","Stimuli/Practice_stims/Localizer/annie-spratt-g9KFpAfQ5bc-unsplash.jpg","446268","0","NaN","","0","1","0","400","700","413","729","","","","","","","","","","","","","","","","","","","","","","","","","","","","","","","","","","","","","","",""
"","iti_localizer","","html-keyboard-response","59","447002","0.0-2.0-2.1-1.1","33","75229","female","null","","","","null","","0","","","446681","0","","","","","","300","1100","321","1142","300","","","","","","","","","","","","","","","","","","","","","","","","","","","","","","","","","","","","","",""
"","localizer","","html-keyboard-response","60","447417","0.0-2.0-2.2-0.2","33","75229","female","NaN","","","","null","NaN","0","","Stimuli/Practice_stims/Localizer/annie-spratt-g9KFpAfQ5bc-unsplash.jpg","447002","0","NaN","","0","1","0","400","1400","415","1463","","","","","","","","","","","","","","","","","","","","","","","","","","","","","","","","","","","","","","",""
"","iti_localizer","","html-keyboard-response","61","447727","0.0-2.0-2.2-1.2","33","75229","female","null","","","","null","","0","","","447417","0","","","","","","300","1800","310","1878","300","","","","","","","","","","","","","","","","","","","","","","","","","","","","","","","","","","","","","",""
"","localizer","","html-keyboard-response","62","448135","0.0-2.0-2.3-0.3","33","75229","female","NaN","","","","null","NaN","0","","Stimuli/Practice_stims/Localizer/annie-spratt-g9KFpAfQ5bc-unsplash.jpg","447727","0","NaN","","0","1","0","400","2100","408","2188","","","","","","","","","","","","","","","","","","","","","","","","","","","","","","","","","","","","","","",""
"","iti_localizer","","html-keyboard-response","63","448447","0.0-2.0-2.3-1.3","33","75229","female","null","","","","null","","0","","","448135","0","","","","","","300","2500","312","2596","300","","","","","","","","","","","","","","","","","","","","","","","","","","","","","","","","","","","","","",""
"","localizer","","html-keyboard-response","64","448864","0.0-2.0-2.4-0.4","33","75229","female","NaN","","","","null","NaN","0","","Stimuli/Practice_stims/Localizer/annie-spratt-g9KFpAfQ5bc-unsplash.jpg","448447","0","NaN","","0","1","0","400","2800","417","2908","","","","","","","","","","","","","","","","","","","","","","","","","","","","","","","","","","","","","","",""
"","iti_localizer","","html-keyboard-response","65","449172","0.0-2.0-2.4-1.4","33","75229","female","null","","","","null","","0","","","448864","0","","","","","","300","3200","308","3325","300","","","","","","","","","","","","","","","","","","","","","","","","","","","","","","","","","","","","","",""
"","localizer","","html-keyboard-response","66","449585","0.0-2.0-2.5-0.5","33","75229","female","NaN","","","","null","NaN","0","","Stimuli/Practice_stims/Localizer/annie-spratt-g9KFpAfQ5bc-unsplash.jpg","449172","0","NaN","","0","1","0","400","3500","413","3633","","","","","","","","","","","","","","","","","","","","","","","","","","","","","","","","","","","","","","",""
"","iti_localizer","","html-keyboard-response","67","449900","0.0-2.0-2.5-1.5","33","75229","female","null","","","","null","","0","","","449585","0","","","","","","300","3900","315","4046","300","","","","","","","","","","","","","","","","","","","","","","","","","","","","","","","","","","","","","",""
"","localizer","","html-keyboard-response","68","450316","0.0-2.0-2.6-0.6","33","75229","female","219","","","","68","0","0","","Stimuli/Practice_stims/Localizer/annie-spratt-g9KFpAfQ5bc-unsplash.jpg","449900","0","NaN","","0","0","1","400","4200","416","4361","","","","","","","","","","","","","","","","","","","","","","","","","","","","","","","","","","","","","","",""
"","iti_localizer","","html-keyboard-response","69","450640","0.0-2.0-2.6-1.6","33","75229","female","null","","","","null","","0","","","450316","0","","","","","","300","4600","324","4777","300","","","","","","","","","","","","","","","","","","","","","","","","","","","","","","","","","","","","","",""
"","localizer","","html-keyboard-response","70","451051","0.0-2.0-3.0-0.0","33","75229","female","379","","","","68","0","1","","Stimuli/Practice_stims/Localizer/becca-tapert-sY5RjMB1KkE-unsplash.jpg","450640","0","NaN","","0","0","1","400","4900","411","5101","","","","","","","","","","","","","","","","","","","","","","","","","","","","","","","","","","","","","","",""
"","iti_localizer","","html-keyboard-response","71","451363","0.0-2.0-3.0-1.0","33","75229","female","null","","","","null","","1","","","451051","0","","","","","","300","5300","312","5512","300","","","","","","","","","","","","","","","","","","","","","","","","","","","","","","","","","","","","","",""
"","localizer","","html-keyboard-response","72","451778","0.0-2.0-4.0-0.0","33","75229","female","NaN","","","","null","NaN","2","","Stimuli/Practice_stims/Localizer/charl-durand-bsfXvI25iNg-unsplash.jpg","451363","0","NaN","","1","1","0","400","5600","415","5824","","","","","","","","","","","","","","","","","","","","","","","","","","","","","","","","","","","","","","",""
"","iti_localizer","","html-keyboard-response","73","452098","0.0-2.0-4.0-1.0","33","75229","female","null","","","","null","","2","","","451778","0","","","","","","300","6000","320","6239","300","","","","","","","","","","","","","","","","","","","","","","","","","","","","","","","","","","","","","",""
"","localizer","","html-keyboard-response","74","452523","0.0-2.0-4.1-0.1","33","75229","female","NaN","","","","null","NaN","2","","Stimuli/Practice_stims/Localizer/charl-durand-bsfXvI25iNg-unsplash.jpg","452098","0","NaN","","1","1","0","400","6300","425","6559","","","","","","","","","","","","","","","","","","","","","","","","","","","","","","","","","","","","","","",""
"","iti_localizer","","html-keyboard-response","75","452896","0.0-2.0-4.1-1.1","33","75229","female","null","","","","null","","2","","","452523","0","","","","","","300","6700","373","6984","300","","","","","","","","","","","","","","","","","","","","","","","","","","","","","","","","","","","","","",""
"","localizer","","html-keyboard-response","76","453314","0.0-2.0-4.2-0.2","33","75229","female","NaN","","","","null","NaN","2","","Stimuli/Practice_stims/Localizer/charl-durand-bsfXvI25iNg-unsplash.jpg","452896","0","NaN","","1","1","0","400","7000","418","7357","","","","","","","","","","","","","","","","","","","","","","","","","","","","","","","","","","","","","","",""
"","iti_localizer","","html-keyboard-response","77","453623","0.0-2.0-4.2-1.2","33","75229","female","null","","","","null","","2","","","453314","0","","","","","","300","7400","309","7775","300","","","","","","","","","","","","","","","","","","","","","","","","","","","","","","","","","","","","","",""
"","localizer","","html-keyboard-response","78","454047","0.0-2.0-4.3-0.3","33","75229","female","NaN","","","","null","NaN","2","","Stimuli/Practice_stims/Localizer/charl-durand-bsfXvI25iNg-unsplash.jpg","453623","0","NaN","","1","1","0","400","7700","424","8084","","","","","","","","","","","","","","","","","","","","","","","","","","","","","","","","","","","","","","",""
"","iti_localizer","","html-keyboard-response","79","454364","0.0-2.0-4.3-1.3","33","75229","female","null","","","","null","","2","","","454047","0","","","","","","300","8100","317","8508","300","","","","","","","","","","","","","","","","","","","","","","","","","","","","","","","","","","","","","",""
"","localizer","","html-keyboard-response","80","454775","0.0-2.0-4.4-0.4","33","75229","female","NaN","","","","null","NaN","2","","Stimuli/Practice_stims/Localizer/charl-durand-bsfXvI25iNg-unsplash.jpg","454364","0","NaN","","1","1","0","400","8400","411","8825","","","","","","","","","","","","","","","","","","","","","","","","","","","","","","","","","","","","","","",""
"","iti_localizer","","html-keyboard-response","81","455084","0.0-2.0-4.4-1.4","33","75229","female","null","","","","null","","2","","","454775","0","","","","","","300","8800","309","9236","300","","","","","","","","","","","","","","","","","","","","","","","","","","","","","","","","","","","","","",""
"","localizer","","html-keyboard-response","82","455492","0.0-2.0-4.5-0.5","33","75229","female","63","","","","75","1","2","","Stimuli/Practice_stims/Localizer/charl-durand-bsfXvI25iNg-unsplash.jpg","455084","0","NaN","","1","0","1","400","9100","408","9545","","","","","","","","","","","","","","","","","","","","","","","","","","","","","","","","","","","","","","",""
"","iti_localizer","","html-keyboard-response","83","455802","0.0-2.0-4.5-1.5","33","75229","female","null","","","","null","","2","","","455492","0","","","","","","300","9500","310","9953","300","","","","","","","","","","","","","","","","","","","","","","","","","","","","","","","","","","","","","",""
"","localizer","","html-keyboard-response","84","456222","0.0-2.0-5.0-0.0","33","75229","female","134","","","","75","1","3","","Stimuli/Practice_stims/Localizer/nizar-albusaidy-B2r2SWAf5CE-unsplash.jpg","455802","0","NaN","","0","0","0","400","9800","420","10263","","","","","","","","","","","","","","","","","","","","","","","","","","","","","","","","","","","","","","",""
"","iti_localizer","","html-keyboard-response","85","456529","0.0-2.0-5.0-1.0","33","75229","female","null","","","","null","","3","","","456222","0","","","","","","300","10200","307","10683","300","","","","","","","","","","","","","","","","","","","","","","","","","","","","","","","","","","","","","",""
"","localizer","","html-keyboard-response","86","456941","0.0-2.0-6.0-0.0","33","75229","female","NaN","","","","null","NaN","4","","Stimuli/Practice_stims/Localizer/randy-fath-epf1tdtIIkM-unsplash.jpg","456529","0","NaN","","1","1","0","400","10500","412","10990","","","","","","","","","","","","","","","","","","","","","","","","","","","","","","","","","","","","","","",""
"","iti_localizer","","html-keyboard-response","87","457254","0.0-2.0-6.0-1.0","33","75229","female","null","","","","null","","4","","","456941","0","","","","","","300","10900","313","11402","300","","","","","","","","","","","","","","","","","","","","","","","","","","","","","","","","","","","","","",""
"","localizer","","html-keyboard-response","88","457666","0.0-2.0-6.1-0.1","33","75229","female","NaN","","","","null","NaN","4","","Stimuli/Practice_stims/Localizer/randy-fath-epf1tdtIIkM-unsplash.jpg","457254","0","NaN","","1","1","0","400","11200","412","11715","","","","","","","","","","","","","","","","","","","","","","","","","","","","","","","","","","","","","","",""
"","iti_localizer","","html-keyboard-response","89","457976","0.0-2.0-6.1-1.1","33","75229","female","null","","","","null","","4","","","457666","0","","","","","","300","11600","310","12127","300","","","","","","","","","","","","","","","","","","","","","","","","","","","","","","","","","","","","","",""
"","localizer","","html-keyboard-response","90","458387","0.0-2.0-6.2-0.2","33","75229","female","NaN","","","","null","NaN","4","","Stimuli/Practice_stims/Localizer/randy-fath-epf1tdtIIkM-unsplash.jpg","457976","0","NaN","","1","1","0","400","11900","411","12437","","","","","","","","","","","","","","","","","","","","","","","","","","","","","","","","","","","","","","",""
"","iti_localizer","","html-keyboard-response","91","458743","0.0-2.0-6.2-1.2","33","75229","female","null","","","","null","","4","","","458387","0","","","","","","300","12300","356","12848","300","","","","","","","","","","","","","","","","","","","","","","","","","","","","","","","","","","","","","",""
"","localizer","","html-keyboard-response","92","459163","0.0-2.0-6.3-0.3","33","75229","female","NaN","","","","null","NaN","4","","Stimuli/Practice_stims/Localizer/randy-fath-epf1tdtIIkM-unsplash.jpg","458743","0","NaN","","1","1","0","400","12600","420","13204","","","","","","","","","","","","","","","","","","","","","","","","","","","","","","","","","","","","","","",""
"","iti_localizer","","html-keyboard-response","93","459474","0.0-2.0-6.3-1.3","33","75229","female","null","","","","null","","4","","","459163","0","","","","","","300","13000","311","13624","300","","","","","","","","","","","","","","","","","","","","","","","","","","","","","","","","","","","","","",""
"","localizer","","html-keyboard-response","94","459882","0.0-2.0-6.4-0.4","33","75229","female","NaN","","","","null","NaN","4","","Stimuli/Practice_stims/Localizer/randy-fath-epf1tdtIIkM-unsplash.jpg","459474","0","NaN","","1","1","0","400","13300","408","13935","","","","","","","","","","","","","","","","","","","","","","","","","","","","","","","","","","","","","","",""
"","iti_localizer","","html-keyboard-response","95","460187","0.0-2.0-6.4-1.4","33","75229","female","null","","","","null","","4","","","459882","0","","","","","","300","13700","305","14343","300","","","","","","","","","","","","","","","","","","","","","","","","","","","","","","","","","","","","","",""
"","localizer","","html-keyboard-response","96","460599","0.0-2.0-6.5-0.5","33","75229","female","NaN","","","","null","NaN","4","","Stimuli/Practice_stims/Localizer/randy-fath-epf1tdtIIkM-unsplash.jpg","460187","0","NaN","","1","1","0","400","14000","412","14648","","","","","","","","","","","","","","","","","","","","","","","","","","","","","","","","","","","","","","",""
"","iti_localizer","","html-keyboard-response","97","460910","0.0-2.0-6.5-1.5","33","75229","female","null","","","","null","","4","","","460599","0","","","","","","300","14400","311","15060","300","","","","","","","","","","","","","","","","","","","","","","","","","","","","","","","","","","","","","",""
"","localizer","","html-keyboard-response","98","461339","0.0-2.0-6.6-0.6","33","75229","female","35","","","","75","1","4","","Stimuli/Practice_stims/Localizer/randy-fath-epf1tdtIIkM-unsplash.jpg","460910","0","NaN","","1","0","1","400","14700","429","15371","","","","","","","","","","","","","","","","","","","","","","","","","","","","","","","","","","","","","","",""
"","iti_localizer","","html-keyboard-response","99","461659","0.0-2.0-6.6-1.6","33","75229","female","null","","","","null","","4","","","461339","0","","","","","","300","15100","320","15800","300","","","","","","","","","","","","","","","","","","","","","","","","","","","","","","","","","","","","","",""
"","localizer","","html-keyboard-response","100","462070","0.0-2.0-7.0-0.0","33","75229","female","NaN","","","","null","NaN","5","","Stimuli/Practice_stims/Localizer/yassine-khalfalli-adsQ9d_Cx0c-unsplash.jpg","461659","0","NaN","","0","1","0","400","15400","411","16120","","","","","","","","","","","","","","","","","","","","","","","","","","","","","","","","","","","","","","",""
"","iti_localizer","","html-keyboard-response","101","462393","0.0-2.0-7.0-1.0","33","75229","female","null","","","","null","","5","","","462070","0","","","","","","300","15800","323","16531","300","","","","","","","","","","","","","","","","","","","","","","","","","","","","","","","","","","","","","",""
"","localizer","","html-keyboard-response","102","462820","0.0-2.0-7.1-0.1","33","75229","female","NaN","","","","null","NaN","5","","Stimuli/Practice_stims/Localizer/yassine-khalfalli-adsQ9d_Cx0c-unsplash.jpg","462393","0","NaN","","0","1","0","400","16100","427","16854","","","","","","","","","","","","","","","","","","","","","","","","","","","","","","","","","","","","","","",""
"","iti_localizer","","html-keyboard-response","103","463136","0.0-2.0-7.1-1.1","33","75229","female","null","","","","null","","5","","","462820","0","","","","","","300","16500","316","17281","300","","","","","","","","","","","","","","","","","","","","","","","","","","","","","","","","","","","","","",""
"","localizer","","html-keyboard-response","104","463550","0.0-2.0-7.2-0.2","33","75229","female","341","","","","68","0","5","","Stimuli/Practice_stims/Localizer/yassine-khalfalli-adsQ9d_Cx0c-unsplash.jpg","463136","0","NaN","","0","0","1","400","16800","414","17597","","","","","","","","","","","","","","","","","","","","","","","","","","","","","","","","","","","","","","",""
"","iti_localizer","","html-keyboard-response","105","463860","0.0-2.0-7.2-1.2","33","75229","female","null","","","","null","","5","","","463550","0","","","","","","300","17200","310","18011","300","","","","","","","","","","","","","","","","","","","","","","","","","","","","","","","","","","","","","",""
"","practice_over","","html-keyboard-response","106","467536","0.0-2.0-7.2-2.2-0.2","33","75229","female","3665","","","","68","","","","","","","","","","","","","","","","","","","","","","","","","","","","","","","","","","","","","","","","","","","","","","","","","","","","","",""
"","start_run","","html-keyboard-response","107","470330","0.0-2.0-7.2-2.2-1.2","33","75229","female","2783","","","","84","","","","","","","","","","","","","","","","","","","","","","","","","","","","","","","","","","","","","","","","","","","","","","","","","","","","","",""
"","localizer","","html-keyboard-response","108","470752","0.0-2.0-8.0-0.0","33","75229","female","NaN","","","","null","NaN","6","","Stimuli/Experimental_stims/localizer/body_parts/igordoon-primus-CdyHqfrbGIs-unsplash.jpg","470330","1","body_parts","","0","1","0","400","0","422","0","","","","","","","","","","","","","","","","","","","","","","","","","","","","","","","","","","","","","","",""
"","iti_localizer","","html-keyboard-response","109","471060","0.0-2.0-8.0-1.0","33","75229","female","null","","","","null","","6","","","470752","1","","","","","","300","400","308","422","300","","","","","","","","","","","","","","","","","","","","","","","","","","","","","","","","","","","","","",""
"","localizer","","html-keyboard-response","110","471478","0.0-2.0-9.0-0.0","33","75229","female","NaN","","","","null","NaN","7","","Stimuli/Experimental_stims/localizer/body_parts/jonathan-borba-hTwH8QFkPMs-unsplash.jpg","471060","1","body_parts","","0","1","0","400","700","418","730","","","","","","","","","","","","","","","","","","","","","","","","","","","","","","","","","","","","","","",""
"","iti_localizer","","html-keyboard-response","111","471783","0.0-2.0-9.0-1.0","33","75229","female","null","","","","null","","7","","","471478","1","","","","","","300","1100","305","1148","300","","","","","","","","","","","","","","","","","","","","","","","","","","","","","","","","","","","","","",""
"","localizer","","html-keyboard-response","112","472203","0.0-2.0-10.0-0.0","33","75229","female","140","","","","68","0","8","","Stimuli/Experimental_stims/localizer/body_parts/marcel-fagin-OUYg0Q3ec-Y-unsplash.jpg","471783","1","body_parts","","1","0","0","400","1400","420","1453","","","","","","","","","","","","","","","","","","","","","","","","","","","","","","","","","","","","","","",""
"","iti_localizer","","html-keyboard-response","113","472514","0.0-2.0-10.0-1.0","33","75229","female","null","","","","null","","8","","","472203","1","","","","","","300","1800","311","1873","300","","","","","","","","","","","","","","","","","","","","","","","","","","","","","","","","","","","","","",""
"","localizer","","html-keyboard-response","114","472933","0.0-2.0-11.0-0.0","33","75229","female","251","","","","75","1","9","","Stimuli/Experimental_stims/localizer/body_parts/anelya-okapova-V69kmOyZ3SU-unsplash.jpg","472514","1","body_parts","","0","0","0","400","2100","419","2184","","","","","","","","","","","","","","","","","","","","","","","","","","","","","","","","","","","","","","",""
"","iti_localizer","","html-keyboard-response","115","473248","0.0-2.0-11.0-1.0","33","75229","female","null","","","","null","","9","","","472933","1","","","","","","300","2500","315","2603","300","","","","","","","","","","","","","","","","","","","","","","","","","","","","","","","","","","","","","",""
"","localizer","","html-keyboard-response","116","473665","0.0-2.0-12.0-0.0","33","75229","female","NaN","","","","null","NaN","10","","Stimuli/Experimental_stims/localizer/body_parts/jan-romero-DL4DDQb8yjc-unsplash.jpg","473248","1","body_parts","","0","1","0","400","2800","417","2918","","","","","","","","","","","","","","","","","","","","","","","","","","","","","","","","","","","","","","",""
"","iti_localizer","","html-keyboard-response","117","473991","0.0-2.0-12.0-1.0","33","75229","female","null","","","","null","","10","","","473665","1","","","","","","300","3200","326","3335","300","","","","","","","","","","","","","","","","","","","","","","","","","","","","","","","","","","","","","",""
"","localizer","","html-keyboard-response","118","474408","0.0-2.0-13.0-0.0","33","75229","female","NaN","","","","null","NaN","11","","Stimuli/Experimental_stims/localizer/body_parts/pure-julia-9lVaya31sMk-unsplash.jpg","473991","1","body_parts","","0","1","0","400","3500","417","3661","","","","","","","","","","","","","","","","","","","","","","","","","","","","","","","","","","","","","","",""
"","iti_localizer","","html-keyboard-response","119","474759","0.0-2.0-13.0-1.0","33","75229","female","null","","","","null","","11","","","474408","1","","","","","","300","3900","351","4078","300","","","","","","","","","","","","","","","","","","","","","","","","","","","","","","","","","","","","","",""
"","localizer","","html-keyboard-response","120","475168","0.0-2.0-14.0-0.0","33","75229","female","381","","","","68","0","12","","Stimuli/Experimental_stims/localizer/body_parts/jasper-garratt-Ng_Kl7K6V8Y-unsplash.jpg","474759","1","body_parts","","0","0","1","400","4200","409","4429","","","","","","","","","","","","","","","","","","","","","","","","","","","","","","","","","","","","","","",""
"","iti_localizer","","html-keyboard-response","121","475479","0.0-2.0-14.0-1.0","33","75229","female","null","","","","null","","12","","","475168","1","","","","","","300","4600","311","4838","300","","","","","","","","","","","","","","","","","","","","","","","","","","","","","","","","","","","","","",""
"","localizer","","html-keyboard-response","122","475892","0.0-2.0-15.0-0.0","33","75229","female","NaN","","","","null","NaN","13","","Stimuli/Experimental_stims/localizer/body_parts/i-am_nah--S4OsO0c6Ts-unsplash.jpg","475479","1","body_parts","","0","1","0","400","4900","413","5149","","","","","","","","","","","","","","","","","","","","","","","","","","","","","","","","","","","","","","",""
"","iti_localizer","","html-keyboard-response","123","476207","0.0-2.0-15.0-1.0","33","75229","female","null","","","","null","","13","","","475892","1","","","","","","300","5300","315","5562","300","","","","","","","","","","","","","","","","","","","","","","","","","","","","","","","","","","","","","",""
"","localizer","","html-keyboard-response","124","476674","0.0-2.0-16.0-0.0","33","75229","female","NaN","","","","null","NaN","14","","Stimuli/Experimental_stims/localizer/body_parts/femme-spirit-RGYBDUHYbyM-unsplash.jpg","476207","1","body_parts","","0","1","0","400","5600","467","5877","","","","","","","","","","","","","","","","","","","","","","","","","","","","","","","","","","","","","","",""
"","iti_localizer","","html-keyboard-response","125","476992","0.0-2.0-16.0-1.0","33","75229","female","null","","","","null","","14","","","476674","1","","","","","","300","6000","318","6344","300","","","","","","","","","","","","","","","","","","","","","","","","","","","","","","","","","","","","","",""
"","localizer","","html-keyboard-response","126","477410","0.0-2.0-17.0-0.0","33","75229","female","273","","","","68","0","15","","Stimuli/Experimental_stims/localizer/body_parts/liv-bruce-M0oVPGsWk1E-unsplash.jpg","476992","1","body_parts","","0","0","1","400","6300","418","6662","","","","","","","","","","","","","","","","","","","","","","","","","","","","","","","","","","","","","","",""
"","iti_localizer","","html-keyboard-response","127","477729","0.0-2.0-17.0-1.0","33","75229","female","null","","","","null","","15","","","477410","1","","","","","","300","6700","319","7080","300","","","","","","","","","","","","","","","","","","","","","","","","","","","","","","","","","","","","","",""
"","localizer","","html-keyboard-response","128","478138","0.0-2.0-18.0-0.0","33","75229","female","328","","","","68","0","16","","Stimuli/Experimental_stims/localizer/body_parts/bady-abbas-N-VEeMnm7gE-unsplash.jpg","477729","1","body_parts","","0","0","1","400","7000","409","7399","","","","","","","","","","","","","","","","","","","","","","","","","","","","","","","","","","","","","","",""
"","iti_localizer","","html-keyboard-response","129","478450","0.0-2.0-18.0-1.0","33","75229","female","null","","","","null","","16","","","478138","1","","","","","","300","7400","312","7808","300","","","","","","","","","","","","","","","","","","","","","","","","","","","","","","","","","","","","","",""
"","localizer","","html-keyboard-response","130","478862","0.0-2.0-19.0-0.0","33","75229","female","NaN","","","","null","NaN","17","","Stimuli/Experimental_stims/localizer/body_parts/lucaxx-freire-CacZwMexYdk-unsplash.jpg","478450","1","body_parts","","0","1","0","400","7700","412","8120","","","","","","","","","","","","","","","","","","","","","","","","","","","","","","","","","","","","","","",""
"","iti_localizer","","html-keyboard-response","131","479181","0.0-2.0-19.0-1.0","33","75229","female","null","","","","null","","17","","","478862","1","","","","","","300","8100","319","8532","300","","","","","","","","","","","","","","","","","","","","","","","","","","","","","","","","","","","","","",""
"","localizer","","html-keyboard-response","132","479593","0.0-2.0-20.0-0.0","33","75229","female","352","","","","68","0","18","","Stimuli/Experimental_stims/localizer/body_parts/hu-chen-tCbTGNwrFNM-unsplash.jpg","479181","1","body_parts","","0","0","1","400","8400","412","8851","","","","","","","","","","","","","","","","","","","","","","","","","","","","","","","","","","","","","","",""
"","iti_localizer","","html-keyboard-response","133","479908","0.0-2.0-20.0-1.0","33","75229","female","null","","","","null","","18","","","479593","1","","","","","","300","8800","315","9263","300","","","","","","","","","","","","","","","","","","","","","","","","","","","","","","","","","","","","","",""
"","localizer","","html-keyboard-response","134","480318","0.0-2.0-21.0-0.0","33","75229","female","208","","","","68","0","19","","Stimuli/Experimental_stims/localizer/body_parts/megan-menegay-UojxG_BJxnI-unsplash.jpg","479908","1","body_parts","","0","0","1","400","9100","410","9578","","","","","","","","","","","","","","","","","","","","","","","","","","","","","","","","","","","","","","",""
"","iti_localizer","","html-keyboard-response","135","480642","0.0-2.0-21.0-1.0","33","75229","female","null","","","","null","","19","","","480318","1","","","","","","300","9500","324","9988","300","","","","","","","","","","","","","","","","","","","","","","","","","","","","","","","","","","","","","",""
"","localizer","","html-keyboard-response","136","481059","0.0-2.0-22.0-0.0","33","75229","female","282","","","","68","0","20","","Stimuli/Experimental_stims/localizer/body_parts/toan-nguyen-VIeLuUFzesg-unsplash.jpg","480642","1","body_parts","","1","0","0","400","9800","417","10312","","","","","","","","","","","","","","","","","","","","","","","","","","","","","","","","","","","","","","",""
"","iti_localizer","","html-keyboard-response","137","481365","0.0-2.0-22.0-1.0","33","75229","female","null","","","","null","","20","","","481059","1","","","","","","300","10200","306","10729","300","","","","","","","","","","","","","","","","","","","","","","","","","","","","","","","","","","","","","",""
"","localizer","","html-keyboard-response","138","481786","0.0-2.0-23.0-0.0","33","75229","female","82","","","","75","1","21","","Stimuli/Experimental_stims/localizer/body_parts/sippakorn-yamkasikorn-32_sJlJa5gA-unsplash.jpg","481365","1","body_parts","","0","0","0","400","10500","421","11035","","","","","","","","","","","","","","","","","","","","","","","","","","","","","","","","","","","","","","",""
"","iti_localizer","","html-keyboard-response","139","482100","0.0-2.0-23.0-1.0","33","75229","female","null","","","","null","","21","","","481786","1","","","","","","300","10900","314","11456","300","","","","","","","","","","","","","","","","","","","","","","","","","","","","","","","","","","","","","",""
"","localizer","","html-keyboard-response","140","482520","0.0-2.0-24.0-0.0","33","75229","female","133","","","","68","0","22","","Stimuli/Experimental_stims/localizer/body_parts/louis-hansel-FjKTMRTQYAs-unsplash.jpg","482100","1","body_parts","","0","0","1","400","11200","420","11770","","","","","","","","","","","","","","","","","","","","","","","","","","","","","","","","","","","","","","",""
"","iti_localizer","","html-keyboard-response","141","482836","0.0-2.0-24.0-1.0","33","75229","female","null","","","","null","","22","","","482520","1","","","","","","300","11600","316","12190","300","","","","","","","","","","","","","","","","","","","","","","","","","","","","","","","","","","","","","",""
"","localizer","","html-keyboard-response","142","483251","0.0-2.0-25.0-0.0","33","75229","female","NaN","","","","null","NaN","23","","Stimuli/Experimental_stims/localizer/body_parts/sydney-herron-b2W04fGuS70-unsplash.jpg","482836","1","body_parts","","0","1","0","400","11900","415","12506","","","","","","","","","","","","","","","","","","","","","","","","","","","","","","","","","","","","","","",""
"","iti_localizer","","html-keyboard-response","143","483574","0.0-2.0-25.0-1.0","33","75229","female","null","","","","null","","23","","","483251","1","","","","","","300","12300","323","12921","300","","","","","","","","","","","","","","","","","","","","","","","","","","","","","","","","","","","","","",""
"","localizer","","html-keyboard-response","144","483982","0.0-2.0-26.0-0.0","33","75229","female","NaN","","","","null","NaN","24","","Stimuli/Experimental_stims/localizer/body_parts/danie-franco-jyyNiSEcCl4-unsplash.jpg","483574","1","body_parts","","0","1","0","400","12600","408","13244","","","","","","","","","","","","","","","","","","","","","","","","","","","","","","","","","","","","","","",""
"","iti_localizer","","html-keyboard-response","145","484298","0.0-2.0-26.0-1.0","33","75229","female","null","","","","null","","24","","","483982","1","","","","","","300","13000","316","13652","300","","","","","","","","","","","","","","","","","","","","","","","","","","","","","","","","","","","","","",""
"","localizer","","html-keyboard-response","146","484759","0.0-2.0-27.0-0.0","33","75229","female","30","","","","68","0","25","","Stimuli/Experimental_stims/localizer/body_parts/ramesh-iyer-CRhznMXoJlc-unsplash.jpg","484298","1","body_parts","","0","0","1","400","13300","461","13968","","","","","","","","","","","","","","","","","","","","","","","","","","","","","","","","","","","","","","",""
"","iti_localizer","","html-keyboard-response","147","498781","0.0-2.0-27.0-1.0","33","75229","female","null","","","","null","","25","","","484759","1","","","","","","14000","13700","14022","14429","14000","","","","","","","","","","","","","","","","","","","","","","","","","","","","","","","","","","","","","",""
"","localizer","","html-keyboard-response","148","499201","0.0-2.0-28.0-0.0","33","75229","female","NaN","","","","null","NaN","26","","Stimuli/Experimental_stims/localizer/objects/adriano-pucciarelli-BE7yaZnZX6o-unsplash.jpg","498781","1","objects","","0","1","0","400","27700","420","28451","","","","","","","","","","","","","","","","","","","","","","","","","","","","","","","","","","","","","","",""
"","iti_localizer","","html-keyboard-response","149","499522","0.0-2.0-28.0-1.0","33","75229","female","null","","","","null","","26","","","499201","1","","","","","","300","28100","321","28871","300","","","","","","","","","","","","","","","","","","","","","","","","","","","","","","","","","","","","","",""
"","localizer","","html-keyboard-response","150","499941","0.0-2.0-29.0-0.0","33","75229","female","NaN","","","","null","NaN","27","","Stimuli/Experimental_stims/localizer/objects/petr-sidorov-3jm5TGqtULU-unsplash.jpg","499522","1","objects","","0","1","0","400","28400","419","29192","","","","","","","","","","","","","","","","","","","","","","","","","","","","","","","","","","","","","","",""
"","iti_localizer","","html-keyboard-response","151","500259","0.0-2.0-29.0-1.0","33","75229","female","null","","","","null","","27","","","499941","1","","","","","","300","28800","318","29611","300","","","","","","","","","","","","","","","","","","","","","","","","","","","","","","","","","","","","","",""
"","localizer","","html-keyboard-response","152","500734","0.0-2.0-30.0-0.0","33","75229","female","NaN","","","","null","NaN","28","","Stimuli/Experimental_stims/localizer/objects/carlos-felipe-ramirez-mesa-HW7bfB3ERSQ-unsplash.jpg","500259","1","objects","","0","1","0","400","29100","475","29929","","","","","","","","","","","","","","","","","","","","","","","","","","","","","","","","","","","","","","",""
"","iti_localizer","","html-keyboard-response","153","501045","0.0-2.0-30.0-1.0","33","75229","female","null","","","","null","","28","","","500734","1","","","","","","300","29500","311","30404","300","","","","","","","","","","","","","","","","","","","","","","","","","","","","","","","","","","","","","",""
"","localizer","","html-keyboard-response","154","501461","0.0-2.0-31.0-0.0","33","75229","female","NaN","","","","null","NaN","29","","Stimuli/Experimental_stims/localizer/objects/raimond-klavins-ZdvDPXVvcKs-unsplash.jpg","501045","1","objects","","1","1","0","400","29800","416","30715","","","","","","","","","","","","","","","","","","","","","","","","","","","","","","","","","","","","","","",""
"","iti_localizer","","html-keyboard-response","155","501774","0.0-2.0-31.0-1.0","33","75229","female","null","","","","null","","29","","","501461","1","","","","","","300","30200","313","31131","300","","","","","","","","","","","","","","","","","","","","","","","","","","","","","","","","","","","","","",""
"","localizer","","html-keyboard-response","156","502188","0.0-2.0-32.0-0.0","33","75229","female","NaN","","","","null","NaN","30","","Stimuli/Experimental_stims/localizer/objects/adriano-pucciarelli-Jl3S1yM8gi8-unsplash.jpg","501774","1","objects","","0","1","0","400","30500","414","31444","","","","","","","","","","","","","","","","","","","","","","","","","","","","","","","","","","","","","","",""
"","iti_localizer","","html-keyboard-response","157","502509","0.0-2.0-32.0-1.0","33","75229","female","null","","","","null","","30","","","502188","1","","","","","","300","30900","321","31858","300","","","","","","","","","","","","","","","","","","","","","","","","","","","","","","","","","","","","","",""
"","localizer","","html-keyboard-response","158","502925","0.0-2.0-33.0-0.0","33","75229","female","NaN","","","","null","NaN","31","","Stimuli/Experimental_stims/localizer/objects/engin-akyurt-bbbKzTmY2Gg-unsplash.jpg","502509","1","objects","","0","1","0","400","31200","416","32179","","","","","","","","","","","","","","","","","","","","","","","","","","","","","","","","","","","","","","",""
"","iti_localizer","","html-keyboard-response","159","503246","0.0-2.0-33.0-1.0","33","75229","female","null","","","","null","","31","","","502925","1","","","","","","300","31600","321","32595","300","","","","","","","","","","","","","","","","","","","","","","","","","","","","","","","","","","","","","",""
"","localizer","","html-keyboard-response","160","503657","0.0-2.0-34.0-0.0","33","75229","female","NaN","","","","null","NaN","32","","Stimuli/Experimental_stims/localizer/objects/sam-moghadam-khamseh-kvmdsTrGOBM-unsplash.jpg","503246","1","objects","","0","1","0","400","31900","411","32916","","","","","","","","","","","","","","","","","","","","","","","","","","","","","","","","","","","","","","",""
"","iti_localizer","","html-keyboard-response","161","503973","0.0-2.0-34.0-1.0","33","75229","female","null","","","","null","","32","","","503657","1","","","","","","300","32300","316","33327","300","","","","","","","","","","","","","","","","","","","","","","","","","","","","","","","","","","","","","",""
"","localizer","","html-keyboard-response","162","504391","0.0-2.0-35.0-0.0","33","75229","female","NaN","","","","null","NaN","33","","Stimuli/Experimental_stims/localizer/objects/jiangxulei1990-eIzzzwtkBjU-unsplash.jpg","503973","1","objects","","0","1","0","400","32600","418","33643","","","","","","","","","","","","","","","","","","","","","","","","","","","","","","","","","","","","","","",""
"","iti_localizer","","html-keyboard-response","163","504709","0.0-2.0-35.0-1.0","33","75229","female","null","","","","null","","33","","","504391","1","","","","","","300","33000","318","34061","300","","","","","","","","","","","","","","","","","","","","","","","","","","","","","","","","","","","","","",""
"","localizer","","html-keyboard-response","164","505127","0.0-2.0-36.0-0.0","33","75229","female","115","","","","68","0","34","","Stimuli/Experimental_stims/localizer/objects/florian-klauer-nptLmg6jqDo-unsplash.jpg","504709","1","objects","","0","0","1","400","33300","418","34379","","","","","","","","","","","","","","","","","","","","","","","","","","","","","","","","","","","","","","",""
"","iti_localizer","","html-keyboard-response","165","505481","0.0-2.0-36.0-1.0","33","75229","female","null","","","","null","","34","","","505127","1","","","","","","300","33700","354","34797","300","","","","","","","","","","","","","","","","","","","","","","","","","","","","","","","","","","","","","",""
"","localizer","","html-keyboard-response","166","505890","0.0-2.0-37.0-0.0","33","75229","female","NaN","","","","null","NaN","35","","Stimuli/Experimental_stims/localizer/objects/ignat-dolomanov-kFBDVnmskPA-unsplash.jpg","505481","1","objects","","0","1","0","400","34000","409","35151","","","","","","","","","","","","","","","","","","","","","","","","","","","","","","","","","","","","","","",""
"","iti_localizer","","html-keyboard-response","167","506199","0.0-2.0-37.0-1.0","33","75229","female","null","","","","null","","35","","","505890","1","","","","","","300","34400","309","35560","300","","","","","","","","","","","","","","","","","","","","","","","","","","","","","","","","","","","","","",""
"","localizer","","html-keyboard-response","168","506616","0.0-2.0-38.0-0.0","33","75229","female","NaN","","","","null","NaN","36","","Stimuli/Experimental_stims/localizer/objects/andrew-petrov-TVJqDat4MAw-unsplash.jpg","506199","1","objects","","0","1","0","400","34700","417","35869","","","","","","","","","","","","","","","","","","","","","","","","","","","","","","","","","","","","","","",""
"","iti_localizer","","html-keyboard-response","169","506926","0.0-2.0-38.0-1.0","33","75229","female","null","","","","null","","36","","","506616","1","","","","","","300","35100","310","36286","300","","","","","","","","","","","","","","","","","","","","","","","","","","","","","","","","","","","","","",""
"","localizer","","html-keyboard-response","170","507345","0.0-2.0-39.0-0.0","33","75229","female","NaN","","","","null","NaN","37","","Stimuli/Experimental_stims/localizer/objects/sam-moghadam-khamseh-L_7MQsHl_aU-unsplash.jpg","506926","1","objects","","0","1","0","400","35400","419","36596","","","","","","","","","","","","","","","","","","","","","","","","","","","","","","","","","","","","","","",""
"","iti_localizer","","html-keyboard-response","171","507659","0.0-2.0-39.0-1.0","33","75229","female","null","","","","null","","37","","","507345","1","","","","","","300","35800","314","37015","300","","","","","","","","","","","","","","","","","","","","","","","","","","","","","","","","","","","","","",""
"","localizer","","html-keyboard-response","172","508072","0.0-2.0-40.0-0.0","33","75229","female","NaN","","","","null","NaN","38","","Stimuli/Experimental_stims/localizer/objects/ana-9GmAaEMMKho-unsplash.jpg","507659","1","objects","","0","1","0","400","36100","413","37329","","","","","","","","","","","","","","","","","","","","","","","","","","","","","","","","","","","","","","",""
"","iti_localizer","","html-keyboard-response","173","508386","0.0-2.0-40.0-1.0","33","75229","female","null","","","","null","","38","","","508072","1","","","","","","300","36500","314","37742","300","","","","","","","","","","","","","","","","","","","","","","","","","","","","","","","","","","","","","",""
"","localizer","","html-keyboard-response","174","508796","0.0-2.0-41.0-0.0","33","75229","female","329","","","","68","0","39","","Stimuli/Experimental_stims/localizer/objects/mockup-graphics-U6ZMEefFGx8-unsplash.jpg","508386","1","objects","","0","0","1","400","36800","410","38056","","","","","","","","","","","","","","","","","","","","","","","","","","","","","","","","","","","","","","",""
"","iti_localizer","","html-keyboard-response","175","509108","0.0-2.0-41.0-1.0","33","75229","female","null","","","","null","","39","","","508796","1","","","","","","300","37200","312","38466","300","","","","","","","","","","","","","","","","","","","","","","","","","","","","","","","","","","","","","",""
"","localizer","","html-keyboard-response","176","509530","0.0-2.0-42.0-0.0","33","75229","female","NaN","","","","null","NaN","40","","Stimuli/Experimental_stims/localizer/objects/kelly-jean-cKjbI0Y00X0-unsplash.jpg","509108","1","objects","","0","1","0","400","37500","422","38778","","","","","","","","","","","","","","","","","","","","","","","","","","","","","","","","","","","","","","",""
"","iti_localizer","","html-keyboard-response","177","509839","0.0-2.0-42.0-1.0","33","75229","female","null","","","","null","","40","","","509530","1","","","","","","300","37900","309","39200","300","","","","","","","","","","","","","","","","","","","","","","","","","","","","","","","","","","","","","",""
"","localizer","","html-keyboard-response","178","510262","0.0-2.0-43.0-0.0","33","75229","female","NaN","","","","null","NaN","41","","Stimuli/Experimental_stims/localizer/objects/eugene-chystiakov-3neSwyntbQ8-unsplash.jpg","509839","1","objects","","0","1","0","400","38200","423","39509","","","","","","","","","","","","","","","","","","","","","","","","","","","","","","","","","","","","","","",""
"","iti_localizer","","html-keyboard-response","179","510572","0.0-2.0-43.0-1.0","33","75229","female","null","","","","null","","41","","","510262","1","","","","","","300","38600","310","39932","300","","","","","","","","","","","","","","","","","","","","","","","","","","","","","","","","","","","","","",""
"","localizer","","html-keyboard-response","180","510983","0.0-2.0-44.0-0.0","33","75229","female","358","","","","68","0","42","","Stimuli/Experimental_stims/localizer/objects/lance-reis-v0FYj9iioQg-unsplash.jpg","510572","1","objects","","0","0","1","400","38900","411","40242","","","","","","","","","","","","","","","","","","","","","","","","","","","","","","","","","","","","","","",""
"","iti_localizer","","html-keyboard-response","181","511305","0.0-2.0-44.0-1.0","33","75229","female","null","","","","null","","42","","","510983","1","","","","","","300","39300","322","40653","300","","","","","","","","","","","","","","","","","","","","","","","","","","","","","","","","","","","","","",""
"","localizer","","html-keyboard-response","182","511715","0.0-2.0-45.0-0.0","33","75229","female","NaN","","","","null","NaN","43","","Stimuli/Experimental_stims/localizer/objects/annie-spratt-fbAnIjhrOL4-unsplash.jpg","511305","1","objects","","0","1","0","400","39600","410","40975","","","","","","","","","","","","","","","","","","","","","","","","","","","","","","","","","","","","","","",""
"","iti_localizer","","html-keyboard-response","183","512022","0.0-2.0-45.0-1.0","33","75229","female","null","","","","null","","43","","","511715","1","","","","","","300","40000","307","41385","300","","","","","","","","","","","","","","","","","","","","","","","","","","","","","","","","","","","","","",""
"","localizer","","html-keyboard-response","184","512433","0.0-2.0-46.0-0.0","33","75229","female","399","","","","68","0","44","","Stimuli/Experimental_stims/localizer/objects/mockup-graphics-Pj2PY-E-LfM-unsplash.jpg","512022","1","objects","","1","0","0","400","40300","411","41692","","","","","","","","","","","","","","","","","","","","","","","","","","","","","","","","","","","","","","",""
"","iti_localizer","","html-keyboard-response","185","512746","0.0-2.0-46.0-1.0","33","75229","female","null","","","","null","","44","","","512433","1","","","","","","300","40700","313","42103","300","","","","","","","","","","","","","","","","","","","","","","","","","","","","","","","","","","","","","",""
"","localizer","","html-keyboard-response","186","513162","0.0-2.0-47.0-0.0","33","75229","female","NaN","","","","null","NaN","45","","Stimuli/Experimental_stims/localizer/objects/dario-mendez-hnJ2VNZzbns-unsplash.jpg","512746","1","objects","","0","1","0","400","41000","416","42416","","","","","","","","","","","","","","","","","","","","","","","","","","","","","","","","","","","","","","",""
"","iti_localizer","","html-keyboard-response","187","527218","0.0-2.0-47.0-1.0","33","75229","female","null","","","","null","","45","","","513162","1","","","","","","14000","41400","14056","42832","14000","","","","","","","","","","","","","","","","","","","","","","","","","","","","","","","","","","","","","",""
"","localizer","","html-keyboard-response","188","527640","0.0-2.0-48.0-0.0","33","75229","female","NaN","","","","null","NaN","46","","Stimuli/Experimental_stims/localizer/faces/christian-ferrer-8vT-DgHZDG4-unsplash.jpg","527218","1","faces","","1","1","0","400","55400","422","56888","","","","","","","","","","","","","","","","","","","","","","","","","","","","","","","","","","","","","","",""
"","iti_localizer","","html-keyboard-response","189","527957","0.0-2.0-48.0-1.0","33","75229","female","null","","","","null","","46","","","527640","1","","","","","","300","55800","317","57310","300","","","","","","","","","","","","","","","","","","","","","","","","","","","","","","","","","","","","","",""
"","localizer","","html-keyboard-response","190","528369","0.0-2.0-49.0-0.0","33","75229","female","80","","","","75","1","47","","Stimuli/Experimental_stims/localizer/faces/mathias-huysmans-U4JDjYmjn1g-unsplash.jpg","527957","1","faces","","0","0","0","400","56100","412","57627","","","","","","","","","","","","","","","","","","","","","","","","","","","","","","","","","","","","","","",""
"","iti_localizer","","html-keyboard-response","191","528700","0.0-2.0-49.0-1.0","33","75229","female","null","","","","null","","47","","","528369","1","","","","","","300","56500","331","58039","300","","","","","","","","","","","","","","","","","","","","","","","","","","","","","","","","","","","","","",""
"","localizer","","html-keyboard-response","192","529114","0.0-2.0-50.0-0.0","33","75229","female","NaN","","","","null","NaN","48","","Stimuli/Experimental_stims/localizer/faces/filipe-almeida-mnEWC72eWDM-unsplash.jpg","528700","1","faces","","0","1","0","400","56800","414","58370","","","","","","","","","","","","","","","","","","","","","","","","","","","","","","","","","","","","","","",""
"","iti_localizer","","html-keyboard-response","193","529429","0.0-2.0-50.0-1.0","33","75229","female","null","","","","null","","48","","","529114","1","","","","","","300","57200","315","58784","300","","","","","","","","","","","","","","","","","","","","","","","","","","","","","","","","","","","","","",""
"","localizer","","html-keyboard-response","194","529840","0.0-2.0-51.0-0.0","33","75229","female","401","","","","68","0","49","","Stimuli/Experimental_stims/localizer/faces/midas-hofstra-tidSLv-UaNs-unsplash.jpg","529429","1","faces","","0","0","1","400","57500","411","59099","","","","","","","","","","","","","","","","","","","","","","","","","","","","","","","","","","","","","","",""
"","iti_localizer","","html-keyboard-response","195","530148","0.0-2.0-51.0-1.0","33","75229","female","null","","","","null","","49","","","529840","1","","","","","","300","57900","308","59510","300","","","","","","","","","","","","","","","","","","","","","","","","","","","","","","","","","","","","","",""
"","localizer","","html-keyboard-response","196","530568","0.0-2.0-52.0-0.0","33","75229","female","NaN","","","","null","NaN","50","","Stimuli/Experimental_stims/localizer/faces/darshan-patel-QJEVpydulGs-unsplash.jpg","530148","1","faces","","0","1","0","400","58200","420","59818","","","","","","","","","","","","","","","","","","","","","","","","","","","","","","","","","","","","","","",""
"","iti_localizer","","html-keyboard-response","197","530876","0.0-2.0-52.0-1.0","33","75229","female","null","","","","null","","50","","","530568","1","","","","","","300","58600","308","60238","300","","","","","","","","","","","","","","","","","","","","","","","","","","","","","","","","","","","","","",""
"","localizer","","html-keyboard-response","198","531295","0.0-2.0-53.0-0.0","33","75229","female","283","","","","68","0","51","","Stimuli/Experimental_stims/localizer/faces/ivan-dodig-R21SyyJDFgc-unsplash.jpg","530876","1","faces","","0","0","1","400","58900","419","60546","","","","","","","","","","","","","","","","","","","","","","","","","","","","","","","","","","","","","","",""
"","iti_localizer","","html-keyboard-response","199","531607","0.0-2.0-53.0-1.0","33","75229","female","null","","","","null","","51","","","531295","1","","","","","","300","59300","312","60965","300","","","","","","","","","","","","","","","","","","","","","","","","","","","","","","","","","","","","","",""
"","localizer","","html-keyboard-response","200","532029","0.0-2.0-54.0-0.0","33","75229","female","NaN","","","","null","NaN","52","","Stimuli/Experimental_stims/localizer/faces/austin-wade-X6Uj51n5CE8-unsplash.jpg","531607","1","faces","","0","1","0","400","59600","422","61277","","","","","","","","","","","","","","","","","","","","","","","","","","","","","","","","","","","","","","",""
"","iti_localizer","","html-keyboard-response","201","532339","0.0-2.0-54.0-1.0","33","75229","female","null","","","","null","","52","","","532029","1","","","","","","300","60000","310","61699","300","","","","","","","","","","","","","","","","","","","","","","","","","","","","","","","","","","","","","",""
"","localizer","","html-keyboard-response","202","532750","0.0-2.0-55.0-0.0","33","75229","female","177","","","","68","0","53","","Stimuli/Experimental_stims/localizer/faces/linkedin-sales-solutions-pAtA8xe_iVM-unsplash.jpg","532339","1","faces","","0","0","1","400","60300","411","62009","","","","","","","","","","","","","","","","","","","","","","","","","","","","","","","","","","","","","","",""
"","iti_localizer","","html-keyboard-response","203","533062","0.0-2.0-55.0-1.0","33","75229","female","null","","","","null","","53","","","532750","1","","","","","","300","60700","312","62420","300","","","","","","","","","","","","","","","","","","","","","","","","","","","","","","","","","","","","","",""
"","localizer","","html-keyboard-response","204","533486","0.0-2.0-56.0-0.0","33","75229","female","343","","","","68","0","54","","Stimuli/Experimental_stims/localizer/faces/pavel-anoshin-d0peGya6R5Y-unsplash.jpg","533062","1","faces","","0","0","1","400","61000","424","62732","","","","","","","","","","","","","","","","","","","","","","","","","","","","","","","","","","","","","","",""
"","iti_localizer","","html-keyboard-response","205","533804","0.0-2.0-56.0-1.0","33","75229","female","null","","","","null","","54","","","533486","1","","","","","","300","61400","318","63156","300","","","","","","","","","","","","","","","","","","","","","","","","","","","","","","","","","","","","","",""
"","localizer","","html-keyboard-response","206","534221","0.0-2.0-57.0-0.0","33","75229","female","NaN","","","","null","NaN","55","","Stimuli/Experimental_stims/localizer/faces/jeffery-erhunse-vp9mRauo68c-unsplash.jpg","533804","1","faces","","0","1","0","400","61700","417","63474","","","","","","","","","","","","","","","","","","","","","","","","","","","","","","","","","","","","","","",""
"","iti_localizer","","html-keyboard-response","207","534536","0.0-2.0-57.0-1.0","33","75229","female","null","","","","null","","55","","","534221","1","","","","","","300","62100","315","63891","300","","","","","","","","","","","","","","","","","","","","","","","","","","","","","","","","","","","","","",""
"","localizer","","html-keyboard-response","208","534950","0.0-2.0-58.0-0.0","33","75229","female","155","","","","68","0","56","","Stimuli/Experimental_stims/localizer/faces/aatik-tasneem-7omHUGhhmZ0-unsplash.jpg","534536","1","faces","","0","0","1","400","62400","414","64206","","","","","","","","","","","","","","","","","","","","","","","","","","","","","","","","","","","","","","",""
"","iti_localizer","","html-keyboard-response","209","535261","0.0-2.0-58.0-1.0","33","75229","female","null","","","","null","","56","","","534950","1","","","","","","300","62800","311","64620","300","","","","","","","","","","","","","","","","","","","","","","","","","","","","","","","","","","","","","",""
"","localizer","","html-keyboard-response","210","535673","0.0-2.0-59.0-0.0","33","75229","female","NaN","","","","null","NaN","57","","Stimuli/Experimental_stims/localizer/faces/abstral-official-cyOKLSgkgCE-unsplash.jpg","535261","1","faces","","0","1","0","400","63100","412","64931","","","","","","","","","","","","","","","","","","","","","","","","","","","","","","","","","","","","","","",""
"","iti_localizer","","html-keyboard-response","211","535992","0.0-2.0-59.0-1.0","33","75229","female","null","","","","null","","57","","","535673","1","","","","","","300","63500","319","65343","300","","","","","","","","","","","","","","","","","","","","","","","","","","","","","","","","","","","","","",""
"","localizer","","html-keyboard-response","212","536407","0.0-2.0-60.0-0.0","33","75229","female","194","","","","68","0","58","","Stimuli/Experimental_stims/localizer/faces/brooke-cagle-Nm70URdtf3c-unsplash (1).jpg","535992","1","faces","","0","0","1","400","63800","415","65662","","","","","","","","","","","","","","","","","","","","","","","","","","","","","","","","","","","","","","",""
"","iti_localizer","","html-keyboard-response","213","536734","0.0-2.0-60.0-1.0","33","75229","female","null","","","","null","","58","","","536407","1","","","","","","300","64200","327","66077","300","","","","","","","","","","","","","","","","","","","","","","","","","","","","","","","","","","","","","",""
"","localizer","","html-keyboard-response","214","537142","0.0-2.0-61.0-0.0","33","75229","female","NaN","","","","null","NaN","59","","Stimuli/Experimental_stims/localizer/faces/icons8-team-6LZuSzSwso0-unsplash.jpg","536734","1","faces","","0","1","0","400","64500","408","66404","","","","","","","","","","","","","","","","","","","","","","","","","","","","","","","","","","","","","","",""
"","iti_localizer","","html-keyboard-response","215","537463","0.0-2.0-61.0-1.0","33","75229","female","null","","","","null","","59","","","537142","1","","","","","","300","64900","321","66812","300","","","","","","","","","","","","","","","","","","","","","","","","","","","","","","","","","","","","","",""
"","localizer","","html-keyboard-response","216","537886","0.0-2.0-62.0-0.0","33","75229","female","NaN","","","","null","NaN","60","","Stimuli/Experimental_stims/localizer/faces/christina-wocintechchat-com-0Zx1bDv5BNY-unsplash.jpg","537463","1","faces","","0","1","0","400","65200","423","67133","","","","","","","","","","","","","","","","","","","","","","","","","","","","","","","","","","","","","","",""
"","iti_localizer","","html-keyboard-response","217","538211","0.0-2.0-62.0-1.0","33","75229","female","null","","","","null","","60","","","537886","1","","","","","","300","65600","325","67556","300","","","","","","","","","","","","","","","","","","","","","","","","","","","","","","","","","","","","","",""
"","localizer","","html-keyboard-response","218","538624","0.0-2.0-63.0-0.0","33","75229","female","160","","","","68","0","61","","Stimuli/Experimental_stims/localizer/faces/juan-encalada-WC7KIHo13Fc-unsplash.jpg","538211","1","faces","","0","0","1","400","65900","413","67881","","","","","","","","","","","","","","","","","","","","","","","","","","","","","","","","","","","","","","",""
"","iti_localizer","","html-keyboard-response","219","538938","0.0-2.0-63.0-1.0","33","75229","female","null","","","","null","","61","","","538624","1","","","","","","300","66300","314","68294","300","","","","","","","","","","","","","","","","","","","","","","","","","","","","","","","","","","","","","",""
"","localizer","","html-keyboard-response","220","539352","0.0-2.0-64.0-0.0","33","75229","female","310","","","","68","0","62","","Stimuli/Experimental_stims/localizer/faces/nick-karvounis-JyO_szjGvUw-unsplash.jpg","538938","1","faces","","0","0","1","400","66600","414","68608","","","","","","","","","","","","","","","","","","","","","","","","","","","","","","","","","","","","","","",""
"","iti_localizer","","html-keyboard-response","221","539666","0.0-2.0-64.0-1.0","33","75229","female","null","","","","null","","62","","","539352","1","","","","","","300","67000","314","69022","300","","","","","","","","","","","","","","","","","","","","","","","","","","","","","","","","","","","","","",""
"","localizer","","html-keyboard-response","222","540083","0.0-2.0-65.0-0.0","33","75229","female","NaN","","","","null","NaN","63","","Stimuli/Experimental_stims/localizer/faces/carlos-vaz-KP4bxnxAilU-unsplash.jpg","539666","1","faces","","0","1","0","400","67300","417","69336","","","","","","","","","","","","","","","","","","","","","","","","","","","","","","","","","","","","","","",""
"","iti_localizer","","html-keyboard-response","223","540398","0.0-2.0-65.0-1.0","33","75229","female","null","","","","null","","63","","","540083","1","","","","","","300","67700","315","69753","300","","","","","","","","","","","","","","","","","","","","","","","","","","","","","","","","","","","","","",""
"","localizer","","html-keyboard-response","224","540816","0.0-2.0-66.0-0.0","33","75229","female","188","","","","68","0","64","","Stimuli/Experimental_stims/localizer/faces/tyler-nix-ZGa9d1a_4tA-unsplash.jpg","540398","1","faces","","1","0","0","400","68000","418","70068","","","","","","","","","","","","","","","","","","","","","","","","","","","","","","","","","","","","","","",""
"","iti_localizer","","html-keyboard-response","225","541128","0.0-2.0-66.0-1.0","33","75229","female","null","","","","null","","64","","","540816","1","","","","","","300","68400","312","70486","300","","","","","","","","","","","","","","","","","","","","","","","","","","","","","","","","","","","","","",""
"","localizer","","html-keyboard-response","226","541542","0.0-2.0-67.0-0.0","33","75229","female","43","","","","75","1","65","","Stimuli/Experimental_stims/localizer/faces/samuel-dixon--fQ5XNOcqFQ-unsplash.jpg","541128","1","faces","","0","0","0","400","68700","414","70798","","","","","","","","","","","","","","","","","","","","","","","","","","","","","","","","","","","","","","",""
"","iti_localizer","","html-keyboard-response","227","555570","0.0-2.0-67.0-1.0","33","75229","female","null","","","","null","","65","","","541542","1","","","","","","14000","69100","14028","71212","14000","","","","","","","","","","","","","","","","","","","","","","","","","","","","","","","","","","","","","",""
"","localizer","","html-keyboard-response","228","555984","0.0-2.0-68.0-0.0","33","75229","female","NaN","","","","null","NaN","66","","Stimuli/Experimental_stims/localizer/body_parts/nihal-karkala-LlOfbQD-IJ0-unsplash.jpg","555570","1","body_parts","","1","1","0","400","83100","414","85240","","","","","","","","","","","","","","","","","","","","","","","","","","","","","","","","","","","","","","",""
"","iti_localizer","","html-keyboard-response","229","556294","0.0-2.0-68.0-1.0","33","75229","female","null","","","","null","","66","","","555984","1","","","","","","300","83500","310","85654","300","","","","","","","","","","","","","","","","","","","","","","","","","","","","","","","","","","","","","",""
"","localizer","","html-keyboard-response","230","556705","0.0-2.0-69.0-0.0","33","75229","female","237","","","","75","1","67","","Stimuli/Experimental_stims/localizer/body_parts/nick-page-WTNmgJtwzGI-unsplash.jpg","556294","1","body_parts","","0","0","0","400","83800","411","85964","","","","","","","","","","","","","","","","","","","","","","","","","","","","","","","","","","","","","","",""
"","iti_localizer","","html-keyboard-response","231","557018","0.0-2.0-69.0-1.0","33","75229","female","null","","","","null","","67","","","556705","1","","","","","","300","84200","313","86375","300","","","","","","","","","","","","","","","","","","","","","","","","","","","","","","","","","","","","","",""
"","localizer","","html-keyboard-response","232","557431","0.0-2.0-70.0-0.0","33","75229","female","NaN","","","","null","NaN","68","","Stimuli/Experimental_stims/localizer/body_parts/sina-rezakhani-d1gQi0Jl05U-unsplash (1).jpg","557018","1","body_parts","","0","1","0","400","84500","413","86688","","","","","","","","","","","","","","","","","","","","","","","","","","","","","","","","","","","","","","",""
"","iti_localizer","","html-keyboard-response","233","557742","0.0-2.0-70.0-1.0","33","75229","female","null","","","","null","","68","","","557431","1","","","","","","300","84900","311","87101","300","","","","","","","","","","","","","","","","","","","","","","","","","","","","","","","","","","","","","",""
"","localizer","","html-keyboard-response","234","558157","0.0-2.0-71.0-0.0","33","75229","female","NaN","","","","null","NaN","69","","Stimuli/Experimental_stims/localizer/body_parts/meghan-thompson-U1b8OB0QpIo-unsplash.jpg","557742","1","body_parts","","0","1","0","400","85200","415","87412","","","","","","","","","","","","","","","","","","","","","","","","","","","","","","","","","","","","","","",""
"","iti_localizer","","html-keyboard-response","235","558469","0.0-2.0-71.0-1.0","33","75229","female","null","","","","null","","69","","","558157","1","","","","","","300","85600","312","87827","300","","","","","","","","","","","","","","","","","","","","","","","","","","","","","","","","","","","","","",""
"","localizer","","html-keyboard-response","236","558889","0.0-2.0-72.0-0.0","33","75229","female","NaN","","","","null","NaN","70","","Stimuli/Experimental_stims/localizer/body_parts/davidcohen-qghuLqyh3nE-unsplash.jpg","558469","1","body_parts","","0","1","0","400","85900","420","88139","","","","","","","","","","","","","","","","","","","","","","","","","","","","","","","","","","","","","","",""
"","iti_localizer","","html-keyboard-response","237","559201","0.0-2.0-72.0-1.0","33","75229","female","null","","","","null","","70","","","558889","1","","","","","","300","86300","312","88559","300","","","","","","","","","","","","","","","","","","","","","","","","","","","","","","","","","","","","","",""
"","localizer","","html-keyboard-response","238","559614","0.0-2.0-73.0-0.0","33","75229","female","120","","","","68","0","71","","Stimuli/Experimental_stims/localizer/body_parts/sincerely-media-QyzlAZjm0r0-unsplash.jpg","559201","1","body_parts","","0","0","1","400","86600","413","88871","","","","","","","","","","","","","","","","","","","","","","","","","","","","","","","","","","","","","","",""
"","iti_localizer","","html-keyboard-response","239","559925","0.0-2.0-73.0-1.0","33","75229","female","null","","","","null","","71","","","559614","1","","","","","","300","87000","311","89284","300","","","","","","","","","","","","","","","","","","","","","","","","","","","","","","","","","","","","","",""
"","localizer","","html-keyboard-response","240","560338","0.0-2.0-74.0-0.0","33","75229","female","NaN","","","","null","NaN","72","","Stimuli/Experimental_stims/localizer/body_parts/juja-han-Z8-6EI2tYtw-unsplash.jpg","559925","1","body_parts","","0","1","0","400","87300","413","89595","","","","","","","","","","","","","","","","","","","","","","","","","","","","","","","","","","","","","","",""
"","iti_localizer","","html-keyboard-response","241","560645","0.0-2.0-74.0-1.0","33","75229","female","null","","","","null","","72","","","560338","1","","","","","","300","87700","307","90008","300","","","","","","","","","","","","","","","","","","","","","","","","","","","","","","","","","","","","","",""
"","localizer","","html-keyboard-response","242","561055","0.0-2.0-75.0-0.0","33","75229","female","NaN","","","","null","NaN","73","","Stimuli/Experimental_stims/localizer/body_parts/natalie-grainger-8uB5kFKWWkk-unsplash.jpg","560645","1","body_parts","","0","1","0","400","88000","410","90315","","","","","","","","","","","","","","","","","","","","","","","","","","","","","","","","","","","","","","",""
"","iti_localizer","","html-keyboard-response","243","561365","0.0-2.0-75.0-1.0","33","75229","female","null","","","","null","","73","","","561055","1","","","","","","300","88400","310","90725","300","","","","","","","","","","","","","","","","","","","","","","","","","","","","","","","","","","","","","",""
"","localizer","","html-keyboard-response","244","561783","0.0-2.0-76.0-0.0","33","75229","female","154","","","","68","0","74","","Stimuli/Experimental_stims/localizer/body_parts/debby-hudson--B_757qSA4k-unsplash.jpg","561365","1","body_parts","","0","0","1","400","88700","418","91035","","","","","","","","","","","","","","","","","","","","","","","","","","","","","","","","","","","","","","",""
"","iti_localizer","","html-keyboard-response","245","562095","0.0-2.0-76.0-1.0","33","75229","female","null","","","","null","","74","","","561783","1","","","","","","300","89100","312","91453","300","","","","","","","","","","","","","","","","","","","","","","","","","","","","","","","","","","","","","",""
"","localizer","","html-keyboard-response","246","562509","0.0-2.0-77.0-0.0","33","75229","female","NaN","","","","null","NaN","75","","Stimuli/Experimental_stims/localizer/body_parts/pure-julia-E9Q4bqYHtIM-unsplash.jpg","562095","1","body_parts","","0","1","0","400","89400","414","91765","","","","","","","","","","","","","","","","","","","","","","","","","","","","","","","","","","","","","","",""
"","iti_localizer","","html-keyboard-response","247","562822","0.0-2.0-77.0-1.0","33","75229","female","null","","","","null","","75","","","562509","1","","","","","","300","89800","313","92179","300","","","","","","","","","","","","","","","","","","","","","","","","","","","","","","","","","","","","","",""
"","localizer","","html-keyboard-response","248","563240","0.0-2.0-78.0-0.0","33","75229","female","NaN","","","","null","NaN","76","","Stimuli/Experimental_stims/localizer/body_parts/charles-etoroma-1fo0biloDOc-unsplash.jpg","562822","1","body_parts","","0","1","0","400","90100","418","92492","","","","","","","","","","","","","","","","","","","","","","","","","","","","","","","","","","","","","","",""
"","iti_localizer","","html-keyboard-response","249","563559","0.0-2.0-78.0-1.0","33","75229","female","null","","","","null","","76","","","563240","1","","","","","","300","90500","319","92910","300","","","","","","","","","","","","","","","","","","","","","","","","","","","","","","","","","","","","","",""
"","localizer","","html-keyboard-response","250","563974","0.0-2.0-79.0-0.0","33","75229","female","234","","","","68","0","77","","Stimuli/Experimental_stims/localizer/body_parts/david-fanuel-qnV8X7OViNY-unsplash.jpg","563559","1","body_parts","","0","0","1","400","90800","415","93229","","","","","","","","","","","","","","","","","","","","","","","","","","","","","","","","","","","","","","",""
"","iti_localizer","","html-keyboard-response","251","564289","0.0-2.0-79.0-1.0","33","75229","female","null","","","","null","","77","","","563974","1","","","","","","300","91200","315","93644","300","","","","","","","","","","","","","","","","","","","","","","","","","","","","","","","","","","","","","",""
"","localizer","","html-keyboard-response","252","564700","0.0-2.0-80.0-0.0","33","75229","female","NaN","","","","null","NaN","78","","Stimuli/Experimental_stims/localizer/body_parts/diana-polekhina-SwWjCbIIoFE-unsplash.jpg","564289","1","body_parts","","0","1","0","400","91500","411","93959","","","","","","","","","","","","","","","","","","","","","","","","","","","","","","","","","","","","","","",""
"","iti_localizer","","html-keyboard-response","253","565007","0.0-2.0-80.0-1.0","33","75229","female","null","","","","null","","78","","","564700","1","","","","","","300","91900","307","94370","300","","","","","","","","","","","","","","","","","","","","","","","","","","","","","","","","","","","","","",""
"","localizer","","html-keyboard-response","254","565420","0.0-2.0-81.0-0.0","33","75229","female","NaN","","","","null","NaN","79","","Stimuli/Experimental_stims/localizer/body_parts/ant-rozetsky-bXQd8JXx0vs-unsplash.jpg","565007","1","body_parts","","0","1","0","400","92200","413","94677","","","","","","","","","","","","","","","","","","","","","","","","","","","","","","","","","","","","","","",""
"","iti_localizer","","html-keyboard-response","255","565734","0.0-2.0-81.0-1.0","33","75229","female","null","","","","null","","79","","","565420","1","","","","","","300","92600","314","95090","300","","","","","","","","","","","","","","","","","","","","","","","","","","","","","","","","","","","","","",""
"","localizer","","html-keyboard-response","256","566145","0.0-2.0-82.0-0.0","33","75229","female","NaN","","","","null","NaN","80","","Stimuli/Experimental_stims/localizer/body_parts/callum-skelton-3KLMq7y46nA-unsplash.jpg","565734","1","body_parts","","0","1","0","400","92900","411","95404","","","","","","","","","","","","","","","","","","","","","","","","","","","","","","","","","","","","","","",""
"","iti_localizer","","html-keyboard-response","257","566462","0.0-2.0-82.0-1.0","33","75229","female","null","","","","null","","80","","","566145","1","","","","","","300","93300","317","95815","300","","","","","","","","","","","","","","","","","","","","","","","","","","","","","","","","","","","","","",""
"","localizer","","html-keyboard-response","258","566873","0.0-2.0-83.0-0.0","33","75229","female","NaN","","","","null","NaN","81","","Stimuli/Experimental_stims/localizer/body_parts/freestocks-qw9LFf5T790-unsplash.jpg","566462","1","body_parts","","0","1","0","400","93600","411","96132","","","","","","","","","","","","","","","","","","","","","","","","","","","","","","","","","","","","","","",""
"","iti_localizer","","html-keyboard-response","259","567185","0.0-2.0-83.0-1.0","33","75229","female","null","","","","null","","81","","","566873","1","","","","","","300","94000","312","96543","300","","","","","","","","","","","","","","","","","","","","","","","","","","","","","","","","","","","","","",""
"","localizer","","html-keyboard-response","260","567595","0.0-2.0-84.0-0.0","33","75229","female","83","","","","68","0","82","","Stimuli/Experimental_stims/localizer/body_parts/carlos-henrique-NAOJKwZswbs-unsplash.jpg","567185","1","body_parts","","0","0","1","400","94300","410","96855","","","","","","","","","","","","","","","","","","","","","","","","","","","","","","","","","","","","","","",""
"","iti_localizer","","html-keyboard-response","261","567904","0.0-2.0-84.0-1.0","33","75229","female","null","","","","null","","82","","","567595","1","","","","","","300","94700","309","97265","300","","","","","","","","","","","","","","","","","","","","","","","","","","","","","","","","","","","","","",""
"","localizer","","html-keyboard-response","262","568317","0.0-2.0-85.0-0.0","33","75229","female","193","","","","68","0","83","","Stimuli/Experimental_stims/localizer/body_parts/boyd-christiansen-uVj7kewrZ-o-unsplash.jpg","567904","1","body_parts","","1","0","0","400","95000","413","97574","","","","","","","","","","","","","","","","","","","","","","","","","","","","","","","","","","","","","","",""
"","iti_localizer","","html-keyboard-response","263","568641","0.0-2.0-85.0-1.0","33","75229","female","null","","","","null","","83","","","568317","1","","","","","","300","95400","324","97987","300","","","","","","","","","","","","","","","","","","","","","","","","","","","","","","","","","","","","","",""
"","localizer","","html-keyboard-response","264","569056","0.0-2.0-86.0-0.0","33","75229","female","123","","","","75","1","84","","Stimuli/Experimental_stims/localizer/body_parts/nick-page-jAGdpOGvLAA-unsplash.jpg","568641","1","body_parts","","0","0","0","400","95700","415","98311","","","","","","","","","","","","","","","","","","","","","","","","","","","","","","","","","","","","","","",""
"","iti_localizer","","html-keyboard-response","265","569371","0.0-2.0-86.0-1.0","33","75229","female","null","","","","null","","84","","","569056","1","","","","","","300","96100","315","98726","300","","","","","","","","","","","","","","","","","","","","","","","","","","","","","","","","","","","","","",""
"","localizer","","html-keyboard-response","266","569781","0.0-2.0-87.0-0.0","33","75229","female","386","","","","68","0","85","","Stimuli/Experimental_stims/localizer/body_parts/lilartsy-1KkhQ8uL28g-unsplash.jpg","569371","1","body_parts","","0","0","1","400","96400","410","99041","","","","","","","","","","","","","","","","","","","","","","","","","","","","","","","","","","","","","","",""
"","iti_localizer","","html-keyboard-response","267","583901","0.0-2.0-87.0-1.0","33","75229","female","null","","","","null","","85","","","569781","1","","","","","","14000","96800","14120","99451","14000","","","","","","","","","","","","","","","","","","","","","","","","","","","","","","","","","","","","","",""
"","localizer","","html-keyboard-response","268","584317","0.0-2.0-88.0-0.0","33","75229","female","NaN","","","","null","NaN","86","","Stimuli/Experimental_stims/localizer/objects/yossy-made-yulian-WaEqwDSIeTY-unsplash.jpg","583901","1","objects","","1","1","0","400","110800","416","113571","","","","","","","","","","","","","","","","","","","","","","","","","","","","","","","","","","","","","","",""
"","iti_localizer","","html-keyboard-response","269","584630","0.0-2.0-88.0-1.0","33","75229","female","null","","","","null","","86","","","584317","1","","","","","","300","111200","313","113987","300","","","","","","","","","","","","","","","","","","","","","","","","","","","","","","","","","","","","","",""
"","localizer","","html-keyboard-response","270","585047","0.0-2.0-89.0-0.0","33","75229","female","5","","","","68","0","87","","Stimuli/Experimental_stims/localizer/objects/namroud-gorguis-FZWivbri0Xk-unsplash.jpg","584630","1","objects","","0","0","1","400","111500","417","114300","","","","","","","","","","","","","","","","","","","","","","","","","","","","","","","","","","","","","","",""
"","iti_localizer","","html-keyboard-response","271","585362","0.0-2.0-89.0-1.0","33","75229","female","null","","","","null","","87","","","585047","1","","","","","","300","111900","315","114717","300","","","","","","","","","","","","","","","","","","","","","","","","","","","","","","","","","","","","","",""
"","localizer","","html-keyboard-response","272","585782","0.0-2.0-90.0-0.0","33","75229","female","127","","","","68","0","88","","Stimuli/Experimental_stims/localizer/objects/muhammad-toqeer-NRJ9ipvz2iE-unsplash.jpg","585362","1","objects","","0","0","1","400","112200","420","115032","","","","","","","","","","","","","","","","","","","","","","","","","","","","","","","","","","","","","","",""
"","iti_localizer","","html-keyboard-response","273","586098","0.0-2.0-90.0-1.0","33","75229","female","null","","","","null","","88","","","585782","1","","","","","","300","112600","316","115452","300","","","","","","","","","","","","","","","","","","","","","","","","","","","","","","","","","","","","","",""
"","localizer","","html-keyboard-response","274","586520","0.0-2.0-91.0-0.0","33","75229","female","NaN","","","","null","NaN","89","","Stimuli/Experimental_stims/localizer/objects/chris-briggs-x9TCnxNBofE-unsplash.jpg","586098","1","objects","","0","1","0","400","112900","422","115768","","","","","","","","","","","","","","","","","","","","","","","","","","","","","","","","","","","","","","",""
"","iti_localizer","","html-keyboard-response","275","586831","0.0-2.0-91.0-1.0","33","75229","female","null","","","","null","","89","","","586520","1","","","","","","300","113300","311","116190","300","","","","","","","","","","","","","","","","","","","","","","","","","","","","","","","","","","","","","",""
"","localizer","","html-keyboard-response","276","587257","0.0-2.0-92.0-0.0","33","75229","female","NaN","","","","null","NaN","90","","Stimuli/Experimental_stims/localizer/objects/collab-media-eddtBBbaw0Y-unsplash.jpg","586831","1","objects","","0","1","0","400","113600","426","116501","","","","","","","","","","","","","","","","","","","","","","","","","","","","","","","","","","","","","","",""
"","iti_localizer","","html-keyboard-response","277","587706","0.0-2.0-92.0-1.0","33","75229","female","null","","","","null","","90","","","587257","1","","","","","","300","114000","449","116927","300","","","","","","","","","","","","","","","","","","","","","","","","","","","","","","","","","","","","","",""
