"success","ttype","start_time","trial_type","trial_index","time_elapsed","internal_node_id","age","PID","gender","not_enough_deliberation_choices","rt","responses","view_history","repeat_instructions","key_press","response","index","stimulus_index","path","start_time_elapsed","run","task","isi","is_odd_ball","no_response","acc","duration","onset","duration_time_elapsed","onset_time_elapsed","trial_duration","missed_checkup","left_chosen","chosen_stimulus","unchosen_stimulus","chosen_category","unchosen_category","chosen_rating","unchosen_rating","chosen_path","unchosen_path","pair_id","practice","scramble_screen_time","scramble_instructed_side","stim_type","iti","block","left_stimulus","right_stimulus","left_category","right_category","left_path","right_path","left_rating","right_rating","warning","scramble_acc","scramble_no_response"
"true","full_screen","d08172023hr1552","fullscreen","0","30470","0.0-0.0-0.0","25","53725","male","1","","","","","","","","","","","","","","","","","","","","","","","","","","","","","","","","","","","","","","","","","","","","","","","","",""
"","get_id","","survey-text","1","40303","0.0-0.0-1.0","25","53725","male","1","9829","{""Q0"":""25"",""Q1"":""male""}","","","","","","","","","","","","","","","","","","","","","","","","","","","","","","","","","","","","","","","","","","","","","","",""
"","ratings_instructions","","instructions","2","51117","0.0-1.0-0.0-0.0","25","53725","male","1","8990","","[{""page_index"":0,""viewing_time"":7260},{""page_index"":1,""viewing_time"":1730}]","","","","","","","","","","","","","","","","","","","","","","","","","","","","","","","","","","","","","","","","","","","","","",""
"","rating_comprehension_check","","survey-multi-choice","3","54778","0.0-1.0-0.0-1.0","25","53725","male","1","3654","{""Q0"":""True"",""Q1"":""Mouse""}","","0","","","","","","","","","","","","","","","","","","","","","","","","","","","","","","","","","","","","","","","","","","","","",""
"","","","html-keyboard-response","4","57984","0.0-1.0-1.0","25","53725","male","1","3200","","","","68","","","","","","","","","","","","","","","","","","","","","","","","","","","","","","","","","","","","","","","","","","","",""
"","rating","","html-slider-response","5","61181","0.0-1.0-2.0","25","53725","male","1","3192","","","","","77","0","28","Stimuli/Experimental_stims/body_parts/ira-vishnevskaya-8DQAvdCby1I-unsplash.jpg","","","","","","","","","","","","","","","","","","","","","","","","","","","","","","","","","","","","","","","",""
"","rating","","html-slider-response","6","64538","0.0-1.0-3.0","25","53725","male","1","3352","","","","","93","1","4","Stimuli/Experimental_stims/outdoor_scenes/jarrett-kow-1ZOyYPOBn7I-unsplash.jpg","","","","","","","","","","","","","","","","","","","","","","","","","","","","","","","","","","","","","","","",""
"","rating","","html-slider-response","7","67187","0.0-1.0-4.0","25","53725","male","1","2646","","","","","87","2","35","Stimuli/Experimental_stims/body_parts/wc-so-KH4AAPjb-tI-unsplash.jpg","","","","","","","","","","","","","","","","","","","","","","","","","","","","","","","","","","","","","","","",""
"","rating","","html-slider-response","8","70332","0.0-1.0-5.0","25","53725","male","1","3140","","","","","45","3","47","Stimuli/Experimental_stims/objects/ronaldo-arthur-vidal-Cdz_lvnl37k-unsplash.jpg","","","","","","","","","","","","","","","","","","","","","","","","","","","","","","","","","","","","","","","",""
"","rating","","html-slider-response","9","73317","0.0-1.0-6.0","25","53725","male","1","2980","","","","","65","4","9","Stimuli/Experimental_stims/outdoor_scenes/sergey-pesterev-y-b_FOmJXdg-unsplash.jpg","","","","","","","","","","","","","","","","","","","","","","","","","","","","","","","","","","","","","","","",""
"","rating","","html-slider-response","10","74932","0.0-1.0-7.0","25","53725","male","1","1610","","","","","76","5","31","Stimuli/Experimental_stims/body_parts/sincerely-media-VN6DbKajo5s-unsplash.jpg","","","","","","","","","","","","","","","","","","","","","","","","","","","","","","","","","","","","","","","",""
"","rating","","html-slider-response","11","76577","0.0-1.0-8.0","25","53725","male","1","1641","","","","","39","6","5","Stimuli/Experimental_stims/outdoor_scenes/jeff-king-bJHWJeiHfHc-unsplash.jpg","","","","","","","","","","","","","","","","","","","","","","","","","","","","","","","","","","","","","","","",""
"","rating","","html-slider-response","12","78437","0.0-1.0-9.0","25","53725","male","1","1856","","","","","86","7","27","Stimuli/Experimental_stims/body_parts/heike-mintel-i_Gns0ELnLw-unsplash.jpg","","","","","","","","","","","","","","","","","","","","","","","","","","","","","","","","","","","","","","","",""
"","rating","","html-slider-response","13","80067","0.0-1.0-10.0","25","53725","male","1","1626","","","","","81","8","37","Stimuli/Experimental_stims/objects/alexander-andrews-VLGWE_SumrA-unsplash.jpg","","","","","","","","","","","","","","","","","","","","","","","","","","","","","","","","","","","","","","","",""
"","rating","","html-slider-response","14","81937","0.0-1.0-11.0","25","53725","male","1","1866","","","","","59","9","19","Stimuli/Experimental_stims/faces/joel-mott-LaK153ghdig-unsplash.jpg","","","","","","","","","","","","","","","","","","","","","","","","","","","","","","","","","","","","","","","",""
"","rating","","html-slider-response","15","83617","0.0-1.0-12.0","25","53725","male","1","1675","","","","","83","10","34","Stimuli/Experimental_stims/body_parts/wagner-santos-mBWMvIuVnso-unsplash.jpg","","","","","","","","","","","","","","","","","","","","","","","","","","","","","","","","","","","","","","","",""
"","rating","","html-slider-response","16","85372","0.0-1.0-13.0","25","53725","male","1","1751","","","","","44","11","22","Stimuli/Experimental_stims/faces/ravi-patel-VMGAbeeJTKo-unsplash.jpg","","","","","","","","","","","","","","","","","","","","","","","","","","","","","","","","","","","","","","","",""
"","rating","","html-slider-response","17","87257","0.0-1.0-14.0","25","53725","male","1","1881","","","","","64","12","1","Stimuli/Experimental_stims/outdoor_scenes/ashim-d-silva-S2Q5mdOrrVc-unsplash.jpg","","","","","","","","","","","","","","","","","","","","","","","","","","","","","","","","","","","","","","","",""
"","rating","","html-slider-response","18","89707","0.0-1.0-15.0","25","53725","male","1","2446","","","","","50","13","15","Stimuli/Experimental_stims/faces/erik-lucatero-d2MSDujJl2g-unsplash.jpg","","","","","","","","","","","","","","","","","","","","","","","","","","","","","","","","","","","","","","","",""
"","rating","","html-slider-response","19","92117","0.0-1.0-16.0","25","53725","male","1","2406","","","","","88","14","17","Stimuli/Experimental_stims/faces/good-faces-xmSWVeGEnJw-unsplash.jpg","","","","","","","","","","","","","","","","","","","","","","","","","","","","","","","","","","","","","","","",""
"","rating","","html-slider-response","20","94425","0.0-1.0-17.0","25","53725","male","1","2304","","","","","58","15","12","Stimuli/Experimental_stims/faces/aiony-haust-jmATI5Q_YgY-unsplash.jpg","","","","","","","","","","","","","","","","","","","","","","","","","","","","","","","","","","","","","","","",""
"","rating","","html-slider-response","21","96097","0.0-1.0-18.0","25","53725","male","1","1666","","","","","46","16","0","Stimuli/Experimental_stims/outdoor_scenes/aleksandra-boguslawska-MS7KD9Ti7FQ-unsplash.jpg","","","","","","","","","","","","","","","","","","","","","","","","","","","","","","","","","","","","","","","",""
"","rating","","html-slider-response","22","98491","0.0-1.0-19.0","25","53725","male","1","2389","","","","","30","17","41","Stimuli/Experimental_stims/objects/insung-yoon-w2JtIQQXoRU-unsplash.jpg","","","","","","","","","","","","","","","","","","","","","","","","","","","","","","","","","","","","","","","",""
"","rating","","html-slider-response","23","100237","0.0-1.0-20.0","25","53725","male","1","1742","","","","","60","18","18","Stimuli/Experimental_stims/faces/jessica-radanavong-mrYkTuAesKE-unsplash.jpg","","","","","","","","","","","","","","","","","","","","","","","","","","","","","","","","","","","","","","","",""
"","rating","","html-slider-response","24","105356","0.0-1.0-21.0","25","53725","male","1","5115","","","","","64","19","11","Stimuli/Experimental_stims/outdoor_scenes/stephen-leonardi-gyIRjKPXupE-unsplash.jpg","","","","","","","","","","","","","","","","","","","","","","","","","","","","","","","","","","","","","","","",""
"","rating","","html-slider-response","25","111131","0.0-1.0-22.0","25","53725","male","1","5771","","","","","61","20","20","Stimuli/Experimental_stims/faces/justin-chen-J7Cf1Gch49E-unsplash.jpg","","","","","","","","","","","","","","","","","","","","","","","","","","","","","","","","","","","","","","","",""
"","rating","","html-slider-response","26","116986","0.0-1.0-23.0","25","53725","male","1","5851","","","","","89","21","23","Stimuli/Experimental_stims/faces/rikonavt-HQjfrvdTfak-unsplash.jpg","","","","","","","","","","","","","","","","","","","","","","","","","","","","","","","","","","","","","","","",""
"","rating","","html-slider-response","27","119435","0.0-1.0-24.0","25","53725","male","1","2446","","","","","71","22","25","Stimuli/Experimental_stims/body_parts/engin-akyurt-Q2rfH3GW39c-unsplash.jpg","","","","","","","","","","","","","","","","","","","","","","","","","","","","","","","","","","","","","","","",""
"","rating","","html-slider-response","28","121057","0.0-1.0-25.0","25","53725","male","1","1618","","","","","41","23","33","Stimuli/Experimental_stims/body_parts/tucker-good-36skLT5jZcc-unsplash.jpg","","","","","","","","","","","","","","","","","","","","","","","","","","","","","","","","","","","","","","","",""
"","rating","","html-slider-response","29","123358","0.0-1.0-26.0","25","53725","male","1","2296","","","","","60","24","32","Stimuli/Experimental_stims/body_parts/towfiqu-barbhuiya-3AsiVDsZnHg-unsplash.jpg","","","","","","","","","","","","","","","","","","","","","","","","","","","","","","","","","","","","","","","",""
"","rating","","html-slider-response","30","125100","0.0-1.0-27.0","25","53725","male","1","1738","","","","","39","25","30","Stimuli/Experimental_stims/body_parts/mika-korhonen-Xodzxosar18-unsplash.jpg","","","","","","","","","","","","","","","","","","","","","","","","","","","","","","","","","","","","","","","",""
"","rating","","html-slider-response","31","127697","0.0-1.0-28.0","25","53725","male","1","2594","","","","","57","26","16","Stimuli/Experimental_stims/faces/freddy-kearney-o-ioeoATbIM-unsplash.jpg","","","","","","","","","","","","","","","","","","","","","","","","","","","","","","","","","","","","","","","",""
"","rating","","html-slider-response","32","131627","0.0-1.0-29.0","25","53725","male","1","3925","","","","","50","27","14","Stimuli/Experimental_stims/faces/david-siglin-UuW4psOb388-unsplash.jpg","","","","","","","","","","","","","","","","","","","","","","","","","","","","","","","","","","","","","","","",""
"","rating","","html-slider-response","33","133787","0.0-1.0-30.0","25","53725","male","1","2155","","","","","41","28","36","Stimuli/Experimental_stims/objects/alexander-andrews-JYGnB9gTCls-unsplash.jpg","","","","","","","","","","","","","","","","","","","","","","","","","","","","","","","","","","","","","","","",""
"","rating","","html-slider-response","34","135548","0.0-1.0-31.0","25","53725","male","1","1756","","","","","52","29","3","Stimuli/Experimental_stims/outdoor_scenes/henry-be-NLF6hTe4PAg-unsplash.jpg","","","","","","","","","","","","","","","","","","","","","","","","","","","","","","","","","","","","","","","",""
"","rating","","html-slider-response","35","135972","0.0-1.0-32.0","25","53725","male","1","421","","","","","50","30","29","Stimuli/Experimental_stims/body_parts/manuel-schinner-ZwjFuJ7ebpk-unsplash.jpg","","","","","","","","","","","","","","","","","","","","","","","","","","","","","","","","","","","","","","","",""
"","rating","","html-slider-response","36","164856","0.0-1.0-33.0","25","53725","male","1","28880","","","","","75","31","43","Stimuli/Experimental_stims/objects/jonathan-greenaway-Y4hGgeiFn3s-unsplash.jpg","","","","","","","","","","","","","","","","","","","","","","","","","","","","","","","","","","","","","","","",""
"","rating","","html-slider-response","37","166331","0.0-1.0-34.0","25","53725","male","1","1470","","","","","50","32","40","Stimuli/Experimental_stims/objects/fabian-blank-pElSkGRA2NU-unsplash.jpg","","","","","","","","","","","","","","","","","","","","","","","","","","","","","","","","","","","","","","","",""
"","rating","","html-slider-response","38","168236","0.0-1.0-35.0","25","53725","male","1","1901","","","","","68","33","2","Stimuli/Experimental_stims/outdoor_scenes/bruno-van-der-kraan-qez8mNJ3ilU-unsplash.jpg","","","","","","","","","","","","","","","","","","","","","","","","","","","","","","","","","","","","","","","",""
"","rating","","html-slider-response","39","169891","0.0-1.0-36.0","25","53725","male","1","1651","","","","","89","34","26","Stimuli/Experimental_stims/body_parts/engin-akyurt-x_3gyC42btc-unsplash.jpg","","","","","","","","","","","","","","","","","","","","","","","","","","","","","","","","","","","","","","","",""
"","rating","","html-slider-response","40","171996","0.0-1.0-37.0","25","53725","male","1","2101","","","","","57","35","45","Stimuli/Experimental_stims/objects/leohoho-rngTKHXumy0-unsplash.jpg","","","","","","","","","","","","","","","","","","","","","","","","","","","","","","","","","","","","","","","",""
"","rating","","html-slider-response","41","173571","0.0-1.0-38.0","25","53725","male","1","1571","","","","","86","36","6","Stimuli/Experimental_stims/outdoor_scenes/meng-ji-8BH_M-53CyA-unsplash.jpg","","","","","","","","","","","","","","","","","","","","","","","","","","","","","","","","","","","","","","","",""
"","rating","","html-slider-response","42","175666","0.0-1.0-39.0","25","53725","male","1","2091","","","","","43","37","13","Stimuli/Experimental_stims/faces/daniel-rigdon-dXmXKPP2L4E-unsplash.jpg","","","","","","","","","","","","","","","","","","","","","","","","","","","","","","","","","","","","","","","",""
"","rating","","html-slider-response","43","177176","0.0-1.0-40.0","25","53725","male","1","1506","","","","","87","38","44","Stimuli/Experimental_stims/objects/kuiye-chen-NuOGFo4PudE-unsplash.jpg","","","","","","","","","","","","","","","","","","","","","","","","","","","","","","","","","","","","","","","",""
"","rating","","html-slider-response","44","178596","0.0-1.0-41.0","25","53725","male","1","1416","","","","","27","39","42","Stimuli/Experimental_stims/objects/jess-bailey-nOeVi8DsN8U-unsplash.jpg","","","","","","","","","","","","","","","","","","","","","","","","","","","","","","","","","","","","","","","",""
"","rating","","html-slider-response","45","180108","0.0-1.0-42.0","25","53725","male","1","1508","","","","","22","40","24","Stimuli/Experimental_stims/body_parts/clay-banks-LjqARJaJotc-unsplash.jpg","","","","","","","","","","","","","","","","","","","","","","","","","","","","","","","","","","","","","","","",""
"","rating","","html-slider-response","46","182018","0.0-1.0-43.0","25","53725","male","1","1906","","","","","50","41","21","Stimuli/Experimental_stims/faces/leilani-angel-K84vnnzxmTQ-unsplash.jpg","","","","","","","","","","","","","","","","","","","","","","","","","","","","","","","","","","","","","","","",""
"","rating","","html-slider-response","47","183458","0.0-1.0-44.0","25","53725","male","1","1436","","","","","36","42","7","Stimuli/Experimental_stims/outdoor_scenes/petr-vysohlid-9fqwGqGLUxc-unsplash.jpg","","","","","","","","","","","","","","","","","","","","","","","","","","","","","","","","","","","","","","","",""
"","rating","","html-slider-response","48","184917","0.0-1.0-45.0","25","53725","male","1","1456","","","","","68","43","46","Stimuli/Experimental_stims/objects/mockup-graphics-PNsj6RiHAF4-unsplash.jpg","","","","","","","","","","","","","","","","","","","","","","","","","","","","","","","","","","","","","","","",""
"","rating","","html-slider-response","49","185228","0.0-1.0-46.0","25","53725","male","1","306","","","","","50","44","38","Stimuli/Experimental_stims/objects/art-lasovsky-8XddFc6NkBY-unsplash.jpg","","","","","","","","","","","","","","","","","","","","","","","","","","","","","","","","","","","","","","","",""
"","rating","","html-slider-response","50","186452","0.0-1.0-47.0","25","53725","male","1","1221","","","","","41","45","8","Stimuli/Experimental_stims/outdoor_scenes/samsommer-vddccTqwal8-unsplash.jpg","","","","","","","","","","","","","","","","","","","","","","","","","","","","","","","","","","","","","","","",""
"","rating","","html-slider-response","51","188345","0.0-1.0-48.0","25","53725","male","1","1890","","","","","74","46","10","Stimuli/Experimental_stims/outdoor_scenes/shannon-kunkle-dM8INmkyDas-unsplash.jpg","","","","","","","","","","","","","","","","","","","","","","","","","","","","","","","","","","","","","","","",""
"","rating","","html-slider-response","52","189900","0.0-1.0-49.0","25","53725","male","1","1551","","","","","89","47","39","Stimuli/Experimental_stims/objects/charlesdeluvio-1-nx1QR5dTE-unsplash.jpg","","","","","","","","","","","","","","","","","","","","","","","","","","","","","","","","","","","","","","","",""
"","localizer_instructions","","instructions","53","198827","0.0-2.0-0.0-0.0","25","53725","male","1","8887","","[{""page_index"":0,""viewing_time"":1847},{""page_index"":1,""viewing_time"":4881},{""page_index"":2,""viewing_time"":2159}]","","","","","","","","","","","","","","","","","","","","","","","","","","","","","","","","","","","","","","","","","","","","","",""
"","localizer_comprehension_check","","survey-multi-choice","54","207507","0.0-2.0-0.0-1.0","25","53725","male","1","8674","{""Q0"":""True"",""Q1"":""K"",""Q2"":""D""}","","0","","","","","","","","","","","","","","","","","","","","","","","","","","","","","","","","","","","","","","","","","","","","",""
"","","","html-keyboard-response","55","209697","0.0-2.0-1.0","25","53725","male","1","2185","","","","68","","","","","","","","","","","","","","","","","","","","","","","","","","","","","","","","","","","","","","","","","","","",""
"","localizer","","html-keyboard-response","56","210102","0.0-2.0-2.0-0.0","25","53725","male","1","NaN","","","","null","NaN","0","","Stimuli/Practice_stims/Localizer/annie-spratt-g9KFpAfQ5bc-unsplash.jpg","209697","0","NaN","","0","1","0","400","0","405","0","","","","","","","","","","","","","","","","","","","","","","","","","","","","",""
"","iti_localizer","","html-keyboard-response","57","210407","0.0-2.0-2.0-1.0","25","53725","male","1","null","","","","null","","0","","","210102","0","","","","","","300","400","305","405","300","","","","","","","","","","","","","","","","","","","","","","","","","","","",""
"","localizer","","html-keyboard-response","58","210812","0.0-2.0-2.1-0.1","25","53725","male","1","218","","","","68","0","0","","Stimuli/Practice_stims/Localizer/annie-spratt-g9KFpAfQ5bc-unsplash.jpg","210407","0","NaN","","0","0","1","400","700","405","710","","","","","","","","","","","","","","","","","","","","","","","","","","","","",""
"","iti_localizer","","html-keyboard-response","59","211118","0.0-2.0-2.1-1.1","25","53725","male","1","null","","","","null","","0","","","210812","0","","","","","","300","1100","306","1115","300","","","","","","","","","","","","","","","","","","","","","","","","","","","",""
"","localizer","","html-keyboard-response","60","211522","0.0-2.0-3.0-0.0","25","53725","male","1","395","","","","68","0","1","","Stimuli/Practice_stims/Localizer/becca-tapert-sY5RjMB1KkE-unsplash.jpg","211118","0","NaN","","0","0","1","400","1400","404","1421","","","","","","","","","","","","","","","","","","","","","","","","","","","","",""
"","iti_localizer","","html-keyboard-response","61","211827","0.0-2.0-3.0-1.0","25","53725","male","1","null","","","","null","","1","","","211522","0","","","","","","300","1800","305","1825","300","","","","","","","","","","","","","","","","","","","","","","","","","","","",""
"","localizer","","html-keyboard-response","62","212232","0.0-2.0-4.0-0.0","25","53725","male","1","NaN","","","","null","NaN","2","","Stimuli/Practice_stims/Localizer/charl-durand-bsfXvI25iNg-unsplash.jpg","211827","0","NaN","","1","1","0","400","2100","405","2130","","","","","","","","","","","","","","","","","","","","","","","","","","","","",""
"","iti_localizer","","html-keyboard-response","63","212537","0.0-2.0-4.0-1.0","25","53725","male","1","null","","","","null","","2","","","212232","0","","","","","","300","2500","305","2535","300","","","","","","","","","","","","","","","","","","","","","","","","","","","",""
"","localizer","","html-keyboard-response","64","212942","0.0-2.0-4.1-0.1","25","53725","male","1","NaN","","","","null","NaN","2","","Stimuli/Practice_stims/Localizer/charl-durand-bsfXvI25iNg-unsplash.jpg","212537","0","NaN","","1","1","0","400","2800","405","2840","","","","","","","","","","","","","","","","","","","","","","","","","","","","",""
"","iti_localizer","","html-keyboard-response","65","213247","0.0-2.0-4.1-1.1","25","53725","male","1","null","","","","null","","2","","","212942","0","","","","","","300","3200","305","3245","300","","","","","","","","","","","","","","","","","","","","","","","","","","","",""
"","localizer","","html-keyboard-response","66","213651","0.0-2.0-4.2-0.2","25","53725","male","1","226","","","","75","1","2","","Stimuli/Practice_stims/Localizer/charl-durand-bsfXvI25iNg-unsplash.jpg","213247","0","NaN","","1","0","1","400","3500","404","3550","","","","","","","","","","","","","","","","","","","","","","","","","","","","",""
"","iti_localizer","","html-keyboard-response","67","213956","0.0-2.0-4.2-1.2","25","53725","male","1","null","","","","null","","2","","","213651","0","","","","","","300","3900","305","3954","300","","","","","","","","","","","","","","","","","","","","","","","","","","","",""
"","localizer","","html-keyboard-response","68","214360","0.0-2.0-5.0-0.0","25","53725","male","1","NaN","","","","null","NaN","3","","Stimuli/Practice_stims/Localizer/nizar-albusaidy-B2r2SWAf5CE-unsplash.jpg","213956","0","NaN","","0","1","0","400","4200","404","4259","","","","","","","","","","","","","","","","","","","","","","","","","","","","",""
"","iti_localizer","","html-keyboard-response","69","214665","0.0-2.0-5.0-1.0","25","53725","male","1","null","","","","null","","3","","","214360","0","","","","","","300","4600","305","4663","300","","","","","","","","","","","","","","","","","","","","","","","","","","","",""
"","localizer","","html-keyboard-response","70","215070","0.0-2.0-5.1-0.1","25","53725","male","1","238","","","","68","0","3","","Stimuli/Practice_stims/Localizer/nizar-albusaidy-B2r2SWAf5CE-unsplash.jpg","214665","0","NaN","","0","0","1","400","4900","405","4968","","","","","","","","","","","","","","","","","","","","","","","","","","","","",""
"","iti_localizer","","html-keyboard-response","71","215376","0.0-2.0-5.1-1.1","25","53725","male","1","null","","","","null","","3","","","215070","0","","","","","","300","5300","306","5373","300","","","","","","","","","","","","","","","","","","","","","","","","","","","",""
"","localizer","","html-keyboard-response","72","215781","0.0-2.0-6.0-0.0","25","53725","male","1","337","","","","68","0","4","","Stimuli/Practice_stims/Localizer/randy-fath-epf1tdtIIkM-unsplash.jpg","215376","0","NaN","","1","0","0","400","5600","405","5679","","","","","","","","","","","","","","","","","","","","","","","","","","","","",""
"","iti_localizer","","html-keyboard-response","73","216086","0.0-2.0-6.0-1.0","25","53725","male","1","null","","","","null","","4","","","215781","0","","","","","","300","6000","305","6084","300","","","","","","","","","","","","","","","","","","","","","","","","","","","",""
"","localizer","","html-keyboard-response","74","216491","0.0-2.0-7.0-0.0","25","53725","male","1","386","","","","75","1","5","","Stimuli/Practice_stims/Localizer/yassine-khalfalli-adsQ9d_Cx0c-unsplash.jpg","216086","0","NaN","","0","0","0","400","6300","405","6389","","","","","","","","","","","","","","","","","","","","","","","","","","","","",""
"","iti_localizer","","html-keyboard-response","75","216796","0.0-2.0-7.0-1.0","25","53725","male","1","null","","","","null","","5","","","216491","0","","","","","","300","6700","305","6794","300","","","","","","","","","","","","","","","","","","","","","","","","","","","",""
"","practice_over","","html-keyboard-response","76","217411","0.0-2.0-7.0-2.0-0.0","25","53725","male","1","613","","","","68","","","","","","","","","","","","","","","","","","","","","","","","","","","","","","","","","","","","","","","","","","","",""
"","start_run","","html-keyboard-response","77","219306","0.0-2.0-7.0-2.0-1.0","25","53725","male","1","1892","","","","84","","","","","","","","","","","","","","","","","","","","","","","","","","","","","","","","","","","","","","","","","","","",""
"","localizer","","html-keyboard-response","78","219712","0.0-2.0-8.0-0.0","25","53725","male","1","NaN","","","","null","NaN","6","","Stimuli/Experimental_stims/localizer/body_parts/igordoon-primus-CdyHqfrbGIs-unsplash.jpg","219306","1","body_parts","","0","1","0","400","0","406","0","","","","","","","","","","","","","","","","","","","","","","","","","","","","",""
"","iti_localizer","","html-keyboard-response","79","220016","0.0-2.0-8.0-1.0","25","53725","male","1","null","","","","null","","6","","","219712","1","","","","","","300","400","304","406","300","","","","","","","","","","","","","","","","","","","","","","","","","","","",""
"","localizer","","html-keyboard-response","80","220421","0.0-2.0-9.0-0.0","25","53725","male","1","NaN","","","","null","NaN","7","","Stimuli/Experimental_stims/localizer/body_parts/jonathan-borba-hTwH8QFkPMs-unsplash.jpg","220016","1","body_parts","","0","1","0","400","700","405","710","","","","","","","","","","","","","","","","","","","","","","","","","","","","",""
"","iti_localizer","","html-keyboard-response","81","220726","0.0-2.0-9.0-1.0","25","53725","male","1","null","","","","null","","7","","","220421","1","","","","","","300","1100","305","1115","300","","","","","","","","","","","","","","","","","","","","","","","","","","","",""
"","localizer","","html-keyboard-response","82","221131","0.0-2.0-10.0-0.0","25","53725","male","1","266","","","","68","0","8","","Stimuli/Experimental_stims/localizer/body_parts/marcel-fagin-OUYg0Q3ec-Y-unsplash.jpg","220726","1","body_parts","","1","0","0","400","1400","405","1420","","","","","","","","","","","","","","","","","","","","","","","","","","","","",""
"","iti_localizer","","html-keyboard-response","83","221436","0.0-2.0-10.0-1.0","25","53725","male","1","null","","","","null","","8","","","221131","1","","","","","","300","1800","305","1825","300","","","","","","","","","","","","","","","","","","","","","","","","","","","",""
"","localizer","","html-keyboard-response","84","221840","0.0-2.0-11.0-0.0","25","53725","male","1","257","","","","75","1","9","","Stimuli/Experimental_stims/localizer/body_parts/anelya-okapova-V69kmOyZ3SU-unsplash.jpg","221436","1","body_parts","","0","0","0","400","2100","404","2130","","","","","","","","","","","","","","","","","","","","","","","","","","","","",""
"","iti_localizer","","html-keyboard-response","85","222144","0.0-2.0-11.0-1.0","25","53725","male","1","null","","","","null","","9","","","221840","1","","","","","","300","2500","304","2534","300","","","","","","","","","","","","","","","","","","","","","","","","","","","",""
"","localizer","","html-keyboard-response","86","222549","0.0-2.0-12.0-0.0","25","53725","male","1","NaN","","","","null","NaN","10","","Stimuli/Experimental_stims/localizer/body_parts/jan-romero-DL4DDQb8yjc-unsplash.jpg","222144","1","body_parts","","0","1","0","400","2800","405","2838","","","","","","","","","","","","","","","","","","","","","","","","","","","","",""
"","iti_localizer","","html-keyboard-response","87","222854","0.0-2.0-12.0-1.0","25","53725","male","1","null","","","","null","","10","","","222549","1","","","","","","300","3200","305","3243","300","","","","","","","","","","","","","","","","","","","","","","","","","","","",""
"","localizer","","html-keyboard-response","88","223259","0.0-2.0-13.0-0.0","25","53725","male","1","NaN","","","","null","NaN","11","","Stimuli/Experimental_stims/localizer/body_parts/pure-julia-9lVaya31sMk-unsplash.jpg","222854","1","body_parts","","0","1","0","400","3500","405","3548","","","","","","","","","","","","","","","","","","","","","","","","","","","","",""
"","iti_localizer","","html-keyboard-response","89","223564","0.0-2.0-13.0-1.0","25","53725","male","1","null","","","","null","","11","","","223259","1","","","","","","300","3900","305","3953","300","","","","","","","","","","","","","","","","","","","","","","","","","","","",""
"","localizer","","html-keyboard-response","90","223969","0.0-2.0-14.0-0.0","25","53725","male","1","NaN","","","","null","NaN","12","","Stimuli/Experimental_stims/localizer/body_parts/jasper-garratt-Ng_Kl7K6V8Y-unsplash.jpg","223564","1","body_parts","","0","1","0","400","4200","405","4258","","","","","","","","","","","","","","","","","","","","","","","","","","","","",""
"","iti_localizer","","html-keyboard-response","91","224274","0.0-2.0-14.0-1.0","25","53725","male","1","null","","","","null","","12","","","223969","1","","","","","","300","4600","305","4663","300","","","","","","","","","","","","","","","","","","","","","","","","","","","",""
"","localizer","","html-keyboard-response","92","224679","0.0-2.0-15.0-0.0","25","53725","male","1","54","","","","68","0","13","","Stimuli/Experimental_stims/localizer/body_parts/i-am_nah--S4OsO0c6Ts-unsplash.jpg","224274","1","body_parts","","0","0","1","400","4900","405","4968","","","","","","","","","","","","","","","","","","","","","","","","","","","","",""
"","iti_localizer","","html-keyboard-response","93","224983","0.0-2.0-15.0-1.0","25","53725","male","1","null","","","","null","","13","","","224679","1","","","","","","300","5300","304","5373","300","","","","","","","","","","","","","","","","","","","","","","","","","","","",""
"","localizer","","html-keyboard-response","94","225389","0.0-2.0-16.0-0.0","25","53725","male","1","29","","","","68","0","14","","Stimuli/Experimental_stims/localizer/body_parts/femme-spirit-RGYBDUHYbyM-unsplash.jpg","224983","1","body_parts","","0","0","1","400","5600","406","5677","","","","","","","","","","","","","","","","","","","","","","","","","","","","",""
"","iti_localizer","","html-keyboard-response","95","225693","0.0-2.0-16.0-1.0","25","53725","male","1","null","","","","null","","14","","","225389","1","","","","","","300","6000","304","6083","300","","","","","","","","","","","","","","","","","","","","","","","","","","","",""
"","localizer","","html-keyboard-response","96","226098","0.0-2.0-17.0-0.0","25","53725","male","1","49","","","","68","0","15","","Stimuli/Experimental_stims/localizer/body_parts/liv-bruce-M0oVPGsWk1E-unsplash.jpg","225693","1","body_parts","","0","0","1","400","6300","405","6387","","","","","","","","","","","","","","","","","","","","","","","","","","","","",""
"","iti_localizer","","html-keyboard-response","97","226403","0.0-2.0-17.0-1.0","25","53725","male","1","null","","","","null","","15","","","226098","1","","","","","","300","6700","305","6792","300","","","","","","","","","","","","","","","","","","","","","","","","","","","",""
"","localizer","","html-keyboard-response","98","226808","0.0-2.0-18.0-0.0","25","53725","male","1","9","","","","68","0","16","","Stimuli/Experimental_stims/localizer/body_parts/bady-abbas-N-VEeMnm7gE-unsplash.jpg","226403","1","body_parts","","0","0","1","400","7000","405","7097","","","","","","","","","","","","","","","","","","","","","","","","","","","","",""
"","iti_localizer","","html-keyboard-response","99","227113","0.0-2.0-18.0-1.0","25","53725","male","1","null","","","","null","","16","","","226808","1","","","","","","300","7400","305","7502","300","","","","","","","","","","","","","","","","","","","","","","","","","","","",""
"","localizer","","html-keyboard-response","100","227518","0.0-2.0-19.0-0.0","25","53725","male","1","59","","","","68","0","17","","Stimuli/Experimental_stims/localizer/body_parts/lucaxx-freire-CacZwMexYdk-unsplash.jpg","227113","1","body_parts","","0","0","1","400","7700","405","7807","","","","","","","","","","","","","","","","","","","","","","","","","","","","",""
"","iti_localizer","","html-keyboard-response","101","227823","0.0-2.0-19.0-1.0","25","53725","male","1","null","","","","null","","17","","","227518","1","","","","","","300","8100","305","8212","300","","","","","","","","","","","","","","","","","","","","","","","","","","","",""
"","localizer","","html-keyboard-response","102","228227","0.0-2.0-20.0-0.0","25","53725","male","1","169","","","","68","0","18","","Stimuli/Experimental_stims/localizer/body_parts/hu-chen-tCbTGNwrFNM-unsplash.jpg","227823","1","body_parts","","0","0","1","400","8400","404","8517","","","","","","","","","","","","","","","","","","","","","","","","","","","","",""
"","iti_localizer","","html-keyboard-response","103","228532","0.0-2.0-20.0-1.0","25","53725","male","1","null","","","","null","","18","","","228227","1","","","","","","300","8800","305","8921","300","","","","","","","","","","","","","","","","","","","","","","","","","","","",""
"","localizer","","html-keyboard-response","104","228938","0.0-2.0-21.0-0.0","25","53725","male","1","360","","","","68","0","19","","Stimuli/Experimental_stims/localizer/body_parts/megan-menegay-UojxG_BJxnI-unsplash.jpg","228532","1","body_parts","","0","0","1","400","9100","406","9226","","","","","","","","","","","","","","","","","","","","","","","","","","","","",""
"","iti_localizer","","html-keyboard-response","105","229243","0.0-2.0-21.0-1.0","25","53725","male","1","null","","","","null","","19","","","228938","1","","","","","","300","9500","305","9632","300","","","","","","","","","","","","","","","","","","","","","","","","","","","",""
"","localizer","","html-keyboard-response","106","229648","0.0-2.0-22.0-0.0","25","53725","male","1","NaN","","","","null","NaN","20","","Stimuli/Experimental_stims/localizer/body_parts/toan-nguyen-VIeLuUFzesg-unsplash.jpg","229243","1","body_parts","","1","1","0","400","9800","405","9937","","","","","","","","","","","","","","","","","","","","","","","","","","","","",""
"","iti_localizer","","html-keyboard-response","107","229953","0.0-2.0-22.0-1.0","25","53725","male","1","null","","","","null","","20","","","229648","1","","","","","","300","10200","305","10342","300","","","","","","","","","","","","","","","","","","","","","","","","","","","",""
"","localizer","","html-keyboard-response","108","230359","0.0-2.0-23.0-0.0","25","53725","male","1","59","","","","75","1","21","","Stimuli/Experimental_stims/localizer/body_parts/sippakorn-yamkasikorn-32_sJlJa5gA-unsplash.jpg","229953","1","body_parts","","0","0","0","400","10500","406","10647","","","","","","","","","","","","","","","","","","","","","","","","","","","","",""
"","iti_localizer","","html-keyboard-response","109","230663","0.0-2.0-23.0-1.0","25","53725","male","1","null","","","","null","","21","","","230359","1","","","","","","300","10900","304","11053","300","","","","","","","","","","","","","","","","","","","","","","","","","","","",""
"","localizer","","html-keyboard-response","110","231068","0.0-2.0-24.0-0.0","25","53725","male","1","64","","","","68","0","22","","Stimuli/Experimental_stims/localizer/body_parts/louis-hansel-FjKTMRTQYAs-unsplash.jpg","230663","1","body_parts","","0","0","1","400","11200","405","11357","","","","","","","","","","","","","","","","","","","","","","","","","","","","",""
"","iti_localizer","","html-keyboard-response","111","231373","0.0-2.0-24.0-1.0","25","53725","male","1","null","","","","null","","22","","","231068","1","","","","","","300","11600","305","11762","300","","","","","","","","","","","","","","","","","","","","","","","","","","","",""
"","localizer","","html-keyboard-response","112","231779","0.0-2.0-25.0-0.0","25","53725","male","1","154","","","","68","0","23","","Stimuli/Experimental_stims/localizer/body_parts/sydney-herron-b2W04fGuS70-unsplash.jpg","231373","1","body_parts","","0","0","1","400","11900","406","12067","","","","","","","","","","","","","","","","","","","","","","","","","","","","",""
"","iti_localizer","","html-keyboard-response","113","232084","0.0-2.0-25.0-1.0","25","53725","male","1","null","","","","null","","23","","","231779","1","","","","","","300","12300","305","12473","300","","","","","","","","","","","","","","","","","","","","","","","","","","","",""
"","localizer","","html-keyboard-response","114","232489","0.0-2.0-26.0-0.0","25","53725","male","1","388","","","","68","0","24","","Stimuli/Experimental_stims/localizer/body_parts/danie-franco-jyyNiSEcCl4-unsplash.jpg","232084","1","body_parts","","0","0","1","400","12600","405","12778","","","","","","","","","","","","","","","","","","","","","","","","","","","","",""
"","iti_localizer","","html-keyboard-response","115","232794","0.0-2.0-26.0-1.0","25","53725","male","1","null","","","","null","","24","","","232489","1","","","","","","300","13000","305","13183","300","","","","","","","","","","","","","","","","","","","","","","","","","","","",""
"","localizer","","html-keyboard-response","116","233199","0.0-2.0-27.0-0.0","25","53725","male","1","NaN","","","","null","NaN","25","","Stimuli/Experimental_stims/localizer/body_parts/ramesh-iyer-CRhznMXoJlc-unsplash.jpg","232794","1","body_parts","","0","1","0","400","13300","405","13488","","","","","","","","","","","","","","","","","","","","","","","","","","","","",""
"","iti_localizer","","html-keyboard-response","117","247206","0.0-2.0-27.0-1.0","25","53725","male","1","null","","","","null","","25","","","233199","1","","","","","","14000","13700","14007","13893","14000","","","","","","","","","","","","","","","","","","","","","","","","","","","",""
"","localizer","","html-keyboard-response","118","247611","0.0-2.0-28.0-0.0","25","53725","male","1","NaN","","","","null","NaN","26","","Stimuli/Experimental_stims/localizer/objects/adriano-pucciarelli-BE7yaZnZX6o-unsplash.jpg","247206","1","objects","","0","1","0","400","27700","405","27900","","","","","","","","","","","","","","","","","","","","","","","","","","","","",""
"","iti_localizer","","html-keyboard-response","119","247915","0.0-2.0-28.0-1.0","25","53725","male","1","null","","","","null","","26","","","247611","1","","","","","","300","28100","304","28305","300","","","","","","","","","","","","","","","","","","","","","","","","","","","",""
"","localizer","","html-keyboard-response","120","248320","0.0-2.0-29.0-0.0","25","53725","male","1","NaN","","","","null","NaN","27","","Stimuli/Experimental_stims/localizer/objects/petr-sidorov-3jm5TGqtULU-unsplash.jpg","247915","1","objects","","0","1","0","400","28400","405","28609","","","","","","","","","","","","","","","","","","","","","","","","","","","","",""
"","iti_localizer","","html-keyboard-response","121","248625","0.0-2.0-29.0-1.0","25","53725","male","1","null","","","","null","","27","","","248320","1","","","","","","300","28800","305","29014","300","","","","","","","","","","","","","","","","","","","","","","","","","","","",""
"","localizer","","html-keyboard-response","122","249030","0.0-2.0-30.0-0.0","25","53725","male","1","NaN","","","","null","NaN","28","","Stimuli/Experimental_stims/localizer/objects/carlos-felipe-ramirez-mesa-HW7bfB3ERSQ-unsplash.jpg","248625","1","objects","","0","1","0","400","29100","405","29319","","","","","","","","","","","","","","","","","","","","","","","","","","","","",""
"","iti_localizer","","html-keyboard-response","123","249333","0.0-2.0-30.0-1.0","25","53725","male","1","null","","","","null","","28","","","249030","1","","","","","","300","29500","303","29724","300","","","","","","","","","","","","","","","","","","","","","","","","","","","",""
"","localizer","","html-keyboard-response","124","249738","0.0-2.0-31.0-0.0","25","53725","male","1","370","","","","68","0","29","","Stimuli/Experimental_stims/localizer/objects/raimond-klavins-ZdvDPXVvcKs-unsplash.jpg","249333","1","objects","","1","0","0","400","29800","405","30027","","","","","","","","","","","","","","","","","","","","","","","","","","","","",""
"","iti_localizer","","html-keyboard-response","125","250043","0.0-2.0-31.0-1.0","25","53725","male","1","null","","","","null","","29","","","249738","1","","","","","","300","30200","305","30432","300","","","","","","","","","","","","","","","","","","","","","","","","","","","",""
"","localizer","","html-keyboard-response","126","250448","0.0-2.0-32.0-0.0","25","53725","male","1","245","","","","75","1","30","","Stimuli/Experimental_stims/localizer/objects/adriano-pucciarelli-Jl3S1yM8gi8-unsplash.jpg","250043","1","objects","","0","0","0","400","30500","405","30737","","","","","","","","","","","","","","","","","","","","","","","","","","","","",""
"","iti_localizer","","html-keyboard-response","127","250753","0.0-2.0-32.0-1.0","25","53725","male","1","null","","","","null","","30","","","250448","1","","","","","","300","30900","305","31142","300","","","","","","","","","","","","","","","","","","","","","","","","","","","",""
"","localizer","","html-keyboard-response","128","251158","0.0-2.0-33.0-0.0","25","53725","male","1","335","","","","68","0","31","","Stimuli/Experimental_stims/localizer/objects/engin-akyurt-bbbKzTmY2Gg-unsplash.jpg","250753","1","objects","","0","0","1","400","31200","405","31447","","","","","","","","","","","","","","","","","","","","","","","","","","","","",""
"","iti_localizer","","html-keyboard-response","129","251463","0.0-2.0-33.0-1.0","25","53725","male","1","null","","","","null","","31","","","251158","1","","","","","","300","31600","305","31852","300","","","","","","","","","","","","","","","","","","","","","","","","","","","",""
"","localizer","","html-keyboard-response","130","251868","0.0-2.0-34.0-0.0","25","53725","male","1","NaN","","","","null","NaN","32","","Stimuli/Experimental_stims/localizer/objects/sam-moghadam-khamseh-kvmdsTrGOBM-unsplash.jpg","251463","1","objects","","0","1","0","400","31900","405","32157","","","","","","","","","","","","","","","","","","","","","","","","","","","","",""
"","iti_localizer","","html-keyboard-response","131","252172","0.0-2.0-34.0-1.0","25","53725","male","1","null","","","","null","","32","","","251868","1","","","","","","300","32300","304","32562","300","","","","","","","","","","","","","","","","","","","","","","","","","","","",""
"","localizer","","html-keyboard-response","132","252577","0.0-2.0-35.0-0.0","25","53725","male","1","NaN","","","","null","NaN","33","","Stimuli/Experimental_stims/localizer/objects/jiangxulei1990-eIzzzwtkBjU-unsplash.jpg","252172","1","objects","","0","1","0","400","32600","405","32866","","","","","","","","","","","","","","","","","","","","","","","","","","","","",""
"","iti_localizer","","html-keyboard-response","133","252882","0.0-2.0-35.0-1.0","25","53725","male","1","null","","","","null","","33","","","252577","1","","","","","","300","33000","305","33271","300","","","","","","","","","","","","","","","","","","","","","","","","","","","",""
"","localizer","","html-keyboard-response","134","253287","0.0-2.0-36.0-0.0","25","53725","male","1","181","","","","68","0","34","","Stimuli/Experimental_stims/localizer/objects/florian-klauer-nptLmg6jqDo-unsplash.jpg","252882","1","objects","","0","0","1","400","33300","405","33576","","","","","","","","","","","","","","","","","","","","","","","","","","","","",""
"","iti_localizer","","html-keyboard-response","135","253592","0.0-2.0-36.0-1.0","25","53725","male","1","null","","","","null","","34","","","253287","1","","","","","","300","33700","305","33981","300","","","","","","","","","","","","","","","","","","","","","","","","","","","",""
"","localizer","","html-keyboard-response","136","253996","0.0-2.0-37.0-0.0","25","53725","male","1","384","","","","68","0","35","","Stimuli/Experimental_stims/localizer/objects/ignat-dolomanov-kFBDVnmskPA-unsplash.jpg","253592","1","objects","","0","0","1","400","34000","404","34286","","","","","","","","","","","","","","","","","","","","","","","","","","","","",""
"","iti_localizer","","html-keyboard-response","137","254301","0.0-2.0-37.0-1.0","25","53725","male","1","null","","","","null","","35","","","253996","1","","","","","","300","34400","305","34690","300","","","","","","","","","","","","","","","","","","","","","","","","","","","",""
"","localizer","","html-keyboard-response","138","254707","0.0-2.0-38.0-0.0","25","53725","male","1","NaN","","","","null","NaN","36","","Stimuli/Experimental_stims/localizer/objects/andrew-petrov-TVJqDat4MAw-unsplash.jpg","254301","1","objects","","0","1","0","400","34700","406","34995","","","","","","","","","","","","","","","","","","","","","","","","","","","","",""
"","iti_localizer","","html-keyboard-response","139","255012","0.0-2.0-38.0-1.0","25","53725","male","1","null","","","","null","","36","","","254707","1","","","","","","300","35100","305","35401","300","","","","","","","","","","","","","","","","","","","","","","","","","","","",""
"","localizer","","html-keyboard-response","140","255416","0.0-2.0-39.0-0.0","25","53725","male","1","NaN","","","","null","NaN","37","","Stimuli/Experimental_stims/localizer/objects/sam-moghadam-khamseh-L_7MQsHl_aU-unsplash.jpg","255012","1","objects","","0","1","0","400","35400","404","35706","","","","","","","","","","","","","","","","","","","","","","","","","","","","",""
"","iti_localizer","","html-keyboard-response","141","255721","0.0-2.0-39.0-1.0","25","53725","male","1","null","","","","null","","37","","","255416","1","","","","","","300","35800","305","36110","300","","","","","","","","","","","","","","","","","","","","","","","","","","","",""
"","localizer","","html-keyboard-response","142","256126","0.0-2.0-40.0-0.0","25","53725","male","1","92","","","","68","0","38","","Stimuli/Experimental_stims/localizer/objects/ana-9GmAaEMMKho-unsplash.jpg","255721","1","objects","","0","0","1","400","36100","405","36415","","","","","","","","","","","","","","","","","","","","","","","","","","","","",""
"","iti_localizer","","html-keyboard-response","143","256431","0.0-2.0-40.0-1.0","25","53725","male","1","null","","","","null","","38","","","256126","1","","","","","","300","36500","305","36820","300","","","","","","","","","","","","","","","","","","","","","","","","","","","",""
"","localizer","","html-keyboard-response","144","256836","0.0-2.0-41.0-0.0","25","53725","male","1","341","","","","68","0","39","","Stimuli/Experimental_stims/localizer/objects/mockup-graphics-U6ZMEefFGx8-unsplash.jpg","256431","1","objects","","0","0","1","400","36800","405","37125","","","","","","","","","","","","","","","","","","","","","","","","","","","","",""
"","iti_localizer","","html-keyboard-response","145","257141","0.0-2.0-41.0-1.0","25","53725","male","1","null","","","","null","","39","","","256836","1","","","","","","300","37200","305","37530","300","","","","","","","","","","","","","","","","","","","","","","","","","","","",""
"","localizer","","html-keyboard-response","146","257546","0.0-2.0-42.0-0.0","25","53725","male","1","NaN","","","","null","NaN","40","","Stimuli/Experimental_stims/localizer/objects/kelly-jean-cKjbI0Y00X0-unsplash.jpg","257141","1","objects","","0","1","0","400","37500","405","37835","","","","","","","","","","","","","","","","","","","","","","","","","","","","",""
"","iti_localizer","","html-keyboard-response","147","257850","0.0-2.0-42.0-1.0","25","53725","male","1","null","","","","null","","40","","","257546","1","","","","","","300","37900","304","38240","300","","","","","","","","","","","","","","","","","","","","","","","","","","","",""
"","localizer","","html-keyboard-response","148","258254","0.0-2.0-43.0-0.0","25","53725","male","1","NaN","","","","null","NaN","41","","Stimuli/Experimental_stims/localizer/objects/eugene-chystiakov-3neSwyntbQ8-unsplash.jpg","257850","1","objects","","0","1","0","400","38200","404","38544","","","","","","","","","","","","","","","","","","","","","","","","","","","","",""
"","iti_localizer","","html-keyboard-response","149","258560","0.0-2.0-43.0-1.0","25","53725","male","1","null","","","","null","","41","","","258254","1","","","","","","300","38600","306","38948","300","","","","","","","","","","","","","","","","","","","","","","","","","","","",""
"","localizer","","html-keyboard-response","150","258964","0.0-2.0-44.0-0.0","25","53725","male","1","23","","","","68","0","42","","Stimuli/Experimental_stims/localizer/objects/lance-reis-v0FYj9iioQg-unsplash.jpg","258560","1","objects","","0","0","1","400","38900","404","39254","","","","","","","","","","","","","","","","","","","","","","","","","","","","",""
"","iti_localizer","","html-keyboard-response","151","259269","0.0-2.0-44.0-1.0","25","53725","male","1","null","","","","null","","42","","","258964","1","","","","","","300","39300","305","39658","300","","","","","","","","","","","","","","","","","","","","","","","","","","","",""
"","localizer","","html-keyboard-response","152","259674","0.0-2.0-45.0-0.0","25","53725","male","1","154","","","","68","0","43","","Stimuli/Experimental_stims/localizer/objects/annie-spratt-fbAnIjhrOL4-unsplash.jpg","259269","1","objects","","0","0","1","400","39600","405","39963","","","","","","","","","","","","","","","","","","","","","","","","","","","","",""
"","iti_localizer","","html-keyboard-response","153","259979","0.0-2.0-45.0-1.0","25","53725","male","1","null","","","","null","","43","","","259674","1","","","","","","300","40000","305","40368","300","","","","","","","","","","","","","","","","","","","","","","","","","","","",""
"","localizer","","html-keyboard-response","154","260384","0.0-2.0-46.0-0.0","25","53725","male","1","NaN","","","","null","NaN","44","","Stimuli/Experimental_stims/localizer/objects/mockup-graphics-Pj2PY-E-LfM-unsplash.jpg","259979","1","objects","","1","1","0","400","40300","405","40673","","","","","","","","","","","","","","","","","","","","","","","","","","","","",""
"","iti_localizer","","html-keyboard-response","155","260688","0.0-2.0-46.0-1.0","25","53725","male","1","null","","","","null","","44","","","260384","1","","","","","","300","40700","304","41078","300","","","","","","","","","","","","","","","","","","","","","","","","","","","",""
"","localizer","","html-keyboard-response","156","261092","0.0-2.0-47.0-0.0","25","53725","male","1","325","","","","75","1","45","","Stimuli/Experimental_stims/localizer/objects/dario-mendez-hnJ2VNZzbns-unsplash.jpg","260688","1","objects","","0","0","0","400","41000","404","41382","","","","","","","","","","","","","","","","","","","","","","","","","","","","",""
"","iti_localizer","","html-keyboard-response","157","275095","0.0-2.0-47.0-1.0","25","53725","male","1","null","","","","null","","45","","","261092","1","","","","","","14000","41400","14003","41786","14000","","","","","","","","","","","","","","","","","","","","","","","","","","","",""
"","localizer","","html-keyboard-response","158","275501","0.0-2.0-48.0-0.0","25","53725","male","1","NaN","","","","null","NaN","46","","Stimuli/Experimental_stims/localizer/faces/christian-ferrer-8vT-DgHZDG4-unsplash.jpg","275095","1","faces","","1","1","0","400","55400","406","55789","","","","","","","","","","","","","","","","","","","","","","","","","","","","",""
"","iti_localizer","","html-keyboard-response","159","275806","0.0-2.0-48.0-1.0","25","53725","male","1","null","","","","null","","46","","","275501","1","","","","","","300","55800","305","56195","300","","","","","","","","","","","","","","","","","","","","","","","","","","","",""
"","localizer","","html-keyboard-response","160","276211","0.0-2.0-49.0-0.0","25","53725","male","1","NaN","","","","null","NaN","47","","Stimuli/Experimental_stims/localizer/faces/mathias-huysmans-U4JDjYmjn1g-unsplash.jpg","275806","1","faces","","0","1","0","400","56100","405","56500","","","","","","","","","","","","","","","","","","","","","","","","","","","","",""
"","iti_localizer","","html-keyboard-response","161","276516","0.0-2.0-49.0-1.0","25","53725","male","1","null","","","","null","","47","","","276211","1","","","","","","300","56500","305","56905","300","","","","","","","","","","","","","","","","","","","","","","","","","","","",""
"","localizer","","html-keyboard-response","162","276920","0.0-2.0-50.0-0.0","25","53725","male","1","NaN","","","","null","NaN","48","","Stimuli/Experimental_stims/localizer/faces/filipe-almeida-mnEWC72eWDM-unsplash.jpg","276516","1","faces","","0","1","0","400","56800","404","57210","","","","","","","","","","","","","","","","","","","","","","","","","","","","",""
"","iti_localizer","","html-keyboard-response","163","277228","0.0-2.0-50.0-1.0","25","53725","male","1","null","","","","null","","48","","","276920","1","","","","","","300","57200","308","57614","300","","","","","","","","","","","","","","","","","","","","","","","","","","","",""
"","localizer","","html-keyboard-response","164","277633","0.0-2.0-51.0-0.0","25","53725","male","1","NaN","","","","null","NaN","49","","Stimuli/Experimental_stims/localizer/faces/midas-hofstra-tidSLv-UaNs-unsplash.jpg","277228","1","faces","","0","1","0","400","57500","405","57922","","","","","","","","","","","","","","","","","","","","","","","","","","","","",""
"","iti_localizer","","html-keyboard-response","165","277938","0.0-2.0-51.0-1.0","25","53725","male","1","null","","","","null","","49","","","277633","1","","","","","","300","57900","305","58327","300","","","","","","","","","","","","","","","","","","","","","","","","","","","",""
"","localizer","","html-keyboard-response","166","278343","0.0-2.0-52.0-0.0","25","53725","male","1","NaN","","","","null","NaN","50","","Stimuli/Experimental_stims/localizer/faces/darshan-patel-QJEVpydulGs-unsplash.jpg","277938","1","faces","","0","1","0","400","58200","405","58632","","","","","","","","","","","","","","","","","","","","","","","","","","","","",""
"","iti_localizer","","html-keyboard-response","167","278648","0.0-2.0-52.0-1.0","25","53725","male","1","null","","","","null","","50","","","278343","1","","","","","","300","58600","305","59037","300","","","","","","","","","","","","","","","","","","","","","","","","","","","",""
"","localizer","","html-keyboard-response","168","279053","0.0-2.0-53.0-0.0","25","53725","male","1","NaN","","","","null","NaN","51","","Stimuli/Experimental_stims/localizer/faces/ivan-dodig-R21SyyJDFgc-unsplash.jpg","278648","1","faces","","0","1","0","400","58900","405","59342","","","","","","","","","","","","","","","","","","","","","","","","","","","","",""
"","iti_localizer","","html-keyboard-response","169","279358","0.0-2.0-53.0-1.0","25","53725","male","1","null","","","","null","","51","","","279053","1","","","","","","300","59300","305","59747","300","","","","","","","","","","","","","","","","","","","","","","","","","","","",""
"","localizer","","html-keyboard-response","170","279762","0.0-2.0-54.0-0.0","25","53725","male","1","NaN","","","","null","NaN","52","","Stimuli/Experimental_stims/localizer/faces/austin-wade-X6Uj51n5CE8-unsplash.jpg","279358","1","faces","","0","1","0","400","59600","404","60052","","","","","","","","","","","","","","","","","","","","","","","","","","","","",""
"","iti_localizer","","html-keyboard-response","171","280067","0.0-2.0-54.0-1.0","25","53725","male","1","null","","","","null","","52","","","279762","1","","","","","","300","60000","305","60456","300","","","","","","","","","","","","","","","","","","","","","","","","","","","",""
"","localizer","","html-keyboard-response","172","280471","0.0-2.0-55.0-0.0","25","53725","male","1","NaN","","","","null","NaN","53","","Stimuli/Experimental_stims/localizer/faces/linkedin-sales-solutions-pAtA8xe_iVM-unsplash.jpg","280067","1","faces","","0","1","0","400","60300","404","60761","","","","","","","","","","","","","","","","","","","","","","","","","","","","",""
"","iti_localizer","","html-keyboard-response","173","280775","0.0-2.0-55.0-1.0","25","53725","male","1","null","","","","null","","53","","","280471","1","","","","","","300","60700","304","61165","300","","","","","","","","","","","","","","","","","","","","","","","","","","","",""
"","localizer","","html-keyboard-response","174","281180","0.0-2.0-56.0-0.0","25","53725","male","1","NaN","","","","null","NaN","54","","Stimuli/Experimental_stims/localizer/faces/pavel-anoshin-d0peGya6R5Y-unsplash.jpg","280775","1","faces","","0","1","0","400","61000","405","61469","","","","","","","","","","","","","","","","","","","","","","","","","","","","",""
"","iti_localizer","","html-keyboard-response","175","281485","0.0-2.0-56.0-1.0","25","53725","male","1","null","","","","null","","54","","","281180","1","","","","","","300","61400","305","61874","300","","","","","","","","","","","","","","","","","","","","","","","","","","","",""
"","localizer","","html-keyboard-response","176","281890","0.0-2.0-57.0-0.0","25","53725","male","1","NaN","","","","null","NaN","55","","Stimuli/Experimental_stims/localizer/faces/jeffery-erhunse-vp9mRauo68c-unsplash.jpg","281485","1","faces","","0","1","0","400","61700","405","62179","","","","","","","","","","","","","","","","","","","","","","","","","","","","",""
"","iti_localizer","","html-keyboard-response","177","282195","0.0-2.0-57.0-1.0","25","53725","male","1","null","","","","null","","55","","","281890","1","","","","","","300","62100","305","62584","300","","","","","","","","","","","","","","","","","","","","","","","","","","","",""
"","localizer","","html-keyboard-response","178","282600","0.0-2.0-58.0-0.0","25","53725","male","1","137","","","","68","0","56","","Stimuli/Experimental_stims/localizer/faces/aatik-tasneem-7omHUGhhmZ0-unsplash.jpg","282195","1","faces","","0","0","1","400","62400","405","62889","","","","","","","","","","","","","","","","","","","","","","","","","","","","",""
"","iti_localizer","","html-keyboard-response","179","282906","0.0-2.0-58.0-1.0","25","53725","male","1","null","","","","null","","56","","","282600","1","","","","","","300","62800","306","63294","300","","","","","","","","","","","","","","","","","","","","","","","","","","","",""
"","localizer","","html-keyboard-response","180","283311","0.0-2.0-59.0-0.0","25","53725","male","1","NaN","","","","null","NaN","57","","Stimuli/Experimental_stims/localizer/faces/abstral-official-cyOKLSgkgCE-unsplash.jpg","282906","1","faces","","0","1","0","400","63100","405","63600","","","","","","","","","","","","","","","","","","","","","","","","","","","","",""
"","iti_localizer","","html-keyboard-response","181","283616","0.0-2.0-59.0-1.0","25","53725","male","1","null","","","","null","","57","","","283311","1","","","","","","300","63500","305","64005","300","","","","","","","","","","","","","","","","","","","","","","","","","","","",""
"","localizer","","html-keyboard-response","182","284021","0.0-2.0-60.0-0.0","25","53725","male","1","16","","","","68","0","58","","Stimuli/Experimental_stims/localizer/faces/brooke-cagle-Nm70URdtf3c-unsplash (1).jpg","283616","1","faces","","0","0","1","400","63800","405","64310","","","","","","","","","","","","","","","","","","","","","","","","","","","","",""
"","iti_localizer","","html-keyboard-response","183","284326","0.0-2.0-60.0-1.0","25","53725","male","1","null","","","","null","","58","","","284021","1","","","","","","300","64200","305","64715","300","","","","","","","","","","","","","","","","","","","","","","","","","","","",""
"","localizer","","html-keyboard-response","184","284731","0.0-2.0-61.0-0.0","25","53725","male","1","161","","","","68","0","59","","Stimuli/Experimental_stims/localizer/faces/icons8-team-6LZuSzSwso0-unsplash.jpg","284326","1","faces","","0","0","1","400","64500","405","65020","","","","","","","","","","","","","","","","","","","","","","","","","","","","",""
"","iti_localizer","","html-keyboard-response","185","285036","0.0-2.0-61.0-1.0","25","53725","male","1","null","","","","null","","59","","","284731","1","","","","","","300","64900","305","65425","300","","","","","","","","","","","","","","","","","","","","","","","","","","","",""
"","localizer","","html-keyboard-response","186","285441","0.0-2.0-62.0-0.0","25","53725","male","1","NaN","","","","null","NaN","60","","Stimuli/Experimental_stims/localizer/faces/christina-wocintechchat-com-0Zx1bDv5BNY-unsplash.jpg","285036","1","faces","","0","1","0","400","65200","405","65730","","","","","","","","","","","","","","","","","","","","","","","","","","","","",""
"","iti_localizer","","html-keyboard-response","187","285746","0.0-2.0-62.0-1.0","25","53725","male","1","null","","","","null","","60","","","285441","1","","","","","","300","65600","305","66135","300","","","","","","","","","","","","","","","","","","","","","","","","","","","",""
"","localizer","","html-keyboard-response","188","286151","0.0-2.0-63.0-0.0","25","53725","male","1","NaN","","","","null","NaN","61","","Stimuli/Experimental_stims/localizer/faces/juan-encalada-WC7KIHo13Fc-unsplash.jpg","285746","1","faces","","0","1","0","400","65900","405","66440","","","","","","","","","","","","","","","","","","","","","","","","","","","","",""
"","iti_localizer","","html-keyboard-response","189","286455","0.0-2.0-63.0-1.0","25","53725","male","1","null","","","","null","","61","","","286151","1","","","","","","300","66300","304","66845","300","","","","","","","","","","","","","","","","","","","","","","","","","","","",""
"","localizer","","html-keyboard-response","190","286860","0.0-2.0-64.0-0.0","25","53725","male","1","57","","","","68","0","62","","Stimuli/Experimental_stims/localizer/faces/nick-karvounis-JyO_szjGvUw-unsplash.jpg","286455","1","faces","","0","0","1","400","66600","405","67149","","","","","","","","","","","","","","","","","","","","","","","","","","","","",""
"","iti_localizer","","html-keyboard-response","191","287165","0.0-2.0-64.0-1.0","25","53725","male","1","null","","","","null","","62","","","286860","1","","","","","","300","67000","305","67554","300","","","","","","","","","","","","","","","","","","","","","","","","","","","",""
"","localizer","","html-keyboard-response","192","287570","0.0-2.0-65.0-0.0","25","53725","male","1","322","","","","68","0","63","","Stimuli/Experimental_stims/localizer/faces/carlos-vaz-KP4bxnxAilU-unsplash.jpg","287165","1","faces","","0","0","1","400","67300","405","67859","","","","","","","","","","","","","","","","","","","","","","","","","","","","",""
"","iti_localizer","","html-keyboard-response","193","287875","0.0-2.0-65.0-1.0","25","53725","male","1","null","","","","null","","63","","","287570","1","","","","","","300","67700","305","68264","300","","","","","","","","","","","","","","","","","","","","","","","","","","","",""
"","localizer","","html-keyboard-response","194","288280","0.0-2.0-66.0-0.0","25","53725","male","1","NaN","","","","null","NaN","64","","Stimuli/Experimental_stims/localizer/faces/tyler-nix-ZGa9d1a_4tA-unsplash.jpg","287875","1","faces","","1","1","0","400","68000","405","68569","","","","","","","","","","","","","","","","","","","","","","","","","","","","",""
"","iti_localizer","","html-keyboard-response","195","288584","0.0-2.0-66.0-1.0","25","53725","male","1","null","","","","null","","64","","","288280","1","","","","","","300","68400","304","68974","300","","","","","","","","","","","","","","","","","","","","","","","","","","","",""
"","localizer","","html-keyboard-response","196","288990","0.0-2.0-67.0-0.0","25","53725","male","1","248","","","","75","1","65","","Stimuli/Experimental_stims/localizer/faces/samuel-dixon--fQ5XNOcqFQ-unsplash.jpg","288584","1","faces","","0","0","0","400","68700","406","69278","","","","","","","","","","","","","","","","","","","","","","","","","","","","",""
"","iti_localizer","","html-keyboard-response","197","302994","0.0-2.0-67.0-1.0","25","53725","male","1","null","","","","null","","65","","","288990","1","","","","","","14000","69100","14004","69684","14000","","","","","","","","","","","","","","","","","","","","","","","","","","","",""
"","localizer","","html-keyboard-response","198","303400","0.0-2.0-68.0-0.0","25","53725","male","1","NaN","","","","null","NaN","66","","Stimuli/Experimental_stims/localizer/body_parts/nihal-karkala-LlOfbQD-IJ0-unsplash.jpg","302994","1","body_parts","","1","1","0","400","83100","406","83688","","","","","","","","","","","","","","","","","","","","","","","","","","","","",""
"","iti_localizer","","html-keyboard-response","199","303705","0.0-2.0-68.0-1.0","25","53725","male","1","null","","","","null","","66","","","303400","1","","","","","","300","83500","305","84094","300","","","","","","","","","","","","","","","","","","","","","","","","","","","",""
"","localizer","","html-keyboard-response","200","304110","0.0-2.0-69.0-0.0","25","53725","male","1","NaN","","","","null","NaN","67","","Stimuli/Experimental_stims/localizer/body_parts/nick-page-WTNmgJtwzGI-unsplash.jpg","303705","1","body_parts","","0","1","0","400","83800","405","84399","","","","","","","","","","","","","","","","","","","","","","","","","","","","",""
"","iti_localizer","","html-keyboard-response","201","304415","0.0-2.0-69.0-1.0","25","53725","male","1","null","","","","null","","67","","","304110","1","","","","","","300","84200","305","84804","300","","","","","","","","","","","","","","","","","","","","","","","","","","","",""
"","localizer","","html-keyboard-response","202","304820","0.0-2.0-70.0-0.0","25","53725","male","1","326","","","","68","0","68","","Stimuli/Experimental_stims/localizer/body_parts/sina-rezakhani-d1gQi0Jl05U-unsplash (1).jpg","304415","1","body_parts","","0","0","1","400","84500","405","85109","","","","","","","","","","","","","","","","","","","","","","","","","","","","",""
"","iti_localizer","","html-keyboard-response","203","305124","0.0-2.0-70.0-1.0","25","53725","male","1","null","","","","null","","68","","","304820","1","","","","","","300","84900","304","85514","300","","","","","","","","","","","","","","","","","","","","","","","","","","","",""
"","localizer","","html-keyboard-response","204","305529","0.0-2.0-71.0-0.0","25","53725","male","1","307","","","","68","0","69","","Stimuli/Experimental_stims/localizer/body_parts/meghan-thompson-U1b8OB0QpIo-unsplash.jpg","305124","1","body_parts","","0","0","1","400","85200","405","85818","","","","","","","","","","","","","","","","","","","","","","","","","","","","",""
"","iti_localizer","","html-keyboard-response","205","305834","0.0-2.0-71.0-1.0","25","53725","male","1","null","","","","null","","69","","","305529","1","","","","","","300","85600","305","86223","300","","","","","","","","","","","","","","","","","","","","","","","","","","","",""
"","localizer","","html-keyboard-response","206","306239","0.0-2.0-72.0-0.0","25","53725","male","1","NaN","","","","null","NaN","70","","Stimuli/Experimental_stims/localizer/body_parts/davidcohen-qghuLqyh3nE-unsplash.jpg","305834","1","body_parts","","0","1","0","400","85900","405","86528","","","","","","","","","","","","","","","","","","","","","","","","","","","","",""
"","iti_localizer","","html-keyboard-response","207","306544","0.0-2.0-72.0-1.0","25","53725","male","1","null","","","","null","","70","","","306239","1","","","","","","300","86300","305","86933","300","","","","","","","","","","","","","","","","","","","","","","","","","","","",""
"","localizer","","html-keyboard-response","208","306949","0.0-2.0-73.0-0.0","25","53725","male","1","NaN","","","","null","NaN","71","","Stimuli/Experimental_stims/localizer/body_parts/sincerely-media-QyzlAZjm0r0-unsplash.jpg","306544","1","body_parts","","0","1","0","400","86600","405","87238","","","","","","","","","","","","","","","","","","","","","","","","","","","","",""
"","iti_localizer","","html-keyboard-response","209","307256","0.0-2.0-73.0-1.0","25","53725","male","1","null","","","","null","","71","","","306949","1","","","","","","300","87000","307","87643","300","","","","","","","","","","","","","","","","","","","","","","","","","","","",""
"","localizer","","html-keyboard-response","210","307661","0.0-2.0-74.0-0.0","25","53725","male","1","NaN","","","","null","NaN","72","","Stimuli/Experimental_stims/localizer/body_parts/juja-han-Z8-6EI2tYtw-unsplash.jpg","307256","1","body_parts","","0","1","0","400","87300","405","87950","","","","","","","","","","","","","","","","","","","","","","","","","","","","",""
"","iti_localizer","","html-keyboard-response","211","307965","0.0-2.0-74.0-1.0","25","53725","male","1","null","","","","null","","72","","","307661","1","","","","","","300","87700","304","88355","300","","","","","","","","","","","","","","","","","","","","","","","","","","","",""
"","localizer","","html-keyboard-response","212","308370","0.0-2.0-75.0-0.0","25","53725","male","1","7","","","","68","0","73","","Stimuli/Experimental_stims/localizer/body_parts/natalie-grainger-8uB5kFKWWkk-unsplash.jpg","307965","1","body_parts","","0","0","1","400","88000","405","88659","","","","","","","","","","","","","","","","","","","","","","","","","","","","",""
"","iti_localizer","","html-keyboard-response","213","308674","0.0-2.0-75.0-1.0","25","53725","male","1","null","","","","null","","73","","","308370","1","","","","","","300","88400","304","89064","300","","","","","","","","","","","","","","","","","","","","","","","","","","","",""
"","localizer","","html-keyboard-response","214","309079","0.0-2.0-76.0-0.0","25","53725","male","1","NaN","","","","null","NaN","74","","Stimuli/Experimental_stims/localizer/body_parts/debby-hudson--B_757qSA4k-unsplash.jpg","308674","1","body_parts","","0","1","0","400","88700","405","89368","","","","","","","","","","","","","","","","","","","","","","","","","","","","",""
"","iti_localizer","","html-keyboard-response","215","309384","0.0-2.0-76.0-1.0","25","53725","male","1","null","","","","null","","74","","","309079","1","","","","","","300","89100","305","89773","300","","","","","","","","","","","","","","","","","","","","","","","","","","","",""
"","localizer","","html-keyboard-response","216","309790","0.0-2.0-77.0-0.0","25","53725","male","1","23","","","","68","0","75","","Stimuli/Experimental_stims/localizer/body_parts/pure-julia-E9Q4bqYHtIM-unsplash.jpg","309384","1","body_parts","","0","0","1","400","89400","406","90078","","","","","","","","","","","","","","","","","","","","","","","","","","","","",""
"","iti_localizer","","html-keyboard-response","217","310095","0.0-2.0-77.0-1.0","25","53725","male","1","null","","","","null","","75","","","309790","1","","","","","","300","89800","305","90484","300","","","","","","","","","","","","","","","","","","","","","","","","","","","",""
"","localizer","","html-keyboard-response","218","310500","0.0-2.0-78.0-0.0","25","53725","male","1","NaN","","","","null","NaN","76","","Stimuli/Experimental_stims/localizer/body_parts/charles-etoroma-1fo0biloDOc-unsplash.jpg","310095","1","body_parts","","0","1","0","400","90100","405","90789","","","","","","","","","","","","","","","","","","","","","","","","","","","","",""
"","iti_localizer","","html-keyboard-response","219","310805","0.0-2.0-78.0-1.0","25","53725","male","1","null","","","","null","","76","","","310500","1","","","","","","300","90500","305","91194","300","","","","","","","","","","","","","","","","","","","","","","","","","","","",""
"","localizer","","html-keyboard-response","220","311210","0.0-2.0-79.0-0.0","25","53725","male","1","NaN","","","","null","NaN","77","","Stimuli/Experimental_stims/localizer/body_parts/david-fanuel-qnV8X7OViNY-unsplash.jpg","310805","1","body_parts","","0","1","0","400","90800","405","91499","","","","","","","","","","","","","","","","","","","","","","","","","","","","",""
"","iti_localizer","","html-keyboard-response","221","311515","0.0-2.0-79.0-1.0","25","53725","male","1","null","","","","null","","77","","","311210","1","","","","","","300","91200","305","91904","300","","","","","","","","","","","","","","","","","","","","","","","","","","","",""
"","localizer","","html-keyboard-response","222","311921","0.0-2.0-80.0-0.0","25","53725","male","1","NaN","","","","null","NaN","78","","Stimuli/Experimental_stims/localizer/body_parts/diana-polekhina-SwWjCbIIoFE-unsplash.jpg","311515","1","body_parts","","0","1","0","400","91500","406","92209","","","","","","","","","","","","","","","","","","","","","","","","","","","","",""
"","iti_localizer","","html-keyboard-response","223","312225","0.0-2.0-80.0-1.0","25","53725","male","1","null","","","","null","","78","","","311921","1","","","","","","300","91900","304","92615","300","","","","","","","","","","","","","","","","","","","","","","","","","","","",""
"","localizer","","html-keyboard-response","224","312631","0.0-2.0-81.0-0.0","25","53725","male","1","NaN","","","","null","NaN","79","","Stimuli/Experimental_stims/localizer/body_parts/ant-rozetsky-bXQd8JXx0vs-unsplash.jpg","312225","1","body_parts","","0","1","0","400","92200","406","92919","","","","","","","","","","","","","","","","","","","","","","","","","","","","",""
"","iti_localizer","","html-keyboard-response","225","312935","0.0-2.0-81.0-1.0","25","53725","male","1","null","","","","null","","79","","","312631","1","","","","","","300","92600","304","93325","300","","","","","","","","","","","","","","","","","","","","","","","","","","","",""
"","localizer","","html-keyboard-response","226","313340","0.0-2.0-82.0-0.0","25","53725","male","1","33","","","","68","0","80","","Stimuli/Experimental_stims/localizer/body_parts/callum-skelton-3KLMq7y46nA-unsplash.jpg","312935","1","body_parts","","0","0","1","400","92900","405","93629","","","","","","","","","","","","","","","","","","","","","","","","","","","","",""
"","iti_localizer","","html-keyboard-response","227","313645","0.0-2.0-82.0-1.0","25","53725","male","1","null","","","","null","","80","","","313340","1","","","","","","300","93300","305","94034","300","","","","","","","","","","","","","","","","","","","","","","","","","","","",""
"","localizer","","html-keyboard-response","228","314050","0.0-2.0-83.0-0.0","25","53725","male","1","48","","","","68","0","81","","Stimuli/Experimental_stims/localizer/body_parts/freestocks-qw9LFf5T790-unsplash.jpg","313645","1","body_parts","","0","0","1","400","93600","405","94339","","","","","","","","","","","","","","","","","","","","","","","","","","","","",""
"","iti_localizer","","html-keyboard-response","229","314355","0.0-2.0-83.0-1.0","25","53725","male","1","null","","","","null","","81","","","314050","1","","","","","","300","94000","305","94744","300","","","","","","","","","","","","","","","","","","","","","","","","","","","",""
"","localizer","","html-keyboard-response","230","314761","0.0-2.0-84.0-0.0","25","53725","male","1","NaN","","","","null","NaN","82","","Stimuli/Experimental_stims/localizer/body_parts/carlos-henrique-NAOJKwZswbs-unsplash.jpg","314355","1","body_parts","","0","1","0","400","94300","406","95049","","","","","","","","","","","","","","","","","","","","","","","","","","","","",""
"","iti_localizer","","html-keyboard-response","231","315065","0.0-2.0-84.0-1.0","25","53725","male","1","null","","","","null","","82","","","314761","1","","","","","","300","94700","304","95455","300","","","","","","","","","","","","","","","","","","","","","","","","","","","",""
"","localizer","","html-keyboard-response","232","315470","0.0-2.0-85.0-0.0","25","53725","male","1","NaN","","","","null","NaN","83","","Stimuli/Experimental_stims/localizer/body_parts/boyd-christiansen-uVj7kewrZ-o-unsplash.jpg","315065","1","body_parts","","1","1","0","400","95000","405","95759","","","","","","","","","","","","","","","","","","","","","","","","","","","","",""
"","iti_localizer","","html-keyboard-response","233","315774","0.0-2.0-85.0-1.0","25","53725","male","1","null","","","","null","","83","","","315470","1","","","","","","300","95400","304","96164","300","","","","","","","","","","","","","","","","","","","","","","","","","","","",""
"","localizer","","html-keyboard-response","234","316179","0.0-2.0-86.0-0.0","25","53725","male","1","289","","","","75","1","84","","Stimuli/Experimental_stims/localizer/body_parts/nick-page-jAGdpOGvLAA-unsplash.jpg","315774","1","body_parts","","0","0","0","400","95700","405","96468","","","","","","","","","","","","","","","","","","","","","","","","","","","","",""
"","iti_localizer","","html-keyboard-response","235","316484","0.0-2.0-86.0-1.0","25","53725","male","1","null","","","","null","","84","","","316179","1","","","","","","300","96100","305","96873","300","","","","","","","","","","","","","","","","","","","","","","","","","","","",""
"","localizer","","html-keyboard-response","236","316889","0.0-2.0-87.0-0.0","25","53725","male","1","32","","","","68","0","85","","Stimuli/Experimental_stims/localizer/body_parts/lilartsy-1KkhQ8uL28g-unsplash.jpg","316484","1","body_parts","","0","0","1","400","96400","405","97178","","","","","","","","","","","","","","","","","","","","","","","","","","","","",""
"","iti_localizer","","html-keyboard-response","237","330894","0.0-2.0-87.0-1.0","25","53725","male","1","null","","","","null","","85","","","316889","1","","","","","","14000","96800","14005","97583","14000","","","","","","","","","","","","","","","","","","","","","","","","","","","",""
"","localizer","","html-keyboard-response","238","331299","0.0-2.0-88.0-0.0","25","53725","male","1","NaN","","","","null","NaN","86","","Stimuli/Experimental_stims/localizer/objects/yossy-made-yulian-WaEqwDSIeTY-unsplash.jpg","330894","1","objects","","1","1","0","400","110800","405","111588","","","","","","","","","","","","","","","","","","","","","","","","","","","","",""
"","iti_localizer","","html-keyboard-response","239","331604","0.0-2.0-88.0-1.0","25","53725","male","1","null","","","","null","","86","","","331299","1","","","","","","300","111200","305","111993","300","","","","","","","","","","","","","","","","","","","","","","","","","","","",""
"","localizer","","html-keyboard-response","240","332009","0.0-2.0-89.0-0.0","25","53725","male","1","NaN","","","","null","NaN","87","","Stimuli/Experimental_stims/localizer/objects/namroud-gorguis-FZWivbri0Xk-unsplash.jpg","331604","1","objects","","0","1","0","400","111500","405","112298","","","","","","","","","","","","","","","","","","","","","","","","","","","","",""
"","iti_localizer","","html-keyboard-response","241","332314","0.0-2.0-89.0-1.0","25","53725","male","1","null","","","","null","","87","","","332009","1","","","","","","300","111900","305","112703","300","","","","","","","","","","","","","","","","","","","","","","","","","","","",""
"","localizer","","html-keyboard-response","242","332719","0.0-2.0-90.0-0.0","25","53725","male","1","173","","","","68","0","88","","Stimuli/Experimental_stims/localizer/objects/muhammad-toqeer-NRJ9ipvz2iE-unsplash.jpg","332314","1","objects","","0","0","1","400","112200","405","113008","","","","","","","","","","","","","","","","","","","","","","","","","","","","",""
"","iti_localizer","","html-keyboard-response","243","333023","0.0-2.0-90.0-1.0","25","53725","male","1","null","","","","null","","88","","","332719","1","","","","","","300","112600","304","113413","300","","","","","","","","","","","","","","","","","","","","","","","","","","","",""
"","localizer","","html-keyboard-response","244","333429","0.0-2.0-91.0-0.0","25","53725","male","1","NaN","","","","null","NaN","89","","Stimuli/Experimental_stims/localizer/objects/chris-briggs-x9TCnxNBofE-unsplash.jpg","333023","1","objects","","0","1","0","400","112900","406","113717","","","","","","","","","","","","","","","","","","","","","","","","","","","","",""
"","iti_localizer","","html-keyboard-response","245","333733","0.0-2.0-91.0-1.0","25","53725","male","1","null","","","","null","","89","","","333429","1","","","","","","300","113300","304","114123","300","","","","","","","","","","","","","","","","","","","","","","","","","","","",""
"","localizer","","html-keyboard-response","246","334137","0.0-2.0-92.0-0.0","25","53725","male","1","167","","","","68","0","90","","Stimuli/Experimental_stims/localizer/objects/collab-media-eddtBBbaw0Y-unsplash.jpg","333733","1","objects","","0","0","1","400","113600","404","114427","","","","","","","","","","","","","","","","","","","","","","","","","","","","",""
"","iti_localizer","","html-keyboard-response","247","334442","0.0-2.0-92.0-1.0","25","53725","male","1","null","","","","null","","90","","","334137","1","","","","","","300","114000","305","114831","300","","","","","","","","","","","","","","","","","","","","","","","","","","","",""
"","localizer","","html-keyboard-response","248","334847","0.0-2.0-93.0-0.0","25","53725","male","1","5","","","","68","0","91","","Stimuli/Experimental_stims/localizer/objects/nordwood-themes-E9tFH39iRPE-unsplash.jpg","334442","1","objects","","0","0","1","400","114300","405","115136","","","","","","","","","","","","","","","","","","","","","","","","","","","","",""
"","iti_localizer","","html-keyboard-response","249","335152","0.0-2.0-93.0-1.0","25","53725","male","1","null","","","","null","","91","","","334847","1","","","","","","300","114700","305","115541","300","","","","","","","","","","","","","","","","","","","","","","","","","","","",""
"","localizer","","html-keyboard-response","250","335557","0.0-2.0-94.0-0.0","25","53725","male","1","110","","","","68","0","92","","Stimuli/Experimental_stims/localizer/objects/oriento-maVIpNNtmlQ-unsplash.jpg","335152","1","objects","","0","0","1","400","115000","405","115846","","","","","","","","","","","","","","","","","","","","","","","","","","","","",""
"","iti_localizer","","html-keyboard-response","251","335862","0.0-2.0-94.0-1.0","25","53725","male","1","null","","","","null","","92","","","335557","1","","","","","","300","115400","305","116251","300","","","","","","","","","","","","","","","","","","","","","","","","","","","",""
"","localizer","","html-keyboard-response","252","336267","0.0-2.0-95.0-0.0","25","53725","male","1","310","","","","68","0","93","","Stimuli/Experimental_stims/localizer/objects/alex-lvrs-2zDw14yCYqk-unsplash.jpg","335862","1","objects","","0","0","1","400","115700","405","116556","","","","","","","","","","","","","","","","","","","","","","","","","","","","",""
"","iti_localizer","","html-keyboard-response","253","336572","0.0-2.0-95.0-1.0","25","53725","male","1","null","","","","null","","93","","","336267","1","","","","","","300","116100","305","116961","300","","","","","","","","","","","","","","","","","","","","","","","","","","","",""
"","localizer","","html-keyboard-response","254","336977","0.0-2.0-96.0-0.0","25","53725","male","1","NaN","","","","null","NaN","94","","Stimuli/Experimental_stims/localizer/objects/quaritsch-photography-lZ8onQ1wuY8-unsplash.jpg","336572","1","objects","","0","1","0","400","116400","405","117266","","","","","","","","","","","","","","","","","","","","","","","","","","","","",""
"","iti_localizer","","html-keyboard-response","255","337281","0.0-2.0-96.0-1.0","25","53725","male","1","null","","","","null","","94","","","336977","1","","","","","","300","116800","304","117671","300","","","","","","","","","","","","","","","","","","","","","","","","","","","",""
"","localizer","","html-keyboard-response","256","337686","0.0-2.0-97.0-0.0","25","53725","male","1","NaN","","","","null","NaN","95","","Stimuli/Experimental_stims/localizer/objects/saif71-com-VIKdvmGUhq8-unsplash.jpg","337281","1","objects","","0","1","0","400","117100","405","117975","","","","","","","","","","","","","","","","","","","","","","","","","","","","",""
"","iti_localizer","","html-keyboard-response","257","337991","0.0-2.0-97.0-1.0","25","53725","male","1","null","","","","null","","95","","","337686","1","","","","","","300","117500","305","118380","300","","","","","","","","","","","","","","","","","","","","","","","","","","","",""
"","localizer","","html-keyboard-response","258","338396","0.0-2.0-98.0-0.0","25","53725","male","1","111","","","","68","0","96","","Stimuli/Experimental_stims/localizer/objects/yoann-siloine-_T4w3JDm6ug-unsplash.jpg","337991","1","objects","","0","0","1","400","117800","405","118685","","","","","","","","","","","","","","","","","","","","","","","","","","","","",""
"","iti_localizer","","html-keyboard-response","259","338701","0.0-2.0-98.0-1.0","25","53725","male","1","null","","","","null","","96","","","338396","1","","","","","","300","118200","305","119090","300","","","","","","","","","","","","","","","","","","","","","","","","","","","",""
"","localizer","","html-keyboard-response","260","339106","0.0-2.0-99.0-0.0","25","53725","male","1","116","","","","68","0","97","","Stimuli/Experimental_stims/localizer/objects/nicolas-hippert-kfr_eSrR08M-unsplash.jpg","338701","1","objects","","0","0","1","400","118500","405","119395","","","","","","","","","","","","","","","","","","","","","","","","","","","","",""
"","iti_localizer","","html-keyboard-response","261","339411","0.0-2.0-99.0-1.0","25","53725","male","1","null","","","","null","","97","","","339106","1","","","","","","300","118900","305","119800","300","","","","","","","","","","","","","","","","","","","","","","","","","","","",""
"","localizer","","html-keyboard-response","262","339815","0.0-2.0-100.0-0.0","25","53725","male","1","NaN","","","","null","NaN","98","","Stimuli/Experimental_stims/localizer/objects/designecologist-hvgd0ygXuQQ-unsplash.jpg","339411","1","objects","","0","1","0","400","119200","404","120105","","","","","","","","","","","","","","","","","","","","","","","","","","","","",""
"","iti_localizer","","html-keyboard-response","263","340120","0.0-2.0-100.0-1.0","25","53725","male","1","null","","","","null","","98","","","339815","1","","","","","","300","119600","305","120509","300","","","","","","","","","","","","","","","","","","","","","","","","","","","",""
"","localizer","","html-keyboard-response","264","340525","0.0-2.0-101.0-0.0","25","53725","male","1","NaN","","","","null","NaN","99","","Stimuli/Experimental_stims/localizer/objects/dario-mendez-WmF_XLF4-Rs-unsplash.jpg","340120","1","objects","","0","1","0","400","119900","405","120814","","","","","","","","","","","","","","","","","","","","","","","","","","","","",""
"","iti_localizer","","html-keyboard-response","265","340830","0.0-2.0-101.0-1.0","25","53725","male","1","null","","","","null","","99","","","340525","1","","","","","","300","120300","305","121219","300","","","","","","","","","","","","","","","","","","","","","","","","","","","",""
"","localizer","","html-keyboard-response","266","341235","0.0-2.0-102.0-0.0","25","53725","male","1","102","","","","68","0","100","","Stimuli/Experimental_stims/localizer/objects/quino-al-4SNUcHPiC8c-unsplash.jpg","340830","1","objects","","0","0","1","400","120600","405","121524","","","","","","","","","","","","","","","","","","","","","","","","","","","","",""
"","iti_localizer","","html-keyboard-response","267","341540","0.0-2.0-102.0-1.0","25","53725","male","1","null","","","","null","","100","","","341235","1","","","","","","300","121000","305","121929","300","","","","","","","","","","","","","","","","","","","","","","","","","","","",""
"","localizer","","html-keyboard-response","268","341946","0.0-2.0-103.0-0.0","25","53725","male","1","125","","","","68","0","101","","Stimuli/Experimental_stims/localizer/objects/hipster-mum-XookgCxFw6Q-unsplash.jpg","341540","1","objects","","0","0","1","400","121300","406","122234","","","","","","","","","","","","","","","","","","","","","","","","","","","","",""
"","iti_localizer","","html-keyboard-response","269","342251","0.0-2.0-103.0-1.0","25","53725","male","1","null","","","","null","","101","","","341946","1","","","","","","300","121700","305","122640","300","","","","","","","","","","","","","","","","","","","","","","","","","","","",""
"","localizer","","html-keyboard-response","270","342656","0.0-2.0-104.0-0.0","25","53725","male","1","261","","","","68","0","102","","Stimuli/Experimental_stims/localizer/objects/ryunosuke-kikuno-viEzuL1ouDs-unsplash.jpg","342251","1","objects","","0","0","1","400","122000","405","122945","","","","","","","","","","","","","","","","","","","","","","","","","","","","",""
"","iti_localizer","","html-keyboard-response","271","342960","0.0-2.0-104.0-1.0","25","53725","male","1","null","","","","null","","102","","","342656","1","","","","","","300","122400","304","123350","300","","","","","","","","","","","","","","","","","","","","","","","","","","","",""
"","localizer","","html-keyboard-response","272","343368","0.0-2.0-105.0-0.0","25","53725","male","1","NaN","","","","null","NaN","103","","Stimuli/Experimental_stims/localizer/objects/mae-mu-yl2d0CKW130-unsplash.jpg","342960","1","objects","","1","1","0","400","122700","408","123654","","","","","","","","","","","","","","","","","","","","","","","","","","","","",""
"","iti_localizer","","html-keyboard-response","273","343672","0.0-2.0-105.0-1.0","25","53725","male","1","null","","","","null","","103","","","343368","1","","","","","","300","123100","304","124062","300","","","","","","","","","","","","","","","","","","","","","","","","","","","",""
"","localizer","","html-keyboard-response","274","344077","0.0-2.0-106.0-0.0","25","53725","male","1","174","","","","75","1","104","","Stimuli/Experimental_stims/localizer/objects/jonny-caspari-wsvCC6UyKjs-unsplash.jpg","343672","1","objects","","0","0","0","400","123400","405","124366","","","","","","","","","","","","","","","","","","","","","","","","","","","","",""
"","iti_localizer","","html-keyboard-response","275","344382","0.0-2.0-106.0-1.0","25","53725","male","1","null","","","","null","","104","","","344077","1","","","","","","300","123800","305","124771","300","","","","","","","","","","","","","","","","","","","","","","","","","","","",""
"","localizer","","html-keyboard-response","276","344787","0.0-2.0-107.0-0.0","25","53725","male","1","10","","","","68","0","105","","Stimuli/Experimental_stims/localizer/objects/mulyadi-tWp0VSlSdMI-unsplash.jpg","344382","1","objects","","0","0","1","400","124100","405","125076","","","","","","","","","","","","","","","","","","","","","","","","","","","","",""
"","iti_localizer","","html-keyboard-response","277","358791","0.0-2.0-107.0-1.0","25","53725","male","1","null","","","","null","","105","","","344787","1","","","","","","14000","124500","14004","125481","14000","","","","","","","","","","","","","","","","","","","","","","","","","","","",""
"","localizer","","html-keyboard-response","278","359197","0.0-2.0-108.0-0.0","25","53725","male","1","NaN","","","","null","NaN","106","","Stimuli/Experimental_stims/localizer/outdoor_scenes/johny-goerend-U_diPCXCBxU-unsplash.jpg","358791","1","outdoor_scenes","","1","1","0","400","138500","406","139485","","","","","","","","","","","","","","","","","","","","","","","","","","","","",""
"","iti_localizer","","html-keyboard-response","279","359502","0.0-2.0-108.0-1.0","25","53725","male","1","null","","","","null","","106","","","359197","1","","","","","","300","138900","305","139891","300","","","","","","","","","","","","","","","","","","","","","","","","","","","",""
"","localizer","","html-keyboard-response","280","359907","0.0-2.0-109.0-0.0","25","53725","male","1","290","","","","75","1","107","","Stimuli/Experimental_stims/localizer/outdoor_scenes/jordan-heath-4z_SYrG5mgA-unsplash.jpg","359502","1","outdoor_scenes","","0","0","0","400","139200","405","140196","","","","","","","","","","","","","","","","","","","","","","","","","","","","",""
"","iti_localizer","","html-keyboard-response","281","360212","0.0-2.0-109.0-1.0","25","53725","male","1","null","","","","null","","107","","","359907","1","","","","","","300","139600","305","140601","300","","","","","","","","","","","","","","","","","","","","","","","","","","","",""
"","localizer","","html-keyboard-response","282","360617","0.0-2.0-110.0-0.0","25","53725","male","1","79","","","","68","0","108","","Stimuli/Experimental_stims/localizer/outdoor_scenes/nicolas-jehly-LzVB84KkZOE-unsplash.jpg","360212","1","outdoor_scenes","","0","0","1","400","139900","405","140906","","","","","","","","","","","","","","","","","","","","","","","","","","","","",""
"","iti_localizer","","html-keyboard-response","283","360922","0.0-2.0-110.0-1.0","25","53725","male","1","null","","","","null","","108","","","360617","1","","","","","","300","140300","305","141311","300","","","","","","","","","","","","","","","","","","","","","","","","","","","",""
"","localizer","","html-keyboard-response","284","361326","0.0-2.0-111.0-0.0","25","53725","male","1","NaN","","","","null","NaN","109","","Stimuli/Experimental_stims/localizer/outdoor_scenes/kenneth-thewissen-D76DklsG-5U-unsplash.jpg","360922","1","outdoor_scenes","","0","1","0","400","140600","404","141616","","","","","","","","","","","","","","","","","","","","","","","","","","","","",""
"","iti_localizer","","html-keyboard-response","285","361631","0.0-2.0-111.0-1.0","25","53725","male","1","null","","","","null","","109","","","361326","1","","","","","","300","141000","305","142020","300","","","","","","","","","","","","","","","","","","","","","","","","","","","",""
"","localizer","","html-keyboard-response","286","362036","0.0-2.0-112.0-0.0","25","53725","male","1","NaN","","","","null","NaN","110","","Stimuli/Experimental_stims/localizer/outdoor_scenes/ryan-schroeder-Gg7uKdHFb_c-unsplash.jpg","361631","1","outdoor_scenes","","0","1","0","400","141300","405","142325","","","","","","","","","","","","","","","","","","","","","","","","","","","","",""
"","iti_localizer","","html-keyboard-response","287","362341","0.0-2.0-112.0-1.0","25","53725","male","1","null","","","","null","","110","","","362036","1","","","","","","300","141700","305","142730","300","","","","","","","","","","","","","","","","","","","","","","","","","","","",""
"","localizer","","html-keyboard-response","288","362746","0.0-2.0-113.0-0.0","25","53725","male","1","NaN","","","","null","NaN","111","","Stimuli/Experimental_stims/localizer/outdoor_scenes/kalen-emsley-Bkci_8qcdvQ-unsplash.jpg","362341","1","outdoor_scenes","","0","1","0","400","142000","405","143035","","","","","","","","","","","","","","","","","","","","","","","","","","","","",""
"","iti_localizer","","html-keyboard-response","289","363050","0.0-2.0-113.0-1.0","25","53725","male","1","null","","","","null","","111","","","362746","1","","","","","","300","142400","304","143440","300","","","","","","","","","","","","","","","","","","","","","","","","","","","",""
"","localizer","","html-keyboard-response","290","363455","0.0-2.0-114.0-0.0","25","53725","male","1","NaN","","","","null","NaN","112","","Stimuli/Experimental_stims/localizer/outdoor_scenes/fabian-quintero-UWQP2mh5YJI-unsplash.jpg","363050","1","outdoor_scenes","","0","1","0","400","142700","405","143744","","","","","","","","","","","","","","","","","","","","","","","","","","","","",""
"","iti_localizer","","html-keyboard-response","291","363759","0.0-2.0-114.0-1.0","25","53725","male","1","null","","","","null","","112","","","363455","1","","","","","","300","143100","304","144149","300","","","","","","","","","","","","","","","","","","","","","","","","","","","",""
"","localizer","","html-keyboard-response","292","364164","0.0-2.0-115.0-0.0","25","53725","male","1","NaN","","","","null","NaN","113","","Stimuli/Experimental_stims/localizer/outdoor_scenes/quentin-zwzeorQPepo-unsplash.jpg","363759","1","outdoor_scenes","","0","1","0","400","143400","405","144453","","","","","","","","","","","","","","","","","","","","","","","","","","","","",""
"","iti_localizer","","html-keyboard-response","293","364468","0.0-2.0-115.0-1.0","25","53725","male","1","null","","","","null","","113","","","364164","1","","","","","","300","143800","304","144858","300","","","","","","","","","","","","","","","","","","","","","","","","","","","",""
"","localizer","","html-keyboard-response","294","364873","0.0-2.0-116.0-0.0","25","53725","male","1","NaN","","","","null","NaN","114","","Stimuli/Experimental_stims/localizer/outdoor_scenes/tomasz-filipek-CUWC-6MRcNg-unsplash.jpg","364468","1","outdoor_scenes","","0","1","0","400","144100","405","145162","","","","","","","","","","","","","","","","","","","","","","","","","","","","",""
"","iti_localizer","","html-keyboard-response","295","365177","0.0-2.0-116.0-1.0","25","53725","male","1","null","","","","null","","114","","","364873","1","","","","","","300","144500","304","145567","300","","","","","","","","","","","","","","","","","","","","","","","","","","","",""
"","localizer","","html-keyboard-response","296","365582","0.0-2.0-117.0-0.0","25","53725","male","1","NaN","","","","null","NaN","115","","Stimuli/Experimental_stims/localizer/outdoor_scenes/bruno-van-der-kraan-qez8mNJ3ilU-unsplash.jpg","365177","1","outdoor_scenes","","0","1","0","400","144800","405","145871","","","","","","","","","","","","","","","","","","","","","","","","","","","","",""
"","iti_localizer","","html-keyboard-response","297","365887","0.0-2.0-117.0-1.0","25","53725","male","1","null","","","","null","","115","","","365582","1","","","","","","300","145200","305","146276","300","","","","","","","","","","","","","","","","","","","","","","","","","","","",""
"","localizer","","html-keyboard-response","298","366292","0.0-2.0-118.0-0.0","25","53725","male","1","NaN","","","","null","NaN","116","","Stimuli/Experimental_stims/localizer/outdoor_scenes/sabeer-darr-Upz-tnx2v2s-unsplash.jpg","365887","1","outdoor_scenes","","0","1","0","400","145500","405","146581","","","","","","","","","","","","","","","","","","","","","","","","","","","","",""
"","iti_localizer","","html-keyboard-response","299","366597","0.0-2.0-118.0-1.0","25","53725","male","1","null","","","","null","","116","","","366292","1","","","","","","300","145900","305","146986","300","","","","","","","","","","","","","","","","","","","","","","","","","","","",""
