"success","ttype","start_time","trial_type","trial_index","time_elapsed","internal_node_id","age","PID","gender","rt","responses","view_history","repeat_instructions","key_press","response","index","stimulus_index","path","run","task","isi","is_odd_ball","no_response","acc","duration","onset","pair_id","practice","scramble_screen_time","scramble_instructed_side","stim_type","iti","block","left_stimulus","right_stimulus","left_category","right_category","left_path","right_path","left_rating","right_rating","warning","response_ends_trial","trial_duration","scramble_acc","scramble_no_response","left_chosen","chosen_stimulus","unchosen_stimulus","chosen_category","unchosen_category","chosen_rating","unchosen_rating","chosen_path","unchosen_path","stimulus_id","item_id","outcome","response_rt","deliberation_reward_tally","missed_checkup","choice_type","gain_left","left_item_id","right_item_id","chosen_left","old_pair","pair_type","old_response","pair_acc","reward_type","outcome_response","outcome_rt","outcome_acc","category","choice","deliberated_stim","old_rating","new_rating","total_reward_tally"
"true","full_screen","d06292023hr0113","fullscreen","0","33353","0.0-0.0-0.0","0","46835","","","","","","","","","","","","","","","","","","","","","","","","","","","","","","","","","","","","","","","","","","","","","","","","","","","","","","","","","","","","","","","","","","","","","","","",""
"","get_id","","survey-text","1","37778","0.0-0.0-1.0","0","46835","","4418","{""Q0"":""1"",""Q1"":""""}","","","","","","","","","","","","","","","","","","","","","","","","","","","","","","","","","","","","","","","","","","","","","","","","","","","","","","","","","","","","","","","","","","","","",""
"","ratings_instructions","","instructions","2","47559","0.0-1.0-0.0-0.0","0","46835","","9002","","[{""page_index"":0,""viewing_time"":8265},{""page_index"":1,""viewing_time"":737}]","","","","","","","","","","","","","","","","","","","","","","","","","","","","","","","","","","","","","","","","","","","","","","","","","","","","","","","","","","","","","","","","","","","",""
"","rating_comprehension_check","","survey-multi-choice","3","50715","0.0-1.0-0.0-1.0","0","46835","","3150","{""Q0"":""True"",""Q1"":""Mouse""}","","0","","","","","","","","","","","","","","","","","","","","","","","","","","","","","","","","","","","","","","","","","","","","","","","","","","","","","","","","","","","","","","","","","","",""
"","","","html-keyboard-response","4","51764","0.0-1.0-1.0","0","46835","","1043","","","","68","","","","","","","","","","","","","","","","","","","","","","","","","","","","","","","","","","","","","","","","","","","","","","","","","","","","","","","","","","","","","","","","","",""
"","rating","","html-slider-response","5","53230","0.0-1.0-2.0","0","46835","","1462","","","","","50","0","23","Stimuli/Experimental_stims/faces/rikonavt-HQjfrvdTfak-unsplash.jpg","","","","","","","","","","","","","","","","","","","","","","","","","","","","","","","","","","","","","","","","","","","","","","","","","","","","","","","","","","","","","",""
"","rating","","html-slider-response","6","53562","0.0-1.0-3.0","0","46835","","326","","","","","50","1","17","Stimuli/Experimental_stims/faces/good-faces-xmSWVeGEnJw-unsplash.jpg","","","","","","","","","","","","","","","","","","","","","","","","","","","","","","","","","","","","","","","","","","","","","","","","","","","","","","","","","","","","","",""
"","rating","","html-slider-response","7","53740","0.0-1.0-4.0","0","46835","","173","","","","","50","2","10","Stimuli/Experimental_stims/outdoor_scenes/shannon-kunkle-dM8INmkyDas-unsplash.jpg","","","","","","","","","","","","","","","","","","","","","","","","","","","","","","","","","","","","","","","","","","","","","","","","","","","","","","","","","","","","","",""
"","rating","","html-slider-response","8","53910","0.0-1.0-5.0","0","46835","","165","","","","","50","3","37","Stimuli/Experimental_stims/objects/alexander-andrews-VLGWE_SumrA-unsplash.jpg","","","","","","","","","","","","","","","","","","","","","","","","","","","","","","","","","","","","","","","","","","","","","","","","","","","","","","","","","","","","","",""
"","rating","","html-slider-response","9","54072","0.0-1.0-6.0","0","46835","","156","","","","","50","4","12","Stimuli/Experimental_stims/faces/aiony-haust-jmATI5Q_YgY-unsplash.jpg","","","","","","","","","","","","","","","","","","","","","","","","","","","","","","","","","","","","","","","","","","","","","","","","","","","","","","","","","","","","","",""
"","rating","","html-slider-response","10","54250","0.0-1.0-7.0","0","46835","","173","","","","","50","5","13","Stimuli/Experimental_stims/faces/daniel-rigdon-dXmXKPP2L4E-unsplash.jpg","","","","","","","","","","","","","","","","","","","","","","","","","","","","","","","","","","","","","","","","","","","","","","","","","","","","","","","","","","","","","",""
"","rating","","html-slider-response","11","54420","0.0-1.0-8.0","0","46835","","165","","","","","50","6","46","Stimuli/Experimental_stims/objects/mockup-graphics-PNsj6RiHAF4-unsplash.jpg","","","","","","","","","","","","","","","","","","","","","","","","","","","","","","","","","","","","","","","","","","","","","","","","","","","","","","","","","","","","","",""
"","rating","","html-slider-response","12","54590","0.0-1.0-9.0","0","46835","","164","","","","","50","7","0","Stimuli/Experimental_stims/outdoor_scenes/aleksandra-boguslawska-MS7KD9Ti7FQ-unsplash.jpg","","","","","","","","","","","","","","","","","","","","","","","","","","","","","","","","","","","","","","","","","","","","","","","","","","","","","","","","","","","","","",""
"","rating","","html-slider-response","13","54768","0.0-1.0-10.0","0","46835","","173","","","","","50","8","42","Stimuli/Experimental_stims/objects/jess-bailey-nOeVi8DsN8U-unsplash.jpg","","","","","","","","","","","","","","","","","","","","","","","","","","","","","","","","","","","","","","","","","","","","","","","","","","","","","","","","","","","","","",""
"","rating","","html-slider-response","14","54955","0.0-1.0-11.0","0","46835","","181","","","","","50","9","29","Stimuli/Experimental_stims/body_parts/manuel-schinner-ZwjFuJ7ebpk-unsplash.jpg","","","","","","","","","","","","","","","","","","","","","","","","","","","","","","","","","","","","","","","","","","","","","","","","","","","","","","","","","","","","","",""
"","rating","","html-slider-response","15","55132","0.0-1.0-12.0","0","46835","","172","","","","","50","10","45","Stimuli/Experimental_stims/objects/leohoho-rngTKHXumy0-unsplash.jpg","","","","","","","","","","","","","","","","","","","","","","","","","","","","","","","","","","","","","","","","","","","","","","","","","","","","","","","","","","","","","",""
"","rating","","html-slider-response","16","55310","0.0-1.0-13.0","0","46835","","172","","","","","50","11","16","Stimuli/Experimental_stims/faces/freddy-kearney-o-ioeoATbIM-unsplash.jpg","","","","","","","","","","","","","","","","","","","","","","","","","","","","","","","","","","","","","","","","","","","","","","","","","","","","","","","","","","","","","",""
"","rating","","html-slider-response","17","55488","0.0-1.0-14.0","0","46835","","173","","","","","50","12","35","Stimuli/Experimental_stims/body_parts/wc-so-KH4AAPjb-tI-unsplash.jpg","","","","","","","","","","","","","","","","","","","","","","","","","","","","","","","","","","","","","","","","","","","","","","","","","","","","","","","","","","","","","",""
"","rating","","html-slider-response","18","55666","0.0-1.0-15.0","0","46835","","173","","","","","50","13","8","Stimuli/Experimental_stims/outdoor_scenes/samsommer-vddccTqwal8-unsplash.jpg","","","","","","","","","","","","","","","","","","","","","","","","","","","","","","","","","","","","","","","","","","","","","","","","","","","","","","","","","","","","","",""
"","rating","","html-slider-response","19","55844","0.0-1.0-16.0","0","46835","","173","","","","","50","14","18","Stimuli/Experimental_stims/faces/jessica-radanavong-mrYkTuAesKE-unsplash.jpg","","","","","","","","","","","","","","","","","","","","","","","","","","","","","","","","","","","","","","","","","","","","","","","","","","","","","","","","","","","","","",""
"","rating","","html-slider-response","20","56006","0.0-1.0-17.0","0","46835","","157","","","","","50","15","6","Stimuli/Experimental_stims/outdoor_scenes/meng-ji-8BH_M-53CyA-unsplash.jpg","","","","","","","","","","","","","","","","","","","","","","","","","","","","","","","","","","","","","","","","","","","","","","","","","","","","","","","","","","","","","",""
"","rating","","html-slider-response","21","56184","0.0-1.0-18.0","0","46835","","173","","","","","50","16","2","Stimuli/Experimental_stims/outdoor_scenes/bruno-van-der-kraan-qez8mNJ3ilU-unsplash.jpg","","","","","","","","","","","","","","","","","","","","","","","","","","","","","","","","","","","","","","","","","","","","","","","","","","","","","","","","","","","","","",""
"","rating","","html-slider-response","22","56378","0.0-1.0-19.0","0","46835","","188","","","","","50","17","33","Stimuli/Experimental_stims/body_parts/tucker-good-36skLT5jZcc-unsplash.jpg","","","","","","","","","","","","","","","","","","","","","","","","","","","","","","","","","","","","","","","","","","","","","","","","","","","","","","","","","","","","","",""
"","rating","","html-slider-response","23","56564","0.0-1.0-20.0","0","46835","","181","","","","","50","18","25","Stimuli/Experimental_stims/body_parts/engin-akyurt-Q2rfH3GW39c-unsplash.jpg","","","","","","","","","","","","","","","","","","","","","","","","","","","","","","","","","","","","","","","","","","","","","","","","","","","","","","","","","","","","","",""
"","rating","","html-slider-response","24","56751","0.0-1.0-21.0","0","46835","","182","","","","","50","19","4","Stimuli/Experimental_stims/outdoor_scenes/jarrett-kow-1ZOyYPOBn7I-unsplash.jpg","","","","","","","","","","","","","","","","","","","","","","","","","","","","","","","","","","","","","","","","","","","","","","","","","","","","","","","","","","","","","",""
"","rating","","html-slider-response","25","56931","0.0-1.0-22.0","0","46835","","176","","","","","50","20","11","Stimuli/Experimental_stims/outdoor_scenes/stephen-leonardi-gyIRjKPXupE-unsplash.jpg","","","","","","","","","","","","","","","","","","","","","","","","","","","","","","","","","","","","","","","","","","","","","","","","","","","","","","","","","","","","","",""
"","rating","","html-slider-response","26","57101","0.0-1.0-23.0","0","46835","","167","","","","","50","21","47","Stimuli/Experimental_stims/objects/ronaldo-arthur-vidal-Cdz_lvnl37k-unsplash.jpg","","","","","","","","","","","","","","","","","","","","","","","","","","","","","","","","","","","","","","","","","","","","","","","","","","","","","","","","","","","","","",""
"","rating","","html-slider-response","27","57285","0.0-1.0-24.0","0","46835","","179","","","","","50","22","39","Stimuli/Experimental_stims/objects/charlesdeluvio-1-nx1QR5dTE-unsplash.jpg","","","","","","","","","","","","","","","","","","","","","","","","","","","","","","","","","","","","","","","","","","","","","","","","","","","","","","","","","","","","","",""
"","rating","","html-slider-response","28","57463","0.0-1.0-25.0","0","46835","","173","","","","","50","23","3","Stimuli/Experimental_stims/outdoor_scenes/henry-be-NLF6hTe4PAg-unsplash.jpg","","","","","","","","","","","","","","","","","","","","","","","","","","","","","","","","","","","","","","","","","","","","","","","","","","","","","","","","","","","","","",""
"","rating","","html-slider-response","29","57655","0.0-1.0-26.0","0","46835","","187","","","","","50","24","34","Stimuli/Experimental_stims/body_parts/wagner-santos-mBWMvIuVnso-unsplash.jpg","","","","","","","","","","","","","","","","","","","","","","","","","","","","","","","","","","","","","","","","","","","","","","","","","","","","","","","","","","","","","",""
"","rating","","html-slider-response","30","57842","0.0-1.0-27.0","0","46835","","182","","","","","50","25","27","Stimuli/Experimental_stims/body_parts/heike-mintel-i_Gns0ELnLw-unsplash.jpg","","","","","","","","","","","","","","","","","","","","","","","","","","","","","","","","","","","","","","","","","","","","","","","","","","","","","","","","","","","","","",""
"","rating","","html-slider-response","31","58020","0.0-1.0-28.0","0","46835","","173","","","","","50","26","43","Stimuli/Experimental_stims/objects/jonathan-greenaway-Y4hGgeiFn3s-unsplash.jpg","","","","","","","","","","","","","","","","","","","","","","","","","","","","","","","","","","","","","","","","","","","","","","","","","","","","","","","","","","","","","",""
"","rating","","html-slider-response","32","58189","0.0-1.0-29.0","0","46835","","163","","","","","50","27","40","Stimuli/Experimental_stims/objects/fabian-blank-pElSkGRA2NU-unsplash.jpg","","","","","","","","","","","","","","","","","","","","","","","","","","","","","","","","","","","","","","","","","","","","","","","","","","","","","","","","","","","","","",""
"","rating","","html-slider-response","33","58377","0.0-1.0-30.0","0","46835","","183","","","","","50","28","38","Stimuli/Experimental_stims/objects/art-lasovsky-8XddFc6NkBY-unsplash.jpg","","","","","","","","","","","","","","","","","","","","","","","","","","","","","","","","","","","","","","","","","","","","","","","","","","","","","","","","","","","","","",""
"","rating","","html-slider-response","34","58547","0.0-1.0-31.0","0","46835","","164","","","","","50","29","9","Stimuli/Experimental_stims/outdoor_scenes/sergey-pesterev-y-b_FOmJXdg-unsplash.jpg","","","","","","","","","","","","","","","","","","","","","","","","","","","","","","","","","","","","","","","","","","","","","","","","","","","","","","","","","","","","","",""
"","rating","","html-slider-response","35","58724","0.0-1.0-32.0","0","46835","","172","","","","","50","30","19","Stimuli/Experimental_stims/faces/joel-mott-LaK153ghdig-unsplash.jpg","","","","","","","","","","","","","","","","","","","","","","","","","","","","","","","","","","","","","","","","","","","","","","","","","","","","","","","","","","","","","",""
"","rating","","html-slider-response","36","58943","0.0-1.0-33.0","0","46835","","215","","","","","50","31","24","Stimuli/Experimental_stims/body_parts/clay-banks-LjqARJaJotc-unsplash.jpg","","","","","","","","","","","","","","","","","","","","","","","","","","","","","","","","","","","","","","","","","","","","","","","","","","","","","","","","","","","","","",""
"","rating","","html-slider-response","37","59121","0.0-1.0-34.0","0","46835","","172","","","","","50","32","14","Stimuli/Experimental_stims/faces/david-siglin-UuW4psOb388-unsplash.jpg","","","","","","","","","","","","","","","","","","","","","","","","","","","","","","","","","","","","","","","","","","","","","","","","","","","","","","","","","","","","","",""
"","rating","","html-slider-response","38","59298","0.0-1.0-35.0","0","46835","","171","","","","","50","33","44","Stimuli/Experimental_stims/objects/kuiye-chen-NuOGFo4PudE-unsplash.jpg","","","","","","","","","","","","","","","","","","","","","","","","","","","","","","","","","","","","","","","","","","","","","","","","","","","","","","","","","","","","","",""
"","rating","","html-slider-response","39","59486","0.0-1.0-36.0","0","46835","","183","","","","","50","34","15","Stimuli/Experimental_stims/faces/erik-lucatero-d2MSDujJl2g-unsplash.jpg","","","","","","","","","","","","","","","","","","","","","","","","","","","","","","","","","","","","","","","","","","","","","","","","","","","","","","","","","","","","","",""
"","rating","","html-slider-response","40","59663","0.0-1.0-37.0","0","46835","","172","","","","","50","35","1","Stimuli/Experimental_stims/outdoor_scenes/ashim-d-silva-S2Q5mdOrrVc-unsplash.jpg","","","","","","","","","","","","","","","","","","","","","","","","","","","","","","","","","","","","","","","","","","","","","","","","","","","","","","","","","","","","","",""
"","rating","","html-slider-response","41","59849","0.0-1.0-38.0","0","46835","","180","","","","","50","36","22","Stimuli/Experimental_stims/faces/ravi-patel-VMGAbeeJTKo-unsplash.jpg","","","","","","","","","","","","","","","","","","","","","","","","","","","","","","","","","","","","","","","","","","","","","","","","","","","","","","","","","","","","","",""
"","rating","","html-slider-response","42","60036","0.0-1.0-39.0","0","46835","","182","","","","","50","37","26","Stimuli/Experimental_stims/body_parts/engin-akyurt-x_3gyC42btc-unsplash.jpg","","","","","","","","","","","","","","","","","","","","","","","","","","","","","","","","","","","","","","","","","","","","","","","","","","","","","","","","","","","","","",""
"","rating","","html-slider-response","43","60206","0.0-1.0-40.0","0","46835","","165","","","","","50","38","31","Stimuli/Experimental_stims/body_parts/sincerely-media-VN6DbKajo5s-unsplash.jpg","","","","","","","","","","","","","","","","","","","","","","","","","","","","","","","","","","","","","","","","","","","","","","","","","","","","","","","","","","","","","",""
"","rating","","html-slider-response","44","60400","0.0-1.0-41.0","0","46835","","189","","","","","50","39","36","Stimuli/Experimental_stims/objects/alexander-andrews-JYGnB9gTCls-unsplash.jpg","","","","","","","","","","","","","","","","","","","","","","","","","","","","","","","","","","","","","","","","","","","","","","","","","","","","","","","","","","","","","",""
"","rating","","html-slider-response","45","60594","0.0-1.0-42.0","0","46835","","189","","","","","50","40","28","Stimuli/Experimental_stims/body_parts/ira-vishnevskaya-8DQAvdCby1I-unsplash.jpg","","","","","","","","","","","","","","","","","","","","","","","","","","","","","","","","","","","","","","","","","","","","","","","","","","","","","","","","","","","","","",""
"","rating","","html-slider-response","46","60773","0.0-1.0-43.0","0","46835","","173","","","","","50","41","20","Stimuli/Experimental_stims/faces/justin-chen-J7Cf1Gch49E-unsplash.jpg","","","","","","","","","","","","","","","","","","","","","","","","","","","","","","","","","","","","","","","","","","","","","","","","","","","","","","","","","","","","","",""
"","rating","","html-slider-response","47","60950","0.0-1.0-44.0","0","46835","","172","","","","","50","42","41","Stimuli/Experimental_stims/objects/insung-yoon-w2JtIQQXoRU-unsplash.jpg","","","","","","","","","","","","","","","","","","","","","","","","","","","","","","","","","","","","","","","","","","","","","","","","","","","","","","","","","","","","","",""
"","rating","","html-slider-response","48","61354","0.0-1.0-45.0","0","46835","","399","","","","","50","43","7","Stimuli/Experimental_stims/outdoor_scenes/petr-vysohlid-9fqwGqGLUxc-unsplash.jpg","","","","","","","","","","","","","","","","","","","","","","","","","","","","","","","","","","","","","","","","","","","","","","","","","","","","","","","","","","","","","",""
"","rating","","html-slider-response","49","61531","0.0-1.0-46.0","0","46835","","171","","","","","50","44","5","Stimuli/Experimental_stims/outdoor_scenes/jeff-king-bJHWJeiHfHc-unsplash.jpg","","","","","","","","","","","","","","","","","","","","","","","","","","","","","","","","","","","","","","","","","","","","","","","","","","","","","","","","","","","","","",""
"","rating","","html-slider-response","50","61711","0.0-1.0-47.0","0","46835","","175","","","","","50","45","30","Stimuli/Experimental_stims/body_parts/mika-korhonen-Xodzxosar18-unsplash.jpg","","","","","","","","","","","","","","","","","","","","","","","","","","","","","","","","","","","","","","","","","","","","","","","","","","","","","","","","","","","","","",""
"","rating","","html-slider-response","51","61881","0.0-1.0-48.0","0","46835","","166","","","","","50","46","32","Stimuli/Experimental_stims/body_parts/towfiqu-barbhuiya-3AsiVDsZnHg-unsplash.jpg","","","","","","","","","","","","","","","","","","","","","","","","","","","","","","","","","","","","","","","","","","","","","","","","","","","","","","","","","","","","","",""
"","rating","","html-slider-response","52","62075","0.0-1.0-49.0","0","46835","","189","","","","","50","47","21","Stimuli/Experimental_stims/faces/leilani-angel-K84vnnzxmTQ-unsplash.jpg","","","","","","","","","","","","","","","","","","","","","","","","","","","","","","","","","","","","","","","","","","","","","","","","","","","","","","","","","","","","","",""
"","localizer_instructions","","instructions","53","63999","0.0-2.0-0.0-0.0","0","46835","","1891","","[{""page_index"":0,""viewing_time"":1521},{""page_index"":1,""viewing_time"":177},{""page_index"":2,""viewing_time"":193}]","","","","","","","","","","","","","","","","","","","","","","","","","","","","","","","","","","","","","","","","","","","","","","","","","","","","","","","","","","","","","","","","","","","",""
"","localizer_comprehension_check","","survey-multi-choice","54","70798","0.0-2.0-0.0-1.0","0","46835","","6793","{""Q0"":""True"",""Q1"":""K"",""Q2"":""D""}","","0","","","","","","","","","","","","","","","","","","","","","","","","","","","","","","","","","","","","","","","","","","","","","","","","","","","","","","","","","","","","","","","","","","",""
"","","","html-keyboard-response","55","71180","0.0-2.0-1.0","0","46835","","377","","","","68","","","","","","","","","","","","","","","","","","","","","","","","","","","","","","","","","","","","","","","","","","","","","","","","","","","","","","","","","","","","","","","","","",""
"","localizer","","html-keyboard-response","56","71591","0.0-2.0-2.0-0.0","0","46835","","NaN","","","","null","NaN","0","","Stimuli/Practice_stims/Localizer/annie-spratt-g9KFpAfQ5bc-unsplash.jpg","0","NaN","","0","1","0","0.4","0","","","","","","","","","","","","","","","","","","","","","","","","","","","","","","","","","","","","","","","","","","","","","","","","","","","","","",""
"","iti_localizer","","html-keyboard-response","57","71905","0.0-2.0-2.0-1.0","0","46835","","null","","","","null","","0","","","0","","","","","","0.3","0.4","","","","","","","","","","","","","","","","","","","","","","","","","","","","","","","","","","","","","","","","","","","","","","","","","","","","","",""
"","localizer","","html-keyboard-response","58","72318","0.0-2.0-3.0-0.0","0","46835","","NaN","","","","null","NaN","1","","Stimuli/Practice_stims/Localizer/becca-tapert-sY5RjMB1KkE-unsplash.jpg","0","NaN","","0","1","0","0.4","0.7","","","","","","","","","","","","","","","","","","","","","","","","","","","","","","","","","","","","","","","","","","","","","","","","","","","","","",""
"","iti_localizer","","html-keyboard-response","59","72633","0.0-2.0-3.0-1.0","0","46835","","null","","","","null","","1","","","0","","","","","","0.3","1.1","","","","","","","","","","","","","","","","","","","","","","","","","","","","","","","","","","","","","","","","","","","","","","","","","","","","","",""
"","localizer","","html-keyboard-response","60","73049","0.0-2.0-4.0-0.0","0","46835","","NaN","","","","null","NaN","2","","Stimuli/Practice_stims/Localizer/charl-durand-bsfXvI25iNg-unsplash.jpg","0","NaN","","1","1","0","0.4","1.4000000000000001","","","","","","","","","","","","","","","","","","","","","","","","","","","","","","","","","","","","","","","","","","","","","","","","","","","","","",""
"","iti_localizer","","html-keyboard-response","61","73357","0.0-2.0-4.0-1.0","0","46835","","null","","","","null","","2","","","0","","","","","","0.3","1.8000000000000003","","","","","","","","","","","","","","","","","","","","","","","","","","","","","","","","","","","","","","","","","","","","","","","","","","","","","",""
"","localizer","","html-keyboard-response","62","73764","0.0-2.0-5.0-0.0","0","46835","","NaN","","","","null","NaN","3","","Stimuli/Practice_stims/Localizer/nizar-albusaidy-B2r2SWAf5CE-unsplash.jpg","0","NaN","","0","1","0","0.4","2.1","","","","","","","","","","","","","","","","","","","","","","","","","","","","","","","","","","","","","","","","","","","","","","","","","","","","","",""
"","iti_localizer","","html-keyboard-response","63","74077","0.0-2.0-5.0-1.0","0","46835","","null","","","","null","","3","","","0","","","","","","0.3","2.5","","","","","","","","","","","","","","","","","","","","","","","","","","","","","","","","","","","","","","","","","","","","","","","","","","","","","",""
"","localizer","","html-keyboard-response","64","74487","0.0-2.0-6.0-0.0","0","46835","","NaN","","","","null","NaN","4","","Stimuli/Practice_stims/Localizer/randy-fath-epf1tdtIIkM-unsplash.jpg","0","NaN","","1","1","0","0.4","2.8","","","","","","","","","","","","","","","","","","","","","","","","","","","","","","","","","","","","","","","","","","","","","","","","","","","","","",""
"","iti_localizer","","html-keyboard-response","65","74797","0.0-2.0-6.0-1.0","0","46835","","null","","","","null","","4","","","0","","","","","","0.3","3.1999999999999997","","","","","","","","","","","","","","","","","","","","","","","","","","","","","","","","","","","","","","","","","","","","","","","","","","","","","",""
"","localizer","","html-keyboard-response","66","75207","0.0-2.0-7.0-0.0","0","46835","","NaN","","","","null","NaN","5","","Stimuli/Practice_stims/Localizer/yassine-khalfalli-adsQ9d_Cx0c-unsplash.jpg","0","NaN","","0","1","0","0.4","3.4999999999999996","","","","","","","","","","","","","","","","","","","","","","","","","","","","","","","","","","","","","","","","","","","","","","","","","","","","","",""
"","iti_localizer","","html-keyboard-response","67","75521","0.0-2.0-7.0-1.0","0","46835","","null","","","","null","","5","","","0","","","","","","0.3","3.8999999999999995","","","","","","","","","","","","","","","","","","","","","","","","","","","","","","","","","","","","","","","","","","","","","","","","","","","","","",""
"","practice_over","","html-keyboard-response","68","76578","0.0-2.0-7.0-2.0-0.0","0","46835","","1052","","","","68","","","","","","","","","","","","","","","","","","","","","","","","","","","","","","","","","","","","","","","","","","","","","","","","","","","","","","","","","","","","","","","","","",""
"","start_run","","html-keyboard-response","69","77656","0.0-2.0-7.0-2.0-1.0","0","46835","","1075","","","","84","","","","","","","","","","","","","","","","","","","","","","","","","","","","","","","","","","","","","","","","","","","","","","","","","","","","","","","","","","","","","","","","","",""
"","localizer","","html-keyboard-response","70","78073","0.0-2.0-8.0-0.0","0","46835","","NaN","","","","null","NaN","6","","Stimuli/Experimental_stims/localizer/outdoor_scenes/simon-berger-UqCnDyc_3vA-unsplash.jpg","1","outdoor_scenes","","0","1","0","0.4","0","","","","","","","","","","","","","","","","","","","","","","","","","","","","","","","","","","","","","","","","","","","","","","","","","","","","","",""
"","iti_localizer","","html-keyboard-response","71","78385","0.0-2.0-8.0-1.0","0","46835","","null","","","","null","","6","","","1","","","","","","0.3","0.4","","","","","","","","","","","","","","","","","","","","","","","","","","","","","","","","","","","","","","","","","","","","","","","","","","","","","",""
"","localizer","","html-keyboard-response","72","78797","0.0-2.0-9.0-0.0","0","46835","","NaN","","","","null","NaN","7","","Stimuli/Experimental_stims/localizer/outdoor_scenes/benjamin-davies-Zm2n2O7Fph4-unsplash.jpg","1","outdoor_scenes","","0","1","0","0.4","0.7","","","","","","","","","","","","","","","","","","","","","","","","","","","","","","","","","","","","","","","","","","","","","","","","","","","","","",""
"","iti_localizer","","html-keyboard-response","73","79112","0.0-2.0-9.0-1.0","0","46835","","null","","","","null","","7","","","1","","","","","","0.3","1.1","","","","","","","","","","","","","","","","","","","","","","","","","","","","","","","","","","","","","","","","","","","","","","","","","","","","","",""
"","localizer","","html-keyboard-response","74","79523","0.0-2.0-10.0-0.0","0","46835","","NaN","","","","null","NaN","8","","Stimuli/Experimental_stims/localizer/outdoor_scenes/hendrik-cornelissen--qrcOR33ErA-unsplash.jpg","1","outdoor_scenes","","0","1","0","0.4","1.4000000000000001","","","","","","","","","","","","","","","","","","","","","","","","","","","","","","","","","","","","","","","","","","","","","","","","","","","","","",""
"","iti_localizer","","html-keyboard-response","75","79839","0.0-2.0-10.0-1.0","0","46835","","null","","","","null","","8","","","1","","","","","","0.3","1.8000000000000003","","","","","","","","","","","","","","","","","","","","","","","","","","","","","","","","","","","","","","","","","","","","","","","","","","","","","",""
"","localizer","","html-keyboard-response","76","80252","0.0-2.0-11.0-0.0","0","46835","","NaN","","","","null","NaN","9","","Stimuli/Experimental_stims/localizer/outdoor_scenes/chris-holgersson-zshyCr6HGw0-unsplash.jpg","1","outdoor_scenes","","0","1","0","0.4","2.1","","","","","","","","","","","","","","","","","","","","","","","","","","","","","","","","","","","","","","","","","","","","","","","","","","","","","",""
"","iti_localizer","","html-keyboard-response","77","80565","0.0-2.0-11.0-1.0","0","46835","","null","","","","null","","9","","","1","","","","","","0.3","2.5","","","","","","","","","","","","","","","","","","","","","","","","","","","","","","","","","","","","","","","","","","","","","","","","","","","","","",""
"","localizer","","html-keyboard-response","78","81083","0.0-2.0-12.0-0.0","0","46835","","NaN","","","","null","NaN","10","","Stimuli/Experimental_stims/localizer/outdoor_scenes/cosmic-timetraveler-pYyOZ8q7AII-unsplash.jpg","1","outdoor_scenes","","0","1","0","0.4","2.8","","","","","","","","","","","","","","","","","","","","","","","","","","","","","","","","","","","","","","","","","","","","","","","","","","","","","",""
"","iti_localizer","","html-keyboard-response","79","81400","0.0-2.0-12.0-1.0","0","46835","","null","","","","null","","10","","","1","","","","","","0.3","3.1999999999999997","","","","","","","","","","","","","","","","","","","","","","","","","","","","","","","","","","","","","","","","","","","","","","","","","","","","","",""
"","localizer","","html-keyboard-response","80","81817","0.0-2.0-13.0-0.0","0","46835","","NaN","","","","null","NaN","11","","Stimuli/Experimental_stims/localizer/outdoor_scenes/jack-millard-zjyP-UYI-ko-unsplash.jpg","1","outdoor_scenes","","1","1","0","0.4","3.4999999999999996","","","","","","","","","","","","","","","","","","","","","","","","","","","","","","","","","","","","","","","","","","","","","","","","","","","","","",""
"","iti_localizer","","html-keyboard-response","81","82124","0.0-2.0-13.0-1.0","0","46835","","null","","","","null","","11","","","1","","","","","","0.3","3.8999999999999995","","","","","","","","","","","","","","","","","","","","","","","","","","","","","","","","","","","","","","","","","","","","","","","","","","","","","",""
"","localizer","","html-keyboard-response","82","82530","0.0-2.0-14.0-0.0","0","46835","","NaN","","","","null","NaN","12","","Stimuli/Experimental_stims/localizer/outdoor_scenes/darrell-cassell-hoCXpPUMCoE-unsplash.jpg","1","outdoor_scenes","","0","1","0","0.4","4.199999999999999","","","","","","","","","","","","","","","","","","","","","","","","","","","","","","","","","","","","","","","","","","","","","","","","","","","","","",""
"","iti_localizer","","html-keyboard-response","83","82840","0.0-2.0-14.0-1.0","0","46835","","null","","","","null","","12","","","1","","","","","","0.3","4.6","","","","","","","","","","","","","","","","","","","","","","","","","","","","","","","","","","","","","","","","","","","","","","","","","","","","","",""
"","localizer","","html-keyboard-response","84","83251","0.0-2.0-15.0-0.0","0","46835","","NaN","","","","null","NaN","13","","Stimuli/Experimental_stims/localizer/outdoor_scenes/fabian-quintero-UWQP2mh5YJI-unsplash.jpg","1","outdoor_scenes","","0","1","0","0.4","4.8999999999999995","","","","","","","","","","","","","","","","","","","","","","","","","","","","","","","","","","","","","","","","","","","","","","","","","","","","","",""
"","iti_localizer","","html-keyboard-response","85","83566","0.0-2.0-15.0-1.0","0","46835","","null","","","","null","","13","","","1","","","","","","0.3","5.3","","","","","","","","","","","","","","","","","","","","","","","","","","","","","","","","","","","","","","","","","","","","","","","","","","","","","",""
"","localizer","","html-keyboard-response","86","83979","0.0-2.0-16.0-0.0","0","46835","","NaN","","","","null","NaN","14","","Stimuli/Experimental_stims/localizer/outdoor_scenes/dawid-zawila--G3rw6Y02D0-unsplash.jpg","1","outdoor_scenes","","0","1","0","0.4","5.6","","","","","","","","","","","","","","","","","","","","","","","","","","","","","","","","","","","","","","","","","","","","","","","","","","","","","",""
"","iti_localizer","","html-keyboard-response","87","84294","0.0-2.0-16.0-1.0","0","46835","","null","","","","null","","14","","","1","","","","","","0.3","6","","","","","","","","","","","","","","","","","","","","","","","","","","","","","","","","","","","","","","","","","","","","","","","","","","","","","",""
"","localizer","","html-keyboard-response","88","84708","0.0-2.0-17.0-0.0","0","46835","","NaN","","","","null","NaN","15","","Stimuli/Experimental_stims/localizer/outdoor_scenes/keith-hardy-PP8Escz15d8-unsplash.jpg","1","outdoor_scenes","","0","1","0","0.4","6.3","","","","","","","","","","","","","","","","","","","","","","","","","","","","","","","","","","","","","","","","","","","","","","","","","","","","","",""
"","iti_localizer","","html-keyboard-response","89","85022","0.0-2.0-17.0-1.0","0","46835","","null","","","","null","","15","","","1","","","","","","0.3","6.7","","","","","","","","","","","","","","","","","","","","","","","","","","","","","","","","","","","","","","","","","","","","","","","","","","","","","",""
"","localizer","","html-keyboard-response","90","85434","0.0-2.0-18.0-0.0","0","46835","","NaN","","","","null","NaN","16","","Stimuli/Experimental_stims/localizer/outdoor_scenes/tim-swaan-eOpewngf68w-unsplash (1).jpg","1","outdoor_scenes","","0","1","0","0.4","7","","","","","","","","","","","","","","","","","","","","","","","","","","","","","","","","","","","","","","","","","","","","","","","","","","","","","",""
"","iti_localizer","","html-keyboard-response","91","85746","0.0-2.0-18.0-1.0","0","46835","","null","","","","null","","16","","","1","","","","","","0.3","7.4","","","","","","","","","","","","","","","","","","","","","","","","","","","","","","","","","","","","","","","","","","","","","","","","","","","","","",""
"","localizer","","html-keyboard-response","92","86155","0.0-2.0-19.0-0.0","0","46835","","NaN","","","","null","NaN","17","","Stimuli/Experimental_stims/localizer/outdoor_scenes/john-lee-oMneOBYhJxY-unsplash.jpg","1","outdoor_scenes","","1","1","0","0.4","7.7","","","","","","","","","","","","","","","","","","","","","","","","","","","","","","","","","","","","","","","","","","","","","","","","","","","","","",""
"","iti_localizer","","html-keyboard-response","93","86472","0.0-2.0-19.0-1.0","0","46835","","null","","","","null","","17","","","1","","","","","","0.3","8.1","","","","","","","","","","","","","","","","","","","","","","","","","","","","","","","","","","","","","","","","","","","","","","","","","","","","","",""
"","localizer","","html-keyboard-response","94","86890","0.0-2.0-20.0-0.0","0","46835","","NaN","","","","null","NaN","18","","Stimuli/Experimental_stims/localizer/outdoor_scenes/ken-cheung-KonWFWUaAuk-unsplash.jpg","1","outdoor_scenes","","0","1","0","0.4","8.4","","","","","","","","","","","","","","","","","","","","","","","","","","","","","","","","","","","","","","","","","","","","","","","","","","","","","",""
"","iti_localizer","","html-keyboard-response","95","87197","0.0-2.0-20.0-1.0","0","46835","","null","","","","null","","18","","","1","","","","","","0.3","8.8","","","","","","","","","","","","","","","","","","","","","","","","","","","","","","","","","","","","","","","","","","","","","","","","","","","","","",""
"","localizer","","html-keyboard-response","96","87609","0.0-2.0-21.0-0.0","0","46835","","NaN","","","","null","NaN","19","","Stimuli/Experimental_stims/localizer/outdoor_scenes/mark-harpur-K2s_YE031CA-unsplash.jpg","1","outdoor_scenes","","0","1","0","0.4","9.100000000000001","","","","","","","","","","","","","","","","","","","","","","","","","","","","","","","","","","","","","","","","","","","","","","","","","","","","","",""
"","iti_localizer","","html-keyboard-response","97","87918","0.0-2.0-21.0-1.0","0","46835","","null","","","","null","","19","","","1","","","","","","0.3","9.500000000000002","","","","","","","","","","","","","","","","","","","","","","","","","","","","","","","","","","","","","","","","","","","","","","","","","","","","","",""
"","localizer","","html-keyboard-response","98","88329","0.0-2.0-22.0-0.0","0","46835","","NaN","","","","null","NaN","20","","Stimuli/Experimental_stims/localizer/outdoor_scenes/alice-donovan-rouse-pZ61ZA8QgcY-unsplash.jpg","1","outdoor_scenes","","0","1","0","0.4","9.800000000000002","","","","","","","","","","","","","","","","","","","","","","","","","","","","","","","","","","","","","","","","","","","","","","","","","","","","","",""
"","iti_localizer","","html-keyboard-response","99","88642","0.0-2.0-22.0-1.0","0","46835","","null","","","","null","","20","","","1","","","","","","0.3","10.200000000000003","","","","","","","","","","","","","","","","","","","","","","","","","","","","","","","","","","","","","","","","","","","","","","","","","","","","","",""
"","localizer","","html-keyboard-response","100","89057","0.0-2.0-23.0-0.0","0","46835","","NaN","","","","null","NaN","21","","Stimuli/Experimental_stims/localizer/outdoor_scenes/bruno-van-der-kraan-qez8mNJ3ilU-unsplash.jpg","1","outdoor_scenes","","0","1","0","0.4","10.500000000000004","","","","","","","","","","","","","","","","","","","","","","","","","","","","","","","","","","","","","","","","","","","","","","","","","","","","","",""
"","iti_localizer","","html-keyboard-response","101","89369","0.0-2.0-23.0-1.0","0","46835","","null","","","","null","","21","","","1","","","","","","0.3","10.900000000000004","","","","","","","","","","","","","","","","","","","","","","","","","","","","","","","","","","","","","","","","","","","","","","","","","","","","","",""
"","localizer","","html-keyboard-response","102","89784","0.0-2.0-24.0-0.0","0","46835","","NaN","","","","null","NaN","22","","Stimuli/Experimental_stims/localizer/outdoor_scenes/dave-hoefler-lsoogGC_5dg-unsplash.jpg","1","outdoor_scenes","","0","1","0","0.4","11.200000000000005","","","","","","","","","","","","","","","","","","","","","","","","","","","","","","","","","","","","","","","","","","","","","","","","","","","","","",""
"","iti_localizer","","html-keyboard-response","103","90102","0.0-2.0-24.0-1.0","0","46835","","null","","","","null","","22","","","1","","","","","","0.3","11.600000000000005","","","","","","","","","","","","","","","","","","","","","","","","","","","","","","","","","","","","","","","","","","","","","","","","","","","","","",""
"","localizer","","html-keyboard-response","104","90514","0.0-2.0-25.0-0.0","0","46835","","NaN","","","","null","NaN","23","","Stimuli/Experimental_stims/localizer/outdoor_scenes/wil-stewart-pHANr-CpbYM-unsplash.jpg","1","outdoor_scenes","","0","1","0","0.4","11.900000000000006","","","","","","","","","","","","","","","","","","","","","","","","","","","","","","","","","","","","","","","","","","","","","","","","","","","","","",""
"","iti_localizer","","html-keyboard-response","105","90830","0.0-2.0-25.0-1.0","0","46835","","null","","","","null","","23","","","1","","","","","","0.3","12.300000000000006","","","","","","","","","","","","","","","","","","","","","","","","","","","","","","","","","","","","","","","","","","","","","","","","","","","","","",""
"","localizer","","html-keyboard-response","106","91248","0.0-2.0-26.0-0.0","0","46835","","NaN","","","","null","NaN","24","","Stimuli/Experimental_stims/localizer/outdoor_scenes/alessio-furlan-Vw3a0HgE7AM-unsplash.jpg","1","outdoor_scenes","","0","1","0","0.4","12.600000000000007","","","","","","","","","","","","","","","","","","","","","","","","","","","","","","","","","","","","","","","","","","","","","","","","","","","","","",""
"","iti_localizer","","html-keyboard-response","107","91562","0.0-2.0-26.0-1.0","0","46835","","null","","","","null","","24","","","1","","","","","","0.3","13.000000000000007","","","","","","","","","","","","","","","","","","","","","","","","","","","","","","","","","","","","","","","","","","","","","","","","","","","","","",""
"","localizer","","html-keyboard-response","108","91972","0.0-2.0-27.0-0.0","0","46835","","NaN","","","","null","NaN","25","","Stimuli/Experimental_stims/localizer/outdoor_scenes/redd-f-Lm5rkxzgiFQ-unsplash.jpg","1","outdoor_scenes","","0","1","0","0.4","13.300000000000008","","","","","","","","","","","","","","","","","","","","","","","","","","","","","","","","","","","","","","","","","","","","","","","","","","","","","",""
"","iti_localizer","","html-keyboard-response","109","92285","0.0-2.0-27.0-1.0","0","46835","","null","","","","null","","25","","","1","","","","","","14","13.700000000000008","","","","","","","","","","","","","","","","","","","","","","","","","","","","","","","","","","","","","","","","","","","","","","","","","","","","","",""
"","localizer","","html-keyboard-response","110","92704","0.0-2.0-28.0-0.0","0","46835","","NaN","","","","null","NaN","26","","Stimuli/Experimental_stims/localizer/objects/adriano-pucciarelli-BE7yaZnZX6o-unsplash.jpg","1","objects","","0","1","0","0.4","27.70000000000001","","","","","","","","","","","","","","","","","","","","","","","","","","","","","","","","","","","","","","","","","","","","","","","","","","","","","",""
"","iti_localizer","","html-keyboard-response","111","93013","0.0-2.0-28.0-1.0","0","46835","","null","","","","null","","26","","","1","","","","","","0.3","28.10000000000001","","","","","","","","","","","","","","","","","","","","","","","","","","","","","","","","","","","","","","","","","","","","","","","","","","","","","",""
"","localizer","","html-keyboard-response","112","93425","0.0-2.0-29.0-0.0","0","46835","","NaN","","","","null","NaN","27","","Stimuli/Experimental_stims/localizer/objects/alex-lvrs-2zDw14yCYqk-unsplash.jpg","1","objects","","1","1","0","0.4","28.40000000000001","","","","","","","","","","","","","","","","","","","","","","","","","","","","","","","","","","","","","","","","","","","","","","","","","","","","","",""
"","iti_localizer","","html-keyboard-response","113","93742","0.0-2.0-29.0-1.0","0","46835","","null","","","","null","","27","","","1","","","","","","0.3","28.800000000000008","","","","","","","","","","","","","","","","","","","","","","","","","","","","","","","","","","","","","","","","","","","","","","","","","","","","","",""
"","localizer","","html-keyboard-response","114","94163","0.0-2.0-30.0-0.0","0","46835","","NaN","","","","null","NaN","28","","Stimuli/Experimental_stims/localizer/objects/eugene-chystiakov-3neSwyntbQ8-unsplash.jpg","1","objects","","0","1","0","0.4","29.10000000000001","","","","","","","","","","","","","","","","","","","","","","","","","","","","","","","","","","","","","","","","","","","","","","","","","","","","","",""
"","iti_localizer","","html-keyboard-response","115","94471","0.0-2.0-30.0-1.0","0","46835","","null","","","","null","","28","","","1","","","","","","0.3","29.500000000000007","","","","","","","","","","","","","","","","","","","","","","","","","","","","","","","","","","","","","","","","","","","","","","","","","","","","","",""
"","localizer","","html-keyboard-response","116","94883","0.0-2.0-31.0-0.0","0","46835","","NaN","","","","null","NaN","29","","Stimuli/Experimental_stims/localizer/objects/carlos-felipe-ramirez-mesa-x9g65MOXsPY-unsplash.jpg","1","objects","","0","1","0","0.4","29.800000000000008","","","","","","","","","","","","","","","","","","","","","","","","","","","","","","","","","","","","","","","","","","","","","","","","","","","","","",""
"","iti_localizer","","html-keyboard-response","117","95201","0.0-2.0-31.0-1.0","0","46835","","null","","","","null","","29","","","1","","","","","","0.3","30.200000000000006","","","","","","","","","","","","","","","","","","","","","","","","","","","","","","","","","","","","","","","","","","","","","","","","","","","","","",""
"","localizer","","html-keyboard-response","118","95619","0.0-2.0-32.0-0.0","0","46835","","NaN","","","","null","NaN","30","","Stimuli/Experimental_stims/localizer/objects/recha-oktaviani-t__61ap00Mc-unsplash.jpg","1","objects","","0","1","0","0.4","30.500000000000007","","","","","","","","","","","","","","","","","","","","","","","","","","","","","","","","","","","","","","","","","","","","","","","","","","","","","",""
"","iti_localizer","","html-keyboard-response","119","95929","0.0-2.0-32.0-1.0","0","46835","","null","","","","null","","30","","","1","","","","","","0.3","30.900000000000006","","","","","","","","","","","","","","","","","","","","","","","","","","","","","","","","","","","","","","","","","","","","","","","","","","","","","",""
"","localizer","","html-keyboard-response","120","96335","0.0-2.0-33.0-0.0","0","46835","","NaN","","","","null","NaN","31","","Stimuli/Experimental_stims/localizer/objects/chris-briggs-FobzAZJGM9M-unsplash.jpg","1","objects","","0","1","0","0.4","31.200000000000006","","","","","","","","","","","","","","","","","","","","","","","","","","","","","","","","","","","","","","","","","","","","","","","","","","","","","",""
"","iti_localizer","","html-keyboard-response","121","96653","0.0-2.0-33.0-1.0","0","46835","","null","","","","null","","31","","","1","","","","","","0.3","31.600000000000005","","","","","","","","","","","","","","","","","","","","","","","","","","","","","","","","","","","","","","","","","","","","","","","","","","","","","",""
"","localizer","","html-keyboard-response","122","97068","0.0-2.0-34.0-0.0","0","46835","","NaN","","","","null","NaN","32","","Stimuli/Experimental_stims/localizer/objects/andrew-petrov-TVJqDat4MAw-unsplash.jpg","1","objects","","0","1","0","0.4","31.900000000000006","","","","","","","","","","","","","","","","","","","","","","","","","","","","","","","","","","","","","","","","","","","","","","","","","","","","","",""
"","iti_localizer","","html-keyboard-response","123","97379","0.0-2.0-34.0-1.0","0","46835","","null","","","","null","","32","","","1","","","","","","0.3","32.300000000000004","","","","","","","","","","","","","","","","","","","","","","","","","","","","","","","","","","","","","","","","","","","","","","","","","","","","","",""
"","localizer","","html-keyboard-response","124","97788","0.0-2.0-35.0-0.0","0","46835","","NaN","","","","null","NaN","33","","Stimuli/Experimental_stims/localizer/objects/nordwood-themes-nDd3dIkkOLo-unsplash.jpg","1","objects","","0","1","0","0.4","32.6","","","","","","","","","","","","","","","","","","","","","","","","","","","","","","","","","","","","","","","","","","","","","","","","","","","","","",""
"","iti_localizer","","html-keyboard-response","125","98104","0.0-2.0-35.0-1.0","0","46835","","null","","","","null","","33","","","1","","","","","","0.3","33","","","","","","","","","","","","","","","","","","","","","","","","","","","","","","","","","","","","","","","","","","","","","","","","","","","","","",""
"","localizer","","html-keyboard-response","126","98518","0.0-2.0-36.0-0.0","0","46835","","NaN","","","","null","NaN","34","","Stimuli/Experimental_stims/localizer/objects/florian-klauer-nptLmg6jqDo-unsplash.jpg","1","objects","","0","1","0","0.4","33.3","","","","","","","","","","","","","","","","","","","","","","","","","","","","","","","","","","","","","","","","","","","","","","","","","","","","","",""
"","iti_localizer","","html-keyboard-response","127","98829","0.0-2.0-36.0-1.0","0","46835","","null","","","","null","","34","","","1","","","","","","0.3","33.699999999999996","","","","","","","","","","","","","","","","","","","","","","","","","","","","","","","","","","","","","","","","","","","","","","","","","","","","","",""
"","localizer","","html-keyboard-response","128","99238","0.0-2.0-37.0-0.0","0","46835","","NaN","","","","null","NaN","35","","Stimuli/Experimental_stims/localizer/objects/muhammad-toqeer-NRJ9ipvz2iE-unsplash.jpg","1","objects","","0","1","0","0.4","33.99999999999999","","","","","","","","","","","","","","","","","","","","","","","","","","","","","","","","","","","","","","","","","","","","","","","","","","","","","",""
"","iti_localizer","","html-keyboard-response","129","99552","0.0-2.0-37.0-1.0","0","46835","","null","","","","null","","35","","","1","","","","","","0.3","34.39999999999999","","","","","","","","","","","","","","","","","","","","","","","","","","","","","","","","","","","","","","","","","","","","","","","","","","","","","",""
"","localizer","","html-keyboard-response","130","99964","0.0-2.0-38.0-0.0","0","46835","","NaN","","","","null","NaN","36","","Stimuli/Experimental_stims/localizer/objects/mockup-graphics-aUkYaG12Dgs-unsplash.jpg","1","objects","","0","1","0","0.4","34.69999999999999","","","","","","","","","","","","","","","","","","","","","","","","","","","","","","","","","","","","","","","","","","","","","","","","","","","","","",""
"","iti_localizer","","html-keyboard-response","131","100280","0.0-2.0-38.0-1.0","0","46835","","null","","","","null","","36","","","1","","","","","","0.3","35.09999999999999","","","","","","","","","","","","","","","","","","","","","","","","","","","","","","","","","","","","","","","","","","","","","","","","","","","","","",""
"","localizer","","html-keyboard-response","132","100692","0.0-2.0-39.0-0.0","0","46835","","NaN","","","","null","NaN","37","","Stimuli/Experimental_stims/localizer/objects/nicolas-hippert-kfr_eSrR08M-unsplash.jpg","1","objects","","1","1","0","0.4","35.399999999999984","","","","","","","","","","","","","","","","","","","","","","","","","","","","","","","","","","","","","","","","","","","","","","","","","","","","","",""
"","iti_localizer","","html-keyboard-response","133","101009","0.0-2.0-39.0-1.0","0","46835","","null","","","","null","","37","","","1","","","","","","0.3","35.79999999999998","","","","","","","","","","","","","","","","","","","","","","","","","","","","","","","","","","","","","","","","","","","","","","","","","","","","","",""
"","localizer","","html-keyboard-response","134","101424","0.0-2.0-40.0-0.0","0","46835","","NaN","","","","null","NaN","38","","Stimuli/Experimental_stims/localizer/objects/barrett-ward-0lMpQaXfOCg-unsplash.jpg","1","objects","","0","1","0","0.4","36.09999999999998","","","","","","","","","","","","","","","","","","","","","","","","","","","","","","","","","","","","","","","","","","","","","","","","","","","","","",""
"","iti_localizer","","html-keyboard-response","135","101737","0.0-2.0-40.0-1.0","0","46835","","null","","","","null","","38","","","1","","","","","","0.3","36.49999999999998","","","","","","","","","","","","","","","","","","","","","","","","","","","","","","","","","","","","","","","","","","","","","","","","","","","","","",""
"","localizer","","html-keyboard-response","136","102156","0.0-2.0-41.0-0.0","0","46835","","NaN","","","","null","NaN","39","","Stimuli/Experimental_stims/localizer/objects/raimond-klavins-ZdvDPXVvcKs-unsplash.jpg","1","objects","","0","1","0","0.4","36.799999999999976","","","","","","","","","","","","","","","","","","","","","","","","","","","","","","","","","","","","","","","","","","","","","","","","","","","","","",""
"","iti_localizer","","html-keyboard-response","137","102463","0.0-2.0-41.0-1.0","0","46835","","null","","","","null","","39","","","1","","","","","","0.3","37.199999999999974","","","","","","","","","","","","","","","","","","","","","","","","","","","","","","","","","","","","","","","","","","","","","","","","","","","","","",""
"","localizer","","html-keyboard-response","138","102872","0.0-2.0-42.0-0.0","0","46835","","NaN","","","","null","NaN","40","","Stimuli/Experimental_stims/localizer/objects/collab-media-eddtBBbaw0Y-unsplash.jpg","1","objects","","0","1","0","0.4","37.49999999999997","","","","","","","","","","","","","","","","","","","","","","","","","","","","","","","","","","","","","","","","","","","","","","","","","","","","","",""
"","iti_localizer","","html-keyboard-response","139","103183","0.0-2.0-42.0-1.0","0","46835","","null","","","","null","","40","","","1","","","","","","0.3","37.89999999999997","","","","","","","","","","","","","","","","","","","","","","","","","","","","","","","","","","","","","","","","","","","","","","","","","","","","","",""
"","localizer","","html-keyboard-response","140","103595","0.0-2.0-43.0-0.0","0","46835","","NaN","","","","null","NaN","41","","Stimuli/Experimental_stims/localizer/objects/markus-spiske-ANrVtttbNss-unsplash.jpg","1","objects","","0","1","0","0.4","38.19999999999997","","","","","","","","","","","","","","","","","","","","","","","","","","","","","","","","","","","","","","","","","","","","","","","","","","","","","",""
"","iti_localizer","","html-keyboard-response","141","103908","0.0-2.0-43.0-1.0","0","46835","","null","","","","null","","41","","","1","","","","","","0.3","38.599999999999966","","","","","","","","","","","","","","","","","","","","","","","","","","","","","","","","","","","","","","","","","","","","","","","","","","","","","",""
"","localizer","","html-keyboard-response","142","104324","0.0-2.0-44.0-0.0","0","46835","","NaN","","","","null","NaN","42","","Stimuli/Experimental_stims/localizer/objects/yoann-siloine-_T4w3JDm6ug-unsplash.jpg","1","objects","","0","1","0","0.4","38.89999999999996","","","","","","","","","","","","","","","","","","","","","","","","","","","","","","","","","","","","","","","","","","","","","","","","","","","","","",""
"","iti_localizer","","html-keyboard-response","143","104637","0.0-2.0-44.0-1.0","0","46835","","null","","","","null","","42","","","1","","","","","","0.3","39.29999999999996","","","","","","","","","","","","","","","","","","","","","","","","","","","","","","","","","","","","","","","","","","","","","","","","","","","","","",""
"","localizer","","html-keyboard-response","144","105054","0.0-2.0-45.0-0.0","0","46835","","NaN","","","","null","NaN","43","","Stimuli/Experimental_stims/localizer/objects/maria-lupan-Rlakka_pZMU-unsplash.jpg","1","objects","","0","1","0","0.4","39.59999999999996","","","","","","","","","","","","","","","","","","","","","","","","","","","","","","","","","","","","","","","","","","","","","","","","","","","","","",""
"","iti_localizer","","html-keyboard-response","145","105365","0.0-2.0-45.0-1.0","0","46835","","null","","","","null","","43","","","1","","","","","","0.3","39.99999999999996","","","","","","","","","","","","","","","","","","","","","","","","","","","","","","","","","","","","","","","","","","","","","","","","","","","","","",""
"","localizer","","html-keyboard-response","146","105780","0.0-2.0-46.0-0.0","0","46835","","NaN","","","","null","NaN","44","","Stimuli/Experimental_stims/localizer/objects/quino-al-4SNUcHPiC8c-unsplash.jpg","1","objects","","0","1","0","0.4","40.299999999999955","","","","","","","","","","","","","","","","","","","","","","","","","","","","","","","","","","","","","","","","","","","","","","","","","","","","","",""
"","iti_localizer","","html-keyboard-response","147","106090","0.0-2.0-46.0-1.0","0","46835","","null","","","","null","","44","","","1","","","","","","0.3","40.69999999999995","","","","","","","","","","","","","","","","","","","","","","","","","","","","","","","","","","","","","","","","","","","","","","","","","","","","","",""
"","localizer","","html-keyboard-response","148","106502","0.0-2.0-47.0-0.0","0","46835","","NaN","","","","null","NaN","45","","Stimuli/Experimental_stims/localizer/objects/engin-akyurt-bbbKzTmY2Gg-unsplash.jpg","1","objects","","0","1","0","0.4","40.99999999999995","","","","","","","","","","","","","","","","","","","","","","","","","","","","","","","","","","","","","","","","","","","","","","","","","","","","","",""
"","iti_localizer","","html-keyboard-response","149","106813","0.0-2.0-47.0-1.0","0","46835","","null","","","","null","","45","","","1","","","","","","14","41.39999999999995","","","","","","","","","","","","","","","","","","","","","","","","","","","","","","","","","","","","","","","","","","","","","","","","","","","","","",""
"","localizer","","html-keyboard-response","150","107230","0.0-2.0-48.0-0.0","0","46835","","NaN","","","","null","NaN","46","","Stimuli/Experimental_stims/localizer/body_parts/i-am_nah--S4OsO0c6Ts-unsplash.jpg","1","body_parts","","0","1","0","0.4","55.39999999999995","","","","","","","","","","","","","","","","","","","","","","","","","","","","","","","","","","","","","","","","","","","","","","","","","","","","","",""
"","iti_localizer","","html-keyboard-response","151","107542","0.0-2.0-48.0-1.0","0","46835","","null","","","","null","","46","","","1","","","","","","0.3","55.79999999999995","","","","","","","","","","","","","","","","","","","","","","","","","","","","","","","","","","","","","","","","","","","","","","","","","","","","","",""
"","localizer","","html-keyboard-response","152","107959","0.0-2.0-49.0-0.0","0","46835","","NaN","","","","null","NaN","47","","Stimuli/Experimental_stims/localizer/body_parts/danie-franco-jyyNiSEcCl4-unsplash.jpg","1","body_parts","","0","1","0","0.4","56.099999999999945","","","","","","","","","","","","","","","","","","","","","","","","","","","","","","","","","","","","","","","","","","","","","","","","","","","","","",""
"","iti_localizer","","html-keyboard-response","153","108271","0.0-2.0-49.0-1.0","0","46835","","null","","","","null","","47","","","1","","","","","","0.3","56.49999999999994","","","","","","","","","","","","","","","","","","","","","","","","","","","","","","","","","","","","","","","","","","","","","","","","","","","","","",""
"","localizer","","html-keyboard-response","154","108686","0.0-2.0-50.0-0.0","0","46835","","NaN","","","","null","NaN","48","","Stimuli/Experimental_stims/localizer/body_parts/lucaxx-freire-CacZwMexYdk-unsplash.jpg","1","body_parts","","0","1","0","0.4","56.79999999999994","","","","","","","","","","","","","","","","","","","","","","","","","","","","","","","","","","","","","","","","","","","","","","","","","","","","","",""
"","iti_localizer","","html-keyboard-response","155","108996","0.0-2.0-50.0-1.0","0","46835","","null","","","","null","","48","","","1","","","","","","0.3","57.19999999999994","","","","","","","","","","","","","","","","","","","","","","","","","","","","","","","","","","","","","","","","","","","","","","","","","","","","","",""
"","localizer","","html-keyboard-response","156","109405","0.0-2.0-51.0-0.0","0","46835","","NaN","","","","null","NaN","49","","Stimuli/Experimental_stims/localizer/body_parts/ramesh-iyer-CRhznMXoJlc-unsplash.jpg","1","body_parts","","0","1","0","0.4","57.499999999999936","","","","","","","","","","","","","","","","","","","","","","","","","","","","","","","","","","","","","","","","","","","","","","","","","","","","","",""
"","iti_localizer","","html-keyboard-response","157","109717","0.0-2.0-51.0-1.0","0","46835","","null","","","","null","","49","","","1","","","","","","0.3","57.899999999999935","","","","","","","","","","","","","","","","","","","","","","","","","","","","","","","","","","","","","","","","","","","","","","","","","","","","","",""
"","localizer","","html-keyboard-response","158","110126","0.0-2.0-52.0-0.0","0","46835","","NaN","","","","null","NaN","50","","Stimuli/Experimental_stims/localizer/body_parts/nattalia-nunez-MB9sdDfZMSg-unsplash.jpg","1","body_parts","","0","1","0","0.4","58.19999999999993","","","","","","","","","","","","","","","","","","","","","","","","","","","","","","","","","","","","","","","","","","","","","","","","","","","","","",""
"","iti_localizer","","html-keyboard-response","159","110439","0.0-2.0-52.0-1.0","0","46835","","null","","","","null","","50","","","1","","","","","","0.3","58.59999999999993","","","","","","","","","","","","","","","","","","","","","","","","","","","","","","","","","","","","","","","","","","","","","","","","","","","","","",""
"","localizer","","html-keyboard-response","160","110856","0.0-2.0-53.0-0.0","0","46835","","NaN","","","","null","NaN","51","","Stimuli/Experimental_stims/localizer/body_parts/jonathan-borba-hTwH8QFkPMs-unsplash.jpg","1","body_parts","","0","1","0","0.4","58.89999999999993","","","","","","","","","","","","","","","","","","","","","","","","","","","","","","","","","","","","","","","","","","","","","","","","","","","","","",""
"","iti_localizer","","html-keyboard-response","161","111167","0.0-2.0-53.0-1.0","0","46835","","null","","","","null","","51","","","1","","","","","","0.3","59.299999999999926","","","","","","","","","","","","","","","","","","","","","","","","","","","","","","","","","","","","","","","","","","","","","","","","","","","","","",""
"","localizer","","html-keyboard-response","162","111582","0.0-2.0-54.0-0.0","0","46835","","NaN","","","","null","NaN","52","","Stimuli/Experimental_stims/localizer/body_parts/apostolos-vamvouras-g5wKHRu2QW0-unsplash.jpg","1","body_parts","","0","1","0","0.4","59.59999999999992","","","","","","","","","","","","","","","","","","","","","","","","","","","","","","","","","","","","","","","","","","","","","","","","","","","","","",""
"","iti_localizer","","html-keyboard-response","163","111899","0.0-2.0-54.0-1.0","0","46835","","null","","","","null","","52","","","1","","","","","","0.3","59.99999999999992","","","","","","","","","","","","","","","","","","","","","","","","","","","","","","","","","","","","","","","","","","","","","","","","","","","","","",""
"","localizer","","html-keyboard-response","164","112316","0.0-2.0-55.0-0.0","0","46835","","NaN","","","","null","NaN","53","","Stimuli/Experimental_stims/localizer/body_parts/bady-abbas-pIySu25o0bM-unsplash.jpg","1","body_parts","","0","1","0","0.4","60.29999999999992","","","","","","","","","","","","","","","","","","","","","","","","","","","","","","","","","","","","","","","","","","","","","","","","","","","","","",""
"","iti_localizer","","html-keyboard-response","165","112633","0.0-2.0-55.0-1.0","0","46835","","null","","","","null","","53","","","1","","","","","","0.3","60.69999999999992","","","","","","","","","","","","","","","","","","","","","","","","","","","","","","","","","","","","","","","","","","","","","","","","","","","","","",""
"","localizer","","html-keyboard-response","166","113045","0.0-2.0-56.0-0.0","0","46835","","NaN","","","","null","NaN","54","","Stimuli/Experimental_stims/localizer/body_parts/lilartsy-1KkhQ8uL28g-unsplash.jpg","1","body_parts","","0","1","0","0.4","60.999999999999915","","","","","","","","","","","","","","","","","","","","","","","","","","","","","","","","","","","","","","","","","","","","","","","","","","","","","",""
"","iti_localizer","","html-keyboard-response","167","113362","0.0-2.0-56.0-1.0","0","46835","","null","","","","null","","54","","","1","","","","","","0.3","61.39999999999991","","","","","","","","","","","","","","","","","","","","","","","","","","","","","","","","","","","","","","","","","","","","","","","","","","","","","",""
"","localizer","","html-keyboard-response","168","113775","0.0-2.0-57.0-0.0","0","46835","","NaN","","","","null","NaN","55","","Stimuli/Experimental_stims/localizer/body_parts/carlos-henrique-NAOJKwZswbs-unsplash.jpg","1","body_parts","","1","1","0","0.4","61.69999999999991","","","","","","","","","","","","","","","","","","","","","","","","","","","","","","","","","","","","","","","","","","","","","","","","","","","","","",""
"","iti_localizer","","html-keyboard-response","169","114090","0.0-2.0-57.0-1.0","0","46835","","null","","","","null","","55","","","1","","","","","","0.3","62.09999999999991","","","","","","","","","","","","","","","","","","","","","","","","","","","","","","","","","","","","","","","","","","","","","","","","","","","","","",""
"","localizer","","html-keyboard-response","170","114503","0.0-2.0-58.0-0.0","0","46835","","NaN","","","","null","NaN","56","","Stimuli/Experimental_stims/localizer/body_parts/billie-5OXE3KjDEfI-unsplash.jpg","1","body_parts","","0","1","0","0.4","62.399999999999906","","","","","","","","","","","","","","","","","","","","","","","","","","","","","","","","","","","","","","","","","","","","","","","","","","","","","",""
"","iti_localizer","","html-keyboard-response","171","114815","0.0-2.0-58.0-1.0","0","46835","","null","","","","null","","56","","","1","","","","","","0.3","62.799999999999905","","","","","","","","","","","","","","","","","","","","","","","","","","","","","","","","","","","","","","","","","","","","","","","","","","","","","",""
"","localizer","","html-keyboard-response","172","115234","0.0-2.0-59.0-0.0","0","46835","","NaN","","","","null","NaN","57","","Stimuli/Experimental_stims/localizer/body_parts/sydney-herron-b2W04fGuS70-unsplash.jpg","1","body_parts","","0","1","0","0.4","63.0999999999999","","","","","","","","","","","","","","","","","","","","","","","","","","","","","","","","","","","","","","","","","","","","","","","","","","","","","",""
"","iti_localizer","","html-keyboard-response","173","115549","0.0-2.0-59.0-1.0","0","46835","","null","","","","null","","57","","","1","","","","","","0.3","63.4999999999999","","","","","","","","","","","","","","","","","","","","","","","","","","","","","","","","","","","","","","","","","","","","","","","","","","","","","",""
"","localizer","","html-keyboard-response","174","115966","0.0-2.0-60.0-0.0","0","46835","","NaN","","","","null","NaN","58","","Stimuli/Experimental_stims/localizer/body_parts/jeremy-yap-TfJEi17kA0w-unsplash.jpg","1","body_parts","","0","1","0","0.4","63.7999999999999","","","","","","","","","","","","","","","","","","","","","","","","","","","","","","","","","","","","","","","","","","","","","","","","","","","","","",""
"","iti_localizer","","html-keyboard-response","175","116282","0.0-2.0-60.0-1.0","0","46835","","null","","","","null","","58","","","1","","","","","","0.3","64.1999999999999","","","","","","","","","","","","","","","","","","","","","","","","","","","","","","","","","","","","","","","","","","","","","","","","","","","","","",""
"","localizer","","html-keyboard-response","176","116698","0.0-2.0-61.0-0.0","0","46835","","NaN","","","","null","NaN","59","","Stimuli/Experimental_stims/localizer/body_parts/igordoon-primus-CdyHqfrbGIs-unsplash.jpg","1","body_parts","","0","1","0","0.4","64.4999999999999","","","","","","","","","","","","","","","","","","","","","","","","","","","","","","","","","","","","","","","","","","","","","","","","","","","","","",""
"","iti_localizer","","html-keyboard-response","177","117008","0.0-2.0-61.0-1.0","0","46835","","null","","","","null","","59","","","1","","","","","","0.3","64.8999999999999","","","","","","","","","","","","","","","","","","","","","","","","","","","","","","","","","","","","","","","","","","","","","","","","","","","","","",""
"","localizer","","html-keyboard-response","178","117419","0.0-2.0-62.0-0.0","0","46835","","NaN","","","","null","NaN","60","","Stimuli/Experimental_stims/localizer/body_parts/helen-ast-l2iY5Sh0mTg-unsplash.jpg","1","body_parts","","0","1","0","0.4","65.1999999999999","","","","","","","","","","","","","","","","","","","","","","","","","","","","","","","","","","","","","","","","","","","","","","","","","","","","","",""
"","iti_localizer","","html-keyboard-response","179","117731","0.0-2.0-62.0-1.0","0","46835","","null","","","","null","","60","","","1","","","","","","0.3","65.59999999999991","","","","","","","","","","","","","","","","","","","","","","","","","","","","","","","","","","","","","","","","","","","","","","","","","","","","","",""
"","localizer","","html-keyboard-response","180","118147","0.0-2.0-63.0-0.0","0","46835","","NaN","","","","null","NaN","61","","Stimuli/Experimental_stims/localizer/body_parts/jan-romero-DL4DDQb8yjc-unsplash.jpg","1","body_parts","","0","1","0","0.4","65.8999999999999","","","","","","","","","","","","","","","","","","","","","","","","","","","","","","","","","","","","","","","","","","","","","","","","","","","","","",""
"","iti_localizer","","html-keyboard-response","181","118456","0.0-2.0-63.0-1.0","0","46835","","null","","","","null","","61","","","1","","","","","","0.3","66.29999999999991","","","","","","","","","","","","","","","","","","","","","","","","","","","","","","","","","","","","","","","","","","","","","","","","","","","","","",""
"","localizer","","html-keyboard-response","182","118867","0.0-2.0-64.0-0.0","0","46835","","NaN","","","","null","NaN","62","","Stimuli/Experimental_stims/localizer/body_parts/liv-bruce-M0oVPGsWk1E-unsplash.jpg","1","body_parts","","0","1","0","0.4","66.59999999999991","","","","","","","","","","","","","","","","","","","","","","","","","","","","","","","","","","","","","","","","","","","","","","","","","","","","","",""
"","iti_localizer","","html-keyboard-response","183","119180","0.0-2.0-64.0-1.0","0","46835","","null","","","","null","","62","","","1","","","","","","0.3","66.99999999999991","","","","","","","","","","","","","","","","","","","","","","","","","","","","","","","","","","","","","","","","","","","","","","","","","","","","","",""
"","localizer","","html-keyboard-response","184","119593","0.0-2.0-65.0-0.0","0","46835","","NaN","","","","null","NaN","63","","Stimuli/Experimental_stims/localizer/body_parts/hu-chen-tCbTGNwrFNM-unsplash.jpg","1","body_parts","","0","1","0","0.4","67.29999999999991","","","","","","","","","","","","","","","","","","","","","","","","","","","","","","","","","","","","","","","","","","","","","","","","","","","","","",""
"","iti_localizer","","html-keyboard-response","185","119905","0.0-2.0-65.0-1.0","0","46835","","null","","","","null","","63","","","1","","","","","","0.3","67.69999999999992","","","","","","","","","","","","","","","","","","","","","","","","","","","","","","","","","","","","","","","","","","","","","","","","","","","","","",""
"","localizer","","html-keyboard-response","186","120323","0.0-2.0-66.0-0.0","0","46835","","NaN","","","","null","NaN","64","","Stimuli/Experimental_stims/localizer/body_parts/sincerely-media-pdynOoM7xmA-unsplash.jpg","1","body_parts","","1","1","0","0.4","67.99999999999991","","","","","","","","","","","","","","","","","","","","","","","","","","","","","","","","","","","","","","","","","","","","","","","","","","","","","",""
"","iti_localizer","","html-keyboard-response","187","120635","0.0-2.0-66.0-1.0","0","46835","","null","","","","null","","64","","","1","","","","","","0.3","68.39999999999992","","","","","","","","","","","","","","","","","","","","","","","","","","","","","","","","","","","","","","","","","","","","","","","","","","","","","",""
"","localizer","","html-keyboard-response","188","121049","0.0-2.0-67.0-0.0","0","46835","","NaN","","","","null","NaN","65","","Stimuli/Experimental_stims/localizer/body_parts/sincerely-media-3DZHTq_i7Qk-unsplash.jpg","1","body_parts","","0","1","0","0.4","68.69999999999992","","","","","","","","","","","","","","","","","","","","","","","","","","","","","","","","","","","","","","","","","","","","","","","","","","","","","",""
"","iti_localizer","","html-keyboard-response","189","121358","0.0-2.0-67.0-1.0","0","46835","","null","","","","null","","65","","","1","","","","","","14","69.09999999999992","","","","","","","","","","","","","","","","","","","","","","","","","","","","","","","","","","","","","","","","","","","","","","","","","","","","","",""
"","localizer","","html-keyboard-response","190","121770","0.0-2.0-68.0-0.0","0","46835","","NaN","","","","null","NaN","66","","Stimuli/Experimental_stims/localizer/faces/matheus-ferrero-W7b3eDUb_2I-unsplash.jpg","1","faces","","0","1","0","0.4","83.09999999999992","","","","","","","","","","","","","","","","","","","","","","","","","","","","","","","","","","","","","","","","","","","","","","","","","","","","","",""
"","iti_localizer","","html-keyboard-response","191","122081","0.0-2.0-68.0-1.0","0","46835","","null","","","","null","","66","","","1","","","","","","0.3","83.49999999999993","","","","","","","","","","","","","","","","","","","","","","","","","","","","","","","","","","","","","","","","","","","","","","","","","","","","","",""
"","localizer","","html-keyboard-response","192","122489","0.0-2.0-69.0-0.0","0","46835","","NaN","","","","null","NaN","67","","Stimuli/Experimental_stims/localizer/faces/etty-fidele-nF8eo2nX374-unsplash.jpg","1","faces","","0","1","0","0.4","83.79999999999993","","","","","","","","","","","","","","","","","","","","","","","","","","","","","","","","","","","","","","","","","","","","","","","","","","","","","",""
"","iti_localizer","","html-keyboard-response","193","122800","0.0-2.0-69.0-1.0","0","46835","","null","","","","null","","67","","","1","","","","","","0.3","84.19999999999993","","","","","","","","","","","","","","","","","","","","","","","","","","","","","","","","","","","","","","","","","","","","","","","","","","","","","",""
"","localizer","","html-keyboard-response","194","123211","0.0-2.0-70.0-0.0","0","46835","","NaN","","","","null","NaN","68","","Stimuli/Experimental_stims/localizer/faces/elijah-hiett-umfpFoKxIVg-unsplash.jpg","1","faces","","0","1","0","0.4","84.49999999999993","","","","","","","","","","","","","","","","","","","","","","","","","","","","","","","","","","","","","","","","","","","","","","","","","","","","","",""
"","iti_localizer","","html-keyboard-response","195","123523","0.0-2.0-70.0-1.0","0","46835","","null","","","","null","","68","","","1","","","","","","0.3","84.89999999999993","","","","","","","","","","","","","","","","","","","","","","","","","","","","","","","","","","","","","","","","","","","","","","","","","","","","","",""
"","localizer","","html-keyboard-response","196","123942","0.0-2.0-71.0-0.0","0","46835","","NaN","","","","null","NaN","69","","Stimuli/Experimental_stims/localizer/faces/toa-heftiba-O3ymvT7Wf9U-unsplash.jpg","1","faces","","1","1","0","0.4","85.19999999999993","","","","","","","","","","","","","","","","","","","","","","","","","","","","","","","","","","","","","","","","","","","","","","","","","","","","","",""
"","iti_localizer","","html-keyboard-response","197","124254","0.0-2.0-71.0-1.0","0","46835","","null","","","","null","","69","","","1","","","","","","0.3","85.59999999999994","","","","","","","","","","","","","","","","","","","","","","","","","","","","","","","","","","","","","","","","","","","","","","","","","","","","","",""
"","localizer","","html-keyboard-response","198","124665","0.0-2.0-72.0-0.0","0","46835","","NaN","","","","null","NaN","70","","Stimuli/Experimental_stims/localizer/faces/ihor-saveliev-3POm-bxWIN8-unsplash.jpg","1","faces","","0","1","0","0.4","85.89999999999993","","","","","","","","","","","","","","","","","","","","","","","","","","","","","","","","","","","","","","","","","","","","","","","","","","","","","",""
"","iti_localizer","","html-keyboard-response","199","124983","0.0-2.0-72.0-1.0","0","46835","","null","","","","null","","70","","","1","","","","","","0.3","86.29999999999994","","","","","","","","","","","","","","","","","","","","","","","","","","","","","","","","","","","","","","","","","","","","","","","","","","","","","",""
"","localizer","","html-keyboard-response","200","125396","0.0-2.0-73.0-0.0","0","46835","","NaN","","","","null","NaN","71","","Stimuli/Experimental_stims/localizer/faces/sean-kong--1B_y4wGs-s-unsplash.jpg","1","faces","","0","1","0","0.4","86.59999999999994","","","","","","","","","","","","","","","","","","","","","","","","","","","","","","","","","","","","","","","","","","","","","","","","","","","","","",""
"","iti_localizer","","html-keyboard-response","201","125705","0.0-2.0-73.0-1.0","0","46835","","null","","","","null","","71","","","1","","","","","","0.3","86.99999999999994","","","","","","","","","","","","","","","","","","","","","","","","","","","","","","","","","","","","","","","","","","","","","","","","","","","","","",""
"","localizer","","html-keyboard-response","202","126115","0.0-2.0-74.0-0.0","0","46835","","NaN","","","","null","NaN","72","","Stimuli/Experimental_stims/localizer/faces/christina-wocintechchat-com-0Zx1bDv5BNY-unsplash.jpg","1","faces","","0","1","0","0.4","87.29999999999994","","","","","","","","","","","","","","","","","","","","","","","","","","","","","","","","","","","","","","","","","","","","","","","","","","","","","",""
"","iti_localizer","","html-keyboard-response","203","126429","0.0-2.0-74.0-1.0","0","46835","","null","","","","null","","72","","","1","","","","","","0.3","87.69999999999995","","","","","","","","","","","","","","","","","","","","","","","","","","","","","","","","","","","","","","","","","","","","","","","","","","","","","",""
"","localizer","","html-keyboard-response","204","126841","0.0-2.0-75.0-0.0","0","46835","","NaN","","","","null","NaN","73","","Stimuli/Experimental_stims/localizer/faces/rafaella-mendes-diniz-et_78QkMMQs-unsplash.jpg","1","faces","","0","1","0","0.4","87.99999999999994","","","","","","","","","","","","","","","","","","","","","","","","","","","","","","","","","","","","","","","","","","","","","","","","","","","","","",""
"","iti_localizer","","html-keyboard-response","205","127153","0.0-2.0-75.0-1.0","0","46835","","null","","","","null","","73","","","1","","","","","","0.3","88.39999999999995","","","","","","","","","","","","","","","","","","","","","","","","","","","","","","","","","","","","","","","","","","","","","","","","","","","","","",""
"","localizer","","html-keyboard-response","206","127565","0.0-2.0-76.0-0.0","0","46835","","NaN","","","","null","NaN","74","","Stimuli/Experimental_stims/localizer/faces/ivan-dodig-R21SyyJDFgc-unsplash.jpg","1","faces","","0","1","0","0.4","88.69999999999995","","","","","","","","","","","","","","","","","","","","","","","","","","","","","","","","","","","","","","","","","","","","","","","","","","","","","",""
"","iti_localizer","","html-keyboard-response","207","127873","0.0-2.0-76.0-1.0","0","46835","","null","","","","null","","74","","","1","","","","","","0.3","89.09999999999995","","","","","","","","","","","","","","","","","","","","","","","","","","","","","","","","","","","","","","","","","","","","","","","","","","","","","",""
"","localizer","","html-keyboard-response","208","128284","0.0-2.0-77.0-0.0","0","46835","","NaN","","","","null","NaN","75","","Stimuli/Experimental_stims/localizer/faces/drew-hays-agGIKYs4mYs-unsplash.jpg","1","faces","","0","1","0","0.4","89.39999999999995","","","","","","","","","","","","","","","","","","","","","","","","","","","","","","","","","","","","","","","","","","","","","","","","","","","","","",""
"","iti_localizer","","html-keyboard-response","209","128596","0.0-2.0-77.0-1.0","0","46835","","null","","","","null","","75","","","1","","","","","","0.3","89.79999999999995","","","","","","","","","","","","","","","","","","","","","","","","","","","","","","","","","","","","","","","","","","","","","","","","","","","","","",""
"","localizer","","html-keyboard-response","210","129012","0.0-2.0-78.0-0.0","0","46835","","NaN","","","","null","NaN","76","","Stimuli/Experimental_stims/localizer/faces/jakob-owens-lkMJcGDZLVs-unsplash.jpg","1","faces","","0","1","0","0.4","90.09999999999995","","","","","","","","","","","","","","","","","","","","","","","","","","","","","","","","","","","","","","","","","","","","","","","","","","","","","",""
"","iti_localizer","","html-keyboard-response","211","129327","0.0-2.0-78.0-1.0","0","46835","","null","","","","null","","76","","","1","","","","","","0.3","90.49999999999996","","","","","","","","","","","","","","","","","","","","","","","","","","","","","","","","","","","","","","","","","","","","","","","","","","","","","",""
"","localizer","","html-keyboard-response","212","129741","0.0-2.0-79.0-0.0","0","46835","","NaN","","","","null","NaN","77","","Stimuli/Experimental_stims/localizer/faces/chanvre-quebec-mXu1SpzHq6w-unsplash.jpg","1","faces","","0","1","0","0.4","90.79999999999995","","","","","","","","","","","","","","","","","","","","","","","","","","","","","","","","","","","","","","","","","","","","","","","","","","","","","",""
"","iti_localizer","","html-keyboard-response","213","130050","0.0-2.0-79.0-1.0","0","46835","","null","","","","null","","77","","","1","","","","","","0.3","91.19999999999996","","","","","","","","","","","","","","","","","","","","","","","","","","","","","","","","","","","","","","","","","","","","","","","","","","","","","",""
"","localizer","","html-keyboard-response","214","130462","0.0-2.0-80.0-0.0","0","46835","","NaN","","","","null","NaN","78","","Stimuli/Experimental_stims/localizer/faces/mathias-huysmans-U4JDjYmjn1g-unsplash.jpg","1","faces","","1","1","0","0.4","91.49999999999996","","","","","","","","","","","","","","","","","","","","","","","","","","","","","","","","","","","","","","","","","","","","","","","","","","","","","",""
"","iti_localizer","","html-keyboard-response","215","130769","0.0-2.0-80.0-1.0","0","46835","","null","","","","null","","78","","","1","","","","","","0.3","91.89999999999996","","","","","","","","","","","","","","","","","","","","","","","","","","","","","","","","","","","","","","","","","","","","","","","","","","","","","",""
"","localizer","","html-keyboard-response","216","131179","0.0-2.0-81.0-0.0","0","46835","","NaN","","","","null","NaN","79","","Stimuli/Experimental_stims/localizer/faces/ethan-haddox-__ng3cRXmFE-unsplash.jpg","1","faces","","0","1","0","0.4","92.19999999999996","","","","","","","","","","","","","","","","","","","","","","","","","","","","","","","","","","","","","","","","","","","","","","","","","","","","","",""
"","iti_localizer","","html-keyboard-response","217","131492","0.0-2.0-81.0-1.0","0","46835","","null","","","","null","","79","","","1","","","","","","0.3","92.59999999999997","","","","","","","","","","","","","","","","","","","","","","","","","","","","","","","","","","","","","","","","","","","","","","","","","","","","","",""
"","localizer","","html-keyboard-response","218","131908","0.0-2.0-82.0-0.0","0","46835","","NaN","","","","null","NaN","80","","Stimuli/Experimental_stims/localizer/faces/brooke-cagle-Nm70URdtf3c-unsplash (1).jpg","1","faces","","0","1","0","0.4","92.89999999999996","","","","","","","","","","","","","","","","","","","","","","","","","","","","","","","","","","","","","","","","","","","","","","","","","","","","","",""
"","iti_localizer","","html-keyboard-response","219","132219","0.0-2.0-82.0-1.0","0","46835","","null","","","","null","","80","","","1","","","","","","0.3","93.29999999999997","","","","","","","","","","","","","","","","","","","","","","","","","","","","","","","","","","","","","","","","","","","","","","","","","","","","","",""
"","localizer","","html-keyboard-response","220","132628","0.0-2.0-83.0-0.0","0","46835","","NaN","","","","null","NaN","81","","Stimuli/Experimental_stims/localizer/faces/olena-sergienko-0TSd6uCKTKc-unsplash.jpg","1","faces","","0","1","0","0.4","93.59999999999997","","","","","","","","","","","","","","","","","","","","","","","","","","","","","","","","","","","","","","","","","","","","","","","","","","","","","",""
"","iti_localizer","","html-keyboard-response","221","132938","0.0-2.0-83.0-1.0","0","46835","","null","","","","null","","81","","","1","","","","","","0.3","93.99999999999997","","","","","","","","","","","","","","","","","","","","","","","","","","","","","","","","","","","","","","","","","","","","","","","","","","","","","",""
"","localizer","","html-keyboard-response","222","133350","0.0-2.0-84.0-0.0","0","46835","","NaN","","","","null","NaN","82","","Stimuli/Experimental_stims/localizer/faces/ben-scott-tWb7IsL9CnY-unsplash.jpg","1","faces","","0","1","0","0.4","94.29999999999997","","","","","","","","","","","","","","","","","","","","","","","","","","","","","","","","","","","","","","","","","","","","","","","","","","","","","",""
"","iti_localizer","","html-keyboard-response","223","133661","0.0-2.0-84.0-1.0","0","46835","","null","","","","null","","82","","","1","","","","","","0.3","94.69999999999997","","","","","","","","","","","","","","","","","","","","","","","","","","","","","","","","","","","","","","","","","","","","","","","","","","","","","",""
"","localizer","","html-keyboard-response","224","134079","0.0-2.0-85.0-0.0","0","46835","","NaN","","","","null","NaN","83","","Stimuli/Experimental_stims/localizer/faces/art-hauntington-jzY0KRJopEI-unsplash.jpg","1","faces","","0","1","0","0.4","94.99999999999997","","","","","","","","","","","","","","","","","","","","","","","","","","","","","","","","","","","","","","","","","","","","","","","","","","","","","",""
"","iti_localizer","","html-keyboard-response","225","134385","0.0-2.0-85.0-1.0","0","46835","","null","","","","null","","83","","","1","","","","","","0.3","95.39999999999998","","","","","","","","","","","","","","","","","","","","","","","","","","","","","","","","","","","","","","","","","","","","","","","","","","","","","",""
"","localizer","","html-keyboard-response","226","134796","0.0-2.0-86.0-0.0","0","46835","","NaN","","","","null","NaN","84","","Stimuli/Experimental_stims/localizer/faces/whereslugo-zl_fPgiwduo-unsplash.jpg","1","faces","","0","1","0","0.4","95.69999999999997","","","","","","","","","","","","","","","","","","","","","","","","","","","","","","","","","","","","","","","","","","","","","","","","","","","","","",""
"","iti_localizer","","html-keyboard-response","227","135107","0.0-2.0-86.0-1.0","0","46835","","null","","","","null","","84","","","1","","","","","","0.3","96.09999999999998","","","","","","","","","","","","","","","","","","","","","","","","","","","","","","","","","","","","","","","","","","","","","","","","","","","","","",""
"","localizer","","html-keyboard-response","228","135515","0.0-2.0-87.0-0.0","0","46835","","NaN","","","","null","NaN","85","","Stimuli/Experimental_stims/localizer/faces/cdc-ddKBuWekZr0-unsplash.jpg","1","faces","","0","1","0","0.4","96.39999999999998","","","","","","","","","","","","","","","","","","","","","","","","","","","","","","","","","","","","","","","","","","","","","","","","","","","","","",""
"","iti_localizer","","html-keyboard-response","229","135826","0.0-2.0-87.0-1.0","0","46835","","null","","","","null","","85","","","1","","","","","","14","96.79999999999998","","","","","","","","","","","","","","","","","","","","","","","","","","","","","","","","","","","","","","","","","","","","","","","","","","","","","",""
"","localizer","","html-keyboard-response","230","136237","0.0-2.0-88.0-0.0","0","46835","","NaN","","","","null","NaN","86","","Stimuli/Experimental_stims/localizer/outdoor_scenes/john-fowler-aaIN3y2zcMQ-unsplash.jpg","1","outdoor_scenes","","0","1","0","0.4","110.79999999999998","","","","","","","","","","","","","","","","","","","","","","","","","","","","","","","","","","","","","","","","","","","","","","","","","","","","","",""
"","iti_localizer","","html-keyboard-response","231","136545","0.0-2.0-88.0-1.0","0","46835","","null","","","","null","","86","","","1","","","","","","0.3","111.19999999999999","","","","","","","","","","","","","","","","","","","","","","","","","","","","","","","","","","","","","","","","","","","","","","","","","","","","","",""
"","localizer","","html-keyboard-response","232","136949","0.0-2.0-89.0-0.0","0","46835","","NaN","","","","null","NaN","87","","Stimuli/Experimental_stims/localizer/outdoor_scenes/niko-photos-tGTVxeOr_Rs-unsplash.jpg","1","outdoor_scenes","","0","1","0","0.4","111.49999999999999","","","","","","","","","","","","","","","","","","","","","","","","","","","","","","","","","","","","","","","","","","","","","","","","","","","","","",""
"","iti_localizer","","html-keyboard-response","233","137263","0.0-2.0-89.0-1.0","0","46835","","null","","","","null","","87","","","1","","","","","","0.3","111.89999999999999","","","","","","","","","","","","","","","","","","","","","","","","","","","","","","","","","","","","","","","","","","","","","","","","","","","","","",""
"","localizer","","html-keyboard-response","234","137677","0.0-2.0-90.0-0.0","0","46835","","NaN","","","","null","NaN","88","","Stimuli/Experimental_stims/localizer/outdoor_scenes/samuel-ferrara-IEHPDNk2-8w-unsplash.jpg","1","outdoor_scenes","","0","1","0","0.4","112.19999999999999","","","","","","","","","","","","","","","","","","","","","","","","","","","","","","","","","","","","","","","","","","","","","","","","","","","","","",""
"","iti_localizer","","html-keyboard-response","235","137988","0.0-2.0-90.0-1.0","0","46835","","null","","","","null","","88","","","1","","","","","","0.3","112.6","","","","","","","","","","","","","","","","","","","","","","","","","","","","","","","","","","","","","","","","","","","","","","","","","","","","","",""
"","localizer","","html-keyboard-response","236","138397","0.0-2.0-91.0-0.0","0","46835","","NaN","","","","null","NaN","89","","Stimuli/Experimental_stims/localizer/outdoor_scenes/luca-micheli-ruWkmt3nU58-unsplash.jpg","1","outdoor_scenes","","0","1","0","0.4","112.89999999999999","","","","","","","","","","","","","","","","","","","","","","","","","","","","","","","","","","","","","","","","","","","","","","","","","","","","","",""
"","iti_localizer","","html-keyboard-response","237","138710","0.0-2.0-91.0-1.0","0","46835","","null","","","","null","","89","","","1","","","","","","0.3","113.3","","","","","","","","","","","","","","","","","","","","","","","","","","","","","","","","","","","","","","","","","","","","","","","","","","","","","",""
"","localizer","","html-keyboard-response","238","139121","0.0-2.0-92.0-0.0","0","46835","","NaN","","","","null","NaN","90","","Stimuli/Experimental_stims/localizer/outdoor_scenes/damian-denis-D8R_txR_0PE-unsplash.jpg","1","outdoor_scenes","","0","1","0","0.4","113.6","","","","","","","","","","","","","","","","","","","","","","","","","","","","","","","","","","","","","","","","","","","","","","","","","","","","","",""
"","iti_localizer","","html-keyboard-response","239","139439","0.0-2.0-92.0-1.0","0","46835","","null","","","","null","","90","","","1","","","","","","0.3","114","","","","","","","","","","","","","","","","","","","","","","","","","","","","","","","","","","","","","","","","","","","","","","","","","","","","","",""
"","localizer","","html-keyboard-response","240","139851","0.0-2.0-93.0-0.0","0","46835","","NaN","","","","null","NaN","91","","Stimuli/Experimental_stims/localizer/outdoor_scenes/sean-oulashin-KMn4VEeEPR8-unsplash.jpg","1","outdoor_scenes","","1","1","0","0.4","114.3","","","","","","","","","","","","","","","","","","","","","","","","","","","","","","","","","","","","","","","","","","","","","","","","","","","","","",""
"","iti_localizer","","html-keyboard-response","241","140171","0.0-2.0-93.0-1.0","0","46835","","null","","","","null","","91","","","1","","","","","","0.3","114.7","","","","","","","","","","","","","","","","","","","","","","","","","","","","","","","","","","","","","","","","","","","","","","","","","","","","","",""
"","localizer","","html-keyboard-response","242","140584","0.0-2.0-94.0-0.0","0","46835","","NaN","","","","null","NaN","92","","Stimuli/Experimental_stims/localizer/outdoor_scenes/pietro-de-grandi-T7K4aEPoGGk-unsplash.jpg","1","outdoor_scenes","","0","1","0","0.4","115","","","","","","","","","","","","","","","","","","","","","","","","","","","","","","","","","","","","","","","","","","","","","","","","","","","","","",""
"","iti_localizer","","html-keyboard-response","243","140894","0.0-2.0-94.0-1.0","0","46835","","null","","","","null","","92","","","1","","","","","","0.3","115.4","","","","","","","","","","","","","","","","","","","","","","","","","","","","","","","","","","","","","","","","","","","","","","","","","","","","","",""
"","localizer","","html-keyboard-response","244","141311","0.0-2.0-95.0-0.0","0","46835","","NaN","","","","null","NaN","93","","Stimuli/Experimental_stims/localizer/outdoor_scenes/kenneth-thewissen-D76DklsG-5U-unsplash.jpg","1","outdoor_scenes","","0","1","0","0.4","115.7","","","","","","","","","","","","","","","","","","","","","","","","","","","","","","","","","","","","","","","","","","","","","","","","","","","","","",""
"","iti_localizer","","html-keyboard-response","245","141620","0.0-2.0-95.0-1.0","0","46835","","null","","","","null","","93","","","1","","","","","","0.3","116.10000000000001","","","","","","","","","","","","","","","","","","","","","","","","","","","","","","","","","","","","","","","","","","","","","","","","","","","","","",""
"","localizer","","html-keyboard-response","246","142027","0.0-2.0-96.0-0.0","0","46835","","NaN","","","","null","NaN","94","","Stimuli/Experimental_stims/localizer/outdoor_scenes/julien-lavallee-X2DE1VmN7x4-unsplash.jpg","1","outdoor_scenes","","0","1","0","0.4","116.4","","","","","","","","","","","","","","","","","","","","","","","","","","","","","","","","","","","","","","","","","","","","","","","","","","","","","",""
"","iti_localizer","","html-keyboard-response","247","142340","0.0-2.0-96.0-1.0","0","46835","","null","","","","null","","94","","","1","","","","","","0.3","116.80000000000001","","","","","","","","","","","","","","","","","","","","","","","","","","","","","","","","","","","","","","","","","","","","","","","","","","","","","",""
"","localizer","","html-keyboard-response","248","142751","0.0-2.0-97.0-0.0","0","46835","","NaN","","","","null","NaN","95","","Stimuli/Experimental_stims/localizer/outdoor_scenes/tomasz-filipek-CUWC-6MRcNg-unsplash.jpg","1","outdoor_scenes","","0","1","0","0.4","117.10000000000001","","","","","","","","","","","","","","","","","","","","","","","","","","","","","","","","","","","","","","","","","","","","","","","","","","","","","",""
"","iti_localizer","","html-keyboard-response","249","143062","0.0-2.0-97.0-1.0","0","46835","","null","","","","null","","95","","","1","","","","","","0.3","117.50000000000001","","","","","","","","","","","","","","","","","","","","","","","","","","","","","","","","","","","","","","","","","","","","","","","","","","","","","",""
"","localizer","","html-keyboard-response","250","143480","0.0-2.0-98.0-0.0","0","46835","","NaN","","","","null","NaN","96","","Stimuli/Experimental_stims/localizer/outdoor_scenes/ryan-schroeder-Gg7uKdHFb_c-unsplash.jpg","1","outdoor_scenes","","0","1","0","0.4","117.80000000000001","","","","","","","","","","","","","","","","","","","","","","","","","","","","","","","","","","","","","","","","","","","","","","","","","","","","","",""
"","iti_localizer","","html-keyboard-response","251","143786","0.0-2.0-98.0-1.0","0","46835","","null","","","","null","","96","","","1","","","","","","0.3","118.20000000000002","","","","","","","","","","","","","","","","","","","","","","","","","","","","","","","","","","","","","","","","","","","","","","","","","","","","","",""
"","localizer","","html-keyboard-response","252","144206","0.0-2.0-99.0-0.0","0","46835","","NaN","","","","null","NaN","97","","Stimuli/Experimental_stims/localizer/outdoor_scenes/eberhard-grossgasteiger-y2azHvupCVo-unsplash.jpg","1","outdoor_scenes","","0","1","0","0.4","118.50000000000001","","","","","","","","","","","","","","","","","","","","","","","","","","","","","","","","","","","","","","","","","","","","","","","","","","","","","",""
"","iti_localizer","","html-keyboard-response","253","144519","0.0-2.0-99.0-1.0","0","46835","","null","","","","null","","97","","","1","","","","","","0.3","118.90000000000002","","","","","","","","","","","","","","","","","","","","","","","","","","","","","","","","","","","","","","","","","","","","","","","","","","","","","",""
"","localizer","","html-keyboard-response","254","144932","0.0-2.0-100.0-0.0","0","46835","","NaN","","","","null","NaN","98","","Stimuli/Experimental_stims/localizer/outdoor_scenes/nikola-majksner-hXNGeAFOgT4-unsplash.jpg","1","outdoor_scenes","","0","1","0","0.4","119.20000000000002","","","","","","","","","","","","","","","","","","","","","","","","","","","","","","","","","","","","","","","","","","","","","","","","","","","","","",""
"","iti_localizer","","html-keyboard-response","255","145243","0.0-2.0-100.0-1.0","0","46835","","null","","","","null","","98","","","1","","","","","","0.3","119.60000000000002","","","","","","","","","","","","","","","","","","","","","","","","","","","","","","","","","","","","","","","","","","","","","","","","","","","","","",""
"","localizer","","html-keyboard-response","256","145652","0.0-2.0-101.0-0.0","0","46835","","NaN","","","","null","NaN","99","","Stimuli/Experimental_stims/localizer/outdoor_scenes/kalen-emsley-_LuLiJc1cdo-unsplash.jpg","1","outdoor_scenes","","0","1","0","0.4","119.90000000000002","","","","","","","","","","","","","","","","","","","","","","","","","","","","","","","","","","","","","","","","","","","","","","","","","","","","","",""
"","iti_localizer","","html-keyboard-response","257","145966","0.0-2.0-101.0-1.0","0","46835","","null","","","","null","","99","","","1","","","","","","0.3","120.30000000000003","","","","","","","","","","","","","","","","","","","","","","","","","","","","","","","","","","","","","","","","","","","","","","","","","","","","","",""
