"success","ttype","start_time","trial_type","trial_index","time_elapsed","internal_node_id","age","PID","gender","rt","responses","view_history","repeat_instructions","key_press","response","index","stimulus_index","path","start_time_elapsed","run","task","isi","is_odd_ball","no_response","acc","duration","onset","duration_time_elapsed","onset_time_elapsed","trial_duration"
"true","full_screen","d08172023hr1747","fullscreen","0","5597","0.0-0.0-0.0","24","36236","female","","","","","","","","","","","","","","","","","","","","",""
"","get_id","","survey-text","1","10613","0.0-0.0-1.0","24","36236","female","5010","{""Q0"":""24"",""Q1"":""female""}","","","","","","","","","","","","","","","","","","",""
"","ratings_instructions","","instructions","2","17581","0.0-1.0-0.0-0.0","24","36236","female","5438","","[{""page_index"":0,""viewing_time"":3454},{""page_index"":1,""viewing_time"":1984}]","","","","","","","","","","","","","","","","","",""
"","rating_comprehension_check","","survey-multi-choice","3","24260","0.0-1.0-0.0-1.0","24","36236","female","6671","{""Q0"":""True"",""Q1"":""Mouse""}","","0","","","","","","","","","","","","","","","","",""
"","","","html-keyboard-response","4","27590","0.0-1.0-1.0","24","36236","female","3325","","","","68","","","","","","","","","","","","","","","",""
"","rating","","html-slider-response","5","44725","0.0-1.0-2.0","24","36236","female","17128","","","","","87","0","38","Stimuli/Experimental_stims/objects/art-lasovsky-8XddFc6NkBY-unsplash.jpg","","","","","","","","","","","",""
"","rating","","html-slider-response","6","47731","0.0-1.0-3.0","24","36236","female","3000","","","","","90","1","24","Stimuli/Experimental_stims/body_parts/clay-banks-LjqARJaJotc-unsplash.jpg","","","","","","","","","","","",""
"","rating","","html-slider-response","7","50860","0.0-1.0-4.0","24","36236","female","3124","","","","","92","2","13","Stimuli/Experimental_stims/faces/daniel-rigdon-dXmXKPP2L4E-unsplash.jpg","","","","","","","","","","","",""
"","rating","","html-slider-response","8","62413","0.0-1.0-5.0","24","36236","female","11548","","","","","92","3","2","Stimuli/Experimental_stims/outdoor_scenes/bruno-van-der-kraan-qez8mNJ3ilU-unsplash.jpg","","","","","","","","","","","",""
"","rating","","html-slider-response","9","65983","0.0-1.0-6.0","24","36236","female","3563","","","","","86","4","36","Stimuli/Experimental_stims/objects/alexander-andrews-JYGnB9gTCls-unsplash.jpg","","","","","","","","","","","",""
"","rating","","html-slider-response","10","69047","0.0-1.0-7.0","24","36236","female","3056","","","","","93","5","7","Stimuli/Experimental_stims/outdoor_scenes/petr-vysohlid-9fqwGqGLUxc-unsplash.jpg","","","","","","","","","","","",""
"","rating","","html-slider-response","11","71693","0.0-1.0-8.0","24","36236","female","2641","","","","","92","6","28","Stimuli/Experimental_stims/body_parts/ira-vishnevskaya-8DQAvdCby1I-unsplash.jpg","","","","","","","","","","","",""
"","rating","","html-slider-response","12","74398","0.0-1.0-9.0","24","36236","female","2701","","","","","91","7","14","Stimuli/Experimental_stims/faces/david-siglin-UuW4psOb388-unsplash.jpg","","","","","","","","","","","",""
"","rating","","html-slider-response","13","80452","0.0-1.0-10.0","24","36236","female","6049","","","","","91","8","23","Stimuli/Experimental_stims/faces/rikonavt-HQjfrvdTfak-unsplash.jpg","","","","","","","","","","","",""
"","rating","","html-slider-response","14","83031","0.0-1.0-11.0","24","36236","female","2572","","","","","80","9","39","Stimuli/Experimental_stims/objects/charlesdeluvio-1-nx1QR5dTE-unsplash.jpg","","","","","","","","","","","",""
"","rating","","html-slider-response","15","87364","0.0-1.0-12.0","24","36236","female","4328","","","","","91","10","11","Stimuli/Experimental_stims/outdoor_scenes/stephen-leonardi-gyIRjKPXupE-unsplash.jpg","","","","","","","","","","","",""
"","rating","","html-slider-response","16","89613","0.0-1.0-13.0","24","36236","female","2243","","","","","90","11","16","Stimuli/Experimental_stims/faces/freddy-kearney-o-ioeoATbIM-unsplash.jpg","","","","","","","","","","","",""
"","rating","","html-slider-response","17","91805","0.0-1.0-14.0","24","36236","female","2187","","","","","85","12","46","Stimuli/Experimental_stims/objects/mockup-graphics-PNsj6RiHAF4-unsplash.jpg","","","","","","","","","","","",""
"","rating","","html-slider-response","18","94184","0.0-1.0-15.0","24","36236","female","2370","","","","","91","13","20","Stimuli/Experimental_stims/faces/justin-chen-J7Cf1Gch49E-unsplash.jpg","","","","","","","","","","","",""
"","rating","","html-slider-response","19","96185","0.0-1.0-16.0","24","36236","female","1992","","","","","81","14","18","Stimuli/Experimental_stims/faces/jessica-radanavong-mrYkTuAesKE-unsplash.jpg","","","","","","","","","","","",""
"","rating","","html-slider-response","20","98006","0.0-1.0-17.0","24","36236","female","1815","","","","","76","15","42","Stimuli/Experimental_stims/objects/jess-bailey-nOeVi8DsN8U-unsplash.jpg","","","","","","","","","","","",""
"","rating","","html-slider-response","21","99591","0.0-1.0-18.0","24","36236","female","1580","","","","","76","16","5","Stimuli/Experimental_stims/outdoor_scenes/jeff-king-bJHWJeiHfHc-unsplash.jpg","","","","","","","","","","","",""
"","rating","","html-slider-response","22","101559","0.0-1.0-19.0","24","36236","female","1963","","","","","80","17","25","Stimuli/Experimental_stims/body_parts/engin-akyurt-Q2rfH3GW39c-unsplash.jpg","","","","","","","","","","","",""
"","rating","","html-slider-response","23","103318","0.0-1.0-20.0","24","36236","female","1755","","","","","78","18","29","Stimuli/Experimental_stims/body_parts/manuel-schinner-ZwjFuJ7ebpk-unsplash.jpg","","","","","","","","","","","",""
"","rating","","html-slider-response","24","105113","0.0-1.0-21.0","24","36236","female","1787","","","","","87","19","47","Stimuli/Experimental_stims/objects/ronaldo-arthur-vidal-Cdz_lvnl37k-unsplash.jpg","","","","","","","","","","","",""
"","rating","","html-slider-response","25","106838","0.0-1.0-22.0","24","36236","female","1721","","","","","80","20","4","Stimuli/Experimental_stims/outdoor_scenes/jarrett-kow-1ZOyYPOBn7I-unsplash.jpg","","","","","","","","","","","",""
"","rating","","html-slider-response","26","108464","0.0-1.0-23.0","24","36236","female","1618","","","","","78","21","31","Stimuli/Experimental_stims/body_parts/sincerely-media-VN6DbKajo5s-unsplash.jpg","","","","","","","","","","","",""
"","rating","","html-slider-response","27","110504","0.0-1.0-24.0","24","36236","female","2034","","","","","82","22","44","Stimuli/Experimental_stims/objects/kuiye-chen-NuOGFo4PudE-unsplash.jpg","","","","","","","","","","","",""
"","rating","","html-slider-response","28","110805","0.0-1.0-25.0","24","36236","female","295","","","","","50","23","37","Stimuli/Experimental_stims/objects/alexander-andrews-VLGWE_SumrA-unsplash.jpg","","","","","","","","","","","",""
"","rating","","html-slider-response","29","114353","0.0-1.0-26.0","24","36236","female","3540","","","","","85","24","10","Stimuli/Experimental_stims/outdoor_scenes/shannon-kunkle-dM8INmkyDas-unsplash.jpg","","","","","","","","","","","",""
"","rating","","html-slider-response","30","116450","0.0-1.0-27.0","24","36236","female","2088","","","","","82","25","40","Stimuli/Experimental_stims/objects/fabian-blank-pElSkGRA2NU-unsplash.jpg","","","","","","","","","","","",""
"","rating","","html-slider-response","31","118116","0.0-1.0-28.0","24","36236","female","1662","","","","","83","26","9","Stimuli/Experimental_stims/outdoor_scenes/sergey-pesterev-y-b_FOmJXdg-unsplash.jpg","","","","","","","","","","","",""
"","rating","","html-slider-response","32","118957","0.0-1.0-29.0","24","36236","female","835","","","","","50","27","41","Stimuli/Experimental_stims/objects/insung-yoon-w2JtIQQXoRU-unsplash.jpg","","","","","","","","","","","",""
"","rating","","html-slider-response","33","119757","0.0-1.0-30.0","24","36236","female","796","","","","","50","28","8","Stimuli/Experimental_stims/outdoor_scenes/samsommer-vddccTqwal8-unsplash.jpg","","","","","","","","","","","",""
"","rating","","html-slider-response","34","120512","0.0-1.0-31.0","24","36236","female","747","","","","","50","29","3","Stimuli/Experimental_stims/outdoor_scenes/henry-be-NLF6hTe4PAg-unsplash.jpg","","","","","","","","","","","",""
"","rating","","html-slider-response","35","122877","0.0-1.0-32.0","24","36236","female","2359","","","","","81","30","27","Stimuli/Experimental_stims/body_parts/heike-mintel-i_Gns0ELnLw-unsplash.jpg","","","","","","","","","","","",""
"","rating","","html-slider-response","36","124774","0.0-1.0-33.0","24","36236","female","1891","","","","","80","31","19","Stimuli/Experimental_stims/faces/joel-mott-LaK153ghdig-unsplash.jpg","","","","","","","","","","","",""
"","rating","","html-slider-response","37","126567","0.0-1.0-34.0","24","36236","female","1788","","","","","84","32","45","Stimuli/Experimental_stims/objects/leohoho-rngTKHXumy0-unsplash.jpg","","","","","","","","","","","",""
"","rating","","html-slider-response","38","128257","0.0-1.0-35.0","24","36236","female","1684","","","","","82","33","30","Stimuli/Experimental_stims/body_parts/mika-korhonen-Xodzxosar18-unsplash.jpg","","","","","","","","","","","",""
"","rating","","html-slider-response","39","130306","0.0-1.0-36.0","24","36236","female","2042","","","","","84","34","21","Stimuli/Experimental_stims/faces/leilani-angel-K84vnnzxmTQ-unsplash.jpg","","","","","","","","","","","",""
"","rating","","html-slider-response","40","133078","0.0-1.0-37.0","24","36236","female","2768","","","","","83","35","34","Stimuli/Experimental_stims/body_parts/wagner-santos-mBWMvIuVnso-unsplash.jpg","","","","","","","","","","","",""
"","rating","","html-slider-response","41","134489","0.0-1.0-38.0","24","36236","female","1403","","","","","50","36","35","Stimuli/Experimental_stims/body_parts/wc-so-KH4AAPjb-tI-unsplash.jpg","","","","","","","","","","","",""
"","rating","","html-slider-response","42","134749","0.0-1.0-39.0","24","36236","female","256","","","","","50","37","15","Stimuli/Experimental_stims/faces/erik-lucatero-d2MSDujJl2g-unsplash.jpg","","","","","","","","","","","",""
"","rating","","html-slider-response","43","134894","0.0-1.0-40.0","24","36236","female","140","","","","","50","38","1","Stimuli/Experimental_stims/outdoor_scenes/ashim-d-silva-S2Q5mdOrrVc-unsplash.jpg","","","","","","","","","","","",""
"","rating","","html-slider-response","44","135014","0.0-1.0-41.0","24","36236","female","115","","","","","50","39","22","Stimuli/Experimental_stims/faces/ravi-patel-VMGAbeeJTKo-unsplash.jpg","","","","","","","","","","","",""
"","rating","","html-slider-response","45","135169","0.0-1.0-42.0","24","36236","female","149","","","","","50","40","26","Stimuli/Experimental_stims/body_parts/engin-akyurt-x_3gyC42btc-unsplash.jpg","","","","","","","","","","","",""
"","rating","","html-slider-response","46","135319","0.0-1.0-43.0","24","36236","female","143","","","","","50","41","0","Stimuli/Experimental_stims/outdoor_scenes/aleksandra-boguslawska-MS7KD9Ti7FQ-unsplash.jpg","","","","","","","","","","","",""
"","rating","","html-slider-response","47","135454","0.0-1.0-44.0","24","36236","female","130","","","","","50","42","43","Stimuli/Experimental_stims/objects/jonathan-greenaway-Y4hGgeiFn3s-unsplash.jpg","","","","","","","","","","","",""
"","rating","","html-slider-response","48","135599","0.0-1.0-45.0","24","36236","female","140","","","","","50","43","32","Stimuli/Experimental_stims/body_parts/towfiqu-barbhuiya-3AsiVDsZnHg-unsplash.jpg","","","","","","","","","","","",""
"","rating","","html-slider-response","49","135718","0.0-1.0-46.0","24","36236","female","114","","","","","50","44","17","Stimuli/Experimental_stims/faces/good-faces-xmSWVeGEnJw-unsplash.jpg","","","","","","","","","","","",""
"","rating","","html-slider-response","50","135871","0.0-1.0-47.0","24","36236","female","148","","","","","50","45","6","Stimuli/Experimental_stims/outdoor_scenes/meng-ji-8BH_M-53CyA-unsplash.jpg","","","","","","","","","","","",""
"","rating","","html-slider-response","51","136020","0.0-1.0-48.0","24","36236","female","145","","","","","50","46","33","Stimuli/Experimental_stims/body_parts/tucker-good-36skLT5jZcc-unsplash.jpg","","","","","","","","","","","",""
"","rating","","html-slider-response","52","136169","0.0-1.0-49.0","24","36236","female","141","","","","","50","47","12","Stimuli/Experimental_stims/faces/aiony-haust-jmATI5Q_YgY-unsplash.jpg","","","","","","","","","","","",""
"","localizer_instructions","","instructions","53","159837","0.0-2.0-0.0-0.0","24","36236","female","23582","","[{""page_index"":0,""viewing_time"":17303},{""page_index"":1,""viewing_time"":3063},{""page_index"":2,""viewing_time"":3216}]","","","","","","","","","","","","","","","","","",""
"","localizer_comprehension_check","","survey-multi-choice","54","172395","0.0-2.0-0.0-1.0","24","36236","female","12547","{""Q0"":""True"",""Q1"":""K"",""Q2"":""D""}","","0","","","","","","","","","","","","","","","","",""
"","","","html-keyboard-response","55","180938","0.0-2.0-1.0","24","36236","female","8537","","","","68","","","","","","","","","","","","","","","",""
"","localizer","","html-keyboard-response","56","181345","0.0-2.0-2.0-0.0","24","36236","female","NaN","","","","null","NaN","0","","Stimuli/Practice_stims/Localizer/annie-spratt-g9KFpAfQ5bc-unsplash.jpg","180938","0","NaN","","0","1","0","400","0","407","0",""
"","iti_localizer","","html-keyboard-response","57","181653","0.0-2.0-2.0-1.0","24","36236","female","null","","","","null","","0","","","181345","0","","","","","","300","400","308","407","300"
"","localizer","","html-keyboard-response","58","182061","0.0-2.0-2.1-0.1","24","36236","female","NaN","","","","null","NaN","0","","Stimuli/Practice_stims/Localizer/annie-spratt-g9KFpAfQ5bc-unsplash.jpg","181653","0","NaN","","0","1","0","400","700","408","715",""
"","iti_localizer","","html-keyboard-response","59","182367","0.0-2.0-2.1-1.1","24","36236","female","null","","","","null","","0","","","182061","0","","","","","","300","1100","306","1123","300"
"","localizer","","html-keyboard-response","60","182773","0.0-2.0-2.2-0.2","24","36236","female","NaN","","","","null","NaN","0","","Stimuli/Practice_stims/Localizer/annie-spratt-g9KFpAfQ5bc-unsplash.jpg","182367","0","NaN","","0","1","0","400","1400","406","1429",""
"","iti_localizer","","html-keyboard-response","61","183078","0.0-2.0-2.2-1.2","24","36236","female","null","","","","null","","0","","","182773","0","","","","","","300","1800","305","1835","300"
"","localizer","","html-keyboard-response","62","183484","0.0-2.0-2.3-0.3","24","36236","female","NaN","","","","null","NaN","0","","Stimuli/Practice_stims/Localizer/annie-spratt-g9KFpAfQ5bc-unsplash.jpg","183078","0","NaN","","0","1","0","400","2100","406","2140",""
"","iti_localizer","","html-keyboard-response","63","183789","0.0-2.0-2.3-1.3","24","36236","female","null","","","","null","","0","","","183484","0","","","","","","300","2500","305","2546","300"
"","localizer","","html-keyboard-response","64","184199","0.0-2.0-2.4-0.4","24","36236","female","NaN","","","","null","NaN","0","","Stimuli/Practice_stims/Localizer/annie-spratt-g9KFpAfQ5bc-unsplash.jpg","183789","0","NaN","","0","1","0","400","2800","410","2851",""
"","iti_localizer","","html-keyboard-response","65","184506","0.0-2.0-2.4-1.4","24","36236","female","null","","","","null","","0","","","184199","0","","","","","","300","3200","307","3261","300"
"","localizer","","html-keyboard-response","66","184912","0.0-2.0-2.5-0.5","24","36236","female","NaN","","","","null","NaN","0","","Stimuli/Practice_stims/Localizer/annie-spratt-g9KFpAfQ5bc-unsplash.jpg","184506","0","NaN","","0","1","0","400","3500","406","3568",""
"","iti_localizer","","html-keyboard-response","67","185217","0.0-2.0-2.5-1.5","24","36236","female","null","","","","null","","0","","","184912","0","","","","","","300","3900","305","3974","300"
"","localizer","","html-keyboard-response","68","185623","0.0-2.0-2.6-0.6","24","36236","female","NaN","","","","null","NaN","0","","Stimuli/Practice_stims/Localizer/annie-spratt-g9KFpAfQ5bc-unsplash.jpg","185217","0","NaN","","0","1","0","400","4200","406","4279",""
"","iti_localizer","","html-keyboard-response","69","185929","0.0-2.0-2.6-1.6","24","36236","female","null","","","","null","","0","","","185623","0","","","","","","300","4600","306","4685","300"
"","localizer","","html-keyboard-response","70","186334","0.0-2.0-2.7-0.7","24","36236","female","76","","","","68","0","0","","Stimuli/Practice_stims/Localizer/annie-spratt-g9KFpAfQ5bc-unsplash.jpg","185929","0","NaN","","0","0","1","400","4900","405","4991",""
"","iti_localizer","","html-keyboard-response","71","186639","0.0-2.0-2.7-1.7","24","36236","female","null","","","","null","","0","","","186334","0","","","","","","300","5300","305","5396","300"
"","localizer","","html-keyboard-response","72","187045","0.0-2.0-3.0-0.0","24","36236","female","21","","","","68","0","1","","Stimuli/Practice_stims/Localizer/becca-tapert-sY5RjMB1KkE-unsplash.jpg","186639","0","NaN","","0","0","1","400","5600","406","5701",""
"","iti_localizer","","html-keyboard-response","73","187352","0.0-2.0-3.0-1.0","24","36236","female","null","","","","null","","1","","","187045","0","","","","","","300","6000","307","6107","300"
"","localizer","","html-keyboard-response","74","187757","0.0-2.0-4.0-0.0","24","36236","female","125","","","","75","1","2","","Stimuli/Practice_stims/Localizer/charl-durand-bsfXvI25iNg-unsplash.jpg","187352","0","NaN","","1","0","1","400","6300","405","6414",""
"","iti_localizer","","html-keyboard-response","75","188062","0.0-2.0-4.0-1.0","24","36236","female","null","","","","null","","2","","","187757","0","","","","","","300","6700","305","6819","300"
"","localizer","","html-keyboard-response","76","188469","0.0-2.0-5.0-0.0","24","36236","female","87","","","","68","0","3","","Stimuli/Practice_stims/Localizer/nizar-albusaidy-B2r2SWAf5CE-unsplash.jpg","188062","0","NaN","","0","0","1","400","7000","407","7124",""
"","iti_localizer","","html-keyboard-response","77","188774","0.0-2.0-5.0-1.0","24","36236","female","null","","","","null","","3","","","188469","0","","","","","","300","7400","305","7531","300"
"","localizer","","html-keyboard-response","78","189180","0.0-2.0-6.0-0.0","24","36236","female","1","","","","68","0","4","","Stimuli/Practice_stims/Localizer/randy-fath-epf1tdtIIkM-unsplash.jpg","188774","0","NaN","","1","0","0","400","7700","406","7836",""
"","iti_localizer","","html-keyboard-response","79","189486","0.0-2.0-6.0-1.0","24","36236","female","null","","","","null","","4","","","189180","0","","","","","","300","8100","306","8242","300"
"","localizer","","html-keyboard-response","80","189894","0.0-2.0-7.0-0.0","24","36236","female","88","","","","75","1","5","","Stimuli/Practice_stims/Localizer/yassine-khalfalli-adsQ9d_Cx0c-unsplash.jpg","189486","0","NaN","","0","0","0","400","8400","408","8548",""
"","iti_localizer","","html-keyboard-response","81","190207","0.0-2.0-7.0-1.0","24","36236","female","null","","","","null","","5","","","189894","0","","","","","","300","8800","313","8956","300"
"","practice_over","","html-keyboard-response","82","190317","0.0-2.0-7.0-2.0-0.0","24","36236","female","102","","","","68","","","","","","","","","","","","","","","",""
"","start_run","","html-keyboard-response","83","193130","0.0-2.0-7.0-2.0-1.0","24","36236","female","2809","","","","84","","","","","","","","","","","","","","","",""
"","localizer","","html-keyboard-response","84","193538","0.0-2.0-8.0-0.0","24","36236","female","NaN","","","","null","NaN","6","","Stimuli/Experimental_stims/localizer/faces/christina-wocintechchat-com-0Zx1bDv5BNY-unsplash.jpg","193130","1","faces","","0","1","0","400","0","408","0",""
"","iti_localizer","","html-keyboard-response","85","193844","0.0-2.0-8.0-1.0","24","36236","female","null","","","","null","","6","","","193538","1","","","","","","300","400","306","408","300"
"","localizer","","html-keyboard-response","86","194252","0.0-2.0-9.0-0.0","24","36236","female","193","","","","68","0","7","","Stimuli/Experimental_stims/localizer/faces/jeffery-erhunse-BQMZ5ligqps-unsplash.jpg","193844","1","faces","","0","0","1","400","700","408","714",""
"","iti_localizer","","html-keyboard-response","87","194558","0.0-2.0-9.0-1.0","24","36236","female","null","","","","null","","7","","","194252","1","","","","","","300","1100","306","1122","300"
"","localizer","","html-keyboard-response","88","194965","0.0-2.0-10.0-0.0","24","36236","female","6","","","","75","1","8","","Stimuli/Experimental_stims/localizer/faces/matheus-ferrero-W7b3eDUb_2I-unsplash.jpg","194558","1","faces","","0","0","0","400","1400","407","1428",""
"","iti_localizer","","html-keyboard-response","89","195270","0.0-2.0-10.0-1.0","24","36236","female","null","","","","null","","8","","","194965","1","","","","","","300","1800","305","1835","300"
"","localizer","","html-keyboard-response","90","195675","0.0-2.0-11.0-0.0","24","36236","female","238","","","","68","0","9","","Stimuli/Experimental_stims/localizer/faces/jurica-koletic-7YVZYZeITc8-unsplash.jpg","195270","1","faces","","1","0","0","400","2100","405","2140",""
"","iti_localizer","","html-keyboard-response","91","195981","0.0-2.0-11.0-1.0","24","36236","female","null","","","","null","","9","","","195675","1","","","","","","300","2500","306","2545","300"
"","localizer","","html-keyboard-response","92","196389","0.0-2.0-12.0-0.0","24","36236","female","279","","","","75","1","10","","Stimuli/Experimental_stims/localizer/faces/drew-hays-agGIKYs4mYs-unsplash.jpg","195981","1","faces","","0","0","0","400","2800","408","2851",""
"","iti_localizer","","html-keyboard-response","93","196696","0.0-2.0-12.0-1.0","24","36236","female","null","","","","null","","10","","","196389","1","","","","","","300","3200","307","3259","300"
"","localizer","","html-keyboard-response","94","197101","0.0-2.0-13.0-0.0","24","36236","female","109","","","","68","0","11","","Stimuli/Experimental_stims/localizer/faces/rui-silvestre-hAMJpesMeDE-unsplash.jpg","196696","1","faces","","0","0","1","400","3500","405","3566",""
"","iti_localizer","","html-keyboard-response","95","197406","0.0-2.0-13.0-1.0","24","36236","female","null","","","","null","","11","","","197101","1","","","","","","300","3900","305","3971","300"
"","localizer","","html-keyboard-response","96","197812","0.0-2.0-14.0-0.0","24","36236","female","88","","","","68","0","12","","Stimuli/Experimental_stims/localizer/faces/sean-kong--1B_y4wGs-s-unsplash.jpg","197406","1","faces","","0","0","1","400","4200","406","4276",""
"","iti_localizer","","html-keyboard-response","97","198117","0.0-2.0-14.0-1.0","24","36236","female","null","","","","null","","12","","","197812","1","","","","","","300","4600","305","4682","300"
"","localizer","","html-keyboard-response","98","198524","0.0-2.0-15.0-0.0","24","36236","female","2","","","","68","0","13","","Stimuli/Experimental_stims/localizer/faces/vince-fleming-j3lf-Jn6deo-unsplash.jpg","198117","1","faces","","0","0","1","400","4900","407","4987",""
"","iti_localizer","","html-keyboard-response","99","198829","0.0-2.0-15.0-1.0","24","36236","female","null","","","","null","","13","","","198524","1","","","","","","300","5300","305","5394","300"
"","localizer","","html-keyboard-response","100","199237","0.0-2.0-16.0-0.0","24","36236","female","NaN","","","","null","NaN","14","","Stimuli/Experimental_stims/localizer/faces/tyler-nix-ZGa9d1a_4tA-unsplash.jpg","198829","1","faces","","0","1","0","400","5600","408","5699",""
"","iti_localizer","","html-keyboard-response","101","199541","0.0-2.0-16.0-1.0","24","36236","female","null","","","","null","","14","","","199237","1","","","","","","300","6000","304","6107","300"
"","localizer","","html-keyboard-response","102","199947","0.0-2.0-17.0-0.0","24","36236","female","287","","","","75","1","15","","Stimuli/Experimental_stims/localizer/faces/abstral-official-cyOKLSgkgCE-unsplash.jpg","199541","1","faces","","0","0","0","400","6300","406","6411",""
"","iti_localizer","","html-keyboard-response","103","200254","0.0-2.0-17.0-1.0","24","36236","female","null","","","","null","","15","","","199947","1","","","","","","300","6700","307","6817","300"
"","localizer","","html-keyboard-response","104","200660","0.0-2.0-18.0-0.0","24","36236","female","168","","","","68","0","16","","Stimuli/Experimental_stims/localizer/faces/ethan-haddox-__ng3cRXmFE-unsplash.jpg","200254","1","faces","","0","0","1","400","7000","406","7124",""
"","iti_localizer","","html-keyboard-response","105","200965","0.0-2.0-18.0-1.0","24","36236","female","null","","","","null","","16","","","200660","1","","","","","","300","7400","305","7530","300"
"","localizer","","html-keyboard-response","106","201371","0.0-2.0-19.0-0.0","24","36236","female","NaN","","","","null","NaN","17","","Stimuli/Experimental_stims/localizer/faces/foto-sushi-6anudmpILw4-unsplash.jpg","200965","1","faces","","0","1","0","400","7700","406","7835",""
"","iti_localizer","","html-keyboard-response","107","201677","0.0-2.0-19.0-1.0","24","36236","female","null","","","","null","","17","","","201371","1","","","","","","300","8100","306","8241","300"
"","localizer","","html-keyboard-response","108","202084","0.0-2.0-20.0-0.0","24","36236","female","NaN","","","","null","NaN","18","","Stimuli/Experimental_stims/localizer/faces/christian-ferrer-8vT-DgHZDG4-unsplash.jpg","201677","1","faces","","0","1","0","400","8400","407","8547",""
"","iti_localizer","","html-keyboard-response","109","202392","0.0-2.0-20.0-1.0","24","36236","female","null","","","","null","","18","","","202084","1","","","","","","300","8800","308","8954","300"
"","localizer","","html-keyboard-response","110","202798","0.0-2.0-21.0-0.0","24","36236","female","NaN","","","","null","NaN","19","","Stimuli/Experimental_stims/localizer/faces/stephanie-nakagawa-ADSKIn0ScDg-unsplash.jpg","202392","1","faces","","0","1","0","400","9100","406","9262",""
"","iti_localizer","","html-keyboard-response","111","203103","0.0-2.0-21.0-1.0","24","36236","female","null","","","","null","","19","","","202798","1","","","","","","300","9500","305","9668","300"
"","localizer","","html-keyboard-response","112","203509","0.0-2.0-22.0-0.0","24","36236","female","NaN","","","","null","NaN","20","","Stimuli/Experimental_stims/localizer/faces/toa-heftiba-2O1EUSTRBrY-unsplash.jpg","203103","1","faces","","1","1","0","400","9800","406","9973",""
"","iti_localizer","","html-keyboard-response","113","203814","0.0-2.0-22.0-1.0","24","36236","female","null","","","","null","","20","","","203509","1","","","","","","300","10200","305","10379","300"
"","localizer","","html-keyboard-response","114","204221","0.0-2.0-23.0-0.0","24","36236","female","302","","","","75","1","21","","Stimuli/Experimental_stims/localizer/faces/darshan-patel-QJEVpydulGs-unsplash.jpg","203814","1","faces","","0","0","0","400","10500","407","10684",""
"","iti_localizer","","html-keyboard-response","115","204530","0.0-2.0-23.0-1.0","24","36236","female","null","","","","null","","21","","","204221","1","","","","","","300","10900","309","11091","300"
"","localizer","","html-keyboard-response","116","204936","0.0-2.0-24.0-0.0","24","36236","female","34","","","","75","1","22","","Stimuli/Experimental_stims/localizer/faces/mubariz-mehdizadeh-o-wlIFT4zE4-unsplash.jpg","204530","1","faces","","0","0","0","400","11200","406","11400",""
"","iti_localizer","","html-keyboard-response","117","205242","0.0-2.0-24.0-1.0","24","36236","female","null","","","","null","","22","","","204936","1","","","","","","300","11600","306","11806","300"
"","localizer","","html-keyboard-response","118","205649","0.0-2.0-25.0-0.0","24","36236","female","28","","","","68","0","23","","Stimuli/Experimental_stims/localizer/faces/midas-hofstra-tidSLv-UaNs-unsplash.jpg","205242","1","faces","","0","0","1","400","11900","407","12112",""
"","iti_localizer","","html-keyboard-response","119","205954","0.0-2.0-25.0-1.0","24","36236","female","null","","","","null","","23","","","205649","1","","","","","","300","12300","305","12519","300"
"","localizer","","html-keyboard-response","120","206363","0.0-2.0-26.0-0.0","24","36236","female","66","","","","75","1","24","","Stimuli/Experimental_stims/localizer/faces/toa-heftiba-O3ymvT7Wf9U-unsplash.jpg","205954","1","faces","","0","0","0","400","12600","409","12824",""
"","iti_localizer","","html-keyboard-response","121","206668","0.0-2.0-26.0-1.0","24","36236","female","null","","","","null","","24","","","206363","1","","","","","","300","13000","305","13233","300"
"","localizer","","html-keyboard-response","122","207074","0.0-2.0-27.0-0.0","24","36236","female","10","","","","75","1","25","","Stimuli/Experimental_stims/localizer/faces/katsiaryna-endruszkiewicz-BteCp6aq4GI-unsplash.jpg","206668","1","faces","","0","0","0","400","13300","406","13538",""
"","iti_localizer","","html-keyboard-response","123","221080","0.0-2.0-27.0-1.0","24","36236","female","null","","","","null","","25","","","207074","1","","","","","","14000","13700","14006","13944","14000"
"","localizer","","html-keyboard-response","124","221487","0.0-2.0-28.0-0.0","24","36236","female","125","","","","75","1","26","","Stimuli/Experimental_stims/localizer/outdoor_scenes/jaanus-jagomagi-FddgewYQF2M-unsplash.jpg","221080","1","outdoor_scenes","","0","0","0","400","27700","407","27950",""
"","iti_localizer","","html-keyboard-response","125","221794","0.0-2.0-28.0-1.0","24","36236","female","null","","","","null","","26","","","221487","1","","","","","","300","28100","307","28357","300"
"","localizer","","html-keyboard-response","126","222201","0.0-2.0-29.0-0.0","24","36236","female","67","","","","68","0","27","","Stimuli/Experimental_stims/localizer/outdoor_scenes/v2osk-1Z2niiBPg5A-unsplash.jpg","221794","1","outdoor_scenes","","1","0","0","400","28400","407","28664",""
"","iti_localizer","","html-keyboard-response","127","222505","0.0-2.0-29.0-1.0","24","36236","female","null","","","","null","","27","","","222201","1","","","","","","300","28800","304","29071","300"
"","localizer","","html-keyboard-response","128","222911","0.0-2.0-30.0-0.0","24","36236","female","299","","","","75","1","28","","Stimuli/Experimental_stims/localizer/outdoor_scenes/wai-siew-mTFyV8oNDzU-unsplash.jpg","222505","1","outdoor_scenes","","0","0","0","400","29100","406","29375",""
"","iti_localizer","","html-keyboard-response","129","223216","0.0-2.0-30.0-1.0","24","36236","female","null","","","","null","","28","","","222911","1","","","","","","300","29500","305","29781","300"
"","localizer","","html-keyboard-response","130","223621","0.0-2.0-31.0-0.0","24","36236","female","134","","","","75","1","29","","Stimuli/Experimental_stims/localizer/outdoor_scenes/jay-cai-F_laX9E8CUo-unsplash.jpg","223216","1","outdoor_scenes","","0","0","0","400","29800","405","30086",""
"","iti_localizer","","html-keyboard-response","131","223927","0.0-2.0-31.0-1.0","24","36236","female","null","","","","null","","29","","","223621","1","","","","","","300","30200","306","30491","300"
"","localizer","","html-keyboard-response","132","224334","0.0-2.0-32.0-0.0","24","36236","female","77","","","","68","0","30","","Stimuli/Experimental_stims/localizer/outdoor_scenes/jeremy-cai-ucYWe5mzTMU-unsplash.jpg","223927","1","outdoor_scenes","","0","0","1","400","30500","407","30797",""
"","iti_localizer","","html-keyboard-response","133","224639","0.0-2.0-32.0-1.0","24","36236","female","null","","","","null","","30","","","224334","1","","","","","","300","30900","305","31204","300"
"","localizer","","html-keyboard-response","134","225044","0.0-2.0-33.0-0.0","24","36236","female","198","","","","68","0","31","","Stimuli/Experimental_stims/localizer/outdoor_scenes/erol-ahmed-d3pTF3r_hwY-unsplash.jpg","224639","1","outdoor_scenes","","0","0","1","400","31200","405","31509",""
"","iti_localizer","","html-keyboard-response","135","225353","0.0-2.0-33.0-1.0","24","36236","female","null","","","","null","","31","","","225044","1","","","","","","300","31600","309","31914","300"
"","localizer","","html-keyboard-response","136","225759","0.0-2.0-34.0-0.0","24","36236","female","235","","","","68","0","32","","Stimuli/Experimental_stims/localizer/outdoor_scenes/quino-al-vmZ2DehWQ3Q-unsplash.jpg","225353","1","outdoor_scenes","","0","0","1","400","31900","406","32223",""
"","iti_localizer","","html-keyboard-response","137","226064","0.0-2.0-34.0-1.0","24","36236","female","null","","","","null","","32","","","225759","1","","","","","","300","32300","305","32629","300"
"","localizer","","html-keyboard-response","138","226470","0.0-2.0-35.0-0.0","24","36236","female","277","","","","68","0","33","","Stimuli/Experimental_stims/localizer/outdoor_scenes/kenneth-thewissen-D76DklsG-5U-unsplash.jpg","226064","1","outdoor_scenes","","0","0","1","400","32600","406","32934",""
"","iti_localizer","","html-keyboard-response","139","226776","0.0-2.0-35.0-1.0","24","36236","female","null","","","","null","","33","","","226470","1","","","","","","300","33000","306","33340","300"
"","localizer","","html-keyboard-response","140","227183","0.0-2.0-36.0-0.0","24","36236","female","141","","","","75","1","34","","Stimuli/Experimental_stims/localizer/outdoor_scenes/johny-goerend-U_diPCXCBxU-unsplash.jpg","226776","1","outdoor_scenes","","0","0","0","400","33300","407","33646",""
"","iti_localizer","","html-keyboard-response","141","227490","0.0-2.0-36.0-1.0","24","36236","female","null","","","","null","","34","","","227183","1","","","","","","300","33700","307","34053","300"
"","localizer","","html-keyboard-response","142","227895","0.0-2.0-37.0-0.0","24","36236","female","323","","","","75","1","35","","Stimuli/Experimental_stims/localizer/outdoor_scenes/ken-cheung-KonWFWUaAuk-unsplash.jpg","227490","1","outdoor_scenes","","0","0","0","400","34000","405","34360",""
"","iti_localizer","","html-keyboard-response","143","228203","0.0-2.0-37.0-1.0","24","36236","female","null","","","","null","","35","","","227895","1","","","","","","300","34400","308","34765","300"
"","localizer","","html-keyboard-response","144","228608","0.0-2.0-38.0-0.0","24","36236","female","11","","","","68","0","36","","Stimuli/Experimental_stims/localizer/outdoor_scenes/alessio-furlan-Vw3a0HgE7AM-unsplash.jpg","228203","1","outdoor_scenes","","0","0","1","400","34700","405","35073",""
"","iti_localizer","","html-keyboard-response","145","228914","0.0-2.0-38.0-1.0","24","36236","female","null","","","","null","","36","","","228608","1","","","","","","300","35100","306","35478","300"
"","localizer","","html-keyboard-response","146","229321","0.0-2.0-39.0-0.0","24","36236","female","114","","","","68","0","37","","Stimuli/Experimental_stims/localizer/outdoor_scenes/ricardo-gomez-angel-dTSaC-S-7fs-unsplash.jpg","228914","1","outdoor_scenes","","0","0","1","400","35400","407","35784",""
"","iti_localizer","","html-keyboard-response","147","229626","0.0-2.0-39.0-1.0","24","36236","female","null","","","","null","","37","","","229321","1","","","","","","300","35800","305","36191","300"
"","localizer","","html-keyboard-response","148","230033","0.0-2.0-40.0-0.0","24","36236","female","43","","","","68","0","38","","Stimuli/Experimental_stims/localizer/outdoor_scenes/samuel-ferrara-IEHPDNk2-8w-unsplash.jpg","229626","1","outdoor_scenes","","0","0","1","400","36100","407","36496",""
"","iti_localizer","","html-keyboard-response","149","230339","0.0-2.0-40.0-1.0","24","36236","female","null","","","","null","","38","","","230033","1","","","","","","300","36500","306","36903","300"
"","localizer","","html-keyboard-response","150","230745","0.0-2.0-41.0-0.0","24","36236","female","146","","","","68","0","39","","Stimuli/Experimental_stims/localizer/outdoor_scenes/pietro-de-grandi-T7K4aEPoGGk-unsplash.jpg","230339","1","outdoor_scenes","","0","0","1","400","36800","406","37209",""
"","iti_localizer","","html-keyboard-response","151","231050","0.0-2.0-41.0-1.0","24","36236","female","null","","","","null","","39","","","230745","1","","","","","","300","37200","305","37615","300"
"","localizer","","html-keyboard-response","152","231457","0.0-2.0-42.0-0.0","24","36236","female","76","","","","75","1","40","","Stimuli/Experimental_stims/localizer/outdoor_scenes/tomasz-filipek-CUWC-6MRcNg-unsplash.jpg","231050","1","outdoor_scenes","","0","0","0","400","37500","407","37920",""
"","iti_localizer","","html-keyboard-response","153","231762","0.0-2.0-42.0-1.0","24","36236","female","null","","","","null","","40","","","231457","1","","","","","","300","37900","305","38327","300"
"","localizer","","html-keyboard-response","154","232171","0.0-2.0-43.0-0.0","24","36236","female","3","","","","75","1","41","","Stimuli/Experimental_stims/localizer/outdoor_scenes/cayetano-gil-rguHxZmOF5U-unsplash.jpg","231762","1","outdoor_scenes","","0","0","0","400","38200","409","38632",""
"","iti_localizer","","html-keyboard-response","155","232476","0.0-2.0-43.0-1.0","24","36236","female","null","","","","null","","41","","","232171","1","","","","","","300","38600","305","39041","300"
"","localizer","","html-keyboard-response","156","232883","0.0-2.0-44.0-0.0","24","36236","female","56","","","","75","1","42","","Stimuli/Experimental_stims/localizer/outdoor_scenes/nikola-majksner-hXNGeAFOgT4-unsplash.jpg","232476","1","outdoor_scenes","","0","0","0","400","38900","407","39346",""
"","iti_localizer","","html-keyboard-response","157","233187","0.0-2.0-44.0-1.0","24","36236","female","null","","","","null","","42","","","232883","1","","","","","","300","39300","304","39753","300"
"","localizer","","html-keyboard-response","158","233594","0.0-2.0-45.0-0.0","24","36236","female","2","","","","75","1","43","","Stimuli/Experimental_stims/localizer/outdoor_scenes/wil-stewart-pHANr-CpbYM-unsplash.jpg","233187","1","outdoor_scenes","","1","0","1","400","39600","407","40057",""
"","iti_localizer","","html-keyboard-response","159","233900","0.0-2.0-45.0-1.0","24","36236","female","null","","","","null","","43","","","233594","1","","","","","","300","40000","306","40464","300"
"","localizer","","html-keyboard-response","160","234306","0.0-2.0-46.0-0.0","24","36236","female","122","","","","75","1","44","","Stimuli/Experimental_stims/localizer/outdoor_scenes/chang-qing-2YQoKbyGvDc-unsplash.jpg","233900","1","outdoor_scenes","","0","0","0","400","40300","406","40770",""
"","iti_localizer","","html-keyboard-response","161","234612","0.0-2.0-46.0-1.0","24","36236","female","null","","","","null","","44","","","234306","1","","","","","","300","40700","306","41176","300"
"","localizer","","html-keyboard-response","162","235019","0.0-2.0-47.0-0.0","24","36236","female","111","","","","75","1","45","","Stimuli/Experimental_stims/localizer/outdoor_scenes/solotravelgoals-7kLufxYoqWk-unsplash.jpg","234612","1","outdoor_scenes","","0","0","0","400","41000","407","41482",""
"","iti_localizer","","html-keyboard-response","163","249025","0.0-2.0-47.0-1.0","24","36236","female","null","","","","null","","45","","","235019","1","","","","","","14000","41400","14006","41889","14000"
"","localizer","","html-keyboard-response","164","249432","0.0-2.0-48.0-0.0","24","36236","female","150","","","","75","1","46","","Stimuli/Experimental_stims/localizer/body_parts/jeremy-bishop-mLd3hAaH2ns-unsplash.jpg","249025","1","body_parts","","0","0","0","400","55400","407","55895",""
"","iti_localizer","","html-keyboard-response","165","249737","0.0-2.0-48.0-1.0","24","36236","female","null","","","","null","","46","","","249432","1","","","","","","300","55800","305","56302","300"
"","localizer","","html-keyboard-response","166","250143","0.0-2.0-49.0-0.0","24","36236","female","1","","","","68","0","47","","Stimuli/Experimental_stims/localizer/body_parts/lilartsy-1KkhQ8uL28g-unsplash.jpg","249737","1","body_parts","","0","0","1","400","56100","406","56607",""
"","iti_localizer","","html-keyboard-response","167","250449","0.0-2.0-49.0-1.0","24","36236","female","null","","","","null","","47","","","250143","1","","","","","","300","56500","306","57013","300"
"","localizer","","html-keyboard-response","168","250855","0.0-2.0-50.0-0.0","24","36236","female","180","","","","68","0","48","","Stimuli/Experimental_stims/localizer/body_parts/toa-heftiba-qxvWnfHb3-M-unsplash.jpg","250449","1","body_parts","","0","0","1","400","56800","406","57319",""
"","iti_localizer","","html-keyboard-response","169","251161","0.0-2.0-50.0-1.0","24","36236","female","null","","","","null","","48","","","250855","1","","","","","","300","57200","306","57725","300"
"","localizer","","html-keyboard-response","170","251567","0.0-2.0-51.0-0.0","24","36236","female","108","","","","68","0","49","","Stimuli/Experimental_stims/localizer/body_parts/callum-skelton-3KLMq7y46nA-unsplash.jpg","251161","1","body_parts","","1","0","0","400","57500","406","58031",""
"","iti_localizer","","html-keyboard-response","171","251873","0.0-2.0-51.0-1.0","24","36236","female","null","","","","null","","49","","","251567","1","","","","","","300","57900","306","58437","300"
"","localizer","","html-keyboard-response","172","252281","0.0-2.0-52.0-0.0","24","36236","female","37","","","","68","0","50","","Stimuli/Experimental_stims/localizer/body_parts/ant-rozetsky-bXQd8JXx0vs-unsplash.jpg","251873","1","body_parts","","0","0","1","400","58200","408","58743",""
"","iti_localizer","","html-keyboard-response","173","252589","0.0-2.0-52.0-1.0","24","36236","female","null","","","","null","","50","","","252281","1","","","","","","300","58600","308","59151","300"
"","localizer","","html-keyboard-response","174","252995","0.0-2.0-53.0-0.0","24","36236","female","154","","","","68","0","51","","Stimuli/Experimental_stims/localizer/body_parts/boyd-christiansen-uVj7kewrZ-o-unsplash.jpg","252589","1","body_parts","","0","0","1","400","58900","406","59459",""
"","iti_localizer","","html-keyboard-response","175","253300","0.0-2.0-53.0-1.0","24","36236","female","null","","","","null","","51","","","252995","1","","","","","","300","59300","305","59865","300"
"","localizer","","html-keyboard-response","176","253706","0.0-2.0-54.0-0.0","24","36236","female","66","","","","75","1","52","","Stimuli/Experimental_stims/localizer/body_parts/helen-ast-l2iY5Sh0mTg-unsplash.jpg","253300","1","body_parts","","0","0","0","400","59600","406","60170",""
"","iti_localizer","","html-keyboard-response","177","254012","0.0-2.0-54.0-1.0","24","36236","female","null","","","","null","","52","","","253706","1","","","","","","300","60000","306","60576","300"
"","localizer","","html-keyboard-response","178","254419","0.0-2.0-55.0-0.0","24","36236","female","105","","","","68","0","53","","Stimuli/Experimental_stims/localizer/body_parts/pure-julia-E9Q4bqYHtIM-unsplash.jpg","254012","1","body_parts","","0","0","1","400","60300","407","60882",""
"","iti_localizer","","html-keyboard-response","179","254724","0.0-2.0-55.0-1.0","24","36236","female","null","","","","null","","53","","","254419","1","","","","","","300","60700","305","61289","300"
"","localizer","","html-keyboard-response","180","255131","0.0-2.0-56.0-0.0","24","36236","female","226","","","","68","0","54","","Stimuli/Experimental_stims/localizer/body_parts/sina-rezakhani-d1gQi0Jl05U-unsplash (1).jpg","254724","1","body_parts","","0","0","1","400","61000","407","61594",""
"","iti_localizer","","html-keyboard-response","181","255442","0.0-2.0-56.0-1.0","24","36236","female","null","","","","null","","54","","","255131","1","","","","","","300","61400","311","62001","300"
"","localizer","","html-keyboard-response","182","255850","0.0-2.0-57.0-0.0","24","36236","female","100","","","","68","0","55","","Stimuli/Experimental_stims/localizer/body_parts/megan-menegay-UojxG_BJxnI-unsplash.jpg","255442","1","body_parts","","0","0","1","400","61700","408","62312",""
"","iti_localizer","","html-keyboard-response","183","256155","0.0-2.0-57.0-1.0","24","36236","female","null","","","","null","","55","","","255850","1","","","","","","300","62100","305","62720","300"
"","localizer","","html-keyboard-response","184","256562","0.0-2.0-58.0-0.0","24","36236","female","170","","","","68","0","56","","Stimuli/Experimental_stims/localizer/body_parts/sincerely-media-7TBFwUQA6Xk-unsplash.jpg","256155","1","body_parts","","0","0","1","400","62400","407","63025",""
"","iti_localizer","","html-keyboard-response","185","256867","0.0-2.0-58.0-1.0","24","36236","female","null","","","","null","","56","","","256562","1","","","","","","300","62800","305","63432","300"
"","localizer","","html-keyboard-response","186","257273","0.0-2.0-59.0-0.0","24","36236","female","66","","","","68","0","57","","Stimuli/Experimental_stims/localizer/body_parts/sincerely-media-pdynOoM7xmA-unsplash.jpg","256867","1","body_parts","","0","0","1","400","63100","406","63737",""
"","iti_localizer","","html-keyboard-response","187","257580","0.0-2.0-59.0-1.0","24","36236","female","null","","","","null","","57","","","257273","1","","","","","","300","63500","307","64143","300"
"","localizer","","html-keyboard-response","188","257991","0.0-2.0-60.0-0.0","24","36236","female","169","","","","68","0","58","","Stimuli/Experimental_stims/localizer/body_parts/adrien-king-XzBluXxBoyQ-unsplash.jpg","257580","1","body_parts","","0","0","1","400","63800","411","64450",""
"","iti_localizer","","html-keyboard-response","189","258297","0.0-2.0-60.0-1.0","24","36236","female","null","","","","null","","58","","","257991","1","","","","","","300","64200","306","64861","300"
"","localizer","","html-keyboard-response","190","258708","0.0-2.0-61.0-0.0","24","36236","female","28","","","","68","0","59","","Stimuli/Experimental_stims/localizer/body_parts/nattalia-nunez-MB9sdDfZMSg-unsplash.jpg","258297","1","body_parts","","1","0","0","400","64500","411","65167",""
"","iti_localizer","","html-keyboard-response","191","259012","0.0-2.0-61.0-1.0","24","36236","female","null","","","","null","","59","","","258708","1","","","","","","300","64900","304","65578","300"
"","localizer","","html-keyboard-response","192","259420","0.0-2.0-62.0-0.0","24","36236","female","96","","","","68","0","60","","Stimuli/Experimental_stims/localizer/body_parts/louis-hansel-FjKTMRTQYAs-unsplash.jpg","259012","1","body_parts","","0","0","1","400","65200","408","65882",""
"","iti_localizer","","html-keyboard-response","193","259724","0.0-2.0-62.0-1.0","24","36236","female","null","","","","null","","60","","","259420","1","","","","","","300","65600","304","66290","300"
"","localizer","","html-keyboard-response","194","260130","0.0-2.0-63.0-0.0","24","36236","female","89","","","","68","0","61","","Stimuli/Experimental_stims/localizer/body_parts/jonathan-borba-hTwH8QFkPMs-unsplash.jpg","259724","1","body_parts","","0","0","1","400","65900","406","66594",""
"","iti_localizer","","html-keyboard-response","195","260435","0.0-2.0-63.0-1.0","24","36236","female","null","","","","null","","61","","","260130","1","","","","","","300","66300","305","67000","300"
"","localizer","","html-keyboard-response","196","260841","0.0-2.0-64.0-0.0","24","36236","female","100","","","","68","0","62","","Stimuli/Experimental_stims/localizer/body_parts/hu-chen-tCbTGNwrFNM-unsplash.jpg","260435","1","body_parts","","0","0","1","400","66600","406","67305",""
"","iti_localizer","","html-keyboard-response","197","261146","0.0-2.0-64.0-1.0","24","36236","female","null","","","","null","","62","","","260841","1","","","","","","300","67000","305","67711","300"
"","localizer","","html-keyboard-response","198","261552","0.0-2.0-65.0-0.0","24","36236","female","124","","","","68","0","63","","Stimuli/Experimental_stims/localizer/body_parts/danie-franco-jyyNiSEcCl4-unsplash.jpg","261146","1","body_parts","","0","0","1","400","67300","406","68016",""
"","iti_localizer","","html-keyboard-response","199","261862","0.0-2.0-65.0-1.0","24","36236","female","null","","","","null","","63","","","261552","1","","","","","","300","67700","310","68422","300"
"","localizer","","html-keyboard-response","200","262269","0.0-2.0-66.0-0.0","24","36236","female","1","","","","68","0","64","","Stimuli/Experimental_stims/localizer/body_parts/natalie-grainger-8uB5kFKWWkk-unsplash.jpg","261862","1","body_parts","","0","0","1","400","68000","407","68732",""
"","iti_localizer","","html-keyboard-response","201","262574","0.0-2.0-66.0-1.0","24","36236","female","null","","","","null","","64","","","262269","1","","","","","","300","68400","305","69139","300"
"","localizer","","html-keyboard-response","202","262980","0.0-2.0-67.0-0.0","24","36236","female","137","","","","68","0","65","","Stimuli/Experimental_stims/localizer/body_parts/apostolos-vamvouras-g5wKHRu2QW0-unsplash.jpg","262574","1","body_parts","","0","0","1","400","68700","406","69444",""
"","iti_localizer","","html-keyboard-response","203","276986","0.0-2.0-67.0-1.0","24","36236","female","null","","","","null","","65","","","262980","1","","","","","","14000","69100","14006","69850","14000"
"","localizer","","html-keyboard-response","204","277395","0.0-2.0-68.0-0.0","24","36236","female","204","","","","68","0","66","","Stimuli/Experimental_stims/localizer/objects/quaritsch-photography-lZ8onQ1wuY8-unsplash.jpg","276986","1","objects","","1","0","0","400","83100","409","83856",""
"","iti_localizer","","html-keyboard-response","205","277701","0.0-2.0-68.0-1.0","24","36236","female","null","","","","null","","66","","","277395","1","","","","","","300","83500","306","84265","300"
"","localizer","","html-keyboard-response","206","278107","0.0-2.0-69.0-0.0","24","36236","female","33","","","","68","0","67","","Stimuli/Experimental_stims/localizer/objects/ana-9GmAaEMMKho-unsplash.jpg","277701","1","objects","","0","0","1","400","83800","406","84571",""
"","iti_localizer","","html-keyboard-response","207","278413","0.0-2.0-69.0-1.0","24","36236","female","null","","","","null","","67","","","278107","1","","","","","","300","84200","306","84977","300"
"","localizer","","html-keyboard-response","208","278824","0.0-2.0-70.0-0.0","24","36236","female","120","","","","75","1","68","","Stimuli/Experimental_stims/localizer/objects/nordwood-themes-nDd3dIkkOLo-unsplash.jpg","278413","1","objects","","0","0","0","400","84500","411","85283",""
"","iti_localizer","","html-keyboard-response","209","279130","0.0-2.0-70.0-1.0","24","36236","female","null","","","","null","","68","","","278824","1","","","","","","300","84900","306","85694","300"
"","localizer","","html-keyboard-response","210","279536","0.0-2.0-71.0-0.0","24","36236","female","109","","","","75","1","69","","Stimuli/Experimental_stims/localizer/objects/kelly-jean-cKjbI0Y00X0-unsplash.jpg","279130","1","objects","","0","0","0","400","85200","406","86000",""
"","iti_localizer","","html-keyboard-response","211","279842","0.0-2.0-71.0-1.0","24","36236","female","null","","","","null","","69","","","279536","1","","","","","","300","85600","306","86406","300"
"","localizer","","html-keyboard-response","212","280250","0.0-2.0-72.0-0.0","24","36236","female","149","","","","68","0","70","","Stimuli/Experimental_stims/localizer/objects/florian-klauer-nptLmg6jqDo-unsplash.jpg","279842","1","objects","","0","0","1","400","85900","408","86712",""
"","iti_localizer","","html-keyboard-response","213","280557","0.0-2.0-72.0-1.0","24","36236","female","null","","","","null","","70","","","280250","1","","","","","","300","86300","307","87120","300"
"","localizer","","html-keyboard-response","214","280963","0.0-2.0-73.0-0.0","24","36236","female","9","","","","68","0","71","","Stimuli/Experimental_stims/localizer/objects/nicolas-hippert-SVgX47QIUlc-unsplash.jpg","280557","1","objects","","0","0","1","400","86600","406","87427",""
"","iti_localizer","","html-keyboard-response","215","281271","0.0-2.0-73.0-1.0","24","36236","female","null","","","","null","","71","","","280963","1","","","","","","300","87000","308","87833","300"
"","localizer","","html-keyboard-response","216","281677","0.0-2.0-74.0-0.0","24","36236","female","95","","","","68","0","72","","Stimuli/Experimental_stims/localizer/objects/florian-klauer-mk7D-4UCfmg-unsplash.jpg","281271","1","objects","","0","0","1","400","87300","406","88141",""
"","iti_localizer","","html-keyboard-response","217","281983","0.0-2.0-74.0-1.0","24","36236","female","null","","","","null","","72","","","281677","1","","","","","","300","87700","306","88547","300"
"","localizer","","html-keyboard-response","218","282388","0.0-2.0-75.0-0.0","24","36236","female","6","","","","68","0","73","","Stimuli/Experimental_stims/localizer/objects/alex-lvrs-2zDw14yCYqk-unsplash.jpg","281983","1","objects","","0","0","1","400","88000","405","88853",""
"","iti_localizer","","html-keyboard-response","219","282694","0.0-2.0-75.0-1.0","24","36236","female","null","","","","null","","73","","","282388","1","","","","","","300","88400","306","89258","300"
"","localizer","","html-keyboard-response","220","283100","0.0-2.0-76.0-0.0","24","36236","female","207","","","","68","0","74","","Stimuli/Experimental_stims/localizer/objects/hipster-mum-XookgCxFw6Q-unsplash.jpg","282694","1","objects","","0","0","1","400","88700","406","89564",""
"","iti_localizer","","html-keyboard-response","221","283404","0.0-2.0-76.0-1.0","24","36236","female","null","","","","null","","74","","","283100","1","","","","","","300","89100","304","89970","300"
"","localizer","","html-keyboard-response","222","283816","0.0-2.0-77.0-0.0","24","36236","female","107","","","","68","0","75","","Stimuli/Experimental_stims/localizer/objects/ian-talmacs-ugqU0a4P18U-unsplash.jpg","283404","1","objects","","0","0","1","400","89400","412","90274",""
"","iti_localizer","","html-keyboard-response","223","284122","0.0-2.0-77.0-1.0","24","36236","female","null","","","","null","","75","","","283816","1","","","","","","300","89800","306","90686","300"
"","localizer","","html-keyboard-response","224","284528","0.0-2.0-78.0-0.0","24","36236","female","43","","","","68","0","76","","Stimuli/Experimental_stims/localizer/objects/chris-briggs-FobzAZJGM9M-unsplash.jpg","284122","1","objects","","0","0","1","400","90100","406","90992",""
"","iti_localizer","","html-keyboard-response","225","284836","0.0-2.0-78.0-1.0","24","36236","female","null","","","","null","","76","","","284528","1","","","","","","300","90500","308","91398","300"
"","localizer","","html-keyboard-response","226","285242","0.0-2.0-79.0-0.0","24","36236","female","178","","","","68","0","77","","Stimuli/Experimental_stims/localizer/objects/recha-oktaviani-t__61ap00Mc-unsplash.jpg","284836","1","objects","","0","0","1","400","90800","406","91706",""
"","iti_localizer","","html-keyboard-response","227","285547","0.0-2.0-79.0-1.0","24","36236","female","null","","","","null","","77","","","285242","1","","","","","","300","91200","305","92112","300"
"","localizer","","html-keyboard-response","228","285954","0.0-2.0-80.0-0.0","24","36236","female","57","","","","68","0","78","","Stimuli/Experimental_stims/localizer/objects/jonny-caspari-wsvCC6UyKjs-unsplash.jpg","285547","1","objects","","0","0","1","400","91500","407","92417",""
"","iti_localizer","","html-keyboard-response","229","286260","0.0-2.0-80.0-1.0","24","36236","female","null","","","","null","","78","","","285954","1","","","","","","300","91900","306","92824","300"
"","localizer","","html-keyboard-response","230","286666","0.0-2.0-81.0-0.0","24","36236","female","145","","","","68","0","79","","Stimuli/Experimental_stims/localizer/objects/markus-spiske-ANrVtttbNss-unsplash.jpg","286260","1","objects","","0","0","1","400","92200","406","93130",""
"","iti_localizer","","html-keyboard-response","231","286971","0.0-2.0-81.0-1.0","24","36236","female","null","","","","null","","79","","","286666","1","","","","","","300","92600","305","93536","300"
"","localizer","","html-keyboard-response","232","287377","0.0-2.0-82.0-0.0","24","36236","female","42","","","","68","0","80","","Stimuli/Experimental_stims/localizer/objects/ignat-dolomanov-kFBDVnmskPA-unsplash.jpg","286971","1","objects","","0","0","1","400","92900","406","93841",""
"","iti_localizer","","html-keyboard-response","233","287682","0.0-2.0-82.0-1.0","24","36236","female","null","","","","null","","80","","","287377","1","","","","","","300","93300","305","94247","300"
"","localizer","","html-keyboard-response","234","288088","0.0-2.0-83.0-0.0","24","36236","female","115","","","","68","0","81","","Stimuli/Experimental_stims/localizer/objects/mockup-graphics-Pj2PY-E-LfM-unsplash.jpg","287682","1","objects","","0","0","1","400","93600","406","94552",""
"","iti_localizer","","html-keyboard-response","235","288394","0.0-2.0-83.0-1.0","24","36236","female","null","","","","null","","81","","","288088","1","","","","","","300","94000","306","94958","300"
"","localizer","","html-keyboard-response","236","288800","0.0-2.0-84.0-0.0","24","36236","female","172","","","","68","0","82","","Stimuli/Experimental_stims/localizer/objects/lance-reis-v0FYj9iioQg-unsplash.jpg","288394","1","objects","","0","0","1","400","94300","406","95264",""
"","iti_localizer","","html-keyboard-response","237","289106","0.0-2.0-84.0-1.0","24","36236","female","null","","","","null","","82","","","288800","1","","","","","","300","94700","306","95670","300"
"","localizer","","html-keyboard-response","238","289512","0.0-2.0-85.0-0.0","24","36236","female","21","","","","68","0","83","","Stimuli/Experimental_stims/localizer/objects/mockup-graphics-U6ZMEefFGx8-unsplash.jpg","289106","1","objects","","0","0","1","400","95000","406","95976",""
"","iti_localizer","","html-keyboard-response","239","289817","0.0-2.0-85.0-1.0","24","36236","female","null","","","","null","","83","","","289512","1","","","","","","300","95400","305","96382","300"
"","localizer","","html-keyboard-response","240","290224","0.0-2.0-86.0-0.0","24","36236","female","78","","","","68","0","84","","Stimuli/Experimental_stims/localizer/objects/engin-akyurt-bbbKzTmY2Gg-unsplash.jpg","289817","1","objects","","1","0","0","400","95700","407","96687",""
"","iti_localizer","","html-keyboard-response","241","290530","0.0-2.0-86.0-1.0","24","36236","female","null","","","","null","","84","","","290224","1","","","","","","300","96100","306","97094","300"
"","localizer","","html-keyboard-response","242","290936","0.0-2.0-87.0-0.0","24","36236","female","146","","","","68","0","85","","Stimuli/Experimental_stims/localizer/objects/eugene-chystiakov-3neSwyntbQ8-unsplash.jpg","290530","1","objects","","0","0","1","400","96400","406","97400",""
"","iti_localizer","","html-keyboard-response","243","304943","0.0-2.0-87.0-1.0","24","36236","female","null","","","","null","","85","","","290936","1","","","","","","14000","96800","14007","97806","14000"
"","localizer","","html-keyboard-response","244","305349","0.0-2.0-88.0-0.0","24","36236","female","102","","","","75","1","86","","Stimuli/Experimental_stims/localizer/body_parts/bady-abbas-N-VEeMnm7gE-unsplash.jpg","304943","1","body_parts","","0","0","0","400","110800","406","111813",""
"","iti_localizer","","html-keyboard-response","245","305655","0.0-2.0-88.0-1.0","24","36236","female","null","","","","null","","86","","","305349","1","","","","","","300","111200","306","112219","300"
"","localizer","","html-keyboard-response","246","306061","0.0-2.0-89.0-0.0","24","36236","female","46","","","","68","0","87","","Stimuli/Experimental_stims/localizer/body_parts/sincerely-media-QyzlAZjm0r0-unsplash.jpg","305655","1","body_parts","","1","0","0","400","111500","406","112525",""
"","iti_localizer","","html-keyboard-response","247","306367","0.0-2.0-89.0-1.0","24","36236","female","null","","","","null","","87","","","306061","1","","","","","","300","111900","306","112931","300"
"","localizer","","html-keyboard-response","248","306772","0.0-2.0-90.0-0.0","24","36236","female","87","","","","75","1","88","","Stimuli/Experimental_stims/localizer/body_parts/jeremy-yap-TfJEi17kA0w-unsplash.jpg","306367","1","body_parts","","0","0","0","400","112200","405","113237",""
"","iti_localizer","","html-keyboard-response","249","307077","0.0-2.0-90.0-1.0","24","36236","female","null","","","","null","","88","","","306772","1","","","","","","300","112600","305","113642","300"
"","localizer","","html-keyboard-response","250","307482","0.0-2.0-91.0-0.0","24","36236","female","32","","","","68","0","89","","Stimuli/Experimental_stims/localizer/body_parts/matheus-frade-eyzdb1C3JDM-unsplash.jpg","307077","1","body_parts","","0","0","1","400","112900","405","113947",""
"","iti_localizer","","html-keyboard-response","251","307789","0.0-2.0-91.0-1.0","24","36236","female","null","","","","null","","89","","","307482","1","","","","","","300","113300","307","114352","300"
"","localizer","","html-keyboard-response","252","308195","0.0-2.0-92.0-0.0","24","36236","female","170","","","","68","0","90","","Stimuli/Experimental_stims/localizer/body_parts/priscilla-du-preez-e6fcNpur53A-unsplash.jpg","307789","1","body_parts","","0","0","1","400","113600","406","114659",""
"","iti_localizer","","html-keyboard-response","253","308502","0.0-2.0-92.0-1.0","24","36236","female","null","","","","null","","90","","","308195","1","","","","","","300","114000","307","115065","300"
"","localizer","","html-keyboard-response","254","308908","0.0-2.0-93.0-0.0","24","36236","female","1","","","","68","0","91","","Stimuli/Experimental_stims/localizer/body_parts/nihal-karkala-LlOfbQD-IJ0-unsplash.jpg","308502","1","body_parts","","0","0","1","400","114300","406","115372",""
"","iti_localizer","","html-keyboard-response","255","309216","0.0-2.0-93.0-1.0","24","36236","female","null","","","","null","","91","","","308908","1","","","","","","300","114700","308","115778","300"
"","localizer","","html-keyboard-response","256","309624","0.0-2.0-94.0-0.0","24","36236","female","70","","","","68","0","92","","Stimuli/Experimental_stims/localizer/body_parts/niu-niu-5HzOtV-FSlw-unsplash.jpg","309216","1","body_parts","","0","0","1","400","115000","408","116086",""
"","iti_localizer","","html-keyboard-response","257","309931","0.0-2.0-94.0-1.0","24","36236","female","null","","","","null","","92","","","309624","1","","","","","","300","115400","307","116494","300"
"","localizer","","html-keyboard-response","258","310337","0.0-2.0-95.0-0.0","24","36236","female","93","","","","68","0","93","","Stimuli/Experimental_stims/localizer/body_parts/igordoon-primus-CdyHqfrbGIs-unsplash.jpg","309931","1","body_parts","","0","0","1","400","115700","406","116801",""
"","iti_localizer","","html-keyboard-response","259","310642","0.0-2.0-95.0-1.0","24","36236","female","null","","","","null","","93","","","310337","1","","","","","","300","116100","305","117207","300"
"","localizer","","html-keyboard-response","260","311048","0.0-2.0-96.0-0.0","24","36236","female","85","","","","68","0","94","","Stimuli/Experimental_stims/localizer/body_parts/carlos-henrique-NAOJKwZswbs-unsplash.jpg","310642","1","body_parts","","0","0","1","400","116400","406","117512",""
"","iti_localizer","","html-keyboard-response","261","311354","0.0-2.0-96.0-1.0","24","36236","female","null","","","","null","","94","","","311048","1","","","","","","300","116800","306","117918","300"
"","localizer","","html-keyboard-response","262","311761","0.0-2.0-97.0-0.0","24","36236","female","141","","","","68","0","95","","Stimuli/Experimental_stims/localizer/body_parts/liv-bruce-M0oVPGsWk1E-unsplash.jpg","311354","1","body_parts","","0","0","1","400","117100","407","118224",""
"","iti_localizer","","html-keyboard-response","263","312066","0.0-2.0-97.0-1.0","24","36236","female","null","","","","null","","95","","","311761","1","","","","","","300","117500","305","118631","300"
"","localizer","","html-keyboard-response","264","312471","0.0-2.0-98.0-0.0","24","36236","female","86","","","","68","0","96","","Stimuli/Experimental_stims/localizer/body_parts/sincerely-media-9Zf6yh7RYbQ-unsplash.jpg","312066","1","body_parts","","0","0","1","400","117800","405","118936",""
"","iti_localizer","","html-keyboard-response","265","312776","0.0-2.0-98.0-1.0","24","36236","female","null","","","","null","","96","","","312471","1","","","","","","300","118200","305","119341","300"
"","localizer","","html-keyboard-response","266","313185","0.0-2.0-99.0-0.0","24","36236","female","111","","","","68","0","97","","Stimuli/Experimental_stims/localizer/body_parts/debby-hudson--B_757qSA4k-unsplash.jpg","312776","1","body_parts","","0","0","1","400","118500","409","119646",""
"","iti_localizer","","html-keyboard-response","267","313490","0.0-2.0-99.0-1.0","24","36236","female","null","","","","null","","97","","","313185","1","","","","","","300","118900","305","120055","300"
"","localizer","","html-keyboard-response","268","313896","0.0-2.0-100.0-0.0","24","36236","female","53","","","","68","0","98","","Stimuli/Experimental_stims/localizer/body_parts/betzy-arosemena-YHdgnygtVCQ-unsplash.jpg","313490","1","body_parts","","0","0","1","400","119200","406","120360",""
"","iti_localizer","","html-keyboard-response","269","314201","0.0-2.0-100.0-1.0","24","36236","female","null","","","","null","","98","","","313896","1","","","","","","300","119600","305","120766","300"
"","localizer","","html-keyboard-response","270","314607","0.0-2.0-101.0-0.0","24","36236","female","31","","","","68","0","99","","Stimuli/Experimental_stims/localizer/body_parts/sincerely-media-Q7qRyaurQfo-unsplash.jpg","314201","1","body_parts","","1","0","0","400","119900","406","121071",""
"","iti_localizer","","html-keyboard-response","271","314914","0.0-2.0-101.0-1.0","24","36236","female","null","","","","null","","99","","","314607","1","","","","","","300","120300","307","121477","300"
"","localizer","","html-keyboard-response","272","315323","0.0-2.0-102.0-0.0","24","36236","female","5","","","","68","0","100","","Stimuli/Experimental_stims/localizer/body_parts/deborah-diem-ieVxpPjl1e0-unsplash.jpg","314914","1","body_parts","","0","0","1","400","120600","409","121784",""
"","iti_localizer","","html-keyboard-response","273","315630","0.0-2.0-102.0-1.0","24","36236","female","null","","","","null","","100","","","315323","1","","","","","","300","121000","307","122193","300"
"","localizer","","html-keyboard-response","274","316036","0.0-2.0-103.0-0.0","24","36236","female","88","","","","68","0","101","","Stimuli/Experimental_stims/localizer/body_parts/jasper-garratt-Ng_Kl7K6V8Y-unsplash.jpg","315630","1","body_parts","","0","0","1","400","121300","406","122500",""
"","iti_localizer","","html-keyboard-response","275","316341","0.0-2.0-103.0-1.0","24","36236","female","null","","","","null","","101","","","316036","1","","","","","","300","121700","305","122906","300"
"","localizer","","html-keyboard-response","276","316748","0.0-2.0-104.0-0.0","24","36236","female","82","","","","68","0","102","","Stimuli/Experimental_stims/localizer/body_parts/jan-romero-DL4DDQb8yjc-unsplash.jpg","316341","1","body_parts","","0","0","1","400","122000","407","123211",""
"","iti_localizer","","html-keyboard-response","277","317053","0.0-2.0-104.0-1.0","24","36236","female","null","","","","null","","102","","","316748","1","","","","","","300","122400","305","123618","300"
"","localizer","","html-keyboard-response","278","317458","0.0-2.0-105.0-0.0","24","36236","female","139","","","","68","0","103","","Stimuli/Experimental_stims/localizer/body_parts/i-am_nah--S4OsO0c6Ts-unsplash.jpg","317053","1","body_parts","","0","0","1","400","122700","405","123923",""
"","iti_localizer","","html-keyboard-response","279","317763","0.0-2.0-105.0-1.0","24","36236","female","null","","","","null","","103","","","317458","1","","","","","","300","123100","305","124328","300"
"","localizer","","html-keyboard-response","280","318169","0.0-2.0-106.0-0.0","24","36236","female","116","","","","68","0","104","","Stimuli/Experimental_stims/localizer/body_parts/semen-zhuravlev-_XxH_mV8dnk-unsplash (1).jpg","317763","1","body_parts","","0","0","1","400","123400","406","124633",""
"","iti_localizer","","html-keyboard-response","281","318474","0.0-2.0-106.0-1.0","24","36236","female","null","","","","null","","104","","","318169","1","","","","","","300","123800","305","125039","300"
"","localizer","","html-keyboard-response","282","318879","0.0-2.0-107.0-0.0","24","36236","female","78","","","","68","0","105","","Stimuli/Experimental_stims/localizer/body_parts/sippakorn-yamkasikorn-32_sJlJa5gA-unsplash.jpg","318474","1","body_parts","","0","0","1","400","124100","405","125344",""
"","iti_localizer","","html-keyboard-response","283","332885","0.0-2.0-107.0-1.0","24","36236","female","null","","","","null","","105","","","318879","1","","","","","","14000","124500","14006","125749","14000"
"","localizer","","html-keyboard-response","284","333293","0.0-2.0-108.0-0.0","24","36236","female","1","","","","68","0","106","","Stimuli/Experimental_stims/localizer/objects/quino-al-8gWEAAXJjtI-unsplash.jpg","332885","1","objects","","1","0","0","400","138500","408","139755",""
"","iti_localizer","","html-keyboard-response","285","333598","0.0-2.0-108.0-1.0","24","36236","female","null","","","","null","","106","","","333293","1","","","","","","300","138900","305","140163","300"
"","localizer","","html-keyboard-response","286","334004","0.0-2.0-109.0-0.0","24","36236","female","26","","","","68","0","107","","Stimuli/Experimental_stims/localizer/objects/oriento-maVIpNNtmlQ-unsplash.jpg","333598","1","objects","","0","0","1","400","139200","406","140468",""
"","iti_localizer","","html-keyboard-response","287","334309","0.0-2.0-109.0-1.0","24","36236","female","null","","","","null","","107","","","334004","1","","","","","","300","139600","305","140874","300"
"","localizer","","html-keyboard-response","288","334715","0.0-2.0-110.0-0.0","24","36236","female","50","","","","75","1","108","","Stimuli/Experimental_stims/localizer/objects/chris-briggs-x9TCnxNBofE-unsplash.jpg","334309","1","objects","","0","0","0","400","139900","406","141179",""
"","iti_localizer","","html-keyboard-response","289","335020","0.0-2.0-110.0-1.0","24","36236","female","null","","","","null","","108","","","334715","1","","","","","","300","140300","305","141585","300"
"","localizer","","html-keyboard-response","290","335426","0.0-2.0-111.0-0.0","24","36236","female","26","","","","75","1","109","","Stimuli/Experimental_stims/localizer/objects/saif71-com-VIKdvmGUhq8-unsplash.jpg","335020","1","objects","","0","0","0","400","140600","406","141890",""
"","iti_localizer","","html-keyboard-response","291","335731","0.0-2.0-111.0-1.0","24","36236","female","null","","","","null","","109","","","335426","1","","","","","","300","141000","305","142296","300"
"","localizer","","html-keyboard-response","292","336138","0.0-2.0-112.0-0.0","24","36236","female","100","","","","68","0","110","","Stimuli/Experimental_stims/localizer/objects/nicolas-hippert-kfr_eSrR08M-unsplash.jpg","335731","1","objects","","0","0","1","400","141300","407","142601",""
"","iti_localizer","","html-keyboard-response","293","336443","0.0-2.0-112.0-1.0","24","36236","female","null","","","","null","","110","","","336138","1","","","","","","300","141700","305","143008","300"
"","localizer","","html-keyboard-response","294","336849","0.0-2.0-113.0-0.0","24","36236","female","125","","","","68","0","111","","Stimuli/Experimental_stims/localizer/objects/adriano-pucciarelli-BE7yaZnZX6o-unsplash.jpg","336443","1","objects","","0","0","1","400","142000","406","143313",""
"","iti_localizer","","html-keyboard-response","295","337158","0.0-2.0-113.0-1.0","24","36236","female","null","","","","null","","111","","","336849","1","","","","","","300","142400","309","143719","300"
"","localizer","","html-keyboard-response","296","337564","0.0-2.0-114.0-0.0","24","36236","female","162","","","","68","0","112","","Stimuli/Experimental_stims/localizer/objects/girl-with-red-hat-Xxg-r574pLE-unsplash.jpg","337158","1","objects","","0","0","1","400","142700","406","144028",""
"","iti_localizer","","html-keyboard-response","297","337870","0.0-2.0-114.0-1.0","24","36236","female","null","","","","null","","112","","","337564","1","","","","","","300","143100","306","144434","300"
"","localizer","","html-keyboard-response","298","338276","0.0-2.0-115.0-0.0","24","36236","female","136","","","","68","0","113","","Stimuli/Experimental_stims/localizer/objects/mulyadi-tWp0VSlSdMI-unsplash.jpg","337870","1","objects","","0","0","1","400","143400","406","144740",""
"","iti_localizer","","html-keyboard-response","299","338581","0.0-2.0-115.0-1.0","24","36236","female","null","","","","null","","113","","","338276","1","","","","","","300","143800","305","145146","300"
"","localizer","","html-keyboard-response","300","338986","0.0-2.0-116.0-0.0","24","36236","female","51","","","","68","0","114","","Stimuli/Experimental_stims/localizer/objects/yoann-siloine-_T4w3JDm6ug-unsplash.jpg","338581","1","objects","","0","0","1","400","144100","405","145451",""
"","iti_localizer","","html-keyboard-response","301","339291","0.0-2.0-116.0-1.0","24","36236","female","null","","","","null","","114","","","338986","1","","","","","","300","144500","305","145856","300"
"","localizer","","html-keyboard-response","302","339698","0.0-2.0-117.0-0.0","24","36236","female","122","","","","68","0","115","","Stimuli/Experimental_stims/localizer/objects/designecologist-hvgd0ygXuQQ-unsplash.jpg","339291","1","objects","","0","0","1","400","144800","407","146161",""
"","iti_localizer","","html-keyboard-response","303","340004","0.0-2.0-117.0-1.0","24","36236","female","null","","","","null","","115","","","339698","1","","","","","","300","145200","306","146568","300"
"","localizer","","html-keyboard-response","304","340409","0.0-2.0-118.0-0.0","24","36236","female","21","","","","68","0","116","","Stimuli/Experimental_stims/localizer/objects/namroud-gorguis-FZWivbri0Xk-unsplash.jpg","340004","1","objects","","0","0","1","400","145500","405","146874",""
"","iti_localizer","","html-keyboard-response","305","340715","0.0-2.0-118.0-1.0","24","36236","female","null","","","","null","","116","","","340409","1","","","","","","300","145900","306","147279","300"
"","localizer","","html-keyboard-response","306","341121","0.0-2.0-119.0-0.0","24","36236","female","92","","","","68","0","117","","Stimuli/Experimental_stims/localizer/objects/andrew-petrov-TVJqDat4MAw-unsplash.jpg","340715","1","objects","","0","0","1","400","146200","406","147585",""
"","iti_localizer","","html-keyboard-response","307","341427","0.0-2.0-119.0-1.0","24","36236","female","null","","","","null","","117","","","341121","1","","","","","","300","146600","306","147991","300"
"","localizer","","html-keyboard-response","308","341833","0.0-2.0-120.0-0.0","24","36236","female","6","","","","68","0","118","","Stimuli/Experimental_stims/localizer/objects/mockup-graphics-v_a3DWpOFc0-unsplash.jpg","341427","1","objects","","0","0","1","400","146900","406","148297",""
"","iti_localizer","","html-keyboard-response","309","342140","0.0-2.0-120.0-1.0","24","36236","female","null","","","","null","","118","","","341833","1","","","","","","300","147300","307","148703","300"
"","localizer","","html-keyboard-response","310","342547","0.0-2.0-121.0-0.0","24","36236","female","169","","","","68","0","119","","Stimuli/Experimental_stims/localizer/objects/carlos-felipe-ramirez-mesa-HW7bfB3ERSQ-unsplash.jpg","342140","1","objects","","0","0","1","400","147600","407","149010",""
"","iti_localizer","","html-keyboard-response","311","342852","0.0-2.0-121.0-1.0","24","36236","female","null","","","","null","","119","","","342547","1","","","","","","300","148000","305","149417","300"
"","localizer","","html-keyboard-response","312","343259","0.0-2.0-122.0-0.0","24","36236","female","84","","","","68","0","120","","Stimuli/Experimental_stims/localizer/objects/dario-mendez-hnJ2VNZzbns-unsplash.jpg","342852","1","objects","","0","0","1","400","148300","407","149722",""
"","iti_localizer","","html-keyboard-response","313","343565","0.0-2.0-122.0-1.0","24","36236","female","null","","","","null","","120","","","343259","1","","","","","","300","148700","306","150129","300"
"","localizer","","html-keyboard-response","314","343972","0.0-2.0-123.0-0.0","24","36236","female","0","","","","68","0","121","","Stimuli/Experimental_stims/localizer/objects/mockup-graphics-aUkYaG12Dgs-unsplash.jpg","343565","1","objects","","0","0","1","400","149000","407","150435",""
"","iti_localizer","","html-keyboard-response","315","344278","0.0-2.0-123.0-1.0","24","36236","female","null","","","","null","","121","","","343972","1","","","","","","300","149400","306","150842","300"
"","localizer","","html-keyboard-response","316","344685","0.0-2.0-124.0-0.0","24","36236","female","129","","","","68","0","122","","Stimuli/Experimental_stims/localizer/objects/sam-moghadam-khamseh-kvmdsTrGOBM-unsplash.jpg","344278","1","objects","","0","0","1","400","149700","407","151148",""
"","iti_localizer","","html-keyboard-response","317","344992","0.0-2.0-124.0-1.0","24","36236","female","null","","","","null","","122","","","344685","1","","","","","","300","150100","307","151555","300"
"","localizer","","html-keyboard-response","318","345398","0.0-2.0-125.0-0.0","24","36236","female","87","","","","68","0","123","","Stimuli/Experimental_stims/localizer/objects/sam-moghadam-khamseh-L_7MQsHl_aU-unsplash.jpg","344992","1","objects","","0","0","1","400","150400","406","151862",""
"","iti_localizer","","html-keyboard-response","319","345704","0.0-2.0-125.0-1.0","24","36236","female","null","","","","null","","123","","","345398","1","","","","","","300","150800","306","152268","300"
"","localizer","","html-keyboard-response","320","346110","0.0-2.0-126.0-0.0","24","36236","female","1","","","","68","0","124","","Stimuli/Experimental_stims/localizer/objects/adriano-pucciarelli-Jl3S1yM8gi8-unsplash.jpg","345704","1","objects","","0","0","1","400","151100","406","152574",""
"","iti_localizer","","html-keyboard-response","321","346416","0.0-2.0-126.0-1.0","24","36236","female","null","","","","null","","124","","","346110","1","","","","","","300","151500","306","152980","300"
"","localizer","","html-keyboard-response","322","346821","0.0-2.0-127.0-0.0","24","36236","female","185","","","","68","0","125","","Stimuli/Experimental_stims/localizer/objects/dario-mendez-WmF_XLF4-Rs-unsplash.jpg","346416","1","objects","","1","0","0","400","151800","405","153286",""
"","iti_localizer","","html-keyboard-response","323","360827","0.0-2.0-127.0-1.0","24","36236","female","null","","","","null","","125","","","346821","1","","","","","","14000","152200","14006","153691","14000"
"","localizer","","html-keyboard-response","324","361234","0.0-2.0-128.0-0.0","24","36236","female","43","","","","68","0","126","","Stimuli/Experimental_stims/localizer/outdoor_scenes/andres-sanz-uILhNE1VcwA-unsplash.jpg","360827","1","outdoor_scenes","","0","0","1","400","166200","407","167697",""
"","iti_localizer","","html-keyboard-response","325","361540","0.0-2.0-128.0-1.0","24","36236","female","null","","","","null","","126","","","361234","1","","","","","","300","166600","306","168104","300"
"","localizer","","html-keyboard-response","326","361946","0.0-2.0-129.0-0.0","24","36236","female","83","","","","68","0","127","","Stimuli/Experimental_stims/localizer/outdoor_scenes/pascal-debrunner-1WQ5RZuH9xo-unsplash.jpg","361540","1","outdoor_scenes","","0","0","1","400","166900","406","168410",""
"","iti_localizer","","html-keyboard-response","327","362251","0.0-2.0-129.0-1.0","24","36236","female","null","","","","null","","127","","","361946","1","","","","","","300","167300","305","168816","300"
"","localizer","","html-keyboard-response","328","362657","0.0-2.0-130.0-0.0","24","36236","female","125","","","","75","1","128","","Stimuli/Experimental_stims/localizer/outdoor_scenes/chris-holgersson-zshyCr6HGw0-unsplash.jpg","362251","1","outdoor_scenes","","0","0","0","400","167600","406","169121",""
"","iti_localizer","","html-keyboard-response","329","362962","0.0-2.0-130.0-1.0","24","36236","female","null","","","","null","","128","","","362657","1","","","","","","300","168000","305","169527","300"
"","localizer","","html-keyboard-response","330","363371","0.0-2.0-131.0-0.0","24","36236","female","21","","","","68","0","129","","Stimuli/Experimental_stims/localizer/outdoor_scenes/antoine-beauvillain-qrPqGP-SG8w-unsplash.jpg","362962","1","outdoor_scenes","","1","0","0","400","168300","409","169832",""
"","iti_localizer","","html-keyboard-response","331","363676","0.0-2.0-131.0-1.0","24","36236","female","null","","","","null","","129","","","363371","1","","","","","","300","168700","305","170241","300"
"","localizer","","html-keyboard-response","332","364081","0.0-2.0-132.0-0.0","24","36236","female","28","","","","68","0","130","","Stimuli/Experimental_stims/localizer/outdoor_scenes/neom-THlO6Mkf5uI-unsplash.jpg","363676","1","outdoor_scenes","","0","0","1","400","169000","405","170546",""
"","iti_localizer","","html-keyboard-response","333","364387","0.0-2.0-132.0-1.0","24","36236","female","null","","","","null","","130","","","364081","1","","","","","","300","169400","306","170951","300"
"","localizer","","html-keyboard-response","334","364796","0.0-2.0-133.0-0.0","24","36236","female","3","","","","75","1","131","","Stimuli/Experimental_stims/localizer/outdoor_scenes/john-lee-oMneOBYhJxY-unsplash.jpg","364387","1","outdoor_scenes","","0","0","0","400","169700","409","171257",""
"","iti_localizer","","html-keyboard-response","335","365102","0.0-2.0-133.0-1.0","24","36236","female","null","","","","null","","131","","","364796","1","","","","","","300","170100","306","171666","300"
"","localizer","","html-keyboard-response","336","365508","0.0-2.0-134.0-0.0","24","36236","female","25","","","","68","0","132","","Stimuli/Experimental_stims/localizer/outdoor_scenes/darrell-cassell-hoCXpPUMCoE-unsplash.jpg","365102","1","outdoor_scenes","","0","0","1","400","170400","406","171972",""
"","iti_localizer","","html-keyboard-response","337","365816","0.0-2.0-134.0-1.0","24","36236","female","null","","","","null","","132","","","365508","1","","","","","","300","170800","308","172378","300"
"","localizer","","html-keyboard-response","338","366223","0.0-2.0-135.0-0.0","24","36236","female","95","","","","68","0","133","","Stimuli/Experimental_stims/localizer/outdoor_scenes/jack-millard-zjyP-UYI-ko-unsplash.jpg","365816","1","outdoor_scenes","","0","0","1","400","171100","407","172686",""
"","iti_localizer","","html-keyboard-response","339","366528","0.0-2.0-135.0-1.0","24","36236","female","null","","","","null","","133","","","366223","1","","","","","","300","171500","305","173093","300"
"","localizer","","html-keyboard-response","340","366934","0.0-2.0-136.0-0.0","24","36236","female","151","","","","68","0","134","","Stimuli/Experimental_stims/localizer/outdoor_scenes/simon-berger-UqCnDyc_3vA-unsplash.jpg","366528","1","outdoor_scenes","","0","0","1","400","171800","406","173398",""
"","iti_localizer","","html-keyboard-response","341","367239","0.0-2.0-136.0-1.0","24","36236","female","null","","","","null","","134","","","366934","1","","","","","","300","172200","305","173804","300"
"","localizer","","html-keyboard-response","342","367645","0.0-2.0-137.0-0.0","24","36236","female","80","","","","68","0","135","","Stimuli/Experimental_stims/localizer/outdoor_scenes/michael-martinelli-mFbrMEVKCkc-unsplash.jpg","367239","1","outdoor_scenes","","0","0","1","400","172500","406","174109",""
"","iti_localizer","","html-keyboard-response","343","367950","0.0-2.0-137.0-1.0","24","36236","female","null","","","","null","","135","","","367645","1","","","","","","300","172900","305","174515","300"
"","localizer","","html-keyboard-response","344","368357","0.0-2.0-138.0-0.0","24","36236","female","42","","","","68","0","136","","Stimuli/Experimental_stims/localizer/outdoor_scenes/derek-mack-CcRZ4k3c6gA-unsplash.jpg","367950","1","outdoor_scenes","","0","0","1","400","173200","407","174820",""
"","iti_localizer","","html-keyboard-response","345","368663","0.0-2.0-138.0-1.0","24","36236","female","null","","","","null","","136","","","368357","1","","","","","","300","173600","306","175227","300"
"","localizer","","html-keyboard-response","346","369068","0.0-2.0-139.0-0.0","24","36236","female","2","","","","68","0","137","","Stimuli/Experimental_stims/localizer/outdoor_scenes/ales-krivec-hsX9KpLLsIE-unsplash.jpg","368663","1","outdoor_scenes","","0","0","1","400","173900","405","175533",""
"","iti_localizer","","html-keyboard-response","347","369376","0.0-2.0-139.0-1.0","24","36236","female","null","","","","null","","137","","","369068","1","","","","","","300","174300","308","175938","300"
"","localizer","","html-keyboard-response","348","369781","0.0-2.0-140.0-0.0","24","36236","female","184","","","","68","0","138","","Stimuli/Experimental_stims/localizer/outdoor_scenes/marcelo-quinan-u0ZgqJD55pE-unsplash.jpg","369376","1","outdoor_scenes","","0","0","1","400","174600","405","176246",""
"","iti_localizer","","html-keyboard-response","349","370087","0.0-2.0-140.0-1.0","24","36236","female","null","","","","null","","138","","","369781","1","","","","","","300","175000","306","176651","300"
"","localizer","","html-keyboard-response","350","370494","0.0-2.0-141.0-0.0","24","36236","female","97","","","","68","0","139","","Stimuli/Experimental_stims/localizer/outdoor_scenes/dawid-zawila--G3rw6Y02D0-unsplash.jpg","370087","1","outdoor_scenes","","0","0","1","400","175300","407","176957",""
"","iti_localizer","","html-keyboard-response","351","370799","0.0-2.0-141.0-1.0","24","36236","female","null","","","","null","","139","","","370494","1","","","","","","300","175700","305","177364","300"
"","localizer","","html-keyboard-response","352","371207","0.0-2.0-142.0-0.0","24","36236","female","249","","","","68","0","140","","Stimuli/Experimental_stims/localizer/outdoor_scenes/luca-bravo-VowIFDxogG4-unsplash.jpg","370799","1","outdoor_scenes","","1","0","0","400","176000","408","177669",""
"","iti_localizer","","html-keyboard-response","353","371512","0.0-2.0-142.0-1.0","24","36236","female","null","","","","null","","140","","","371207","1","","","","","","300","176400","305","178077","300"
"","localizer","","html-keyboard-response","354","371918","0.0-2.0-143.0-0.0","24","36236","female","176","","","","68","0","141","","Stimuli/Experimental_stims/localizer/outdoor_scenes/redd-f-Lm5rkxzgiFQ-unsplash.jpg","371512","1","outdoor_scenes","","0","0","1","400","176700","406","178382",""
"","iti_localizer","","html-keyboard-response","355","372224","0.0-2.0-143.0-1.0","24","36236","female","null","","","","null","","141","","","371918","1","","","","","","300","177100","306","178788","300"
"","localizer","","html-keyboard-response","356","372630","0.0-2.0-144.0-0.0","24","36236","female","7","","","","68","0","142","","Stimuli/Experimental_stims/localizer/outdoor_scenes/john-mark-arnold-XNIjmb6Ax04-unsplash.jpg","372224","1","outdoor_scenes","","0","0","1","400","177400","406","179094",""
"","iti_localizer","","html-keyboard-response","357","372936","0.0-2.0-144.0-1.0","24","36236","female","null","","","","null","","142","","","372630","1","","","","","","300","177800","306","179500","300"
"","localizer","","html-keyboard-response","358","373343","0.0-2.0-145.0-0.0","24","36236","female","193","","","","68","0","143","","Stimuli/Experimental_stims/localizer/outdoor_scenes/kalen-emsley-_LuLiJc1cdo-unsplash.jpg","372936","1","outdoor_scenes","","0","0","1","400","178100","407","179806",""
"","iti_localizer","","html-keyboard-response","359","373649","0.0-2.0-145.0-1.0","24","36236","female","null","","","","null","","143","","","373343","1","","","","","","300","178500","306","180213","300"
"","localizer","","html-keyboard-response","360","374054","0.0-2.0-146.0-0.0","24","36236","female","39","","","","68","0","144","","Stimuli/Experimental_stims/localizer/outdoor_scenes/jordan-heath-4z_SYrG5mgA-unsplash.jpg","373649","1","outdoor_scenes","","0","0","1","400","178800","405","180519",""
"","iti_localizer","","html-keyboard-response","361","374361","0.0-2.0-146.0-1.0","24","36236","female","null","","","","null","","144","","","374054","1","","","","","","300","179200","307","180924","300"
"","localizer","","html-keyboard-response","362","374768","0.0-2.0-147.0-0.0","24","36236","female","29","","","","68","0","145","","Stimuli/Experimental_stims/localizer/outdoor_scenes/simon-berger-twukN12EN7c-unsplash.jpg","374361","1","outdoor_scenes","","0","0","1","400","179500","407","181231",""
"","iti_localizer","","html-keyboard-response","363","388773","0.0-2.0-147.0-1.0","24","36236","female","null","","","","null","","145","","","374768","1","","","","","","14000","179900","14005","181638","14000"
"","localizer","","html-keyboard-response","364","389178","0.0-2.0-148.0-0.0","24","36236","female","51","","","","75","1","146","","Stimuli/Experimental_stims/localizer/faces/nick-karvounis-JyO_szjGvUw-unsplash.jpg","388773","1","faces","","0","0","0","400","193900","405","195643",""
"","iti_localizer","","html-keyboard-response","365","389486","0.0-2.0-148.0-1.0","24","36236","female","null","","","","null","","146","","","389178","1","","","","","","300","194300","308","196048","300"
"","localizer","","html-keyboard-response","366","389894","0.0-2.0-149.0-0.0","24","36236","female","74","","","","75","1","147","","Stimuli/Experimental_stims/localizer/faces/philip-martin-5aGUyCW_PJw-unsplash.jpg","389486","1","faces","","1","0","1","400","194600","408","196356",""
"","iti_localizer","","html-keyboard-response","367","390200","0.0-2.0-149.0-1.0","24","36236","female","null","","","","null","","147","","","389894","1","","","","","","300","195000","306","196764","300"
"","localizer","","html-keyboard-response","368","390606","0.0-2.0-150.0-0.0","24","36236","female","111","","","","75","1","148","","Stimuli/Experimental_stims/localizer/faces/ayo-ogunseinde-6W4F62sN_yI-unsplash.jpg","390200","1","faces","","0","0","0","400","195300","406","197070",""
"","iti_localizer","","html-keyboard-response","369","390912","0.0-2.0-150.0-1.0","24","36236","female","null","","","","null","","148","","","390606","1","","","","","","300","195700","306","197476","300"
"","localizer","","html-keyboard-response","370","391319","0.0-2.0-151.0-0.0","24","36236","female","87","","","","75","1","149","","Stimuli/Experimental_stims/localizer/faces/joseph-gonzalez-iFgRcqHznqg-unsplash.jpg","390912","1","faces","","0","0","0","400","196000","407","197782",""
"","iti_localizer","","html-keyboard-response","371","391627","0.0-2.0-151.0-1.0","24","36236","female","null","","","","null","","149","","","391319","1","","","","","","300","196400","308","198189","300"
"","localizer","","html-keyboard-response","372","392033","0.0-2.0-152.0-0.0","24","36236","female","12","","","","75","1","150","","Stimuli/Experimental_stims/localizer/faces/ian-dooley-d1UPkiFd04A-unsplash.jpg","391627","1","faces","","0","0","0","400","196700","406","198497",""
"","iti_localizer","","html-keyboard-response","373","392338","0.0-2.0-152.0-1.0","24","36236","female","null","","","","null","","150","","","392033","1","","","","","","300","197100","305","198903","300"
"","localizer","","html-keyboard-response","374","392744","0.0-2.0-153.0-0.0","24","36236","female","87","","","","75","1","151","","Stimuli/Experimental_stims/localizer/faces/ayo-ogunseinde-sibVwORYqs0-unsplash.jpg","392338","1","faces","","0","0","0","400","197400","406","199208",""
"","iti_localizer","","html-keyboard-response","375","393048","0.0-2.0-153.0-1.0","24","36236","female","null","","","","null","","151","","","392744","1","","","","","","300","197800","304","199614","300"
"","localizer","","html-keyboard-response","376","393454","0.0-2.0-154.0-0.0","24","36236","female","161","","","","75","1","152","","Stimuli/Experimental_stims/localizer/faces/christopher-campbell-rDEOVtE7vOs-unsplash.jpg","393048","1","faces","","0","0","0","400","198100","406","199918",""
"","iti_localizer","","html-keyboard-response","377","393759","0.0-2.0-154.0-1.0","24","36236","female","null","","","","null","","152","","","393454","1","","","","","","300","198500","305","200324","300"
"","localizer","","html-keyboard-response","378","394166","0.0-2.0-155.0-0.0","24","36236","female","NaN","","","","null","NaN","153","","Stimuli/Experimental_stims/localizer/faces/etty-fidele-nF8eo2nX374-unsplash.jpg","393759","1","faces","","0","1","0","400","198800","407","200629",""
"","iti_localizer","","html-keyboard-response","379","394472","0.0-2.0-155.0-1.0","24","36236","female","null","","","","null","","153","","","394166","1","","","","","","300","199200","306","201036","300"
"","localizer","","html-keyboard-response","380","394878","0.0-2.0-156.0-0.0","24","36236","female","63","","","","68","0","154","","Stimuli/Experimental_stims/localizer/faces/carlos-vaz-KP4bxnxAilU-unsplash.jpg","394472","1","faces","","0","0","1","400","199500","406","201342",""
"","iti_localizer","","html-keyboard-response","381","395184","0.0-2.0-156.0-1.0","24","36236","female","null","","","","null","","154","","","394878","1","","","","","","300","199900","306","201748","300"
"","localizer","","html-keyboard-response","382","395591","0.0-2.0-157.0-0.0","24","36236","female","22","","","","68","0","155","","Stimuli/Experimental_stims/localizer/faces/elijah-hiett-umfpFoKxIVg-unsplash.jpg","395184","1","faces","","0","0","1","400","200200","407","202054",""
"","iti_localizer","","html-keyboard-response","383","395898","0.0-2.0-157.0-1.0","24","36236","female","null","","","","null","","155","","","395591","1","","","","","","300","200600","307","202461","300"
"","localizer","","html-keyboard-response","384","396307","0.0-2.0-158.0-0.0","24","36236","female","1","","","","68","0","156","","Stimuli/Experimental_stims/localizer/faces/imansyah-muhamad-putera-n4KewLKFOZw-unsplash.jpg","395898","1","faces","","0","0","1","400","200900","409","202768",""
"","iti_localizer","","html-keyboard-response","385","396613","0.0-2.0-158.0-1.0","24","36236","female","null","","","","null","","156","","","396307","1","","","","","","300","201300","306","203177","300"
"","localizer","","html-keyboard-response","386","397019","0.0-2.0-159.0-0.0","24","36236","female","51","","","","68","0","157","","Stimuli/Experimental_stims/localizer/faces/ivan-dodig-R21SyyJDFgc-unsplash.jpg","396613","1","faces","","0","0","1","400","201600","406","203483",""
"","iti_localizer","","html-keyboard-response","387","397325","0.0-2.0-159.0-1.0","24","36236","female","null","","","","null","","157","","","397019","1","","","","","","300","202000","306","203889","300"
"","localizer","","html-keyboard-response","388","397730","0.0-2.0-160.0-0.0","24","36236","female","364","","","","68","0","158","","Stimuli/Experimental_stims/localizer/faces/gabriel-silverio-u3WmDyKGsrY-unsplash.jpg","397325","1","faces","","0","0","1","400","202300","405","204195",""
"","iti_localizer","","html-keyboard-response","389","398038","0.0-2.0-160.0-1.0","24","36236","female","null","","","","null","","158","","","397730","1","","","","","","300","202700","308","204600","300"
"","localizer","","html-keyboard-response","390","398444","0.0-2.0-161.0-0.0","24","36236","female","129","","","","68","0","159","","Stimuli/Experimental_stims/localizer/faces/rafaella-mendes-diniz-et_78QkMMQs-unsplash.jpg","398038","1","faces","","0","0","1","400","203000","406","204908",""
"","iti_localizer","","html-keyboard-response","391","398749","0.0-2.0-161.0-1.0","24","36236","female","null","","","","null","","159","","","398444","1","","","","","","300","203400","305","205314","300"
"","localizer","","html-keyboard-response","392","399154","0.0-2.0-162.0-0.0","24","36236","female","58","","","","68","0","160","","Stimuli/Experimental_stims/localizer/faces/icons8-team-6LZuSzSwso0-unsplash.jpg","398749","1","faces","","0","0","1","400","203700","405","205619",""
"","iti_localizer","","html-keyboard-response","393","399459","0.0-2.0-162.0-1.0","24","36236","female","null","","","","null","","160","","","399154","1","","","","","","300","204100","305","206024","300"
"","localizer","","html-keyboard-response","394","399866","0.0-2.0-163.0-0.0","24","36236","female","116","","","","68","0","161","","Stimuli/Experimental_stims/localizer/faces/olena-sergienko-0TSd6uCKTKc-unsplash.jpg","399459","1","faces","","0","0","1","400","204400","407","206329",""
"","iti_localizer","","html-keyboard-response","395","400172","0.0-2.0-163.0-1.0","24","36236","female","null","","","","null","","161","","","399866","1","","","","","","300","204800","306","206736","300"
"","localizer","","html-keyboard-response","396","400578","0.0-2.0-164.0-0.0","24","36236","female","44","","","","68","0","162","","Stimuli/Experimental_stims/localizer/faces/janaya-dasiuk-_A2LZdUqHgA-unsplash.jpg","400172","1","faces","","0","0","1","400","205100","406","207042",""
"","iti_localizer","","html-keyboard-response","397","400882","0.0-2.0-164.0-1.0","24","36236","female","null","","","","null","","162","","","400578","1","","","","","","300","205500","304","207448","300"
"","localizer","","html-keyboard-response","398","401291","0.0-2.0-165.0-0.0","24","36236","female","134","","","","68","0","163","","Stimuli/Experimental_stims/localizer/faces/allef-vinicius-C_1jjFJioWg-unsplash.jpg","400882","1","faces","","0","0","1","400","205800","409","207752",""
"","iti_localizer","","html-keyboard-response","399","401595","0.0-2.0-165.0-1.0","24","36236","female","null","","","","null","","163","","","401291","1","","","","","","300","206200","304","208161","300"
"","localizer","","html-keyboard-response","400","402001","0.0-2.0-166.0-0.0","24","36236","female","92","","","","68","0","164","","Stimuli/Experimental_stims/localizer/faces/christian-buehner-DItYlc26zVI-unsplash.jpg","401595","1","faces","","1","0","0","400","206500","406","208465",""
"","iti_localizer","","html-keyboard-response","401","402310","0.0-2.0-166.0-1.0","24","36236","female","null","","","","null","","164","","","402001","1","","","","","","300","206900","309","208871","300"
"","localizer","","html-keyboard-response","402","402715","0.0-2.0-167.0-0.0","24","36236","female","18","","","","68","0","165","","Stimuli/Experimental_stims/localizer/faces/james-marty-h1BuNJZzpC8-unsplash.jpg","402310","1","faces","","0","0","1","400","207200","405","209180",""
"","iti_localizer","","html-keyboard-response","403","416721","0.0-2.0-167.0-1.0","24","36236","female","null","","","","null","","165","","","402715","1","","","","","","14000","207600","14006","209585","14000"
"","localizer","","html-keyboard-response","404","417127","0.0-2.0-168.0-0.0","24","36236","female","NaN","","","","null","NaN","166","","Stimuli/Experimental_stims/localizer/objects/raimond-klavins-ZdvDPXVvcKs-unsplash.jpg","416721","1","objects","","0","1","0","400","221600","406","223591",""
"","iti_localizer","","html-keyboard-response","405","417432","0.0-2.0-168.0-1.0","24","36236","female","null","","","","null","","166","","","417127","1","","","","","","300","222000","305","223997","300"
