"success","ttype","start_time","trial_type","trial_index","time_elapsed","internal_node_id","age","PID","gender","rt","responses","view_history","repeat_instructions","key_press","response","index","stimulus_index","path","missed_checkup","start_time_elapsed","run","task","isi","is_odd_ball","no_response","acc","duration","onset","duration_time_elapsed","onset_time_elapsed","trial_duration","left_chosen","chosen_stimulus","unchosen_stimulus","chosen_category","unchosen_category","chosen_rating","unchosen_rating","chosen_path","unchosen_path","pair_id","practice","scramble_screen_time","scramble_instructed_side","stim_type","iti","block","left_stimulus","right_stimulus","left_category","right_category","left_path","right_path","left_rating","right_rating","scramble_acc","stimulus_id","item_id","outcome","response_rt","deliberation_reward_tally","choice_type","gain_left","left_item_id","right_item_id","warning","higher_outcome_chosen","chosen_left","old_pair","pair_type","old_response","pair_acc","reward_type","outcome_response","outcome_rt","outcome_acc","category","choice","deliberated_stim","old_rating","new_rating","total_reward_tally"
"true","full_screen","d08172023hr1609","fullscreen","0","9205","0.0-0.0-0.0","25","44945","Female","","","","","","","","","","","","","","","","","","","","","","","","","","","","","","","","","","","","","","","","","","","","","","","","","","","","","","","","","","","","","","","","","","","","","","","","",""
"","get_id","","survey-text","1","22055","0.0-0.0-1.0","25","44945","Female","12820","{""Q0"":""25"",""Q1"":""Female""}","","","","","","","","","","","","","","","","","","","","","","","","","","","","","","","","","","","","","","","","","","","","","","","","","","","","","","","","","","","","","","","","","","","","","","",""
"","ratings_instructions","","instructions","2","28511","0.0-1.0-0.0-0.0","25","44945","Female","4769","","[{""page_index"":0,""viewing_time"":2642},{""page_index"":1,""viewing_time"":2125}]","","","","","","","","","","","","","","","","","","","","","","","","","","","","","","","","","","","","","","","","","","","","","","","","","","","","","","","","","","","","","","","","","","","","","",""
"","rating_comprehension_check","","survey-multi-choice","3","32628","0.0-1.0-0.0-1.0","25","44945","Female","4092","{""Q0"":""True"",""Q1"":""Mouse""}","","0","","","","","","","","","","","","","","","","","","","","","","","","","","","","","","","","","","","","","","","","","","","","","","","","","","","","","","","","","","","","","","","","","","","","",""
"","","","html-keyboard-response","4","34740","0.0-1.0-1.0","25","44945","Female","2096","","","","68","","","","","","","","","","","","","","","","","","","","","","","","","","","","","","","","","","","","","","","","","","","","","","","","","","","","","","","","","","","","","","","","","","","",""
"","rating","","html-slider-response","5","38655","0.0-1.0-2.0","25","44945","Female","3904","","","","","68","0","28","Stimuli/Experimental_stims/body_parts/ira-vishnevskaya-8DQAvdCby1I-unsplash.jpg","","","","","","","","","","","","","","","","","","","","","","","","","","","","","","","","","","","","","","","","","","","","","","","","","","","","","","","","","","","","","","","",""
"","rating","","html-slider-response","6","41090","0.0-1.0-3.0","25","44945","Female","2424","","","","","79","1","4","Stimuli/Experimental_stims/outdoor_scenes/jarrett-kow-1ZOyYPOBn7I-unsplash.jpg","","","","","","","","","","","","","","","","","","","","","","","","","","","","","","","","","","","","","","","","","","","","","","","","","","","","","","","","","","","","","","","",""
"","rating","","html-slider-response","7","48985","0.0-1.0-4.0","25","44945","Female","7882","","","","","61","2","35","Stimuli/Experimental_stims/body_parts/wc-so-KH4AAPjb-tI-unsplash.jpg","","","","","","","","","","","","","","","","","","","","","","","","","","","","","","","","","","","","","","","","","","","","","","","","","","","","","","","","","","","","","","","",""
"","rating","","html-slider-response","8","51970","0.0-1.0-5.0","25","44945","Female","2966","","","","","85","3","47","Stimuli/Experimental_stims/objects/ronaldo-arthur-vidal-Cdz_lvnl37k-unsplash.jpg","","","","","","","","","","","","","","","","","","","","","","","","","","","","","","","","","","","","","","","","","","","","","","","","","","","","","","","","","","","","","","","",""
"","rating","","html-slider-response","9","56083","0.0-1.0-6.0","25","44945","Female","4079","","","","","68","4","9","Stimuli/Experimental_stims/outdoor_scenes/sergey-pesterev-y-b_FOmJXdg-unsplash.jpg","","","","","","","","","","","","","","","","","","","","","","","","","","","","","","","","","","","","","","","","","","","","","","","","","","","","","","","","","","","","","","","",""
"","rating","","html-slider-response","10","58862","0.0-1.0-7.0","25","44945","Female","2762","","","","","83","5","31","Stimuli/Experimental_stims/body_parts/sincerely-media-VN6DbKajo5s-unsplash.jpg","","","","","","","","","","","","","","","","","","","","","","","","","","","","","","","","","","","","","","","","","","","","","","","","","","","","","","","","","","","","","","","",""
"","rating","","html-slider-response","11","62317","0.0-1.0-8.0","25","44945","Female","3439","","","","","71","6","5","Stimuli/Experimental_stims/outdoor_scenes/jeff-king-bJHWJeiHfHc-unsplash.jpg","","","","","","","","","","","","","","","","","","","","","","","","","","","","","","","","","","","","","","","","","","","","","","","","","","","","","","","","","","","","","","","",""
"","rating","","html-slider-response","12","65156","0.0-1.0-9.0","25","44945","Female","2822","","","","","81","7","27","Stimuli/Experimental_stims/body_parts/heike-mintel-i_Gns0ELnLw-unsplash.jpg","","","","","","","","","","","","","","","","","","","","","","","","","","","","","","","","","","","","","","","","","","","","","","","","","","","","","","","","","","","","","","","",""
"","rating","","html-slider-response","13","67929","0.0-1.0-10.0","25","44945","Female","2758","","","","","42","8","37","Stimuli/Experimental_stims/objects/alexander-andrews-VLGWE_SumrA-unsplash.jpg","","","","","","","","","","","","","","","","","","","","","","","","","","","","","","","","","","","","","","","","","","","","","","","","","","","","","","","","","","","","","","","",""
"","rating","","html-slider-response","14","70673","0.0-1.0-11.0","25","44945","Female","2729","","","","","72","9","19","Stimuli/Experimental_stims/faces/joel-mott-LaK153ghdig-unsplash.jpg","","","","","","","","","","","","","","","","","","","","","","","","","","","","","","","","","","","","","","","","","","","","","","","","","","","","","","","","","","","","","","","",""
"","rating","","html-slider-response","15","73306","0.0-1.0-12.0","25","44945","Female","2619","","","","","75","10","34","Stimuli/Experimental_stims/body_parts/wagner-santos-mBWMvIuVnso-unsplash.jpg","","","","","","","","","","","","","","","","","","","","","","","","","","","","","","","","","","","","","","","","","","","","","","","","","","","","","","","","","","","","","","","",""
"","rating","","html-slider-response","16","76394","0.0-1.0-13.0","25","44945","Female","3074","","","","","89","11","22","Stimuli/Experimental_stims/faces/ravi-patel-VMGAbeeJTKo-unsplash.jpg","","","","","","","","","","","","","","","","","","","","","","","","","","","","","","","","","","","","","","","","","","","","","","","","","","","","","","","","","","","","","","","",""
"","rating","","html-slider-response","17","79638","0.0-1.0-14.0","25","44945","Female","3234","","","","","74","12","1","Stimuli/Experimental_stims/outdoor_scenes/ashim-d-silva-S2Q5mdOrrVc-unsplash.jpg","","","","","","","","","","","","","","","","","","","","","","","","","","","","","","","","","","","","","","","","","","","","","","","","","","","","","","","","","","","","","","","",""
"","rating","","html-slider-response","18","83834","0.0-1.0-15.0","25","44945","Female","4159","","","","","84","13","15","Stimuli/Experimental_stims/faces/erik-lucatero-d2MSDujJl2g-unsplash.jpg","","","","","","","","","","","","","","","","","","","","","","","","","","","","","","","","","","","","","","","","","","","","","","","","","","","","","","","","","","","","","","","",""
"","rating","","html-slider-response","19","87606","0.0-1.0-16.0","25","44945","Female","3752","","","","","80","14","17","Stimuli/Experimental_stims/faces/good-faces-xmSWVeGEnJw-unsplash.jpg","","","","","","","","","","","","","","","","","","","","","","","","","","","","","","","","","","","","","","","","","","","","","","","","","","","","","","","","","","","","","","","",""
"","rating","","html-slider-response","20","90634","0.0-1.0-17.0","25","44945","Female","3013","","","","","84","15","12","Stimuli/Experimental_stims/faces/aiony-haust-jmATI5Q_YgY-unsplash.jpg","","","","","","","","","","","","","","","","","","","","","","","","","","","","","","","","","","","","","","","","","","","","","","","","","","","","","","","","","","","","","","","",""
"","rating","","html-slider-response","21","94980","0.0-1.0-18.0","25","44945","Female","4337","","","","","77","16","0","Stimuli/Experimental_stims/outdoor_scenes/aleksandra-boguslawska-MS7KD9Ti7FQ-unsplash.jpg","","","","","","","","","","","","","","","","","","","","","","","","","","","","","","","","","","","","","","","","","","","","","","","","","","","","","","","","","","","","","","","",""
"","rating","","html-slider-response","22","98650","0.0-1.0-19.0","25","44945","Female","3653","","","","","83","17","41","Stimuli/Experimental_stims/objects/insung-yoon-w2JtIQQXoRU-unsplash.jpg","","","","","","","","","","","","","","","","","","","","","","","","","","","","","","","","","","","","","","","","","","","","","","","","","","","","","","","","","","","","","","","",""
"","rating","","html-slider-response","23","101121","0.0-1.0-20.0","25","44945","Female","2456","","","","","74","18","18","Stimuli/Experimental_stims/faces/jessica-radanavong-mrYkTuAesKE-unsplash.jpg","","","","","","","","","","","","","","","","","","","","","","","","","","","","","","","","","","","","","","","","","","","","","","","","","","","","","","","","","","","","","","","",""
"","rating","","html-slider-response","24","104248","0.0-1.0-21.0","25","44945","Female","3101","","","","","83","19","11","Stimuli/Experimental_stims/outdoor_scenes/stephen-leonardi-gyIRjKPXupE-unsplash.jpg","","","","","","","","","","","","","","","","","","","","","","","","","","","","","","","","","","","","","","","","","","","","","","","","","","","","","","","","","","","","","","","",""
"","rating","","html-slider-response","25","107208","0.0-1.0-22.0","25","44945","Female","2948","","","","","81","20","20","Stimuli/Experimental_stims/faces/justin-chen-J7Cf1Gch49E-unsplash.jpg","","","","","","","","","","","","","","","","","","","","","","","","","","","","","","","","","","","","","","","","","","","","","","","","","","","","","","","","","","","","","","","",""
"","rating","","html-slider-response","26","109905","0.0-1.0-23.0","25","44945","Female","2687","","","","","67","21","23","Stimuli/Experimental_stims/faces/rikonavt-HQjfrvdTfak-unsplash.jpg","","","","","","","","","","","","","","","","","","","","","","","","","","","","","","","","","","","","","","","","","","","","","","","","","","","","","","","","","","","","","","","",""
"","rating","","html-slider-response","27","112773","0.0-1.0-24.0","25","44945","Female","2855","","","","","75","22","25","Stimuli/Experimental_stims/body_parts/engin-akyurt-Q2rfH3GW39c-unsplash.jpg","","","","","","","","","","","","","","","","","","","","","","","","","","","","","","","","","","","","","","","","","","","","","","","","","","","","","","","","","","","","","","","",""
"","rating","","html-slider-response","28","116146","0.0-1.0-25.0","25","44945","Female","3363","","","","","70","23","33","Stimuli/Experimental_stims/body_parts/tucker-good-36skLT5jZcc-unsplash.jpg","","","","","","","","","","","","","","","","","","","","","","","","","","","","","","","","","","","","","","","","","","","","","","","","","","","","","","","","","","","","","","","",""
"","rating","","html-slider-response","29","119003","0.0-1.0-26.0","25","44945","Female","2847","","","","","72","24","32","Stimuli/Experimental_stims/body_parts/towfiqu-barbhuiya-3AsiVDsZnHg-unsplash.jpg","","","","","","","","","","","","","","","","","","","","","","","","","","","","","","","","","","","","","","","","","","","","","","","","","","","","","","","","","","","","","","","",""
"","rating","","html-slider-response","30","124437","0.0-1.0-27.0","25","44945","Female","5423","","","","","69","25","30","Stimuli/Experimental_stims/body_parts/mika-korhonen-Xodzxosar18-unsplash.jpg","","","","","","","","","","","","","","","","","","","","","","","","","","","","","","","","","","","","","","","","","","","","","","","","","","","","","","","","","","","","","","","",""
"","rating","","html-slider-response","31","127725","0.0-1.0-28.0","25","44945","Female","3278","","","","","71","26","16","Stimuli/Experimental_stims/faces/freddy-kearney-o-ioeoATbIM-unsplash.jpg","","","","","","","","","","","","","","","","","","","","","","","","","","","","","","","","","","","","","","","","","","","","","","","","","","","","","","","","","","","","","","","",""
"","rating","","html-slider-response","32","130983","0.0-1.0-29.0","25","44945","Female","3227","","","","","81","27","14","Stimuli/Experimental_stims/faces/david-siglin-UuW4psOb388-unsplash.jpg","","","","","","","","","","","","","","","","","","","","","","","","","","","","","","","","","","","","","","","","","","","","","","","","","","","","","","","","","","","","","","","",""
"","rating","","html-slider-response","33","133374","0.0-1.0-30.0","25","44945","Female","2381","","","","","76","28","36","Stimuli/Experimental_stims/objects/alexander-andrews-JYGnB9gTCls-unsplash.jpg","","","","","","","","","","","","","","","","","","","","","","","","","","","","","","","","","","","","","","","","","","","","","","","","","","","","","","","","","","","","","","","",""
"","rating","","html-slider-response","34","135871","0.0-1.0-31.0","25","44945","Female","2486","","","","","75","29","3","Stimuli/Experimental_stims/outdoor_scenes/henry-be-NLF6hTe4PAg-unsplash.jpg","","","","","","","","","","","","","","","","","","","","","","","","","","","","","","","","","","","","","","","","","","","","","","","","","","","","","","","","","","","","","","","",""
"","rating","","html-slider-response","35","138408","0.0-1.0-32.0","25","44945","Female","2522","","","","","82","30","29","Stimuli/Experimental_stims/body_parts/manuel-schinner-ZwjFuJ7ebpk-unsplash.jpg","","","","","","","","","","","","","","","","","","","","","","","","","","","","","","","","","","","","","","","","","","","","","","","","","","","","","","","","","","","","","","","",""
"","rating","","html-slider-response","36","140841","0.0-1.0-33.0","25","44945","Female","2423","","","","","83","31","43","Stimuli/Experimental_stims/objects/jonathan-greenaway-Y4hGgeiFn3s-unsplash.jpg","","","","","","","","","","","","","","","","","","","","","","","","","","","","","","","","","","","","","","","","","","","","","","","","","","","","","","","","","","","","","","","",""
"","rating","","html-slider-response","37","145047","0.0-1.0-34.0","25","44945","Female","4190","","","","","72","32","40","Stimuli/Experimental_stims/objects/fabian-blank-pElSkGRA2NU-unsplash.jpg","","","","","","","","","","","","","","","","","","","","","","","","","","","","","","","","","","","","","","","","","","","","","","","","","","","","","","","","","","","","","","","",""
"","rating","","html-slider-response","38","147585","0.0-1.0-35.0","25","44945","Female","2510","","","","","69","33","2","Stimuli/Experimental_stims/outdoor_scenes/bruno-van-der-kraan-qez8mNJ3ilU-unsplash.jpg","","","","","","","","","","","","","","","","","","","","","","","","","","","","","","","","","","","","","","","","","","","","","","","","","","","","","","","","","","","","","","","",""
"","rating","","html-slider-response","39","150083","0.0-1.0-36.0","25","44945","Female","2489","","","","","71","34","26","Stimuli/Experimental_stims/body_parts/engin-akyurt-x_3gyC42btc-unsplash.jpg","","","","","","","","","","","","","","","","","","","","","","","","","","","","","","","","","","","","","","","","","","","","","","","","","","","","","","","","","","","","","","","",""
"","rating","","html-slider-response","40","152794","0.0-1.0-37.0","25","44945","Female","2662","","","","","77","35","45","Stimuli/Experimental_stims/objects/leohoho-rngTKHXumy0-unsplash.jpg","","","","","","","","","","","","","","","","","","","","","","","","","","","","","","","","","","","","","","","","","","","","","","","","","","","","","","","","","","","","","","","",""
"","rating","","html-slider-response","41","155101","0.0-1.0-38.0","25","44945","Female","2294","","","","","72","36","6","Stimuli/Experimental_stims/outdoor_scenes/meng-ji-8BH_M-53CyA-unsplash.jpg","","","","","","","","","","","","","","","","","","","","","","","","","","","","","","","","","","","","","","","","","","","","","","","","","","","","","","","","","","","","","","","",""
"","rating","","html-slider-response","42","158100","0.0-1.0-39.0","25","44945","Female","2988","","","","","78","37","13","Stimuli/Experimental_stims/faces/daniel-rigdon-dXmXKPP2L4E-unsplash.jpg","","","","","","","","","","","","","","","","","","","","","","","","","","","","","","","","","","","","","","","","","","","","","","","","","","","","","","","","","","","","","","","",""
"","rating","","html-slider-response","43","163198","0.0-1.0-40.0","25","44945","Female","5083","","","","","70","38","44","Stimuli/Experimental_stims/objects/kuiye-chen-NuOGFo4PudE-unsplash.jpg","","","","","","","","","","","","","","","","","","","","","","","","","","","","","","","","","","","","","","","","","","","","","","","","","","","","","","","","","","","","","","","",""
"","rating","","html-slider-response","44","165937","0.0-1.0-41.0","25","44945","Female","2726","","","","","56","39","42","Stimuli/Experimental_stims/objects/jess-bailey-nOeVi8DsN8U-unsplash.jpg","","","","","","","","","","","","","","","","","","","","","","","","","","","","","","","","","","","","","","","","","","","","","","","","","","","","","","","","","","","","","","","",""
"","rating","","html-slider-response","45","169743","0.0-1.0-42.0","25","44945","Female","3791","","","","","81","40","24","Stimuli/Experimental_stims/body_parts/clay-banks-LjqARJaJotc-unsplash.jpg","","","","","","","","","","","","","","","","","","","","","","","","","","","","","","","","","","","","","","","","","","","","","","","","","","","","","","","","","","","","","","","",""
"","rating","","html-slider-response","46","172716","0.0-1.0-43.0","25","44945","Female","2954","","","","","72","41","21","Stimuli/Experimental_stims/faces/leilani-angel-K84vnnzxmTQ-unsplash.jpg","","","","","","","","","","","","","","","","","","","","","","","","","","","","","","","","","","","","","","","","","","","","","","","","","","","","","","","","","","","","","","","",""
"","rating","","html-slider-response","47","175772","0.0-1.0-44.0","25","44945","Female","3045","","","","","91","42","7","Stimuli/Experimental_stims/outdoor_scenes/petr-vysohlid-9fqwGqGLUxc-unsplash.jpg","","","","","","","","","","","","","","","","","","","","","","","","","","","","","","","","","","","","","","","","","","","","","","","","","","","","","","","","","","","","","","","",""
"","rating","","html-slider-response","48","178480","0.0-1.0-45.0","25","44945","Female","2696","","","","","56","43","46","Stimuli/Experimental_stims/objects/mockup-graphics-PNsj6RiHAF4-unsplash.jpg","","","","","","","","","","","","","","","","","","","","","","","","","","","","","","","","","","","","","","","","","","","","","","","","","","","","","","","","","","","","","","","",""
"","rating","","html-slider-response","49","180494","0.0-1.0-46.0","25","44945","Female","2001","","","","","73","44","38","Stimuli/Experimental_stims/objects/art-lasovsky-8XddFc6NkBY-unsplash.jpg","","","","","","","","","","","","","","","","","","","","","","","","","","","","","","","","","","","","","","","","","","","","","","","","","","","","","","","","","","","","","","","",""
"","rating","","html-slider-response","50","184144","0.0-1.0-47.0","25","44945","Female","3640","","","","","88","45","8","Stimuli/Experimental_stims/outdoor_scenes/samsommer-vddccTqwal8-unsplash.jpg","","","","","","","","","","","","","","","","","","","","","","","","","","","","","","","","","","","","","","","","","","","","","","","","","","","","","","","","","","","","","","","",""
"","rating","","html-slider-response","51","188060","0.0-1.0-48.0","25","44945","Female","3905","","","","","79","46","10","Stimuli/Experimental_stims/outdoor_scenes/shannon-kunkle-dM8INmkyDas-unsplash.jpg","","","","","","","","","","","","","","","","","","","","","","","","","","","","","","","","","","","","","","","","","","","","","","","","","","","","","","","","","","","","","","","",""
"","rating","","html-slider-response","52","190672","0.0-1.0-49.0","25","44945","Female","2571","","","","","78","47","39","Stimuli/Experimental_stims/objects/charlesdeluvio-1-nx1QR5dTE-unsplash.jpg","","","","","","","","","","","","","","","","","","","","","","","","","","","","","","","","","","","","","","","","","","","","","","","","","","","","","","","","","","","","","","","",""
"","localizer_instructions","","instructions","53","199858","0.0-2.0-0.0-0.0","25","44945","Female","8950","","[{""page_index"":0,""viewing_time"":3331},{""page_index"":1,""viewing_time"":2339},{""page_index"":2,""viewing_time"":3279}]","","","","","","","","","","","","","","","","","","","","","","","","","","","","","","","","","","","","","","","","","","","","","","","","","","","","","","","","","","","","","","","","","","","","","",""
"","localizer_comprehension_check","","survey-multi-choice","54","209553","0.0-2.0-0.0-1.0","25","44945","Female","9683","{""Q0"":""True"",""Q1"":""D"",""Q2"":""K""}","","1","","","","","","","","","","","","","","","","","","","","","","","","","","","","","","","","","","","","","","","","","","","","","","","","","","","","","","","","","","","","","","","","","","","","",""
"","missed_instruction_checkup","","html-keyboard-response","55","211957","0.0-2.0-0.0-2.0-0.0","25","44945","Female","2391","","","","68","","","","","1","","","","","","","","","","","","","","","","","","","","","","","","","","","","","","","","","","","","","","","","","","","","","","","","","","","","","","","","","","","","","","",""
"","localizer_instructions","","instructions","56","217227","0.0-2.0-0.1-0.1","25","44945","Female","5257","","[{""page_index"":0,""viewing_time"":1780},{""page_index"":1,""viewing_time"":1486},{""page_index"":2,""viewing_time"":1990}]","","","","","","","","","","","","","","","","","","","","","","","","","","","","","","","","","","","","","","","","","","","","","","","","","","","","","","","","","","","","","","","","","","","","","",""
"","localizer_comprehension_check","","survey-multi-choice","57","223475","0.0-2.0-0.1-1.1","25","44945","Female","6234","{""Q0"":""True"",""Q1"":""K"",""Q2"":""D""}","","0","","","","","","","","","","","","","","","","","","","","","","","","","","","","","","","","","","","","","","","","","","","","","","","","","","","","","","","","","","","","","","","","","","","","",""
"","","","html-keyboard-response","58","225830","0.0-2.0-1.0","25","44945","Female","2345","","","","68","","","","","","","","","","","","","","","","","","","","","","","","","","","","","","","","","","","","","","","","","","","","","","","","","","","","","","","","","","","","","","","","","","","",""
"","localizer","","html-keyboard-response","59","226250","0.0-2.0-2.0-0.0","25","44945","Female","NaN","","","","null","NaN","0","","Stimuli/Practice_stims/Localizer/annie-spratt-g9KFpAfQ5bc-unsplash.jpg","","225830","0","NaN","","0","1","0","400","0","420","0","","","","","","","","","","","","","","","","","","","","","","","","","","","","","","","","","","","","","","","","","","","","","","","","","","","",""
"","iti_localizer","","html-keyboard-response","60","226565","0.0-2.0-2.0-1.0","25","44945","Female","null","","","","null","","0","","","","226250","0","","","","","","300","400","315","420","300","","","","","","","","","","","","","","","","","","","","","","","","","","","","","","","","","","","","","","","","","","","","","","","","","","",""
"","localizer","","html-keyboard-response","61","226977","0.0-2.0-2.1-0.1","25","44945","Female","NaN","","","","null","NaN","0","","Stimuli/Practice_stims/Localizer/annie-spratt-g9KFpAfQ5bc-unsplash.jpg","","226565","0","NaN","","0","1","0","400","700","412","735","","","","","","","","","","","","","","","","","","","","","","","","","","","","","","","","","","","","","","","","","","","","","","","","","","","",""
"","iti_localizer","","html-keyboard-response","62","227288","0.0-2.0-2.1-1.1","25","44945","Female","null","","","","null","","0","","","","226977","0","","","","","","300","1100","311","1147","300","","","","","","","","","","","","","","","","","","","","","","","","","","","","","","","","","","","","","","","","","","","","","","","","","","",""
"","localizer","","html-keyboard-response","63","227704","0.0-2.0-2.2-0.2","25","44945","Female","NaN","","","","null","NaN","0","","Stimuli/Practice_stims/Localizer/annie-spratt-g9KFpAfQ5bc-unsplash.jpg","","227288","0","NaN","","0","1","0","400","1400","416","1458","","","","","","","","","","","","","","","","","","","","","","","","","","","","","","","","","","","","","","","","","","","","","","","","","","","",""
"","iti_localizer","","html-keyboard-response","64","228067","0.0-2.0-2.2-1.2","25","44945","Female","null","","","","null","","0","","","","227704","0","","","","","","300","1800","363","1874","300","","","","","","","","","","","","","","","","","","","","","","","","","","","","","","","","","","","","","","","","","","","","","","","","","","",""
"","localizer","","html-keyboard-response","65","228489","0.0-2.0-2.3-0.3","25","44945","Female","135","","","","68","0","0","","Stimuli/Practice_stims/Localizer/annie-spratt-g9KFpAfQ5bc-unsplash.jpg","","228067","0","NaN","","0","0","1","400","2100","422","2237","","","","","","","","","","","","","","","","","","","","","","","","","","","","","","","","","","","","","","","","","","","","","","","","","","","",""
"","iti_localizer","","html-keyboard-response","66","228802","0.0-2.0-2.3-1.3","25","44945","Female","null","","","","null","","0","","","","228489","0","","","","","","300","2500","313","2659","300","","","","","","","","","","","","","","","","","","","","","","","","","","","","","","","","","","","","","","","","","","","","","","","","","","",""
"","localizer","","html-keyboard-response","67","229226","0.0-2.0-3.0-0.0","25","44945","Female","290","","","","68","0","1","","Stimuli/Practice_stims/Localizer/becca-tapert-sY5RjMB1KkE-unsplash.jpg","","228802","0","NaN","","0","0","1","400","2800","424","2972","","","","","","","","","","","","","","","","","","","","","","","","","","","","","","","","","","","","","","","","","","","","","","","","","","","",""
"","iti_localizer","","html-keyboard-response","68","229539","0.0-2.0-3.0-1.0","25","44945","Female","null","","","","null","","1","","","","229226","0","","","","","","300","3200","313","3396","300","","","","","","","","","","","","","","","","","","","","","","","","","","","","","","","","","","","","","","","","","","","","","","","","","","",""
"","localizer","","html-keyboard-response","69","229963","0.0-2.0-4.0-0.0","25","44945","Female","NaN","","","","null","NaN","2","","Stimuli/Practice_stims/Localizer/charl-durand-bsfXvI25iNg-unsplash.jpg","","229539","0","NaN","","1","1","0","400","3500","424","3709","","","","","","","","","","","","","","","","","","","","","","","","","","","","","","","","","","","","","","","","","","","","","","","","","","","",""
"","iti_localizer","","html-keyboard-response","70","230271","0.0-2.0-4.0-1.0","25","44945","Female","null","","","","null","","2","","","","229963","0","","","","","","300","3900","308","4133","300","","","","","","","","","","","","","","","","","","","","","","","","","","","","","","","","","","","","","","","","","","","","","","","","","","",""
"","localizer","","html-keyboard-response","71","230713","0.0-2.0-4.1-0.1","25","44945","Female","NaN","","","","null","NaN","2","","Stimuli/Practice_stims/Localizer/charl-durand-bsfXvI25iNg-unsplash.jpg","","230271","0","NaN","","1","1","0","400","4200","442","4441","","","","","","","","","","","","","","","","","","","","","","","","","","","","","","","","","","","","","","","","","","","","","","","","","","","",""
"","iti_localizer","","html-keyboard-response","72","231024","0.0-2.0-4.1-1.1","25","44945","Female","null","","","","null","","2","","","","230713","0","","","","","","300","4600","311","4883","300","","","","","","","","","","","","","","","","","","","","","","","","","","","","","","","","","","","","","","","","","","","","","","","","","","",""
"","localizer","","html-keyboard-response","73","231441","0.0-2.0-4.2-0.2","25","44945","Female","NaN","","","","null","NaN","2","","Stimuli/Practice_stims/Localizer/charl-durand-bsfXvI25iNg-unsplash.jpg","","231024","0","NaN","","1","1","0","400","4900","417","5194","","","","","","","","","","","","","","","","","","","","","","","","","","","","","","","","","","","","","","","","","","","","","","","","","","","",""
"","iti_localizer","","html-keyboard-response","74","231759","0.0-2.0-4.2-1.2","25","44945","Female","null","","","","null","","2","","","","231441","0","","","","","","300","5300","318","5611","300","","","","","","","","","","","","","","","","","","","","","","","","","","","","","","","","","","","","","","","","","","","","","","","","","","",""
"","localizer","","html-keyboard-response","75","232166","0.0-2.0-4.3-0.3","25","44945","Female","394","","","","68","0","2","","Stimuli/Practice_stims/Localizer/charl-durand-bsfXvI25iNg-unsplash.jpg","","231759","0","NaN","","1","0","0","400","5600","407","5929","","","","","","","","","","","","","","","","","","","","","","","","","","","","","","","","","","","","","","","","","","","","","","","","","","","",""
"","iti_localizer","","html-keyboard-response","76","232481","0.0-2.0-4.3-1.3","25","44945","Female","null","","","","null","","2","","","","232166","0","","","","","","300","6000","315","6336","300","","","","","","","","","","","","","","","","","","","","","","","","","","","","","","","","","","","","","","","","","","","","","","","","","","",""
"","localizer","","html-keyboard-response","77","232895","0.0-2.0-5.0-0.0","25","44945","Female","193","","","","75","1","3","","Stimuli/Practice_stims/Localizer/nizar-albusaidy-B2r2SWAf5CE-unsplash.jpg","","232481","0","NaN","","0","0","0","400","6300","414","6651","","","","","","","","","","","","","","","","","","","","","","","","","","","","","","","","","","","","","","","","","","","","","","","","","","","",""
"","iti_localizer","","html-keyboard-response","78","233203","0.0-2.0-5.0-1.0","25","44945","Female","null","","","","null","","3","","","","232895","0","","","","","","300","6700","308","7065","300","","","","","","","","","","","","","","","","","","","","","","","","","","","","","","","","","","","","","","","","","","","","","","","","","","",""
"","localizer","","html-keyboard-response","79","233619","0.0-2.0-6.0-0.0","25","44945","Female","241","","","","68","0","4","","Stimuli/Practice_stims/Localizer/randy-fath-epf1tdtIIkM-unsplash.jpg","","233203","0","NaN","","1","0","0","400","7000","416","7373","","","","","","","","","","","","","","","","","","","","","","","","","","","","","","","","","","","","","","","","","","","","","","","","","","","",""
"","iti_localizer","","html-keyboard-response","80","233936","0.0-2.0-6.0-1.0","25","44945","Female","null","","","","null","","4","","","","233619","0","","","","","","300","7400","317","7789","300","","","","","","","","","","","","","","","","","","","","","","","","","","","","","","","","","","","","","","","","","","","","","","","","","","",""
"","localizer","","html-keyboard-response","81","234356","0.0-2.0-7.0-0.0","25","44945","Female","72","","","","75","1","5","","Stimuli/Practice_stims/Localizer/yassine-khalfalli-adsQ9d_Cx0c-unsplash.jpg","","233936","0","NaN","","0","0","0","400","7700","420","8106","","","","","","","","","","","","","","","","","","","","","","","","","","","","","","","","","","","","","","","","","","","","","","","","","","","",""
"","iti_localizer","","html-keyboard-response","82","234702","0.0-2.0-7.0-1.0","25","44945","Female","null","","","","null","","5","","","","234356","0","","","","","","300","8100","346","8526","300","","","","","","","","","","","","","","","","","","","","","","","","","","","","","","","","","","","","","","","","","","","","","","","","","","",""
"","practice_over","","html-keyboard-response","83","234803","0.0-2.0-7.0-2.0-0.0","25","44945","Female","95","","","","68","","","","","","","","","","","","","","","","","","","","","","","","","","","","","","","","","","","","","","","","","","","","","","","","","","","","","","","","","","","","","","","","","","","",""
"","start_run","","html-keyboard-response","84","236484","0.0-2.0-7.0-2.0-1.0","25","44945","Female","1671","","","","84","","","","","","","","","","","","","","","","","","","","","","","","","","","","","","","","","","","","","","","","","","","","","","","","","","","","","","","","","","","","","","","","","","","",""
"","localizer","","html-keyboard-response","85","236903","0.0-2.0-8.0-0.0","25","44945","Female","NaN","","","","null","NaN","6","","Stimuli/Experimental_stims/localizer/body_parts/igordoon-primus-CdyHqfrbGIs-unsplash.jpg","","236484","1","body_parts","","0","1","0","400","0","419","0","","","","","","","","","","","","","","","","","","","","","","","","","","","","","","","","","","","","","","","","","","","","","","","","","","","",""
"","iti_localizer","","html-keyboard-response","86","237210","0.0-2.0-8.0-1.0","25","44945","Female","null","","","","null","","6","","","","236903","1","","","","","","300","400","307","419","300","","","","","","","","","","","","","","","","","","","","","","","","","","","","","","","","","","","","","","","","","","","","","","","","","","",""
"","localizer","","html-keyboard-response","87","237623","0.0-2.0-9.0-0.0","25","44945","Female","NaN","","","","null","NaN","7","","Stimuli/Experimental_stims/localizer/body_parts/jonathan-borba-hTwH8QFkPMs-unsplash.jpg","","237210","1","body_parts","","0","1","0","400","700","413","726","","","","","","","","","","","","","","","","","","","","","","","","","","","","","","","","","","","","","","","","","","","","","","","","","","","",""
"","iti_localizer","","html-keyboard-response","88","237949","0.0-2.0-9.0-1.0","25","44945","Female","null","","","","null","","7","","","","237623","1","","","","","","300","1100","326","1139","300","","","","","","","","","","","","","","","","","","","","","","","","","","","","","","","","","","","","","","","","","","","","","","","","","","",""
"","localizer","","html-keyboard-response","89","238407","0.0-2.0-10.0-0.0","25","44945","Female","20","","","","68","0","8","","Stimuli/Experimental_stims/localizer/body_parts/marcel-fagin-OUYg0Q3ec-Y-unsplash.jpg","","237949","1","body_parts","","1","0","0","400","1400","458","1465","","","","","","","","","","","","","","","","","","","","","","","","","","","","","","","","","","","","","","","","","","","","","","","","","","","",""
"","iti_localizer","","html-keyboard-response","90","238718","0.0-2.0-10.0-1.0","25","44945","Female","null","","","","null","","8","","","","238407","1","","","","","","300","1800","311","1923","300","","","","","","","","","","","","","","","","","","","","","","","","","","","","","","","","","","","","","","","","","","","","","","","","","","",""
"","localizer","","html-keyboard-response","91","239135","0.0-2.0-11.0-0.0","25","44945","Female","281","","","","75","1","9","","Stimuli/Experimental_stims/localizer/body_parts/anelya-okapova-V69kmOyZ3SU-unsplash.jpg","","238718","1","body_parts","","0","0","0","400","2100","417","2234","","","","","","","","","","","","","","","","","","","","","","","","","","","","","","","","","","","","","","","","","","","","","","","","","","","",""
"","iti_localizer","","html-keyboard-response","92","239458","0.0-2.0-11.0-1.0","25","44945","Female","null","","","","null","","9","","","","239135","1","","","","","","300","2500","323","2651","300","","","","","","","","","","","","","","","","","","","","","","","","","","","","","","","","","","","","","","","","","","","","","","","","","","",""
"","localizer","","html-keyboard-response","93","239875","0.0-2.0-12.0-0.0","25","44945","Female","117","","","","68","0","10","","Stimuli/Experimental_stims/localizer/body_parts/jan-romero-DL4DDQb8yjc-unsplash.jpg","","239458","1","body_parts","","0","0","1","400","2800","417","2974","","","","","","","","","","","","","","","","","","","","","","","","","","","","","","","","","","","","","","","","","","","","","","","","","","","",""
"","iti_localizer","","html-keyboard-response","94","240189","0.0-2.0-12.0-1.0","25","44945","Female","null","","","","null","","10","","","","239875","1","","","","","","300","3200","314","3391","300","","","","","","","","","","","","","","","","","","","","","","","","","","","","","","","","","","","","","","","","","","","","","","","","","","",""
"","localizer","","html-keyboard-response","95","240616","0.0-2.0-13.0-0.0","25","44945","Female","182","","","","75","1","11","","Stimuli/Experimental_stims/localizer/body_parts/pure-julia-9lVaya31sMk-unsplash.jpg","","240189","1","body_parts","","0","0","0","400","3500","427","3705","","","","","","","","","","","","","","","","","","","","","","","","","","","","","","","","","","","","","","","","","","","","","","","","","","","",""
"","iti_localizer","","html-keyboard-response","96","240935","0.0-2.0-13.0-1.0","25","44945","Female","null","","","","null","","11","","","","240616","1","","","","","","300","3900","319","4132","300","","","","","","","","","","","","","","","","","","","","","","","","","","","","","","","","","","","","","","","","","","","","","","","","","","",""
"","localizer","","html-keyboard-response","97","241351","0.0-2.0-14.0-0.0","25","44945","Female","NaN","","","","null","NaN","12","","Stimuli/Experimental_stims/localizer/body_parts/jasper-garratt-Ng_Kl7K6V8Y-unsplash.jpg","","240935","1","body_parts","","0","1","0","400","4200","416","4451","","","","","","","","","","","","","","","","","","","","","","","","","","","","","","","","","","","","","","","","","","","","","","","","","","","",""
"","iti_localizer","","html-keyboard-response","98","241661","0.0-2.0-14.0-1.0","25","44945","Female","null","","","","null","","12","","","","241351","1","","","","","","300","4600","310","4867","300","","","","","","","","","","","","","","","","","","","","","","","","","","","","","","","","","","","","","","","","","","","","","","","","","","",""
"","localizer","","html-keyboard-response","99","242083","0.0-2.0-15.0-0.0","25","44945","Female","0","","","","68","0","13","","Stimuli/Experimental_stims/localizer/body_parts/i-am_nah--S4OsO0c6Ts-unsplash.jpg","","241661","1","body_parts","","0","0","1","400","4900","422","5177","","","","","","","","","","","","","","","","","","","","","","","","","","","","","","","","","","","","","","","","","","","","","","","","","","","",""
"","iti_localizer","","html-keyboard-response","100","242394","0.0-2.0-15.0-1.0","25","44945","Female","null","","","","null","","13","","","","242083","1","","","","","","300","5300","311","5599","300","","","","","","","","","","","","","","","","","","","","","","","","","","","","","","","","","","","","","","","","","","","","","","","","","","",""
"","localizer","","html-keyboard-response","101","242815","0.0-2.0-16.0-0.0","25","44945","Female","102","","","","68","0","14","","Stimuli/Experimental_stims/localizer/body_parts/femme-spirit-RGYBDUHYbyM-unsplash.jpg","","242394","1","body_parts","","0","0","1","400","5600","421","5910","","","","","","","","","","","","","","","","","","","","","","","","","","","","","","","","","","","","","","","","","","","","","","","","","","","",""
"","iti_localizer","","html-keyboard-response","102","243135","0.0-2.0-16.0-1.0","25","44945","Female","null","","","","null","","14","","","","242815","1","","","","","","300","6000","320","6331","300","","","","","","","","","","","","","","","","","","","","","","","","","","","","","","","","","","","","","","","","","","","","","","","","","","",""
"","localizer","","html-keyboard-response","103","243585","0.0-2.0-17.0-0.0","25","44945","Female","112","","","","68","0","15","","Stimuli/Experimental_stims/localizer/body_parts/liv-bruce-M0oVPGsWk1E-unsplash.jpg","","243135","1","body_parts","","0","0","1","400","6300","450","6651","","","","","","","","","","","","","","","","","","","","","","","","","","","","","","","","","","","","","","","","","","","","","","","","","","","",""
"","iti_localizer","","html-keyboard-response","104","243904","0.0-2.0-17.0-1.0","25","44945","Female","null","","","","null","","15","","","","243585","1","","","","","","300","6700","319","7101","300","","","","","","","","","","","","","","","","","","","","","","","","","","","","","","","","","","","","","","","","","","","","","","","","","","",""
"","localizer","","html-keyboard-response","105","244408","0.0-2.0-18.0-0.0","25","44945","Female","NaN","","","","null","NaN","16","","Stimuli/Experimental_stims/localizer/body_parts/bady-abbas-N-VEeMnm7gE-unsplash.jpg","","243904","1","body_parts","","0","1","0","400","7000","504","7420","","","","","","","","","","","","","","","","","","","","","","","","","","","","","","","","","","","","","","","","","","","","","","","","","","","",""
"","iti_localizer","","html-keyboard-response","106","244739","0.0-2.0-18.0-1.0","25","44945","Female","null","","","","null","","16","","","","244408","1","","","","","","300","7400","331","7924","300","","","","","","","","","","","","","","","","","","","","","","","","","","","","","","","","","","","","","","","","","","","","","","","","","","",""
"","localizer","","html-keyboard-response","107","245158","0.0-2.0-19.0-0.0","25","44945","Female","NaN","","","","null","NaN","17","","Stimuli/Experimental_stims/localizer/body_parts/lucaxx-freire-CacZwMexYdk-unsplash.jpg","","244739","1","body_parts","","0","1","0","400","7700","419","8255","","","","","","","","","","","","","","","","","","","","","","","","","","","","","","","","","","","","","","","","","","","","","","","","","","","",""
"","iti_localizer","","html-keyboard-response","108","245518","0.0-2.0-19.0-1.0","25","44945","Female","null","","","","null","","17","","","","245158","1","","","","","","300","8100","360","8674","300","","","","","","","","","","","","","","","","","","","","","","","","","","","","","","","","","","","","","","","","","","","","","","","","","","",""
"","localizer","","html-keyboard-response","109","245926","0.0-2.0-20.0-0.0","25","44945","Female","75","","","","68","0","18","","Stimuli/Experimental_stims/localizer/body_parts/hu-chen-tCbTGNwrFNM-unsplash.jpg","","245518","1","body_parts","","0","0","1","400","8400","408","9034","","","","","","","","","","","","","","","","","","","","","","","","","","","","","","","","","","","","","","","","","","","","","","","","","","","",""
"","iti_localizer","","html-keyboard-response","110","246244","0.0-2.0-20.0-1.0","25","44945","Female","null","","","","null","","18","","","","245926","1","","","","","","300","8800","318","9442","300","","","","","","","","","","","","","","","","","","","","","","","","","","","","","","","","","","","","","","","","","","","","","","","","","","",""
"","localizer","","html-keyboard-response","111","246661","0.0-2.0-21.0-0.0","25","44945","Female","166","","","","68","0","19","","Stimuli/Experimental_stims/localizer/body_parts/megan-menegay-UojxG_BJxnI-unsplash.jpg","","246244","1","body_parts","","0","0","1","400","9100","417","9760","","","","","","","","","","","","","","","","","","","","","","","","","","","","","","","","","","","","","","","","","","","","","","","","","","","",""
"","iti_localizer","","html-keyboard-response","112","246973","0.0-2.0-21.0-1.0","25","44945","Female","null","","","","null","","19","","","","246661","1","","","","","","300","9500","312","10177","300","","","","","","","","","","","","","","","","","","","","","","","","","","","","","","","","","","","","","","","","","","","","","","","","","","",""
"","localizer","","html-keyboard-response","113","247390","0.0-2.0-22.0-0.0","25","44945","Female","117","","","","68","0","20","","Stimuli/Experimental_stims/localizer/body_parts/toan-nguyen-VIeLuUFzesg-unsplash.jpg","","246973","1","body_parts","","1","0","0","400","9800","417","10489","","","","","","","","","","","","","","","","","","","","","","","","","","","","","","","","","","","","","","","","","","","","","","","","","","","",""
"","iti_localizer","","html-keyboard-response","114","247706","0.0-2.0-22.0-1.0","25","44945","Female","null","","","","null","","20","","","","247390","1","","","","","","300","10200","316","10906","300","","","","","","","","","","","","","","","","","","","","","","","","","","","","","","","","","","","","","","","","","","","","","","","","","","",""
"","localizer","","html-keyboard-response","115","248144","0.0-2.0-23.0-0.0","25","44945","Female","121","","","","75","1","21","","Stimuli/Experimental_stims/localizer/body_parts/sippakorn-yamkasikorn-32_sJlJa5gA-unsplash.jpg","","247706","1","body_parts","","0","0","0","400","10500","438","11222","","","","","","","","","","","","","","","","","","","","","","","","","","","","","","","","","","","","","","","","","","","","","","","","","","","",""
"","iti_localizer","","html-keyboard-response","116","248470","0.0-2.0-23.0-1.0","25","44945","Female","null","","","","null","","21","","","","248144","1","","","","","","300","10900","326","11660","300","","","","","","","","","","","","","","","","","","","","","","","","","","","","","","","","","","","","","","","","","","","","","","","","","","",""
"","localizer","","html-keyboard-response","117","248894","0.0-2.0-24.0-0.0","25","44945","Female","NaN","","","","null","NaN","22","","Stimuli/Experimental_stims/localizer/body_parts/louis-hansel-FjKTMRTQYAs-unsplash.jpg","","248470","1","body_parts","","0","1","0","400","11200","424","11986","","","","","","","","","","","","","","","","","","","","","","","","","","","","","","","","","","","","","","","","","","","","","","","","","","","",""
"","iti_localizer","","html-keyboard-response","118","249211","0.0-2.0-24.0-1.0","25","44945","Female","null","","","","null","","22","","","","248894","1","","","","","","300","11600","317","12410","300","","","","","","","","","","","","","","","","","","","","","","","","","","","","","","","","","","","","","","","","","","","","","","","","","","",""
"","localizer","","html-keyboard-response","119","249743","0.0-2.0-25.0-0.0","25","44945","Female","NaN","","","","null","NaN","23","","Stimuli/Experimental_stims/localizer/body_parts/sydney-herron-b2W04fGuS70-unsplash.jpg","","249211","1","body_parts","","0","1","0","400","11900","532","12727","","","","","","","","","","","","","","","","","","","","","","","","","","","","","","","","","","","","","","","","","","","","","","","","","","","",""
"","iti_localizer","","html-keyboard-response","120","250048","0.0-2.0-25.0-1.0","25","44945","Female","null","","","","null","","23","","","","249743","1","","","","","","300","12300","305","13259","300","","","","","","","","","","","","","","","","","","","","","","","","","","","","","","","","","","","","","","","","","","","","","","","","","","",""
"","localizer","","html-keyboard-response","121","250457","0.0-2.0-26.0-0.0","25","44945","Female","NaN","","","","null","NaN","24","","Stimuli/Experimental_stims/localizer/body_parts/danie-franco-jyyNiSEcCl4-unsplash.jpg","","250048","1","body_parts","","0","1","0","400","12600","409","13564","","","","","","","","","","","","","","","","","","","","","","","","","","","","","","","","","","","","","","","","","","","","","","","","","","","",""
"","iti_localizer","","html-keyboard-response","122","250770","0.0-2.0-26.0-1.0","25","44945","Female","null","","","","null","","24","","","","250457","1","","","","","","300","13000","313","13973","300","","","","","","","","","","","","","","","","","","","","","","","","","","","","","","","","","","","","","","","","","","","","","","","","","","",""
"","localizer","","html-keyboard-response","123","251190","0.0-2.0-27.0-0.0","25","44945","Female","29","","","","68","0","25","","Stimuli/Experimental_stims/localizer/body_parts/ramesh-iyer-CRhznMXoJlc-unsplash.jpg","","250770","1","body_parts","","0","0","1","400","13300","420","14286","","","","","","","","","","","","","","","","","","","","","","","","","","","","","","","","","","","","","","","","","","","","","","","","","","","",""
"","iti_localizer","","html-keyboard-response","124","265210","0.0-2.0-27.0-1.0","25","44945","Female","null","","","","null","","25","","","","251190","1","","","","","","14000","13700","14020","14706","14000","","","","","","","","","","","","","","","","","","","","","","","","","","","","","","","","","","","","","","","","","","","","","","","","","","",""
"","localizer","","html-keyboard-response","125","265665","0.0-2.0-28.0-0.0","25","44945","Female","NaN","","","","null","NaN","26","","Stimuli/Experimental_stims/localizer/objects/adriano-pucciarelli-BE7yaZnZX6o-unsplash.jpg","","265210","1","objects","","0","1","0","400","27700","455","28726","","","","","","","","","","","","","","","","","","","","","","","","","","","","","","","","","","","","","","","","","","","","","","","","","","","",""
"","iti_localizer","","html-keyboard-response","126","265976","0.0-2.0-28.0-1.0","25","44945","Female","null","","","","null","","26","","","","265665","1","","","","","","300","28100","311","29181","300","","","","","","","","","","","","","","","","","","","","","","","","","","","","","","","","","","","","","","","","","","","","","","","","","","",""
"","localizer","","html-keyboard-response","127","266390","0.0-2.0-29.0-0.0","25","44945","Female","218","","","","68","0","27","","Stimuli/Experimental_stims/localizer/objects/petr-sidorov-3jm5TGqtULU-unsplash.jpg","","265976","1","objects","","0","0","1","400","28400","414","29492","","","","","","","","","","","","","","","","","","","","","","","","","","","","","","","","","","","","","","","","","","","","","","","","","","","",""
"","iti_localizer","","html-keyboard-response","128","266766","0.0-2.0-29.0-1.0","25","44945","Female","null","","","","null","","27","","","","266390","1","","","","","","300","28800","376","29906","300","","","","","","","","","","","","","","","","","","","","","","","","","","","","","","","","","","","","","","","","","","","","","","","","","","",""
"","localizer","","html-keyboard-response","129","267184","0.0-2.0-30.0-0.0","25","44945","Female","60","","","","68","0","28","","Stimuli/Experimental_stims/localizer/objects/carlos-felipe-ramirez-mesa-HW7bfB3ERSQ-unsplash.jpg","","266766","1","objects","","0","0","1","400","29100","418","30282","","","","","","","","","","","","","","","","","","","","","","","","","","","","","","","","","","","","","","","","","","","","","","","","","","","",""
"","iti_localizer","","html-keyboard-response","130","267500","0.0-2.0-30.0-1.0","25","44945","Female","null","","","","null","","28","","","","267184","1","","","","","","300","29500","316","30700","300","","","","","","","","","","","","","","","","","","","","","","","","","","","","","","","","","","","","","","","","","","","","","","","","","","",""
"","localizer","","html-keyboard-response","131","267913","0.0-2.0-31.0-0.0","25","44945","Female","217","","","","68","0","29","","Stimuli/Experimental_stims/localizer/objects/raimond-klavins-ZdvDPXVvcKs-unsplash.jpg","","267500","1","objects","","1","0","0","400","29800","413","31016","","","","","","","","","","","","","","","","","","","","","","","","","","","","","","","","","","","","","","","","","","","","","","","","","","","",""
"","iti_localizer","","html-keyboard-response","132","268239","0.0-2.0-31.0-1.0","25","44945","Female","null","","","","null","","29","","","","267913","1","","","","","","300","30200","326","31429","300","","","","","","","","","","","","","","","","","","","","","","","","","","","","","","","","","","","","","","","","","","","","","","","","","","",""
"","localizer","","html-keyboard-response","133","268652","0.0-2.0-32.0-0.0","25","44945","Female","79","","","","68","0","30","","Stimuli/Experimental_stims/localizer/objects/adriano-pucciarelli-Jl3S1yM8gi8-unsplash.jpg","","268239","1","objects","","0","0","1","400","30500","413","31755","","","","","","","","","","","","","","","","","","","","","","","","","","","","","","","","","","","","","","","","","","","","","","","","","","","",""
"","iti_localizer","","html-keyboard-response","134","268969","0.0-2.0-32.0-1.0","25","44945","Female","null","","","","null","","30","","","","268652","1","","","","","","300","30900","317","32168","300","","","","","","","","","","","","","","","","","","","","","","","","","","","","","","","","","","","","","","","","","","","","","","","","","","",""
"","localizer","","html-keyboard-response","135","269387","0.0-2.0-33.0-0.0","25","44945","Female","158","","","","68","0","31","","Stimuli/Experimental_stims/localizer/objects/engin-akyurt-bbbKzTmY2Gg-unsplash.jpg","","268969","1","objects","","0","0","1","400","31200","418","32485","","","","","","","","","","","","","","","","","","","","","","","","","","","","","","","","","","","","","","","","","","","","","","","","","","","",""
"","iti_localizer","","html-keyboard-response","136","269724","0.0-2.0-33.0-1.0","25","44945","Female","null","","","","null","","31","","","","269387","1","","","","","","300","31600","337","32903","300","","","","","","","","","","","","","","","","","","","","","","","","","","","","","","","","","","","","","","","","","","","","","","","","","","",""
"","localizer","","html-keyboard-response","137","270139","0.0-2.0-34.0-0.0","25","44945","Female","101","","","","68","0","32","","Stimuli/Experimental_stims/localizer/objects/sam-moghadam-khamseh-kvmdsTrGOBM-unsplash.jpg","","269724","1","objects","","0","0","1","400","31900","415","33240","","","","","","","","","","","","","","","","","","","","","","","","","","","","","","","","","","","","","","","","","","","","","","","","","","","",""
"","iti_localizer","","html-keyboard-response","138","270446","0.0-2.0-34.0-1.0","25","44945","Female","null","","","","null","","32","","","","270139","1","","","","","","300","32300","307","33655","300","","","","","","","","","","","","","","","","","","","","","","","","","","","","","","","","","","","","","","","","","","","","","","","","","","",""
"","localizer","","html-keyboard-response","139","270860","0.0-2.0-35.0-0.0","25","44945","Female","NaN","","","","null","NaN","33","","Stimuli/Experimental_stims/localizer/objects/jiangxulei1990-eIzzzwtkBjU-unsplash.jpg","","270446","1","objects","","0","1","0","400","32600","414","33962","","","","","","","","","","","","","","","","","","","","","","","","","","","","","","","","","","","","","","","","","","","","","","","","","","","",""
"","iti_localizer","","html-keyboard-response","140","271173","0.0-2.0-35.0-1.0","25","44945","Female","null","","","","null","","33","","","","270860","1","","","","","","300","33000","313","34376","300","","","","","","","","","","","","","","","","","","","","","","","","","","","","","","","","","","","","","","","","","","","","","","","","","","",""
"","localizer","","html-keyboard-response","141","271587","0.0-2.0-36.0-0.0","25","44945","Female","225","","","","68","0","34","","Stimuli/Experimental_stims/localizer/objects/florian-klauer-nptLmg6jqDo-unsplash.jpg","","271173","1","objects","","0","0","1","400","33300","414","34689","","","","","","","","","","","","","","","","","","","","","","","","","","","","","","","","","","","","","","","","","","","","","","","","","","","",""
"","iti_localizer","","html-keyboard-response","142","271903","0.0-2.0-36.0-1.0","25","44945","Female","null","","","","null","","34","","","","271587","1","","","","","","300","33700","316","35103","300","","","","","","","","","","","","","","","","","","","","","","","","","","","","","","","","","","","","","","","","","","","","","","","","","","",""
"","localizer","","html-keyboard-response","143","272317","0.0-2.0-37.0-0.0","25","44945","Female","1","","","","68","0","35","","Stimuli/Experimental_stims/localizer/objects/ignat-dolomanov-kFBDVnmskPA-unsplash.jpg","","271903","1","objects","","0","0","1","400","34000","414","35419","","","","","","","","","","","","","","","","","","","","","","","","","","","","","","","","","","","","","","","","","","","","","","","","","","","",""
"","iti_localizer","","html-keyboard-response","144","272635","0.0-2.0-37.0-1.0","25","44945","Female","null","","","","null","","35","","","","272317","1","","","","","","300","34400","318","35833","300","","","","","","","","","","","","","","","","","","","","","","","","","","","","","","","","","","","","","","","","","","","","","","","","","","",""
"","localizer","","html-keyboard-response","145","273051","0.0-2.0-38.0-0.0","25","44945","Female","NaN","","","","null","NaN","36","","Stimuli/Experimental_stims/localizer/objects/andrew-petrov-TVJqDat4MAw-unsplash.jpg","","272635","1","objects","","0","1","0","400","34700","416","36151","","","","","","","","","","","","","","","","","","","","","","","","","","","","","","","","","","","","","","","","","","","","","","","","","","","",""
"","iti_localizer","","html-keyboard-response","146","273365","0.0-2.0-38.0-1.0","25","44945","Female","null","","","","null","","36","","","","273051","1","","","","","","300","35100","314","36567","300","","","","","","","","","","","","","","","","","","","","","","","","","","","","","","","","","","","","","","","","","","","","","","","","","","",""
"","localizer","","html-keyboard-response","147","273783","0.0-2.0-39.0-0.0","25","44945","Female","NaN","","","","null","NaN","37","","Stimuli/Experimental_stims/localizer/objects/sam-moghadam-khamseh-L_7MQsHl_aU-unsplash.jpg","","273365","1","objects","","0","1","0","400","35400","418","36881","","","","","","","","","","","","","","","","","","","","","","","","","","","","","","","","","","","","","","","","","","","","","","","","","","","",""
"","iti_localizer","","html-keyboard-response","148","274094","0.0-2.0-39.0-1.0","25","44945","Female","null","","","","null","","37","","","","273783","1","","","","","","300","35800","311","37299","300","","","","","","","","","","","","","","","","","","","","","","","","","","","","","","","","","","","","","","","","","","","","","","","","","","",""
"","localizer","","html-keyboard-response","149","274503","0.0-2.0-40.0-0.0","25","44945","Female","7","","","","68","0","38","","Stimuli/Experimental_stims/localizer/objects/ana-9GmAaEMMKho-unsplash.jpg","","274094","1","objects","","0","0","1","400","36100","409","37610","","","","","","","","","","","","","","","","","","","","","","","","","","","","","","","","","","","","","","","","","","","","","","","","","","","",""
"","iti_localizer","","html-keyboard-response","150","274815","0.0-2.0-40.0-1.0","25","44945","Female","null","","","","null","","38","","","","274503","1","","","","","","300","36500","312","38019","300","","","","","","","","","","","","","","","","","","","","","","","","","","","","","","","","","","","","","","","","","","","","","","","","","","",""
"","localizer","","html-keyboard-response","151","275226","0.0-2.0-41.0-0.0","25","44945","Female","NaN","","","","null","NaN","39","","Stimuli/Experimental_stims/localizer/objects/mockup-graphics-U6ZMEefFGx8-unsplash.jpg","","274815","1","objects","","0","1","0","400","36800","411","38331","","","","","","","","","","","","","","","","","","","","","","","","","","","","","","","","","","","","","","","","","","","","","","","","","","","",""
"","iti_localizer","","html-keyboard-response","152","275538","0.0-2.0-41.0-1.0","25","44945","Female","null","","","","null","","39","","","","275226","1","","","","","","300","37200","312","38742","300","","","","","","","","","","","","","","","","","","","","","","","","","","","","","","","","","","","","","","","","","","","","","","","","","","",""
"","localizer","","html-keyboard-response","153","275949","0.0-2.0-42.0-0.0","25","44945","Female","14","","","","68","0","40","","Stimuli/Experimental_stims/localizer/objects/kelly-jean-cKjbI0Y00X0-unsplash.jpg","","275538","1","objects","","0","0","1","400","37500","411","39054","","","","","","","","","","","","","","","","","","","","","","","","","","","","","","","","","","","","","","","","","","","","","","","","","","","",""
"","iti_localizer","","html-keyboard-response","154","276277","0.0-2.0-42.0-1.0","25","44945","Female","null","","","","null","","40","","","","275949","1","","","","","","300","37900","328","39465","300","","","","","","","","","","","","","","","","","","","","","","","","","","","","","","","","","","","","","","","","","","","","","","","","","","",""
"","localizer","","html-keyboard-response","155","276735","0.0-2.0-43.0-0.0","25","44945","Female","NaN","","","","null","NaN","41","","Stimuli/Experimental_stims/localizer/objects/eugene-chystiakov-3neSwyntbQ8-unsplash.jpg","","276277","1","objects","","0","1","0","400","38200","458","39793","","","","","","","","","","","","","","","","","","","","","","","","","","","","","","","","","","","","","","","","","","","","","","","","","","","",""
"","iti_localizer","","html-keyboard-response","156","277054","0.0-2.0-43.0-1.0","25","44945","Female","null","","","","null","","41","","","","276735","1","","","","","","300","38600","319","40251","300","","","","","","","","","","","","","","","","","","","","","","","","","","","","","","","","","","","","","","","","","","","","","","","","","","",""
"","localizer","","html-keyboard-response","157","277467","0.0-2.0-44.0-0.0","25","44945","Female","15","","","","68","0","42","","Stimuli/Experimental_stims/localizer/objects/lance-reis-v0FYj9iioQg-unsplash.jpg","","277054","1","objects","","0","0","1","400","38900","413","40570","","","","","","","","","","","","","","","","","","","","","","","","","","","","","","","","","","","","","","","","","","","","","","","","","","","",""
"","iti_localizer","","html-keyboard-response","158","277802","0.0-2.0-44.0-1.0","25","44945","Female","null","","","","null","","42","","","","277467","1","","","","","","300","39300","335","40983","300","","","","","","","","","","","","","","","","","","","","","","","","","","","","","","","","","","","","","","","","","","","","","","","","","","",""
"","localizer","","html-keyboard-response","159","278223","0.0-2.0-45.0-0.0","25","44945","Female","86","","","","68","0","43","","Stimuli/Experimental_stims/localizer/objects/annie-spratt-fbAnIjhrOL4-unsplash.jpg","","277802","1","objects","","0","0","1","400","39600","421","41318","","","","","","","","","","","","","","","","","","","","","","","","","","","","","","","","","","","","","","","","","","","","","","","","","","","",""
"","iti_localizer","","html-keyboard-response","160","278537","0.0-2.0-45.0-1.0","25","44945","Female","null","","","","null","","43","","","","278223","1","","","","","","300","40000","314","41739","300","","","","","","","","","","","","","","","","","","","","","","","","","","","","","","","","","","","","","","","","","","","","","","","","","","",""
"","localizer","","html-keyboard-response","161","278954","0.0-2.0-46.0-0.0","25","44945","Female","23","","","","68","0","44","","Stimuli/Experimental_stims/localizer/objects/mockup-graphics-Pj2PY-E-LfM-unsplash.jpg","","278537","1","objects","","1","0","0","400","40300","417","42053","","","","","","","","","","","","","","","","","","","","","","","","","","","","","","","","","","","","","","","","","","","","","","","","","","","",""
"","iti_localizer","","html-keyboard-response","162","279274","0.0-2.0-46.0-1.0","25","44945","Female","null","","","","null","","44","","","","278954","1","","","","","","300","40700","320","42470","300","","","","","","","","","","","","","","","","","","","","","","","","","","","","","","","","","","","","","","","","","","","","","","","","","","",""
"","localizer","","html-keyboard-response","163","279697","0.0-2.0-47.0-0.0","25","44945","Female","134","","","","75","1","45","","Stimuli/Experimental_stims/localizer/objects/dario-mendez-hnJ2VNZzbns-unsplash.jpg","","279274","1","objects","","0","0","0","400","41000","423","42790","","","","","","","","","","","","","","","","","","","","","","","","","","","","","","","","","","","","","","","","","","","","","","","","","","","",""
"","iti_localizer","","html-keyboard-response","164","293712","0.0-2.0-47.0-1.0","25","44945","Female","null","","","","null","","45","","","","279697","1","","","","","","14000","41400","14015","43213","14000","","","","","","","","","","","","","","","","","","","","","","","","","","","","","","","","","","","","","","","","","","","","","","","","","","",""
"","localizer","","html-keyboard-response","165","294132","0.0-2.0-48.0-0.0","25","44945","Female","64","","","","68","0","46","","Stimuli/Experimental_stims/localizer/faces/christian-ferrer-8vT-DgHZDG4-unsplash.jpg","","293712","1","faces","","1","0","0","400","55400","420","57228","","","","","","","","","","","","","","","","","","","","","","","","","","","","","","","","","","","","","","","","","","","","","","","","","","","",""
"","iti_localizer","","html-keyboard-response","166","294506","0.0-2.0-48.0-1.0","25","44945","Female","null","","","","null","","46","","","","294132","1","","","","","","300","55800","374","57648","300","","","","","","","","","","","","","","","","","","","","","","","","","","","","","","","","","","","","","","","","","","","","","","","","","","",""
"","localizer","","html-keyboard-response","167","294917","0.0-2.0-49.0-0.0","25","44945","Female","289","","","","75","1","47","","Stimuli/Experimental_stims/localizer/faces/mathias-huysmans-U4JDjYmjn1g-unsplash.jpg","","294506","1","faces","","0","0","0","400","56100","411","58022","","","","","","","","","","","","","","","","","","","","","","","","","","","","","","","","","","","","","","","","","","","","","","","","","","","",""
"","iti_localizer","","html-keyboard-response","168","295234","0.0-2.0-49.0-1.0","25","44945","Female","null","","","","null","","47","","","","294917","1","","","","","","300","56500","317","58433","300","","","","","","","","","","","","","","","","","","","","","","","","","","","","","","","","","","","","","","","","","","","","","","","","","","",""
"","localizer","","html-keyboard-response","169","295679","0.0-2.0-50.0-0.0","25","44945","Female","233","","","","68","0","48","","Stimuli/Experimental_stims/localizer/faces/filipe-almeida-mnEWC72eWDM-unsplash.jpg","","295234","1","faces","","0","0","1","400","56800","445","58750","","","","","","","","","","","","","","","","","","","","","","","","","","","","","","","","","","","","","","","","","","","","","","","","","","","",""
"","iti_localizer","","html-keyboard-response","170","295990","0.0-2.0-50.0-1.0","25","44945","Female","null","","","","null","","48","","","","295679","1","","","","","","300","57200","311","59195","300","","","","","","","","","","","","","","","","","","","","","","","","","","","","","","","","","","","","","","","","","","","","","","","","","","",""
"","localizer","","html-keyboard-response","171","296403","0.0-2.0-51.0-0.0","25","44945","Female","46","","","","68","0","49","","Stimuli/Experimental_stims/localizer/faces/midas-hofstra-tidSLv-UaNs-unsplash.jpg","","295990","1","faces","","0","0","1","400","57500","413","59506","","","","","","","","","","","","","","","","","","","","","","","","","","","","","","","","","","","","","","","","","","","","","","","","","","","",""
"","iti_localizer","","html-keyboard-response","172","296712","0.0-2.0-51.0-1.0","25","44945","Female","null","","","","null","","49","","","","296403","1","","","","","","300","57900","309","59919","300","","","","","","","","","","","","","","","","","","","","","","","","","","","","","","","","","","","","","","","","","","","","","","","","","","",""
"","localizer","","html-keyboard-response","173","297132","0.0-2.0-52.0-0.0","25","44945","Female","18","","","","68","0","50","","Stimuli/Experimental_stims/localizer/faces/darshan-patel-QJEVpydulGs-unsplash.jpg","","296712","1","faces","","0","0","1","400","58200","420","60228","","","","","","","","","","","","","","","","","","","","","","","","","","","","","","","","","","","","","","","","","","","","","","","","","","","",""
"","iti_localizer","","html-keyboard-response","174","297460","0.0-2.0-52.0-1.0","25","44945","Female","null","","","","null","","50","","","","297132","1","","","","","","300","58600","328","60648","300","","","","","","","","","","","","","","","","","","","","","","","","","","","","","","","","","","","","","","","","","","","","","","","","","","",""
"","localizer","","html-keyboard-response","175","297904","0.0-2.0-53.0-0.0","25","44945","Female","NaN","","","","null","NaN","51","","Stimuli/Experimental_stims/localizer/faces/ivan-dodig-R21SyyJDFgc-unsplash.jpg","","297460","1","faces","","0","1","0","400","58900","444","60976","","","","","","","","","","","","","","","","","","","","","","","","","","","","","","","","","","","","","","","","","","","","","","","","","","","",""
"","iti_localizer","","html-keyboard-response","176","298230","0.0-2.0-53.0-1.0","25","44945","Female","null","","","","null","","51","","","","297904","1","","","","","","300","59300","326","61420","300","","","","","","","","","","","","","","","","","","","","","","","","","","","","","","","","","","","","","","","","","","","","","","","","","","",""
"","localizer","","html-keyboard-response","177","298652","0.0-2.0-54.0-0.0","25","44945","Female","283","","","","75","1","52","","Stimuli/Experimental_stims/localizer/faces/austin-wade-X6Uj51n5CE8-unsplash.jpg","","298230","1","faces","","0","0","0","400","59600","422","61746","","","","","","","","","","","","","","","","","","","","","","","","","","","","","","","","","","","","","","","","","","","","","","","","","","","",""
"","iti_localizer","","html-keyboard-response","178","298976","0.0-2.0-54.0-1.0","25","44945","Female","null","","","","null","","52","","","","298652","1","","","","","","300","60000","324","62168","300","","","","","","","","","","","","","","","","","","","","","","","","","","","","","","","","","","","","","","","","","","","","","","","","","","",""
"","localizer","","html-keyboard-response","179","299405","0.0-2.0-55.0-0.0","25","44945","Female","67","","","","68","0","53","","Stimuli/Experimental_stims/localizer/faces/linkedin-sales-solutions-pAtA8xe_iVM-unsplash.jpg","","298976","1","faces","","0","0","1","400","60300","429","62492","","","","","","","","","","","","","","","","","","","","","","","","","","","","","","","","","","","","","","","","","","","","","","","","","","","",""
"","iti_localizer","","html-keyboard-response","180","299714","0.0-2.0-55.0-1.0","25","44945","Female","null","","","","null","","53","","","","299405","1","","","","","","300","60700","309","62921","300","","","","","","","","","","","","","","","","","","","","","","","","","","","","","","","","","","","","","","","","","","","","","","","","","","",""
"","localizer","","html-keyboard-response","181","300131","0.0-2.0-56.0-0.0","25","44945","Female","NaN","","","","null","NaN","54","","Stimuli/Experimental_stims/localizer/faces/pavel-anoshin-d0peGya6R5Y-unsplash.jpg","","299714","1","faces","","0","1","0","400","61000","417","63230","","","","","","","","","","","","","","","","","","","","","","","","","","","","","","","","","","","","","","","","","","","","","","","","","","","",""
"","iti_localizer","","html-keyboard-response","182","300446","0.0-2.0-56.0-1.0","25","44945","Female","null","","","","null","","54","","","","300131","1","","","","","","300","61400","315","63647","300","","","","","","","","","","","","","","","","","","","","","","","","","","","","","","","","","","","","","","","","","","","","","","","","","","",""
"","localizer","","html-keyboard-response","183","300861","0.0-2.0-57.0-0.0","25","44945","Female","99","","","","68","0","55","","Stimuli/Experimental_stims/localizer/faces/jeffery-erhunse-vp9mRauo68c-unsplash.jpg","","300446","1","faces","","0","0","1","400","61700","415","63962","","","","","","","","","","","","","","","","","","","","","","","","","","","","","","","","","","","","","","","","","","","","","","","","","","","",""
"","iti_localizer","","html-keyboard-response","184","301183","0.0-2.0-57.0-1.0","25","44945","Female","null","","","","null","","55","","","","300861","1","","","","","","300","62100","322","64377","300","","","","","","","","","","","","","","","","","","","","","","","","","","","","","","","","","","","","","","","","","","","","","","","","","","",""
"","localizer","","html-keyboard-response","185","301591","0.0-2.0-58.0-0.0","25","44945","Female","43","","","","68","0","56","","Stimuli/Experimental_stims/localizer/faces/aatik-tasneem-7omHUGhhmZ0-unsplash.jpg","","301183","1","faces","","0","0","1","400","62400","408","64699","","","","","","","","","","","","","","","","","","","","","","","","","","","","","","","","","","","","","","","","","","","","","","","","","","","",""
"","iti_localizer","","html-keyboard-response","186","301922","0.0-2.0-58.0-1.0","25","44945","Female","null","","","","null","","56","","","","301591","1","","","","","","300","62800","331","65107","300","","","","","","","","","","","","","","","","","","","","","","","","","","","","","","","","","","","","","","","","","","","","","","","","","","",""
"","localizer","","html-keyboard-response","187","302342","0.0-2.0-59.0-0.0","25","44945","Female","23","","","","68","0","57","","Stimuli/Experimental_stims/localizer/faces/abstral-official-cyOKLSgkgCE-unsplash.jpg","","301922","1","faces","","0","0","1","400","63100","420","65438","","","","","","","","","","","","","","","","","","","","","","","","","","","","","","","","","","","","","","","","","","","","","","","","","","","",""
"","iti_localizer","","html-keyboard-response","188","302650","0.0-2.0-59.0-1.0","25","44945","Female","null","","","","null","","57","","","","302342","1","","","","","","300","63500","308","65858","300","","","","","","","","","","","","","","","","","","","","","","","","","","","","","","","","","","","","","","","","","","","","","","","","","","",""
"","localizer","","html-keyboard-response","189","303069","0.0-2.0-60.0-0.0","25","44945","Female","NaN","","","","null","NaN","58","","Stimuli/Experimental_stims/localizer/faces/brooke-cagle-Nm70URdtf3c-unsplash (1).jpg","","302650","1","faces","","0","1","0","400","63800","419","66166","","","","","","","","","","","","","","","","","","","","","","","","","","","","","","","","","","","","","","","","","","","","","","","","","","","",""
"","iti_localizer","","html-keyboard-response","190","303387","0.0-2.0-60.0-1.0","25","44945","Female","null","","","","null","","58","","","","303069","1","","","","","","300","64200","318","66585","300","","","","","","","","","","","","","","","","","","","","","","","","","","","","","","","","","","","","","","","","","","","","","","","","","","",""
"","localizer","","html-keyboard-response","191","303809","0.0-2.0-61.0-0.0","25","44945","Female","NaN","","","","null","NaN","59","","Stimuli/Experimental_stims/localizer/faces/icons8-team-6LZuSzSwso0-unsplash.jpg","","303387","1","faces","","0","1","0","400","64500","422","66903","","","","","","","","","","","","","","","","","","","","","","","","","","","","","","","","","","","","","","","","","","","","","","","","","","","",""
"","iti_localizer","","html-keyboard-response","192","304131","0.0-2.0-61.0-1.0","25","44945","Female","null","","","","null","","59","","","","303809","1","","","","","","300","64900","322","67325","300","","","","","","","","","","","","","","","","","","","","","","","","","","","","","","","","","","","","","","","","","","","","","","","","","","",""
"","localizer","","html-keyboard-response","193","304555","0.0-2.0-62.0-0.0","25","44945","Female","NaN","","","","null","NaN","60","","Stimuli/Experimental_stims/localizer/faces/christina-wocintechchat-com-0Zx1bDv5BNY-unsplash.jpg","","304131","1","faces","","0","1","0","400","65200","424","67647","","","","","","","","","","","","","","","","","","","","","","","","","","","","","","","","","","","","","","","","","","","","","","","","","","","",""
"","iti_localizer","","html-keyboard-response","194","304867","0.0-2.0-62.0-1.0","25","44945","Female","null","","","","null","","60","","","","304555","1","","","","","","300","65600","312","68071","300","","","","","","","","","","","","","","","","","","","","","","","","","","","","","","","","","","","","","","","","","","","","","","","","","","",""
"","localizer","","html-keyboard-response","195","305279","0.0-2.0-63.0-0.0","25","44945","Female","NaN","","","","null","NaN","61","","Stimuli/Experimental_stims/localizer/faces/juan-encalada-WC7KIHo13Fc-unsplash.jpg","","304867","1","faces","","0","1","0","400","65900","412","68383","","","","","","","","","","","","","","","","","","","","","","","","","","","","","","","","","","","","","","","","","","","","","","","","","","","",""
"","iti_localizer","","html-keyboard-response","196","305586","0.0-2.0-63.0-1.0","25","44945","Female","null","","","","null","","61","","","","305279","1","","","","","","300","66300","307","68795","300","","","","","","","","","","","","","","","","","","","","","","","","","","","","","","","","","","","","","","","","","","","","","","","","","","",""
"","localizer","","html-keyboard-response","197","306030","0.0-2.0-64.0-0.0","25","44945","Female","NaN","","","","null","NaN","62","","Stimuli/Experimental_stims/localizer/faces/nick-karvounis-JyO_szjGvUw-unsplash.jpg","","305586","1","faces","","0","1","0","400","66600","444","69102","","","","","","","","","","","","","","","","","","","","","","","","","","","","","","","","","","","","","","","","","","","","","","","","","","","",""
"","iti_localizer","","html-keyboard-response","198","306369","0.0-2.0-64.0-1.0","25","44945","Female","null","","","","null","","62","","","","306030","1","","","","","","300","67000","339","69546","300","","","","","","","","","","","","","","","","","","","","","","","","","","","","","","","","","","","","","","","","","","","","","","","","","","",""
"","localizer","","html-keyboard-response","199","306790","0.0-2.0-65.0-0.0","25","44945","Female","NaN","","","","null","NaN","63","","Stimuli/Experimental_stims/localizer/faces/carlos-vaz-KP4bxnxAilU-unsplash.jpg","","306369","1","faces","","0","1","0","400","67300","421","69885","","","","","","","","","","","","","","","","","","","","","","","","","","","","","","","","","","","","","","","","","","","","","","","","","","","",""
"","iti_localizer","","html-keyboard-response","200","307106","0.0-2.0-65.0-1.0","25","44945","Female","null","","","","null","","63","","","","306790","1","","","","","","300","67700","316","70306","300","","","","","","","","","","","","","","","","","","","","","","","","","","","","","","","","","","","","","","","","","","","","","","","","","","",""
"","localizer","","html-keyboard-response","201","307526","0.0-2.0-66.0-0.0","25","44945","Female","70","","","","68","0","64","","Stimuli/Experimental_stims/localizer/faces/tyler-nix-ZGa9d1a_4tA-unsplash.jpg","","307106","1","faces","","1","0","0","400","68000","420","70622","","","","","","","","","","","","","","","","","","","","","","","","","","","","","","","","","","","","","","","","","","","","","","","","","","","",""
"","iti_localizer","","html-keyboard-response","202","307893","0.0-2.0-66.0-1.0","25","44945","Female","null","","","","null","","64","","","","307526","1","","","","","","300","68400","367","71042","300","","","","","","","","","","","","","","","","","","","","","","","","","","","","","","","","","","","","","","","","","","","","","","","","","","",""
"","localizer","","html-keyboard-response","203","308308","0.0-2.0-67.0-0.0","25","44945","Female","13","","","","75","1","65","","Stimuli/Experimental_stims/localizer/faces/samuel-dixon--fQ5XNOcqFQ-unsplash.jpg","","307893","1","faces","","0","0","0","400","68700","415","71409","","","","","","","","","","","","","","","","","","","","","","","","","","","","","","","","","","","","","","","","","","","","","","","","","","","",""
"","iti_localizer","","html-keyboard-response","204","322329","0.0-2.0-67.0-1.0","25","44945","Female","null","","","","null","","65","","","","308308","1","","","","","","14000","69100","14021","71824","14000","","","","","","","","","","","","","","","","","","","","","","","","","","","","","","","","","","","","","","","","","","","","","","","","","","",""
"","localizer","","html-keyboard-response","205","322746","0.0-2.0-68.0-0.0","25","44945","Female","NaN","","","","null","NaN","66","","Stimuli/Experimental_stims/localizer/body_parts/nihal-karkala-LlOfbQD-IJ0-unsplash.jpg","","322329","1","body_parts","","1","1","0","400","83100","417","85845","","","","","","","","","","","","","","","","","","","","","","","","","","","","","","","","","","","","","","","","","","","","","","","","","","","",""
"","iti_localizer","","html-keyboard-response","206","323059","0.0-2.0-68.0-1.0","25","44945","Female","null","","","","null","","66","","","","322746","1","","","","","","300","83500","313","86262","300","","","","","","","","","","","","","","","","","","","","","","","","","","","","","","","","","","","","","","","","","","","","","","","","","","",""
"","localizer","","html-keyboard-response","207","323475","0.0-2.0-69.0-0.0","25","44945","Female","85","","","","68","0","67","","Stimuli/Experimental_stims/localizer/body_parts/nick-page-WTNmgJtwzGI-unsplash.jpg","","323059","1","body_parts","","0","0","1","400","83800","416","86575","","","","","","","","","","","","","","","","","","","","","","","","","","","","","","","","","","","","","","","","","","","","","","","","","","","",""
"","iti_localizer","","html-keyboard-response","208","323783","0.0-2.0-69.0-1.0","25","44945","Female","null","","","","null","","67","","","","323475","1","","","","","","300","84200","308","86991","300","","","","","","","","","","","","","","","","","","","","","","","","","","","","","","","","","","","","","","","","","","","","","","","","","","",""
"","localizer","","html-keyboard-response","209","324190","0.0-2.0-70.0-0.0","25","44945","Female","287","","","","68","0","68","","Stimuli/Experimental_stims/localizer/body_parts/sina-rezakhani-d1gQi0Jl05U-unsplash (1).jpg","","323783","1","body_parts","","0","0","1","400","84500","407","87299","","","","","","","","","","","","","","","","","","","","","","","","","","","","","","","","","","","","","","","","","","","","","","","","","","","",""
"","iti_localizer","","html-keyboard-response","210","324499","0.0-2.0-70.0-1.0","25","44945","Female","null","","","","null","","68","","","","324190","1","","","","","","300","84900","309","87706","300","","","","","","","","","","","","","","","","","","","","","","","","","","","","","","","","","","","","","","","","","","","","","","","","","","",""
"","localizer","","html-keyboard-response","211","324916","0.0-2.0-71.0-0.0","25","44945","Female","88","","","","68","0","69","","Stimuli/Experimental_stims/localizer/body_parts/meghan-thompson-U1b8OB0QpIo-unsplash.jpg","","324499","1","body_parts","","0","0","1","400","85200","417","88015","","","","","","","","","","","","","","","","","","","","","","","","","","","","","","","","","","","","","","","","","","","","","","","","","","","",""
"","iti_localizer","","html-keyboard-response","212","325229","0.0-2.0-71.0-1.0","25","44945","Female","null","","","","null","","69","","","","324916","1","","","","","","300","85600","313","88432","300","","","","","","","","","","","","","","","","","","","","","","","","","","","","","","","","","","","","","","","","","","","","","","","","","","",""
"","localizer","","html-keyboard-response","213","325642","0.0-2.0-72.0-0.0","25","44945","Female","10","","","","68","0","70","","Stimuli/Experimental_stims/localizer/body_parts/davidcohen-qghuLqyh3nE-unsplash.jpg","","325229","1","body_parts","","0","0","1","400","85900","413","88745","","","","","","","","","","","","","","","","","","","","","","","","","","","","","","","","","","","","","","","","","","","","","","","","","","","",""
"","iti_localizer","","html-keyboard-response","214","326010","0.0-2.0-72.0-1.0","25","44945","Female","null","","","","null","","70","","","","325642","1","","","","","","300","86300","368","89158","300","","","","","","","","","","","","","","","","","","","","","","","","","","","","","","","","","","","","","","","","","","","","","","","","","","",""
"","localizer","","html-keyboard-response","215","326423","0.0-2.0-73.0-0.0","25","44945","Female","NaN","","","","null","NaN","71","","Stimuli/Experimental_stims/localizer/body_parts/sincerely-media-QyzlAZjm0r0-unsplash.jpg","","326010","1","body_parts","","0","1","0","400","86600","413","89526","","","","","","","","","","","","","","","","","","","","","","","","","","","","","","","","","","","","","","","","","","","","","","","","","","","",""
"","iti_localizer","","html-keyboard-response","216","326741","0.0-2.0-73.0-1.0","25","44945","Female","null","","","","null","","71","","","","326423","1","","","","","","300","87000","318","89939","300","","","","","","","","","","","","","","","","","","","","","","","","","","","","","","","","","","","","","","","","","","","","","","","","","","",""
"","localizer","","html-keyboard-response","217","327163","0.0-2.0-74.0-0.0","25","44945","Female","15","","","","68","0","72","","Stimuli/Experimental_stims/localizer/body_parts/juja-han-Z8-6EI2tYtw-unsplash.jpg","","326741","1","body_parts","","0","0","1","400","87300","422","90257","","","","","","","","","","","","","","","","","","","","","","","","","","","","","","","","","","","","","","","","","","","","","","","","","","","",""
"","iti_localizer","","html-keyboard-response","218","327484","0.0-2.0-74.0-1.0","25","44945","Female","null","","","","null","","72","","","","327163","1","","","","","","300","87700","321","90679","300","","","","","","","","","","","","","","","","","","","","","","","","","","","","","","","","","","","","","","","","","","","","","","","","","","",""
"","localizer","","html-keyboard-response","219","327910","0.0-2.0-75.0-0.0","25","44945","Female","9","","","","68","0","73","","Stimuli/Experimental_stims/localizer/body_parts/natalie-grainger-8uB5kFKWWkk-unsplash.jpg","","327484","1","body_parts","","0","0","1","400","88000","426","91000","","","","","","","","","","","","","","","","","","","","","","","","","","","","","","","","","","","","","","","","","","","","","","","","","","","",""
"","iti_localizer","","html-keyboard-response","220","328227","0.0-2.0-75.0-1.0","25","44945","Female","null","","","","null","","73","","","","327910","1","","","","","","300","88400","317","91426","300","","","","","","","","","","","","","","","","","","","","","","","","","","","","","","","","","","","","","","","","","","","","","","","","","","",""
"","localizer","","html-keyboard-response","221","328649","0.0-2.0-76.0-0.0","25","44945","Female","134","","","","68","0","74","","Stimuli/Experimental_stims/localizer/body_parts/debby-hudson--B_757qSA4k-unsplash.jpg","","328227","1","body_parts","","0","0","1","400","88700","422","91743","","","","","","","","","","","","","","","","","","","","","","","","","","","","","","","","","","","","","","","","","","","","","","","","","","","",""
"","iti_localizer","","html-keyboard-response","222","328962","0.0-2.0-76.0-1.0","25","44945","Female","null","","","","null","","74","","","","328649","1","","","","","","300","89100","313","92165","300","","","","","","","","","","","","","","","","","","","","","","","","","","","","","","","","","","","","","","","","","","","","","","","","","","",""
"","localizer","","html-keyboard-response","223","329375","0.0-2.0-77.0-0.0","25","44945","Female","9","","","","68","0","75","","Stimuli/Experimental_stims/localizer/body_parts/pure-julia-E9Q4bqYHtIM-unsplash.jpg","","328962","1","body_parts","","0","0","1","400","89400","413","92478","","","","","","","","","","","","","","","","","","","","","","","","","","","","","","","","","","","","","","","","","","","","","","","","","","","",""
"","iti_localizer","","html-keyboard-response","224","329710","0.0-2.0-77.0-1.0","25","44945","Female","null","","","","null","","75","","","","329375","1","","","","","","300","89800","335","92891","300","","","","","","","","","","","","","","","","","","","","","","","","","","","","","","","","","","","","","","","","","","","","","","","","","","",""
"","localizer","","html-keyboard-response","225","330127","0.0-2.0-78.0-0.0","25","44945","Female","NaN","","","","null","NaN","76","","Stimuli/Experimental_stims/localizer/body_parts/charles-etoroma-1fo0biloDOc-unsplash.jpg","","329710","1","body_parts","","0","1","0","400","90100","417","93226","","","","","","","","","","","","","","","","","","","","","","","","","","","","","","","","","","","","","","","","","","","","","","","","","","","",""
"","iti_localizer","","html-keyboard-response","226","330435","0.0-2.0-78.0-1.0","25","44945","Female","null","","","","null","","76","","","","330127","1","","","","","","300","90500","308","93643","300","","","","","","","","","","","","","","","","","","","","","","","","","","","","","","","","","","","","","","","","","","","","","","","","","","",""
"","localizer","","html-keyboard-response","227","330847","0.0-2.0-79.0-0.0","25","44945","Female","156","","","","68","0","77","","Stimuli/Experimental_stims/localizer/body_parts/david-fanuel-qnV8X7OViNY-unsplash.jpg","","330435","1","body_parts","","0","0","1","400","90800","412","93951","","","","","","","","","","","","","","","","","","","","","","","","","","","","","","","","","","","","","","","","","","","","","","","","","","","",""
"","iti_localizer","","html-keyboard-response","228","331159","0.0-2.0-79.0-1.0","25","44945","Female","null","","","","null","","77","","","","330847","1","","","","","","300","91200","312","94363","300","","","","","","","","","","","","","","","","","","","","","","","","","","","","","","","","","","","","","","","","","","","","","","","","","","",""
"","localizer","","html-keyboard-response","229","331581","0.0-2.0-80.0-0.0","25","44945","Female","72","","","","68","0","78","","Stimuli/Experimental_stims/localizer/body_parts/diana-polekhina-SwWjCbIIoFE-unsplash.jpg","","331159","1","body_parts","","0","0","1","400","91500","422","94675","","","","","","","","","","","","","","","","","","","","","","","","","","","","","","","","","","","","","","","","","","","","","","","","","","","",""
"","iti_localizer","","html-keyboard-response","230","331978","0.0-2.0-80.0-1.0","25","44945","Female","null","","","","null","","78","","","","331581","1","","","","","","300","91900","397","95097","300","","","","","","","","","","","","","","","","","","","","","","","","","","","","","","","","","","","","","","","","","","","","","","","","","","",""
"","localizer","","html-keyboard-response","231","332394","0.0-2.0-81.0-0.0","25","44945","Female","21","","","","68","0","79","","Stimuli/Experimental_stims/localizer/body_parts/ant-rozetsky-bXQd8JXx0vs-unsplash.jpg","","331978","1","body_parts","","0","0","1","400","92200","416","95494","","","","","","","","","","","","","","","","","","","","","","","","","","","","","","","","","","","","","","","","","","","","","","","","","","","",""
"","iti_localizer","","html-keyboard-response","232","332712","0.0-2.0-81.0-1.0","25","44945","Female","null","","","","null","","79","","","","332394","1","","","","","","300","92600","318","95910","300","","","","","","","","","","","","","","","","","","","","","","","","","","","","","","","","","","","","","","","","","","","","","","","","","","",""
"","localizer","","html-keyboard-response","233","333128","0.0-2.0-82.0-0.0","25","44945","Female","261","","","","75","1","80","","Stimuli/Experimental_stims/localizer/body_parts/callum-skelton-3KLMq7y46nA-unsplash.jpg","","332712","1","body_parts","","0","0","0","400","92900","416","96228","","","","","","","","","","","","","","","","","","","","","","","","","","","","","","","","","","","","","","","","","","","","","","","","","","","",""
"","iti_localizer","","html-keyboard-response","234","333451","0.0-2.0-82.0-1.0","25","44945","Female","null","","","","null","","80","","","","333128","1","","","","","","300","93300","323","96644","300","","","","","","","","","","","","","","","","","","","","","","","","","","","","","","","","","","","","","","","","","","","","","","","","","","",""
"","localizer","","html-keyboard-response","235","333864","0.0-2.0-83.0-0.0","25","44945","Female","NaN","","","","null","NaN","81","","Stimuli/Experimental_stims/localizer/body_parts/freestocks-qw9LFf5T790-unsplash.jpg","","333451","1","body_parts","","0","1","0","400","93600","413","96967","","","","","","","","","","","","","","","","","","","","","","","","","","","","","","","","","","","","","","","","","","","","","","","","","","","",""
"","iti_localizer","","html-keyboard-response","236","334178","0.0-2.0-83.0-1.0","25","44945","Female","null","","","","null","","81","","","","333864","1","","","","","","300","94000","314","97380","300","","","","","","","","","","","","","","","","","","","","","","","","","","","","","","","","","","","","","","","","","","","","","","","","","","",""
"","localizer","","html-keyboard-response","237","334601","0.0-2.0-84.0-0.0","25","44945","Female","NaN","","","","null","NaN","82","","Stimuli/Experimental_stims/localizer/body_parts/carlos-henrique-NAOJKwZswbs-unsplash.jpg","","334178","1","body_parts","","0","1","0","400","94300","423","97694","","","","","","","","","","","","","","","","","","","","","","","","","","","","","","","","","","","","","","","","","","","","","","","","","","","",""
"","iti_localizer","","html-keyboard-response","238","334914","0.0-2.0-84.0-1.0","25","44945","Female","null","","","","null","","82","","","","334601","1","","","","","","300","94700","313","98117","300","","","","","","","","","","","","","","","","","","","","","","","","","","","","","","","","","","","","","","","","","","","","","","","","","","",""
"","localizer","","html-keyboard-response","239","335337","0.0-2.0-85.0-0.0","25","44945","Female","78","","","","68","0","83","","Stimuli/Experimental_stims/localizer/body_parts/boyd-christiansen-uVj7kewrZ-o-unsplash.jpg","","334914","1","body_parts","","1","0","0","400","95000","423","98430","","","","","","","","","","","","","","","","","","","","","","","","","","","","","","","","","","","","","","","","","","","","","","","","","","","",""
"","iti_localizer","","html-keyboard-response","240","335666","0.0-2.0-85.0-1.0","25","44945","Female","null","","","","null","","83","","","","335337","1","","","","","","300","95400","329","98853","300","","","","","","","","","","","","","","","","","","","","","","","","","","","","","","","","","","","","","","","","","","","","","","","","","","",""
"","localizer","","html-keyboard-response","241","336090","0.0-2.0-86.0-0.0","25","44945","Female","121","","","","75","1","84","","Stimuli/Experimental_stims/localizer/body_parts/nick-page-jAGdpOGvLAA-unsplash.jpg","","335666","1","body_parts","","0","0","0","400","95700","424","99182","","","","","","","","","","","","","","","","","","","","","","","","","","","","","","","","","","","","","","","","","","","","","","","","","","","",""
"","iti_localizer","","html-keyboard-response","242","336404","0.0-2.0-86.0-1.0","25","44945","Female","null","","","","null","","84","","","","336090","1","","","","","","300","96100","314","99606","300","","","","","","","","","","","","","","","","","","","","","","","","","","","","","","","","","","","","","","","","","","","","","","","","","","",""
"","localizer","","html-keyboard-response","243","336822","0.0-2.0-87.0-0.0","25","44945","Female","NaN","","","","null","NaN","85","","Stimuli/Experimental_stims/localizer/body_parts/lilartsy-1KkhQ8uL28g-unsplash.jpg","","336404","1","body_parts","","0","1","0","400","96400","418","99920","","","","","","","","","","","","","","","","","","","","","","","","","","","","","","","","","","","","","","","","","","","","","","","","","","","",""
"","iti_localizer","","html-keyboard-response","244","350850","0.0-2.0-87.0-1.0","25","44945","Female","null","","","","null","","85","","","","336822","1","","","","","","14000","96800","14028","100338","14000","","","","","","","","","","","","","","","","","","","","","","","","","","","","","","","","","","","","","","","","","","","","","","","","","","",""
"","localizer","","html-keyboard-response","245","351270","0.0-2.0-88.0-0.0","25","44945","Female","370","","","","68","0","86","","Stimuli/Experimental_stims/localizer/objects/yossy-made-yulian-WaEqwDSIeTY-unsplash.jpg","","350850","1","objects","","1","0","0","400","110800","420","114366","","","","","","","","","","","","","","","","","","","","","","","","","","","","","","","","","","","","","","","","","","","","","","","","","","","",""
"","iti_localizer","","html-keyboard-response","246","351578","0.0-2.0-88.0-1.0","25","44945","Female","null","","","","null","","86","","","","351270","1","","","","","","300","111200","308","114786","300","","","","","","","","","","","","","","","","","","","","","","","","","","","","","","","","","","","","","","","","","","","","","","","","","","",""
"","localizer","","html-keyboard-response","247","352009","0.0-2.0-89.0-0.0","25","44945","Female","NaN","","","","null","NaN","87","","Stimuli/Experimental_stims/localizer/objects/namroud-gorguis-FZWivbri0Xk-unsplash.jpg","","351578","1","objects","","0","1","0","400","111500","431","115094","","","","","","","","","","","","","","","","","","","","","","","","","","","","","","","","","","","","","","","","","","","","","","","","","","","",""
