"success","ttype","start_time","trial_type","trial_index","time_elapsed","internal_node_id","age","PID","gender","rt","responses","view_history","repeat_instructions","key_press","response","index","stimulus_index","path","start_time_elapsed","run","task","isi","is_odd_ball","no_response","acc","duration","onset","duration_time_elapsed","onset_time_elapsed","trial_duration","missed_checkup","left_chosen","chosen_stimulus","unchosen_stimulus","chosen_category","unchosen_category","chosen_rating","unchosen_rating","chosen_path","unchosen_path","pair_id","practice","scramble_screen_time","scramble_instructed_side","stim_type","iti","block","left_stimulus","right_stimulus","left_category","right_category","left_path","right_path","left_rating","right_rating","scramble_acc","scramble_no_response","warning","stimulus_id","item_id","outcome","response_rt","deliberation_reward_tally","choice_type","gain_left","left_item_id","right_item_id","higher_outcome_chosen","chosen_left","old_pair","pair_type","old_response","pair_acc","reward_type","outcome_response","outcome_rt","outcome_acc","category","choice","deliberated_stim","old_rating","new_rating","total_reward_tally"
"true","full_screen","d08172023hr1537","fullscreen","0","120994","0.0-0.0-0.0","34","47658","male ","","","","","","","","","","","","","","","","","","","","","","","","","","","","","","","","","","","","","","","","","","","","","","","","","","","","","","","","","","","","","","","","","","","","","","","","","",""
"","get_id","","survey-text","1","139435","0.0-0.0-1.0","34","47658","male ","18436","{""Q0"":""34"",""Q1"":""male ""}","","","","","","","","","","","","","","","","","","","","","","","","","","","","","","","","","","","","","","","","","","","","","","","","","","","","","","","","","","","","","","","","","","","","","","","",""
"","ratings_instructions","","instructions","2","185261","0.0-1.0-0.0-0.0","34","47658","male ","45116","","[{""page_index"":0,""viewing_time"":42160},{""page_index"":1,""viewing_time"":2956}]","","","","","","","","","","","","","","","","","","","","","","","","","","","","","","","","","","","","","","","","","","","","","","","","","","","","","","","","","","","","","","","","","","","","","","",""
"","rating_comprehension_check","","survey-multi-choice","3","191554","0.0-1.0-0.0-1.0","34","47658","male ","6288","{""Q0"":""True"",""Q1"":""Mouse""}","","0","","","","","","","","","","","","","","","","","","","","","","","","","","","","","","","","","","","","","","","","","","","","","","","","","","","","","","","","","","","","","","","","","","","","","",""
"","","","html-keyboard-response","4","194626","0.0-1.0-1.0","34","47658","male ","3067","","","","68","","","","","","","","","","","","","","","","","","","","","","","","","","","","","","","","","","","","","","","","","","","","","","","","","","","","","","","","","","","","","","","","","","","","",""
"","rating","","html-slider-response","5","199209","0.0-1.0-2.0","34","47658","male ","4579","","","","","71","0","11","Stimuli/Experimental_stims/outdoor_scenes/stephen-leonardi-gyIRjKPXupE-unsplash.jpg","","","","","","","","","","","","","","","","","","","","","","","","","","","","","","","","","","","","","","","","","","","","","","","","","","","","","","","","","","","","","","","","",""
"","rating","","html-slider-response","6","201982","0.0-1.0-3.0","34","47658","male ","2769","","","","","63","1","37","Stimuli/Experimental_stims/objects/alexander-andrews-VLGWE_SumrA-unsplash.jpg","","","","","","","","","","","","","","","","","","","","","","","","","","","","","","","","","","","","","","","","","","","","","","","","","","","","","","","","","","","","","","","","",""
"","rating","","html-slider-response","7","204639","0.0-1.0-4.0","34","47658","male ","2653","","","","","31","2","43","Stimuli/Experimental_stims/objects/jonathan-greenaway-Y4hGgeiFn3s-unsplash.jpg","","","","","","","","","","","","","","","","","","","","","","","","","","","","","","","","","","","","","","","","","","","","","","","","","","","","","","","","","","","","","","","","",""
"","rating","","html-slider-response","8","208219","0.0-1.0-5.0","34","47658","male ","3576","","","","","62","3","45","Stimuli/Experimental_stims/objects/leohoho-rngTKHXumy0-unsplash.jpg","","","","","","","","","","","","","","","","","","","","","","","","","","","","","","","","","","","","","","","","","","","","","","","","","","","","","","","","","","","","","","","","",""
"","rating","","html-slider-response","9","212320","0.0-1.0-6.0","34","47658","male ","4097","","","","","37","4","1","Stimuli/Experimental_stims/outdoor_scenes/ashim-d-silva-S2Q5mdOrrVc-unsplash.jpg","","","","","","","","","","","","","","","","","","","","","","","","","","","","","","","","","","","","","","","","","","","","","","","","","","","","","","","","","","","","","","","","",""
"","rating","","html-slider-response","10","218962","0.0-1.0-7.0","34","47658","male ","6638","","","","","59","5","4","Stimuli/Experimental_stims/outdoor_scenes/jarrett-kow-1ZOyYPOBn7I-unsplash.jpg","","","","","","","","","","","","","","","","","","","","","","","","","","","","","","","","","","","","","","","","","","","","","","","","","","","","","","","","","","","","","","","","",""
"","rating","","html-slider-response","11","222716","0.0-1.0-8.0","34","47658","male ","3751","","","","","44","6","35","Stimuli/Experimental_stims/body_parts/wc-so-KH4AAPjb-tI-unsplash.jpg","","","","","","","","","","","","","","","","","","","","","","","","","","","","","","","","","","","","","","","","","","","","","","","","","","","","","","","","","","","","","","","","",""
"","rating","","html-slider-response","12","225493","0.0-1.0-9.0","34","47658","male ","2774","","","","","41","7","24","Stimuli/Experimental_stims/body_parts/clay-banks-LjqARJaJotc-unsplash.jpg","","","","","","","","","","","","","","","","","","","","","","","","","","","","","","","","","","","","","","","","","","","","","","","","","","","","","","","","","","","","","","","","",""
"","rating","","html-slider-response","13","231099","0.0-1.0-10.0","34","47658","male ","5601","","","","","62","8","6","Stimuli/Experimental_stims/outdoor_scenes/meng-ji-8BH_M-53CyA-unsplash.jpg","","","","","","","","","","","","","","","","","","","","","","","","","","","","","","","","","","","","","","","","","","","","","","","","","","","","","","","","","","","","","","","","",""
"","rating","","html-slider-response","14","237507","0.0-1.0-11.0","34","47658","male ","6404","","","","","62","9","3","Stimuli/Experimental_stims/outdoor_scenes/henry-be-NLF6hTe4PAg-unsplash.jpg","","","","","","","","","","","","","","","","","","","","","","","","","","","","","","","","","","","","","","","","","","","","","","","","","","","","","","","","","","","","","","","","",""
"","rating","","html-slider-response","15","242942","0.0-1.0-12.0","34","47658","male ","5430","","","","","67","10","5","Stimuli/Experimental_stims/outdoor_scenes/jeff-king-bJHWJeiHfHc-unsplash.jpg","","","","","","","","","","","","","","","","","","","","","","","","","","","","","","","","","","","","","","","","","","","","","","","","","","","","","","","","","","","","","","","","",""
"","rating","","html-slider-response","16","245846","0.0-1.0-13.0","34","47658","male ","2898","","","","","37","11","25","Stimuli/Experimental_stims/body_parts/engin-akyurt-Q2rfH3GW39c-unsplash.jpg","","","","","","","","","","","","","","","","","","","","","","","","","","","","","","","","","","","","","","","","","","","","","","","","","","","","","","","","","","","","","","","","",""
"","rating","","html-slider-response","17","250534","0.0-1.0-14.0","34","47658","male ","4685","","","","","50","12","21","Stimuli/Experimental_stims/faces/leilani-angel-K84vnnzxmTQ-unsplash.jpg","","","","","","","","","","","","","","","","","","","","","","","","","","","","","","","","","","","","","","","","","","","","","","","","","","","","","","","","","","","","","","","","",""
"","rating","","html-slider-response","18","254489","0.0-1.0-15.0","34","47658","male ","3951","","","","","40","13","40","Stimuli/Experimental_stims/objects/fabian-blank-pElSkGRA2NU-unsplash.jpg","","","","","","","","","","","","","","","","","","","","","","","","","","","","","","","","","","","","","","","","","","","","","","","","","","","","","","","","","","","","","","","","",""
"","rating","","html-slider-response","19","260460","0.0-1.0-16.0","34","47658","male ","5967","","","","","59","14","46","Stimuli/Experimental_stims/objects/mockup-graphics-PNsj6RiHAF4-unsplash.jpg","","","","","","","","","","","","","","","","","","","","","","","","","","","","","","","","","","","","","","","","","","","","","","","","","","","","","","","","","","","","","","","","",""
"","rating","","html-slider-response","20","264955","0.0-1.0-17.0","34","47658","male ","4491","","","","","41","15","34","Stimuli/Experimental_stims/body_parts/wagner-santos-mBWMvIuVnso-unsplash.jpg","","","","","","","","","","","","","","","","","","","","","","","","","","","","","","","","","","","","","","","","","","","","","","","","","","","","","","","","","","","","","","","","",""
"","rating","","html-slider-response","21","267033","0.0-1.0-18.0","34","47658","male ","2074","","","","","37","16","32","Stimuli/Experimental_stims/body_parts/towfiqu-barbhuiya-3AsiVDsZnHg-unsplash.jpg","","","","","","","","","","","","","","","","","","","","","","","","","","","","","","","","","","","","","","","","","","","","","","","","","","","","","","","","","","","","","","","","",""
"","rating","","html-slider-response","22","269475","0.0-1.0-19.0","34","47658","male ","2438","","","","","50","17","18","Stimuli/Experimental_stims/faces/jessica-radanavong-mrYkTuAesKE-unsplash.jpg","","","","","","","","","","","","","","","","","","","","","","","","","","","","","","","","","","","","","","","","","","","","","","","","","","","","","","","","","","","","","","","","",""
"","rating","","html-slider-response","23","271679","0.0-1.0-20.0","34","47658","male ","2200","","","","","55","18","22","Stimuli/Experimental_stims/faces/ravi-patel-VMGAbeeJTKo-unsplash.jpg","","","","","","","","","","","","","","","","","","","","","","","","","","","","","","","","","","","","","","","","","","","","","","","","","","","","","","","","","","","","","","","","",""
"","rating","","html-slider-response","24","273804","0.0-1.0-21.0","34","47658","male ","2121","","","","","42","19","33","Stimuli/Experimental_stims/body_parts/tucker-good-36skLT5jZcc-unsplash.jpg","","","","","","","","","","","","","","","","","","","","","","","","","","","","","","","","","","","","","","","","","","","","","","","","","","","","","","","","","","","","","","","","",""
"","rating","","html-slider-response","25","276073","0.0-1.0-22.0","34","47658","male ","2264","","","","","55","20","47","Stimuli/Experimental_stims/objects/ronaldo-arthur-vidal-Cdz_lvnl37k-unsplash.jpg","","","","","","","","","","","","","","","","","","","","","","","","","","","","","","","","","","","","","","","","","","","","","","","","","","","","","","","","","","","","","","","","",""
"","rating","","html-slider-response","26","278589","0.0-1.0-23.0","34","47658","male ","2514","","","","","63","21","20","Stimuli/Experimental_stims/faces/justin-chen-J7Cf1Gch49E-unsplash.jpg","","","","","","","","","","","","","","","","","","","","","","","","","","","","","","","","","","","","","","","","","","","","","","","","","","","","","","","","","","","","","","","","",""
"","rating","","html-slider-response","27","281083","0.0-1.0-24.0","34","47658","male ","2491","","","","","71","22","19","Stimuli/Experimental_stims/faces/joel-mott-LaK153ghdig-unsplash.jpg","","","","","","","","","","","","","","","","","","","","","","","","","","","","","","","","","","","","","","","","","","","","","","","","","","","","","","","","","","","","","","","","",""
"","rating","","html-slider-response","28","283933","0.0-1.0-25.0","34","47658","male ","2846","","","","","43","23","42","Stimuli/Experimental_stims/objects/jess-bailey-nOeVi8DsN8U-unsplash.jpg","","","","","","","","","","","","","","","","","","","","","","","","","","","","","","","","","","","","","","","","","","","","","","","","","","","","","","","","","","","","","","","","",""
"","rating","","html-slider-response","29","289754","0.0-1.0-26.0","34","47658","male ","5817","","","","","40","24","26","Stimuli/Experimental_stims/body_parts/engin-akyurt-x_3gyC42btc-unsplash.jpg","","","","","","","","","","","","","","","","","","","","","","","","","","","","","","","","","","","","","","","","","","","","","","","","","","","","","","","","","","","","","","","","",""
"","rating","","html-slider-response","30","292081","0.0-1.0-27.0","34","47658","male ","2323","","","","","59","25","36","Stimuli/Experimental_stims/objects/alexander-andrews-JYGnB9gTCls-unsplash.jpg","","","","","","","","","","","","","","","","","","","","","","","","","","","","","","","","","","","","","","","","","","","","","","","","","","","","","","","","","","","","","","","","",""
"","rating","","html-slider-response","31","299337","0.0-1.0-28.0","34","47658","male ","7252","","","","","41","26","41","Stimuli/Experimental_stims/objects/insung-yoon-w2JtIQQXoRU-unsplash.jpg","","","","","","","","","","","","","","","","","","","","","","","","","","","","","","","","","","","","","","","","","","","","","","","","","","","","","","","","","","","","","","","","",""
"","rating","","html-slider-response","32","301269","0.0-1.0-29.0","34","47658","male ","1928","","","","","59","27","0","Stimuli/Experimental_stims/outdoor_scenes/aleksandra-boguslawska-MS7KD9Ti7FQ-unsplash.jpg","","","","","","","","","","","","","","","","","","","","","","","","","","","","","","","","","","","","","","","","","","","","","","","","","","","","","","","","","","","","","","","","",""
"","rating","","html-slider-response","33","303420","0.0-1.0-30.0","34","47658","male ","2148","","","","","32","28","29","Stimuli/Experimental_stims/body_parts/manuel-schinner-ZwjFuJ7ebpk-unsplash.jpg","","","","","","","","","","","","","","","","","","","","","","","","","","","","","","","","","","","","","","","","","","","","","","","","","","","","","","","","","","","","","","","","",""
"","rating","","html-slider-response","34","306276","0.0-1.0-31.0","34","47658","male ","2852","","","","","50","29","39","Stimuli/Experimental_stims/objects/charlesdeluvio-1-nx1QR5dTE-unsplash.jpg","","","","","","","","","","","","","","","","","","","","","","","","","","","","","","","","","","","","","","","","","","","","","","","","","","","","","","","","","","","","","","","","",""
"","rating","","html-slider-response","35","308067","0.0-1.0-32.0","34","47658","male ","1786","","","","","42","30","27","Stimuli/Experimental_stims/body_parts/heike-mintel-i_Gns0ELnLw-unsplash.jpg","","","","","","","","","","","","","","","","","","","","","","","","","","","","","","","","","","","","","","","","","","","","","","","","","","","","","","","","","","","","","","","","",""
"","rating","","html-slider-response","36","309946","0.0-1.0-33.0","34","47658","male ","1875","","","","","61","31","16","Stimuli/Experimental_stims/faces/freddy-kearney-o-ioeoATbIM-unsplash.jpg","","","","","","","","","","","","","","","","","","","","","","","","","","","","","","","","","","","","","","","","","","","","","","","","","","","","","","","","","","","","","","","","",""
"","rating","","html-slider-response","37","312158","0.0-1.0-34.0","34","47658","male ","2207","","","","","76","32","8","Stimuli/Experimental_stims/outdoor_scenes/samsommer-vddccTqwal8-unsplash.jpg","","","","","","","","","","","","","","","","","","","","","","","","","","","","","","","","","","","","","","","","","","","","","","","","","","","","","","","","","","","","","","","","",""
"","rating","","html-slider-response","38","314521","0.0-1.0-35.0","34","47658","male ","2360","","","","","76","33","38","Stimuli/Experimental_stims/objects/art-lasovsky-8XddFc6NkBY-unsplash.jpg","","","","","","","","","","","","","","","","","","","","","","","","","","","","","","","","","","","","","","","","","","","","","","","","","","","","","","","","","","","","","","","","",""
"","rating","","html-slider-response","39","316742","0.0-1.0-36.0","34","47658","male ","2217","","","","","33","34","30","Stimuli/Experimental_stims/body_parts/mika-korhonen-Xodzxosar18-unsplash.jpg","","","","","","","","","","","","","","","","","","","","","","","","","","","","","","","","","","","","","","","","","","","","","","","","","","","","","","","","","","","","","","","","",""
"","rating","","html-slider-response","40","318799","0.0-1.0-37.0","34","47658","male ","2052","","","","","62","35","23","Stimuli/Experimental_stims/faces/rikonavt-HQjfrvdTfak-unsplash.jpg","","","","","","","","","","","","","","","","","","","","","","","","","","","","","","","","","","","","","","","","","","","","","","","","","","","","","","","","","","","","","","","","",""
"","rating","","html-slider-response","41","320951","0.0-1.0-38.0","34","47658","male ","2148","","","","","78","36","10","Stimuli/Experimental_stims/outdoor_scenes/shannon-kunkle-dM8INmkyDas-unsplash.jpg","","","","","","","","","","","","","","","","","","","","","","","","","","","","","","","","","","","","","","","","","","","","","","","","","","","","","","","","","","","","","","","","",""
"","rating","","html-slider-response","42","323067","0.0-1.0-39.0","34","47658","male ","2112","","","","","63","37","12","Stimuli/Experimental_stims/faces/aiony-haust-jmATI5Q_YgY-unsplash.jpg","","","","","","","","","","","","","","","","","","","","","","","","","","","","","","","","","","","","","","","","","","","","","","","","","","","","","","","","","","","","","","","","",""
"","rating","","html-slider-response","43","325605","0.0-1.0-40.0","34","47658","male ","2534","","","","","36","38","31","Stimuli/Experimental_stims/body_parts/sincerely-media-VN6DbKajo5s-unsplash.jpg","","","","","","","","","","","","","","","","","","","","","","","","","","","","","","","","","","","","","","","","","","","","","","","","","","","","","","","","","","","","","","","","",""
"","rating","","html-slider-response","44","327690","0.0-1.0-41.0","34","47658","male ","2081","","","","","71","39","7","Stimuli/Experimental_stims/outdoor_scenes/petr-vysohlid-9fqwGqGLUxc-unsplash.jpg","","","","","","","","","","","","","","","","","","","","","","","","","","","","","","","","","","","","","","","","","","","","","","","","","","","","","","","","","","","","","","","","",""
"","rating","","html-slider-response","45","329887","0.0-1.0-42.0","34","47658","male ","2193","","","","","41","40","15","Stimuli/Experimental_stims/faces/erik-lucatero-d2MSDujJl2g-unsplash.jpg","","","","","","","","","","","","","","","","","","","","","","","","","","","","","","","","","","","","","","","","","","","","","","","","","","","","","","","","","","","","","","","","",""
"","rating","","html-slider-response","46","331651","0.0-1.0-43.0","34","47658","male ","1760","","","","","35","41","28","Stimuli/Experimental_stims/body_parts/ira-vishnevskaya-8DQAvdCby1I-unsplash.jpg","","","","","","","","","","","","","","","","","","","","","","","","","","","","","","","","","","","","","","","","","","","","","","","","","","","","","","","","","","","","","","","","",""
"","rating","","html-slider-response","47","335065","0.0-1.0-44.0","34","47658","male ","3411","","","","","82","42","9","Stimuli/Experimental_stims/outdoor_scenes/sergey-pesterev-y-b_FOmJXdg-unsplash.jpg","","","","","","","","","","","","","","","","","","","","","","","","","","","","","","","","","","","","","","","","","","","","","","","","","","","","","","","","","","","","","","","","",""
"","rating","","html-slider-response","48","337268","0.0-1.0-45.0","34","47658","male ","2198","","","","","71","43","2","Stimuli/Experimental_stims/outdoor_scenes/bruno-van-der-kraan-qez8mNJ3ilU-unsplash.jpg","","","","","","","","","","","","","","","","","","","","","","","","","","","","","","","","","","","","","","","","","","","","","","","","","","","","","","","","","","","","","","","","",""
"","rating","","html-slider-response","49","339841","0.0-1.0-46.0","34","47658","male ","2569","","","","","36","44","17","Stimuli/Experimental_stims/faces/good-faces-xmSWVeGEnJw-unsplash.jpg","","","","","","","","","","","","","","","","","","","","","","","","","","","","","","","","","","","","","","","","","","","","","","","","","","","","","","","","","","","","","","","","",""
"","rating","","html-slider-response","50","343308","0.0-1.0-47.0","34","47658","male ","3463","","","","","27","45","44","Stimuli/Experimental_stims/objects/kuiye-chen-NuOGFo4PudE-unsplash.jpg","","","","","","","","","","","","","","","","","","","","","","","","","","","","","","","","","","","","","","","","","","","","","","","","","","","","","","","","","","","","","","","","",""
"","rating","","html-slider-response","51","345519","0.0-1.0-48.0","34","47658","male ","2207","","","","","76","46","13","Stimuli/Experimental_stims/faces/daniel-rigdon-dXmXKPP2L4E-unsplash.jpg","","","","","","","","","","","","","","","","","","","","","","","","","","","","","","","","","","","","","","","","","","","","","","","","","","","","","","","","","","","","","","","","",""
"","rating","","html-slider-response","52","347397","0.0-1.0-49.0","34","47658","male ","1874","","","","","42","47","14","Stimuli/Experimental_stims/faces/david-siglin-UuW4psOb388-unsplash.jpg","","","","","","","","","","","","","","","","","","","","","","","","","","","","","","","","","","","","","","","","","","","","","","","","","","","","","","","","","","","","","","","","",""
"","localizer_instructions","","instructions","53","371861","0.0-2.0-0.0-0.0","34","47658","male ","24437","","[{""page_index"":0,""viewing_time"":10869},{""page_index"":1,""viewing_time"":10046},{""page_index"":2,""viewing_time"":3522}]","","","","","","","","","","","","","","","","","","","","","","","","","","","","","","","","","","","","","","","","","","","","","","","","","","","","","","","","","","","","","","","","","","","","","","",""
"","localizer_comprehension_check","","survey-multi-choice","54","383268","0.0-2.0-0.0-1.0","34","47658","male ","11402","{""Q0"":""True"",""Q1"":""K"",""Q2"":""D""}","","0","","","","","","","","","","","","","","","","","","","","","","","","","","","","","","","","","","","","","","","","","","","","","","","","","","","","","","","","","","","","","","","","","","","","","",""
"","","","html-keyboard-response","55","403379","0.0-2.0-1.0","34","47658","male ","20106","","","","68","","","","","","","","","","","","","","","","","","","","","","","","","","","","","","","","","","","","","","","","","","","","","","","","","","","","","","","","","","","","","","","","","","","","",""
"","localizer","","html-keyboard-response","56","403784","0.0-2.0-2.0-0.0","34","47658","male ","NaN","","","","null","NaN","0","","Stimuli/Practice_stims/Localizer/annie-spratt-g9KFpAfQ5bc-unsplash.jpg","403379","0","NaN","","0","1","0","400","0","405","0","","","","","","","","","","","","","","","","","","","","","","","","","","","","","","","","","","","","","","","","","","","","","","","","","","","","","",""
"","iti_localizer","","html-keyboard-response","57","404089","0.0-2.0-2.0-1.0","34","47658","male ","null","","","","null","","0","","","403784","0","","","","","","300","400","305","405","300","","","","","","","","","","","","","","","","","","","","","","","","","","","","","","","","","","","","","","","","","","","","","","","","","","","","",""
"","localizer","","html-keyboard-response","58","404493","0.0-2.0-2.1-0.1","34","47658","male ","NaN","","","","null","NaN","0","","Stimuli/Practice_stims/Localizer/annie-spratt-g9KFpAfQ5bc-unsplash.jpg","404089","0","NaN","","0","1","0","400","700","404","710","","","","","","","","","","","","","","","","","","","","","","","","","","","","","","","","","","","","","","","","","","","","","","","","","","","","","",""
"","iti_localizer","","html-keyboard-response","59","404797","0.0-2.0-2.1-1.1","34","47658","male ","null","","","","null","","0","","","404493","0","","","","","","300","1100","304","1114","300","","","","","","","","","","","","","","","","","","","","","","","","","","","","","","","","","","","","","","","","","","","","","","","","","","","","",""
"","localizer","","html-keyboard-response","60","405201","0.0-2.0-2.2-0.2","34","47658","male ","67","","","","68","0","0","","Stimuli/Practice_stims/Localizer/annie-spratt-g9KFpAfQ5bc-unsplash.jpg","404797","0","NaN","","0","0","1","400","1400","404","1418","","","","","","","","","","","","","","","","","","","","","","","","","","","","","","","","","","","","","","","","","","","","","","","","","","","","","",""
"","iti_localizer","","html-keyboard-response","61","405506","0.0-2.0-2.2-1.2","34","47658","male ","null","","","","null","","0","","","405201","0","","","","","","300","1800","305","1822","300","","","","","","","","","","","","","","","","","","","","","","","","","","","","","","","","","","","","","","","","","","","","","","","","","","","","",""
"","localizer","","html-keyboard-response","62","405910","0.0-2.0-3.0-0.0","34","47658","male ","NaN","","","","null","NaN","1","","Stimuli/Practice_stims/Localizer/becca-tapert-sY5RjMB1KkE-unsplash.jpg","405506","0","NaN","","0","1","0","400","2100","404","2127","","","","","","","","","","","","","","","","","","","","","","","","","","","","","","","","","","","","","","","","","","","","","","","","","","","","","",""
"","iti_localizer","","html-keyboard-response","63","406216","0.0-2.0-3.0-1.0","34","47658","male ","null","","","","null","","1","","","405910","0","","","","","","300","2500","306","2531","300","","","","","","","","","","","","","","","","","","","","","","","","","","","","","","","","","","","","","","","","","","","","","","","","","","","","",""
"","localizer","","html-keyboard-response","64","406621","0.0-2.0-3.1-0.1","34","47658","male ","64","","","","68","0","1","","Stimuli/Practice_stims/Localizer/becca-tapert-sY5RjMB1KkE-unsplash.jpg","406216","0","NaN","","0","0","1","400","2800","405","2837","","","","","","","","","","","","","","","","","","","","","","","","","","","","","","","","","","","","","","","","","","","","","","","","","","","","","",""
"","iti_localizer","","html-keyboard-response","65","406924","0.0-2.0-3.1-1.1","34","47658","male ","null","","","","null","","1","","","406621","0","","","","","","300","3200","303","3242","300","","","","","","","","","","","","","","","","","","","","","","","","","","","","","","","","","","","","","","","","","","","","","","","","","","","","",""
"","localizer","","html-keyboard-response","66","407329","0.0-2.0-4.0-0.0","34","47658","male ","NaN","","","","null","NaN","2","","Stimuli/Practice_stims/Localizer/charl-durand-bsfXvI25iNg-unsplash.jpg","406924","0","NaN","","1","1","0","400","3500","405","3545","","","","","","","","","","","","","","","","","","","","","","","","","","","","","","","","","","","","","","","","","","","","","","","","","","","","","",""
"","iti_localizer","","html-keyboard-response","67","407634","0.0-2.0-4.0-1.0","34","47658","male ","null","","","","null","","2","","","407329","0","","","","","","300","3900","305","3950","300","","","","","","","","","","","","","","","","","","","","","","","","","","","","","","","","","","","","","","","","","","","","","","","","","","","","",""
"","localizer","","html-keyboard-response","68","408038","0.0-2.0-4.1-0.1","34","47658","male ","0","","","","75","1","2","","Stimuli/Practice_stims/Localizer/charl-durand-bsfXvI25iNg-unsplash.jpg","407634","0","NaN","","1","0","1","400","4200","404","4255","","","","","","","","","","","","","","","","","","","","","","","","","","","","","","","","","","","","","","","","","","","","","","","","","","","","","",""
"","iti_localizer","","html-keyboard-response","69","408342","0.0-2.0-4.1-1.1","34","47658","male ","null","","","","null","","2","","","408038","0","","","","","","300","4600","304","4659","300","","","","","","","","","","","","","","","","","","","","","","","","","","","","","","","","","","","","","","","","","","","","","","","","","","","","",""
"","localizer","","html-keyboard-response","70","408746","0.0-2.0-5.0-0.0","34","47658","male ","105","","","","75","1","3","","Stimuli/Practice_stims/Localizer/nizar-albusaidy-B2r2SWAf5CE-unsplash.jpg","408342","0","NaN","","0","0","0","400","4900","404","4963","","","","","","","","","","","","","","","","","","","","","","","","","","","","","","","","","","","","","","","","","","","","","","","","","","","","","",""
"","iti_localizer","","html-keyboard-response","71","409051","0.0-2.0-5.0-1.0","34","47658","male ","null","","","","null","","3","","","408746","0","","","","","","300","5300","305","5367","300","","","","","","","","","","","","","","","","","","","","","","","","","","","","","","","","","","","","","","","","","","","","","","","","","","","","",""
"","localizer","","html-keyboard-response","72","409456","0.0-2.0-6.0-0.0","34","47658","male ","NaN","","","","null","NaN","4","","Stimuli/Practice_stims/Localizer/randy-fath-epf1tdtIIkM-unsplash.jpg","409051","0","NaN","","1","1","0","400","5600","405","5672","","","","","","","","","","","","","","","","","","","","","","","","","","","","","","","","","","","","","","","","","","","","","","","","","","","","","",""
"","iti_localizer","","html-keyboard-response","73","409760","0.0-2.0-6.0-1.0","34","47658","male ","null","","","","null","","4","","","409456","0","","","","","","300","6000","304","6077","300","","","","","","","","","","","","","","","","","","","","","","","","","","","","","","","","","","","","","","","","","","","","","","","","","","","","",""
"","localizer","","html-keyboard-response","74","410166","0.0-2.0-6.1-0.1","34","47658","male ","NaN","","","","null","NaN","4","","Stimuli/Practice_stims/Localizer/randy-fath-epf1tdtIIkM-unsplash.jpg","409760","0","NaN","","1","1","0","400","6300","406","6381","","","","","","","","","","","","","","","","","","","","","","","","","","","","","","","","","","","","","","","","","","","","","","","","","","","","","",""
"","iti_localizer","","html-keyboard-response","75","410470","0.0-2.0-6.1-1.1","34","47658","male ","null","","","","null","","4","","","410166","0","","","","","","300","6700","304","6787","300","","","","","","","","","","","","","","","","","","","","","","","","","","","","","","","","","","","","","","","","","","","","","","","","","","","","",""
"","localizer","","html-keyboard-response","76","410875","0.0-2.0-6.2-0.2","34","47658","male ","NaN","","","","null","NaN","4","","Stimuli/Practice_stims/Localizer/randy-fath-epf1tdtIIkM-unsplash.jpg","410470","0","NaN","","1","1","0","400","7000","405","7091","","","","","","","","","","","","","","","","","","","","","","","","","","","","","","","","","","","","","","","","","","","","","","","","","","","","","",""
"","iti_localizer","","html-keyboard-response","77","411179","0.0-2.0-6.2-1.2","34","47658","male ","null","","","","null","","4","","","410875","0","","","","","","300","7400","304","7496","300","","","","","","","","","","","","","","","","","","","","","","","","","","","","","","","","","","","","","","","","","","","","","","","","","","","","",""
"","localizer","","html-keyboard-response","78","411583","0.0-2.0-6.3-0.3","34","47658","male ","NaN","","","","null","NaN","4","","Stimuli/Practice_stims/Localizer/randy-fath-epf1tdtIIkM-unsplash.jpg","411179","0","NaN","","1","1","0","400","7700","404","7800","","","","","","","","","","","","","","","","","","","","","","","","","","","","","","","","","","","","","","","","","","","","","","","","","","","","","",""
"","iti_localizer","","html-keyboard-response","79","411887","0.0-2.0-6.3-1.3","34","47658","male ","null","","","","null","","4","","","411583","0","","","","","","300","8100","304","8204","300","","","","","","","","","","","","","","","","","","","","","","","","","","","","","","","","","","","","","","","","","","","","","","","","","","","","",""
"","localizer","","html-keyboard-response","80","412291","0.0-2.0-6.4-0.4","34","47658","male ","264","","","","75","1","4","","Stimuli/Practice_stims/Localizer/randy-fath-epf1tdtIIkM-unsplash.jpg","411887","0","NaN","","1","0","1","400","8400","404","8508","","","","","","","","","","","","","","","","","","","","","","","","","","","","","","","","","","","","","","","","","","","","","","","","","","","","","",""
"","iti_localizer","","html-keyboard-response","81","412596","0.0-2.0-6.4-1.4","34","47658","male ","null","","","","null","","4","","","412291","0","","","","","","300","8800","305","8912","300","","","","","","","","","","","","","","","","","","","","","","","","","","","","","","","","","","","","","","","","","","","","","","","","","","","","",""
"","localizer","","html-keyboard-response","82","413001","0.0-2.0-7.0-0.0","34","47658","male ","NaN","","","","null","NaN","5","","Stimuli/Practice_stims/Localizer/yassine-khalfalli-adsQ9d_Cx0c-unsplash.jpg","412596","0","NaN","","0","1","0","400","9100","405","9217","","","","","","","","","","","","","","","","","","","","","","","","","","","","","","","","","","","","","","","","","","","","","","","","","","","","","",""
"","iti_localizer","","html-keyboard-response","83","413307","0.0-2.0-7.0-1.0","34","47658","male ","null","","","","null","","5","","","413001","0","","","","","","300","9500","306","9622","300","","","","","","","","","","","","","","","","","","","","","","","","","","","","","","","","","","","","","","","","","","","","","","","","","","","","",""
"","localizer","","html-keyboard-response","84","413712","0.0-2.0-7.1-0.1","34","47658","male ","92","","","","68","0","5","","Stimuli/Practice_stims/Localizer/yassine-khalfalli-adsQ9d_Cx0c-unsplash.jpg","413307","0","NaN","","0","0","1","400","9800","405","9928","","","","","","","","","","","","","","","","","","","","","","","","","","","","","","","","","","","","","","","","","","","","","","","","","","","","","",""
"","iti_localizer","","html-keyboard-response","85","414017","0.0-2.0-7.1-1.1","34","47658","male ","null","","","","null","","5","","","413712","0","","","","","","300","10200","305","10333","300","","","","","","","","","","","","","","","","","","","","","","","","","","","","","","","","","","","","","","","","","","","","","","","","","","","","",""
"","practice_over","","html-keyboard-response","86","417059","0.0-2.0-7.1-2.1-0.1","34","47658","male ","3038","","","","68","","","","","","","","","","","","","","","","","","","","","","","","","","","","","","","","","","","","","","","","","","","","","","","","","","","","","","","","","","","","","","","","","","","","",""
"","start_run","","html-keyboard-response","87","420419","0.0-2.0-7.1-2.1-1.1","34","47658","male ","3357","","","","84","","","","","","","","","","","","","","","","","","","","","","","","","","","","","","","","","","","","","","","","","","","","","","","","","","","","","","","","","","","","","","","","","","","","",""
"","localizer","","html-keyboard-response","88","420823","0.0-2.0-8.0-0.0","34","47658","male ","NaN","","","","null","NaN","6","","Stimuli/Experimental_stims/localizer/objects/jonny-caspari-wsvCC6UyKjs-unsplash.jpg","420419","1","objects","","0","1","0","400","0","404","0","","","","","","","","","","","","","","","","","","","","","","","","","","","","","","","","","","","","","","","","","","","","","","","","","","","","","",""
"","iti_localizer","","html-keyboard-response","89","421127","0.0-2.0-8.0-1.0","34","47658","male ","null","","","","null","","6","","","420823","1","","","","","","300","400","304","404","300","","","","","","","","","","","","","","","","","","","","","","","","","","","","","","","","","","","","","","","","","","","","","","","","","","","","",""
"","localizer","","html-keyboard-response","90","421532","0.0-2.0-9.0-0.0","34","47658","male ","NaN","","","","null","NaN","7","","Stimuli/Experimental_stims/localizer/objects/charlesdeluvio-RDjZh9dqlP4-unsplash.jpg","421127","1","objects","","0","1","0","400","700","405","708","","","","","","","","","","","","","","","","","","","","","","","","","","","","","","","","","","","","","","","","","","","","","","","","","","","","","",""
"","iti_localizer","","html-keyboard-response","91","421836","0.0-2.0-9.0-1.0","34","47658","male ","null","","","","null","","7","","","421532","1","","","","","","300","1100","304","1113","300","","","","","","","","","","","","","","","","","","","","","","","","","","","","","","","","","","","","","","","","","","","","","","","","","","","","",""
"","localizer","","html-keyboard-response","92","422240","0.0-2.0-10.0-0.0","34","47658","male ","292","","","","68","0","8","","Stimuli/Experimental_stims/localizer/objects/adriano-pucciarelli-Jl3S1yM8gi8-unsplash.jpg","421836","1","objects","","0","0","1","400","1400","404","1417","","","","","","","","","","","","","","","","","","","","","","","","","","","","","","","","","","","","","","","","","","","","","","","","","","","","","",""
"","iti_localizer","","html-keyboard-response","93","422546","0.0-2.0-10.0-1.0","34","47658","male ","null","","","","null","","8","","","422240","1","","","","","","300","1800","306","1821","300","","","","","","","","","","","","","","","","","","","","","","","","","","","","","","","","","","","","","","","","","","","","","","","","","","","","",""
"","localizer","","html-keyboard-response","94","422951","0.0-2.0-11.0-0.0","34","47658","male ","150","","","","68","0","9","","Stimuli/Experimental_stims/localizer/objects/mockup-graphics-Pj2PY-E-LfM-unsplash.jpg","422546","1","objects","","0","0","1","400","2100","405","2127","","","","","","","","","","","","","","","","","","","","","","","","","","","","","","","","","","","","","","","","","","","","","","","","","","","","","",""
"","iti_localizer","","html-keyboard-response","95","423256","0.0-2.0-11.0-1.0","34","47658","male ","null","","","","null","","9","","","422951","1","","","","","","300","2500","305","2532","300","","","","","","","","","","","","","","","","","","","","","","","","","","","","","","","","","","","","","","","","","","","","","","","","","","","","",""
"","localizer","","html-keyboard-response","96","423660","0.0-2.0-12.0-0.0","34","47658","male ","288","","","","68","0","10","","Stimuli/Experimental_stims/localizer/objects/chris-briggs-x9TCnxNBofE-unsplash.jpg","423256","1","objects","","0","0","1","400","2800","404","2837","","","","","","","","","","","","","","","","","","","","","","","","","","","","","","","","","","","","","","","","","","","","","","","","","","","","","",""
"","iti_localizer","","html-keyboard-response","97","423965","0.0-2.0-12.0-1.0","34","47658","male ","null","","","","null","","10","","","423660","1","","","","","","300","3200","305","3241","300","","","","","","","","","","","","","","","","","","","","","","","","","","","","","","","","","","","","","","","","","","","","","","","","","","","","",""
"","localizer","","html-keyboard-response","98","424370","0.0-2.0-13.0-0.0","34","47658","male ","NaN","","","","null","NaN","11","","Stimuli/Experimental_stims/localizer/objects/ignat-dolomanov-kFBDVnmskPA-unsplash.jpg","423965","1","objects","","1","1","0","400","3500","405","3546","","","","","","","","","","","","","","","","","","","","","","","","","","","","","","","","","","","","","","","","","","","","","","","","","","","","","",""
"","iti_localizer","","html-keyboard-response","99","424674","0.0-2.0-13.0-1.0","34","47658","male ","null","","","","null","","11","","","424370","1","","","","","","300","3900","304","3951","300","","","","","","","","","","","","","","","","","","","","","","","","","","","","","","","","","","","","","","","","","","","","","","","","","","","","",""
"","localizer","","html-keyboard-response","100","425078","0.0-2.0-14.0-0.0","34","47658","male ","NaN","","","","null","NaN","12","","Stimuli/Experimental_stims/localizer/objects/adriano-pucciarelli-BE7yaZnZX6o-unsplash.jpg","424674","1","objects","","0","1","0","400","4200","404","4255","","","","","","","","","","","","","","","","","","","","","","","","","","","","","","","","","","","","","","","","","","","","","","","","","","","","","",""
"","iti_localizer","","html-keyboard-response","101","425383","0.0-2.0-14.0-1.0","34","47658","male ","null","","","","null","","12","","","425078","1","","","","","","300","4600","305","4659","300","","","","","","","","","","","","","","","","","","","","","","","","","","","","","","","","","","","","","","","","","","","","","","","","","","","","",""
"","localizer","","html-keyboard-response","102","425787","0.0-2.0-15.0-0.0","34","47658","male ","NaN","","","","null","NaN","13","","Stimuli/Experimental_stims/localizer/objects/eugene-chystiakov-3neSwyntbQ8-unsplash.jpg","425383","1","objects","","0","1","0","400","4900","404","4964","","","","","","","","","","","","","","","","","","","","","","","","","","","","","","","","","","","","","","","","","","","","","","","","","","","","","",""
"","iti_localizer","","html-keyboard-response","103","426092","0.0-2.0-15.0-1.0","34","47658","male ","null","","","","null","","13","","","425787","1","","","","","","300","5300","305","5368","300","","","","","","","","","","","","","","","","","","","","","","","","","","","","","","","","","","","","","","","","","","","","","","","","","","","","",""
"","localizer","","html-keyboard-response","104","426496","0.0-2.0-16.0-0.0","34","47658","male ","NaN","","","","null","NaN","14","","Stimuli/Experimental_stims/localizer/objects/girl-with-red-hat-Xxg-r574pLE-unsplash.jpg","426092","1","objects","","0","1","0","400","5600","404","5673","","","","","","","","","","","","","","","","","","","","","","","","","","","","","","","","","","","","","","","","","","","","","","","","","","","","","",""
"","iti_localizer","","html-keyboard-response","105","426800","0.0-2.0-16.0-1.0","34","47658","male ","null","","","","null","","14","","","426496","1","","","","","","300","6000","304","6077","300","","","","","","","","","","","","","","","","","","","","","","","","","","","","","","","","","","","","","","","","","","","","","","","","","","","","",""
"","localizer","","html-keyboard-response","106","427205","0.0-2.0-17.0-0.0","34","47658","male ","NaN","","","","null","NaN","15","","Stimuli/Experimental_stims/localizer/objects/hipster-mum-XookgCxFw6Q-unsplash.jpg","426800","1","objects","","0","1","0","400","6300","405","6381","","","","","","","","","","","","","","","","","","","","","","","","","","","","","","","","","","","","","","","","","","","","","","","","","","","","","",""
"","iti_localizer","","html-keyboard-response","107","427510","0.0-2.0-17.0-1.0","34","47658","male ","null","","","","null","","15","","","427205","1","","","","","","300","6700","305","6786","300","","","","","","","","","","","","","","","","","","","","","","","","","","","","","","","","","","","","","","","","","","","","","","","","","","","","",""
"","localizer","","html-keyboard-response","108","427914","0.0-2.0-18.0-0.0","34","47658","male ","NaN","","","","null","NaN","16","","Stimuli/Experimental_stims/localizer/objects/quino-al-8gWEAAXJjtI-unsplash.jpg","427510","1","objects","","0","1","0","400","7000","404","7091","","","","","","","","","","","","","","","","","","","","","","","","","","","","","","","","","","","","","","","","","","","","","","","","","","","","","",""
"","iti_localizer","","html-keyboard-response","109","428219","0.0-2.0-18.0-1.0","34","47658","male ","null","","","","null","","16","","","427914","1","","","","","","300","7400","305","7495","300","","","","","","","","","","","","","","","","","","","","","","","","","","","","","","","","","","","","","","","","","","","","","","","","","","","","",""
"","localizer","","html-keyboard-response","110","428624","0.0-2.0-19.0-0.0","34","47658","male ","NaN","","","","null","NaN","17","","Stimuli/Experimental_stims/localizer/objects/florian-klauer-mk7D-4UCfmg-unsplash.jpg","428219","1","objects","","0","1","0","400","7700","405","7800","","","","","","","","","","","","","","","","","","","","","","","","","","","","","","","","","","","","","","","","","","","","","","","","","","","","","",""
"","iti_localizer","","html-keyboard-response","111","428929","0.0-2.0-19.0-1.0","34","47658","male ","null","","","","null","","17","","","428624","1","","","","","","300","8100","305","8205","300","","","","","","","","","","","","","","","","","","","","","","","","","","","","","","","","","","","","","","","","","","","","","","","","","","","","",""
"","localizer","","html-keyboard-response","112","429333","0.0-2.0-20.0-0.0","34","47658","male ","NaN","","","","null","NaN","18","","Stimuli/Experimental_stims/localizer/objects/andrew-petrov-TVJqDat4MAw-unsplash.jpg","428929","1","objects","","0","1","0","400","8400","404","8510","","","","","","","","","","","","","","","","","","","","","","","","","","","","","","","","","","","","","","","","","","","","","","","","","","","","","",""
"","iti_localizer","","html-keyboard-response","113","429637","0.0-2.0-20.0-1.0","34","47658","male ","null","","","","null","","18","","","429333","1","","","","","","300","8800","304","8914","300","","","","","","","","","","","","","","","","","","","","","","","","","","","","","","","","","","","","","","","","","","","","","","","","","","","","",""
"","localizer","","html-keyboard-response","114","430041","0.0-2.0-21.0-0.0","34","47658","male ","74","","","","68","0","19","","Stimuli/Experimental_stims/localizer/objects/carlos-felipe-ramirez-mesa-HW7bfB3ERSQ-unsplash.jpg","429637","1","objects","","0","0","1","400","9100","404","9218","","","","","","","","","","","","","","","","","","","","","","","","","","","","","","","","","","","","","","","","","","","","","","","","","","","","","",""
"","iti_localizer","","html-keyboard-response","115","430346","0.0-2.0-21.0-1.0","34","47658","male ","null","","","","null","","19","","","430041","1","","","","","","300","9500","305","9622","300","","","","","","","","","","","","","","","","","","","","","","","","","","","","","","","","","","","","","","","","","","","","","","","","","","","","",""
"","localizer","","html-keyboard-response","116","430750","0.0-2.0-22.0-0.0","34","47658","male ","NaN","","","","null","NaN","20","","Stimuli/Experimental_stims/localizer/objects/yoann-siloine-_T4w3JDm6ug-unsplash.jpg","430346","1","objects","","1","1","0","400","9800","404","9927","","","","","","","","","","","","","","","","","","","","","","","","","","","","","","","","","","","","","","","","","","","","","","","","","","","","","",""
"","iti_localizer","","html-keyboard-response","117","431053","0.0-2.0-22.0-1.0","34","47658","male ","null","","","","null","","20","","","430750","1","","","","","","300","10200","303","10331","300","","","","","","","","","","","","","","","","","","","","","","","","","","","","","","","","","","","","","","","","","","","","","","","","","","","","",""
"","localizer","","html-keyboard-response","118","431458","0.0-2.0-23.0-0.0","34","47658","male ","NaN","","","","null","NaN","21","","Stimuli/Experimental_stims/localizer/objects/ales-krivec-ZMZHcvIVgbg-unsplash.jpg","431053","1","objects","","0","1","0","400","10500","405","10634","","","","","","","","","","","","","","","","","","","","","","","","","","","","","","","","","","","","","","","","","","","","","","","","","","","","","",""
"","iti_localizer","","html-keyboard-response","119","431763","0.0-2.0-23.0-1.0","34","47658","male ","null","","","","null","","21","","","431458","1","","","","","","300","10900","305","11039","300","","","","","","","","","","","","","","","","","","","","","","","","","","","","","","","","","","","","","","","","","","","","","","","","","","","","",""
"","localizer","","html-keyboard-response","120","432167","0.0-2.0-24.0-0.0","34","47658","male ","NaN","","","","null","NaN","22","","Stimuli/Experimental_stims/localizer/objects/designecologist-hvgd0ygXuQQ-unsplash.jpg","431763","1","objects","","0","1","0","400","11200","404","11344","","","","","","","","","","","","","","","","","","","","","","","","","","","","","","","","","","","","","","","","","","","","","","","","","","","","","",""
"","iti_localizer","","html-keyboard-response","121","432472","0.0-2.0-24.0-1.0","34","47658","male ","null","","","","null","","22","","","432167","1","","","","","","300","11600","305","11748","300","","","","","","","","","","","","","","","","","","","","","","","","","","","","","","","","","","","","","","","","","","","","","","","","","","","","",""
"","localizer","","html-keyboard-response","122","432876","0.0-2.0-25.0-0.0","34","47658","male ","384","","","","68","0","23","","Stimuli/Experimental_stims/localizer/objects/dario-mendez-hnJ2VNZzbns-unsplash.jpg","432472","1","objects","","0","0","1","400","11900","404","12053","","","","","","","","","","","","","","","","","","","","","","","","","","","","","","","","","","","","","","","","","","","","","","","","","","","","","",""
"","iti_localizer","","html-keyboard-response","123","433181","0.0-2.0-25.0-1.0","34","47658","male ","null","","","","null","","23","","","432876","1","","","","","","300","12300","305","12457","300","","","","","","","","","","","","","","","","","","","","","","","","","","","","","","","","","","","","","","","","","","","","","","","","","","","","",""
"","localizer","","html-keyboard-response","124","433586","0.0-2.0-26.0-0.0","34","47658","male ","NaN","","","","null","NaN","24","","Stimuli/Experimental_stims/localizer/objects/muhammad-toqeer-NRJ9ipvz2iE-unsplash.jpg","433181","1","objects","","0","1","0","400","12600","405","12762","","","","","","","","","","","","","","","","","","","","","","","","","","","","","","","","","","","","","","","","","","","","","","","","","","","","","",""
"","iti_localizer","","html-keyboard-response","125","433889","0.0-2.0-26.0-1.0","34","47658","male ","null","","","","null","","24","","","433586","1","","","","","","300","13000","303","13167","300","","","","","","","","","","","","","","","","","","","","","","","","","","","","","","","","","","","","","","","","","","","","","","","","","","","","",""
"","localizer","","html-keyboard-response","126","434293","0.0-2.0-27.0-0.0","34","47658","male ","342","","","","68","0","25","","Stimuli/Experimental_stims/localizer/objects/markus-spiske-ANrVtttbNss-unsplash.jpg","433889","1","objects","","0","0","1","400","13300","404","13470","","","","","","","","","","","","","","","","","","","","","","","","","","","","","","","","","","","","","","","","","","","","","","","","","","","","","",""
"","iti_localizer","","html-keyboard-response","127","448297","0.0-2.0-27.0-1.0","34","47658","male ","null","","","","null","","25","","","434293","1","","","","","","14000","13700","14004","13874","14000","","","","","","","","","","","","","","","","","","","","","","","","","","","","","","","","","","","","","","","","","","","","","","","","","","","","",""
"","localizer","","html-keyboard-response","128","448701","0.0-2.0-28.0-0.0","34","47658","male ","NaN","","","","null","NaN","26","","Stimuli/Experimental_stims/localizer/body_parts/jan-romero-DL4DDQb8yjc-unsplash.jpg","448297","1","body_parts","","0","1","0","400","27700","404","27878","","","","","","","","","","","","","","","","","","","","","","","","","","","","","","","","","","","","","","","","","","","","","","","","","","","","","",""
"","iti_localizer","","html-keyboard-response","129","449007","0.0-2.0-28.0-1.0","34","47658","male ","null","","","","null","","26","","","448701","1","","","","","","300","28100","306","28282","300","","","","","","","","","","","","","","","","","","","","","","","","","","","","","","","","","","","","","","","","","","","","","","","","","","","","",""
"","localizer","","html-keyboard-response","130","449412","0.0-2.0-29.0-0.0","34","47658","male ","NaN","","","","null","NaN","27","","Stimuli/Experimental_stims/localizer/body_parts/juja-han-Z8-6EI2tYtw-unsplash.jpg","449007","1","body_parts","","0","1","0","400","28400","405","28588","","","","","","","","","","","","","","","","","","","","","","","","","","","","","","","","","","","","","","","","","","","","","","","","","","","","","",""
"","iti_localizer","","html-keyboard-response","131","449717","0.0-2.0-29.0-1.0","34","47658","male ","null","","","","null","","27","","","449412","1","","","","","","300","28800","305","28993","300","","","","","","","","","","","","","","","","","","","","","","","","","","","","","","","","","","","","","","","","","","","","","","","","","","","","",""
"","localizer","","html-keyboard-response","132","450122","0.0-2.0-30.0-0.0","34","47658","male ","NaN","","","","null","NaN","28","","Stimuli/Experimental_stims/localizer/body_parts/kai-wenzel-zYDJOxjaZrQ-unsplash.jpg","449717","1","body_parts","","1","1","0","400","29100","405","29298","","","","","","","","","","","","","","","","","","","","","","","","","","","","","","","","","","","","","","","","","","","","","","","","","","","","","",""
"","iti_localizer","","html-keyboard-response","133","450426","0.0-2.0-30.0-1.0","34","47658","male ","null","","","","null","","28","","","450122","1","","","","","","300","29500","304","29703","300","","","","","","","","","","","","","","","","","","","","","","","","","","","","","","","","","","","","","","","","","","","","","","","","","","","","",""
"","localizer","","html-keyboard-response","134","450830","0.0-2.0-31.0-0.0","34","47658","male ","NaN","","","","null","NaN","29","","Stimuli/Experimental_stims/localizer/body_parts/igordoon-primus-CdyHqfrbGIs-unsplash.jpg","450426","1","body_parts","","0","1","0","400","29800","404","30007","","","","","","","","","","","","","","","","","","","","","","","","","","","","","","","","","","","","","","","","","","","","","","","","","","","","","",""
"","iti_localizer","","html-keyboard-response","135","451135","0.0-2.0-31.0-1.0","34","47658","male ","null","","","","null","","29","","","450830","1","","","","","","300","30200","305","30411","300","","","","","","","","","","","","","","","","","","","","","","","","","","","","","","","","","","","","","","","","","","","","","","","","","","","","",""
"","localizer","","html-keyboard-response","136","451539","0.0-2.0-32.0-0.0","34","47658","male ","NaN","","","","null","NaN","30","","Stimuli/Experimental_stims/localizer/body_parts/nick-page-WTNmgJtwzGI-unsplash.jpg","451135","1","body_parts","","0","1","0","400","30500","404","30716","","","","","","","","","","","","","","","","","","","","","","","","","","","","","","","","","","","","","","","","","","","","","","","","","","","","","",""
"","iti_localizer","","html-keyboard-response","137","451843","0.0-2.0-32.0-1.0","34","47658","male ","null","","","","null","","30","","","451539","1","","","","","","300","30900","304","31120","300","","","","","","","","","","","","","","","","","","","","","","","","","","","","","","","","","","","","","","","","","","","","","","","","","","","","",""
"","localizer","","html-keyboard-response","138","452247","0.0-2.0-33.0-0.0","34","47658","male ","NaN","","","","null","NaN","31","","Stimuli/Experimental_stims/localizer/body_parts/callum-skelton-3KLMq7y46nA-unsplash.jpg","451843","1","body_parts","","0","1","0","400","31200","404","31424","","","","","","","","","","","","","","","","","","","","","","","","","","","","","","","","","","","","","","","","","","","","","","","","","","","","","",""
"","iti_localizer","","html-keyboard-response","139","452552","0.0-2.0-33.0-1.0","34","47658","male ","null","","","","null","","31","","","452247","1","","","","","","300","31600","305","31828","300","","","","","","","","","","","","","","","","","","","","","","","","","","","","","","","","","","","","","","","","","","","","","","","","","","","","",""
"","localizer","","html-keyboard-response","140","452956","0.0-2.0-34.0-0.0","34","47658","male ","NaN","","","","null","NaN","32","","Stimuli/Experimental_stims/localizer/body_parts/anelya-okapova-V69kmOyZ3SU-unsplash.jpg","452552","1","body_parts","","0","1","0","400","31900","404","32133","","","","","","","","","","","","","","","","","","","","","","","","","","","","","","","","","","","","","","","","","","","","","","","","","","","","","",""
"","iti_localizer","","html-keyboard-response","141","453261","0.0-2.0-34.0-1.0","34","47658","male ","null","","","","null","","32","","","452956","1","","","","","","300","32300","305","32537","300","","","","","","","","","","","","","","","","","","","","","","","","","","","","","","","","","","","","","","","","","","","","","","","","","","","","",""
"","localizer","","html-keyboard-response","142","453666","0.0-2.0-35.0-0.0","34","47658","male ","NaN","","","","null","NaN","33","","Stimuli/Experimental_stims/localizer/body_parts/jeremy-yap-TfJEi17kA0w-unsplash.jpg","453261","1","body_parts","","0","1","0","400","32600","405","32842","","","","","","","","","","","","","","","","","","","","","","","","","","","","","","","","","","","","","","","","","","","","","","","","","","","","","",""
"","iti_localizer","","html-keyboard-response","143","453971","0.0-2.0-35.0-1.0","34","47658","male ","null","","","","null","","33","","","453666","1","","","","","","300","33000","305","33247","300","","","","","","","","","","","","","","","","","","","","","","","","","","","","","","","","","","","","","","","","","","","","","","","","","","","","",""
"","localizer","","html-keyboard-response","144","454376","0.0-2.0-36.0-0.0","34","47658","male ","284","","","","68","0","34","","Stimuli/Experimental_stims/localizer/body_parts/debby-hudson--B_757qSA4k-unsplash.jpg","453971","1","body_parts","","0","0","1","400","33300","405","33552","","","","","","","","","","","","","","","","","","","","","","","","","","","","","","","","","","","","","","","","","","","","","","","","","","","","","",""
"","iti_localizer","","html-keyboard-response","145","454681","0.0-2.0-36.0-1.0","34","47658","male ","null","","","","null","","34","","","454376","1","","","","","","300","33700","305","33957","300","","","","","","","","","","","","","","","","","","","","","","","","","","","","","","","","","","","","","","","","","","","","","","","","","","","","",""
"","localizer","","html-keyboard-response","146","455085","0.0-2.0-37.0-0.0","34","47658","male ","151","","","","68","0","35","","Stimuli/Experimental_stims/localizer/body_parts/danie-franco-jyyNiSEcCl4-unsplash.jpg","454681","1","body_parts","","0","0","1","400","34000","404","34262","","","","","","","","","","","","","","","","","","","","","","","","","","","","","","","","","","","","","","","","","","","","","","","","","","","","","",""
"","iti_localizer","","html-keyboard-response","147","455390","0.0-2.0-37.0-1.0","34","47658","male ","null","","","","null","","35","","","455085","1","","","","","","300","34400","305","34666","300","","","","","","","","","","","","","","","","","","","","","","","","","","","","","","","","","","","","","","","","","","","","","","","","","","","","",""
"","localizer","","html-keyboard-response","148","455794","0.0-2.0-38.0-0.0","34","47658","male ","10","","","","68","0","36","","Stimuli/Experimental_stims/localizer/body_parts/toan-nguyen-VIeLuUFzesg-unsplash.jpg","455390","1","body_parts","","0","0","1","400","34700","404","34971","","","","","","","","","","","","","","","","","","","","","","","","","","","","","","","","","","","","","","","","","","","","","","","","","","","","","",""
"","iti_localizer","","html-keyboard-response","149","456097","0.0-2.0-38.0-1.0","34","47658","male ","null","","","","null","","36","","","455794","1","","","","","","300","35100","303","35375","300","","","","","","","","","","","","","","","","","","","","","","","","","","","","","","","","","","","","","","","","","","","","","","","","","","","","",""
"","localizer","","html-keyboard-response","150","456502","0.0-2.0-39.0-0.0","34","47658","male ","NaN","","","","null","NaN","37","","Stimuli/Experimental_stims/localizer/body_parts/femme-spirit-RGYBDUHYbyM-unsplash.jpg","456097","1","body_parts","","0","1","0","400","35400","405","35678","","","","","","","","","","","","","","","","","","","","","","","","","","","","","","","","","","","","","","","","","","","","","","","","","","","","","",""
"","iti_localizer","","html-keyboard-response","151","456807","0.0-2.0-39.0-1.0","34","47658","male ","null","","","","null","","37","","","456502","1","","","","","","300","35800","305","36083","300","","","","","","","","","","","","","","","","","","","","","","","","","","","","","","","","","","","","","","","","","","","","","","","","","","","","",""
"","localizer","","html-keyboard-response","152","457213","0.0-2.0-40.0-0.0","34","47658","male ","113","","","","68","0","38","","Stimuli/Experimental_stims/localizer/body_parts/sincerely-media-QyzlAZjm0r0-unsplash.jpg","456807","1","body_parts","","0","0","1","400","36100","406","36388","","","","","","","","","","","","","","","","","","","","","","","","","","","","","","","","","","","","","","","","","","","","","","","","","","","","","",""
"","iti_localizer","","html-keyboard-response","153","457517","0.0-2.0-40.0-1.0","34","47658","male ","null","","","","null","","38","","","457213","1","","","","","","300","36500","304","36794","300","","","","","","","","","","","","","","","","","","","","","","","","","","","","","","","","","","","","","","","","","","","","","","","","","","","","",""
"","localizer","","html-keyboard-response","154","457923","0.0-2.0-41.0-0.0","34","47658","male ","282","","","","68","0","39","","Stimuli/Experimental_stims/localizer/body_parts/betzy-arosemena-YHdgnygtVCQ-unsplash.jpg","457517","1","body_parts","","0","0","1","400","36800","406","37098","","","","","","","","","","","","","","","","","","","","","","","","","","","","","","","","","","","","","","","","","","","","","","","","","","","","","",""
"","iti_localizer","","html-keyboard-response","155","458227","0.0-2.0-41.0-1.0","34","47658","male ","null","","","","null","","39","","","457923","1","","","","","","300","37200","304","37504","300","","","","","","","","","","","","","","","","","","","","","","","","","","","","","","","","","","","","","","","","","","","","","","","","","","","","",""
"","localizer","","html-keyboard-response","156","458631","0.0-2.0-42.0-0.0","34","47658","male ","293","","","","68","0","40","","Stimuli/Experimental_stims/localizer/body_parts/nihal-karkala-LlOfbQD-IJ0-unsplash.jpg","458227","1","body_parts","","0","0","1","400","37500","404","37808","","","","","","","","","","","","","","","","","","","","","","","","","","","","","","","","","","","","","","","","","","","","","","","","","","","","","",""
"","iti_localizer","","html-keyboard-response","157","458936","0.0-2.0-42.0-1.0","34","47658","male ","null","","","","null","","40","","","458631","1","","","","","","300","37900","305","38212","300","","","","","","","","","","","","","","","","","","","","","","","","","","","","","","","","","","","","","","","","","","","","","","","","","","","","",""
"","localizer","","html-keyboard-response","158","459340","0.0-2.0-43.0-0.0","34","47658","male ","328","","","","68","0","41","","Stimuli/Experimental_stims/localizer/body_parts/nattalia-nunez-MB9sdDfZMSg-unsplash.jpg","458936","1","body_parts","","0","0","1","400","38200","404","38517","","","","","","","","","","","","","","","","","","","","","","","","","","","","","","","","","","","","","","","","","","","","","","","","","","","","","",""
"","iti_localizer","","html-keyboard-response","159","459643","0.0-2.0-43.0-1.0","34","47658","male ","null","","","","null","","41","","","459340","1","","","","","","300","38600","303","38921","300","","","","","","","","","","","","","","","","","","","","","","","","","","","","","","","","","","","","","","","","","","","","","","","","","","","","",""
"","localizer","","html-keyboard-response","160","460048","0.0-2.0-44.0-0.0","34","47658","male ","NaN","","","","null","NaN","42","","Stimuli/Experimental_stims/localizer/body_parts/xavier-foucrier-dLZUNHsT8vo-unsplash.jpg","459643","1","body_parts","","0","1","0","400","38900","405","39224","","","","","","","","","","","","","","","","","","","","","","","","","","","","","","","","","","","","","","","","","","","","","","","","","","","","","",""
"","iti_localizer","","html-keyboard-response","161","460353","0.0-2.0-44.0-1.0","34","47658","male ","null","","","","null","","42","","","460048","1","","","","","","300","39300","305","39629","300","","","","","","","","","","","","","","","","","","","","","","","","","","","","","","","","","","","","","","","","","","","","","","","","","","","","",""
"","localizer","","html-keyboard-response","162","460757","0.0-2.0-45.0-0.0","34","47658","male ","NaN","","","","null","NaN","43","","Stimuli/Experimental_stims/localizer/body_parts/i-am_nah--S4OsO0c6Ts-unsplash.jpg","460353","1","body_parts","","0","1","0","400","39600","404","39934","","","","","","","","","","","","","","","","","","","","","","","","","","","","","","","","","","","","","","","","","","","","","","","","","","","","","",""
"","iti_localizer","","html-keyboard-response","163","461061","0.0-2.0-45.0-1.0","34","47658","male ","null","","","","null","","43","","","460757","1","","","","","","300","40000","304","40338","300","","","","","","","","","","","","","","","","","","","","","","","","","","","","","","","","","","","","","","","","","","","","","","","","","","","","",""
"","localizer","","html-keyboard-response","164","461466","0.0-2.0-46.0-0.0","34","47658","male ","394","","","","68","0","44","","Stimuli/Experimental_stims/localizer/body_parts/megan-menegay-UojxG_BJxnI-unsplash.jpg","461061","1","body_parts","","0","0","1","400","40300","405","40642","","","","","","","","","","","","","","","","","","","","","","","","","","","","","","","","","","","","","","","","","","","","","","","","","","","","","",""
"","iti_localizer","","html-keyboard-response","165","461770","0.0-2.0-46.0-1.0","34","47658","male ","null","","","","null","","44","","","461466","1","","","","","","300","40700","304","41047","300","","","","","","","","","","","","","","","","","","","","","","","","","","","","","","","","","","","","","","","","","","","","","","","","","","","","",""
"","localizer","","html-keyboard-response","166","462175","0.0-2.0-47.0-0.0","34","47658","male ","341","","","","68","0","45","","Stimuli/Experimental_stims/localizer/body_parts/priscilla-du-preez-e6fcNpur53A-unsplash.jpg","461770","1","body_parts","","1","0","0","400","41000","405","41351","","","","","","","","","","","","","","","","","","","","","","","","","","","","","","","","","","","","","","","","","","","","","","","","","","","","","",""
"","iti_localizer","","html-keyboard-response","167","476182","0.0-2.0-47.0-1.0","34","47658","male ","null","","","","null","","45","","","462175","1","","","","","","14000","41400","14007","41756","14000","","","","","","","","","","","","","","","","","","","","","","","","","","","","","","","","","","","","","","","","","","","","","","","","","","","","",""
"","localizer","","html-keyboard-response","168","476587","0.0-2.0-48.0-0.0","34","47658","male ","NaN","","","","null","NaN","46","","Stimuli/Experimental_stims/localizer/faces/jake-nackos-IF9TK5Uy-KI-unsplash.jpg","476182","1","faces","","0","1","0","400","55400","405","55763","","","","","","","","","","","","","","","","","","","","","","","","","","","","","","","","","","","","","","","","","","","","","","","","","","","","","",""
"","iti_localizer","","html-keyboard-response","169","476890","0.0-2.0-48.0-1.0","34","47658","male ","null","","","","null","","46","","","476587","1","","","","","","300","55800","303","56168","300","","","","","","","","","","","","","","","","","","","","","","","","","","","","","","","","","","","","","","","","","","","","","","","","","","","","",""
"","localizer","","html-keyboard-response","170","477295","0.0-2.0-49.0-0.0","34","47658","male ","389","","","","68","0","47","","Stimuli/Experimental_stims/localizer/faces/ethan-haddox-__ng3cRXmFE-unsplash.jpg","476890","1","faces","","0","0","1","400","56100","405","56471","","","","","","","","","","","","","","","","","","","","","","","","","","","","","","","","","","","","","","","","","","","","","","","","","","","","","",""
"","iti_localizer","","html-keyboard-response","171","477599","0.0-2.0-49.0-1.0","34","47658","male ","null","","","","null","","47","","","477295","1","","","","","","300","56500","304","56876","300","","","","","","","","","","","","","","","","","","","","","","","","","","","","","","","","","","","","","","","","","","","","","","","","","","","","",""
"","localizer","","html-keyboard-response","172","478004","0.0-2.0-50.0-0.0","34","47658","male ","NaN","","","","null","NaN","48","","Stimuli/Experimental_stims/localizer/faces/samuel-dixon--fQ5XNOcqFQ-unsplash.jpg","477599","1","faces","","1","1","0","400","56800","405","57180","","","","","","","","","","","","","","","","","","","","","","","","","","","","","","","","","","","","","","","","","","","","","","","","","","","","","",""
"","iti_localizer","","html-keyboard-response","173","478309","0.0-2.0-50.0-1.0","34","47658","male ","null","","","","null","","48","","","478004","1","","","","","","300","57200","305","57585","300","","","","","","","","","","","","","","","","","","","","","","","","","","","","","","","","","","","","","","","","","","","","","","","","","","","","",""
"","localizer","","html-keyboard-response","174","478714","0.0-2.0-51.0-0.0","34","47658","male ","NaN","","","","null","NaN","49","","Stimuli/Experimental_stims/localizer/faces/jakob-owens-lkMJcGDZLVs-unsplash.jpg","478309","1","faces","","0","1","0","400","57500","405","57890","","","","","","","","","","","","","","","","","","","","","","","","","","","","","","","","","","","","","","","","","","","","","","","","","","","","","",""
"","iti_localizer","","html-keyboard-response","175","479017","0.0-2.0-51.0-1.0","34","47658","male ","null","","","","null","","49","","","478714","1","","","","","","300","57900","303","58295","300","","","","","","","","","","","","","","","","","","","","","","","","","","","","","","","","","","","","","","","","","","","","","","","","","","","","",""
"","localizer","","html-keyboard-response","176","479421","0.0-2.0-52.0-0.0","34","47658","male ","335","","","","68","0","50","","Stimuli/Experimental_stims/localizer/faces/joseph-gonzalez-iFgRcqHznqg-unsplash.jpg","479017","1","faces","","0","0","1","400","58200","404","58598","","","","","","","","","","","","","","","","","","","","","","","","","","","","","","","","","","","","","","","","","","","","","","","","","","","","","",""
"","iti_localizer","","html-keyboard-response","177","479724","0.0-2.0-52.0-1.0","34","47658","male ","null","","","","null","","50","","","479421","1","","","","","","300","58600","303","59002","300","","","","","","","","","","","","","","","","","","","","","","","","","","","","","","","","","","","","","","","","","","","","","","","","","","","","",""
"","localizer","","html-keyboard-response","178","480129","0.0-2.0-53.0-0.0","34","47658","male ","NaN","","","","null","NaN","51","","Stimuli/Experimental_stims/localizer/faces/tyler-nix-ZGa9d1a_4tA-unsplash.jpg","479724","1","faces","","0","1","0","400","58900","405","59305","","","","","","","","","","","","","","","","","","","","","","","","","","","","","","","","","","","","","","","","","","","","","","","","","","","","","",""
"","iti_localizer","","html-keyboard-response","179","480432","0.0-2.0-53.0-1.0","34","47658","male ","null","","","","null","","51","","","480129","1","","","","","","300","59300","303","59710","300","","","","","","","","","","","","","","","","","","","","","","","","","","","","","","","","","","","","","","","","","","","","","","","","","","","","",""
"","localizer","","html-keyboard-response","180","480838","0.0-2.0-54.0-0.0","34","47658","male ","374","","","","68","0","52","","Stimuli/Experimental_stims/localizer/faces/allef-vinicius-C_1jjFJioWg-unsplash.jpg","480432","1","faces","","0","0","1","400","59600","406","60013","","","","","","","","","","","","","","","","","","","","","","","","","","","","","","","","","","","","","","","","","","","","","","","","","","","","","",""
"","iti_localizer","","html-keyboard-response","181","481143","0.0-2.0-54.0-1.0","34","47658","male ","null","","","","null","","52","","","480838","1","","","","","","300","60000","305","60419","300","","","","","","","","","","","","","","","","","","","","","","","","","","","","","","","","","","","","","","","","","","","","","","","","","","","","",""
"","localizer","","html-keyboard-response","182","481547","0.0-2.0-55.0-0.0","34","47658","male ","344","","","","68","0","53","","Stimuli/Experimental_stims/localizer/faces/midas-hofstra-tidSLv-UaNs-unsplash.jpg","481143","1","faces","","0","0","1","400","60300","404","60724","","","","","","","","","","","","","","","","","","","","","","","","","","","","","","","","","","","","","","","","","","","","","","","","","","","","","",""
"","iti_localizer","","html-keyboard-response","183","481851","0.0-2.0-55.0-1.0","34","47658","male ","null","","","","null","","53","","","481547","1","","","","","","300","60700","304","61128","300","","","","","","","","","","","","","","","","","","","","","","","","","","","","","","","","","","","","","","","","","","","","","","","","","","","","",""
"","localizer","","html-keyboard-response","184","482255","0.0-2.0-56.0-0.0","34","47658","male ","324","","","","68","0","54","","Stimuli/Experimental_stims/localizer/faces/elijah-hiett-umfpFoKxIVg-unsplash.jpg","481851","1","faces","","0","0","1","400","61000","404","61432","","","","","","","","","","","","","","","","","","","","","","","","","","","","","","","","","","","","","","","","","","","","","","","","","","","","","",""
"","iti_localizer","","html-keyboard-response","185","482560","0.0-2.0-56.0-1.0","34","47658","male ","null","","","","null","","54","","","482255","1","","","","","","300","61400","305","61836","300","","","","","","","","","","","","","","","","","","","","","","","","","","","","","","","","","","","","","","","","","","","","","","","","","","","","",""
"","localizer","","html-keyboard-response","186","482965","0.0-2.0-57.0-0.0","34","47658","male ","383","","","","68","0","55","","Stimuli/Experimental_stims/localizer/faces/austin-wade-X6Uj51n5CE8-unsplash.jpg","482560","1","faces","","0","0","1","400","61700","405","62141","","","","","","","","","","","","","","","","","","","","","","","","","","","","","","","","","","","","","","","","","","","","","","","","","","","","","",""
"","iti_localizer","","html-keyboard-response","187","483271","0.0-2.0-57.0-1.0","34","47658","male ","null","","","","null","","55","","","482965","1","","","","","","300","62100","306","62546","300","","","","","","","","","","","","","","","","","","","","","","","","","","","","","","","","","","","","","","","","","","","","","","","","","","","","",""
"","localizer","","html-keyboard-response","188","483675","0.0-2.0-58.0-0.0","34","47658","male ","320","","","","68","0","56","","Stimuli/Experimental_stims/localizer/faces/mathias-huysmans-U4JDjYmjn1g-unsplash.jpg","483271","1","faces","","0","0","1","400","62400","404","62852","","","","","","","","","","","","","","","","","","","","","","","","","","","","","","","","","","","","","","","","","","","","","","","","","","","","","",""
"","iti_localizer","","html-keyboard-response","189","483979","0.0-2.0-58.0-1.0","34","47658","male ","null","","","","null","","56","","","483675","1","","","","","","300","62800","304","63256","300","","","","","","","","","","","","","","","","","","","","","","","","","","","","","","","","","","","","","","","","","","","","","","","","","","","","",""
"","localizer","","html-keyboard-response","190","484384","0.0-2.0-59.0-0.0","34","47658","male ","332","","","","68","0","57","","Stimuli/Experimental_stims/localizer/faces/ian-dooley-d1UPkiFd04A-unsplash.jpg","483979","1","faces","","0","0","1","400","63100","405","63560","","","","","","","","","","","","","","","","","","","","","","","","","","","","","","","","","","","","","","","","","","","","","","","","","","","","","",""
"","iti_localizer","","html-keyboard-response","191","484688","0.0-2.0-59.0-1.0","34","47658","male ","null","","","","null","","57","","","484384","1","","","","","","300","63500","304","63965","300","","","","","","","","","","","","","","","","","","","","","","","","","","","","","","","","","","","","","","","","","","","","","","","","","","","","",""
"","localizer","","html-keyboard-response","192","485093","0.0-2.0-60.0-0.0","34","47658","male ","318","","","","68","0","58","","Stimuli/Experimental_stims/localizer/faces/icons8-team-6LZuSzSwso0-unsplash.jpg","484688","1","faces","","0","0","1","400","63800","405","64269","","","","","","","","","","","","","","","","","","","","","","","","","","","","","","","","","","","","","","","","","","","","","","","","","","","","","",""
"","iti_localizer","","html-keyboard-response","193","485397","0.0-2.0-60.0-1.0","34","47658","male ","null","","","","null","","58","","","485093","1","","","","","","300","64200","304","64674","300","","","","","","","","","","","","","","","","","","","","","","","","","","","","","","","","","","","","","","","","","","","","","","","","","","","","",""
"","localizer","","html-keyboard-response","194","485801","0.0-2.0-61.0-0.0","34","47658","male ","314","","","","68","0","59","","Stimuli/Experimental_stims/localizer/faces/alexis-chloe-TYDkKEgc0Fg-unsplash.jpg","485397","1","faces","","0","0","1","400","64500","404","64978","","","","","","","","","","","","","","","","","","","","","","","","","","","","","","","","","","","","","","","","","","","","","","","","","","","","","",""
"","iti_localizer","","html-keyboard-response","195","486106","0.0-2.0-61.0-1.0","34","47658","male ","null","","","","null","","59","","","485801","1","","","","","","300","64900","305","65382","300","","","","","","","","","","","","","","","","","","","","","","","","","","","","","","","","","","","","","","","","","","","","","","","","","","","","",""
"","localizer","","html-keyboard-response","196","486511","0.0-2.0-62.0-0.0","34","47658","male ","341","","","","68","0","60","","Stimuli/Experimental_stims/localizer/faces/prince-akachi-LWkFHEGpleE-unsplash.jpg","486106","1","faces","","0","0","1","400","65200","405","65687","","","","","","","","","","","","","","","","","","","","","","","","","","","","","","","","","","","","","","","","","","","","","","","","","","","","","",""
"","iti_localizer","","html-keyboard-response","197","486816","0.0-2.0-62.0-1.0","34","47658","male ","null","","","","null","","60","","","486511","1","","","","","","300","65600","305","66092","300","","","","","","","","","","","","","","","","","","","","","","","","","","","","","","","","","","","","","","","","","","","","","","","","","","","","",""
"","localizer","","html-keyboard-response","198","487220","0.0-2.0-63.0-0.0","34","47658","male ","352","","","","68","0","61","","Stimuli/Experimental_stims/localizer/faces/katsiaryna-endruszkiewicz-BteCp6aq4GI-unsplash.jpg","486816","1","faces","","1","0","0","400","65900","404","66397","","","","","","","","","","","","","","","","","","","","","","","","","","","","","","","","","","","","","","","","","","","","","","","","","","","","","",""
"","iti_localizer","","html-keyboard-response","199","487523","0.0-2.0-63.0-1.0","34","47658","male ","null","","","","null","","61","","","487220","1","","","","","","300","66300","303","66801","300","","","","","","","","","","","","","","","","","","","","","","","","","","","","","","","","","","","","","","","","","","","","","","","","","","","","",""
"","localizer","","html-keyboard-response","200","487927","0.0-2.0-64.0-0.0","34","47658","male ","356","","","","68","0","62","","Stimuli/Experimental_stims/localizer/faces/hassan-khan-EGVccebWodM-unsplash.jpg","487523","1","faces","","0","0","1","400","66600","404","67104","","","","","","","","","","","","","","","","","","","","","","","","","","","","","","","","","","","","","","","","","","","","","","","","","","","","","",""
"","iti_localizer","","html-keyboard-response","201","488231","0.0-2.0-64.0-1.0","34","47658","male ","null","","","","null","","62","","","487927","1","","","","","","300","67000","304","67508","300","","","","","","","","","","","","","","","","","","","","","","","","","","","","","","","","","","","","","","","","","","","","","","","","","","","","",""
"","localizer","","html-keyboard-response","202","488635","0.0-2.0-65.0-0.0","34","47658","male ","NaN","","","","null","NaN","63","","Stimuli/Experimental_stims/localizer/faces/linkedin-sales-solutions-pAtA8xe_iVM-unsplash.jpg","488231","1","faces","","0","1","0","400","67300","404","67812","","","","","","","","","","","","","","","","","","","","","","","","","","","","","","","","","","","","","","","","","","","","","","","","","","","","","",""
"","iti_localizer","","html-keyboard-response","203","488939","0.0-2.0-65.0-1.0","34","47658","male ","null","","","","null","","63","","","488635","1","","","","","","300","67700","304","68216","300","","","","","","","","","","","","","","","","","","","","","","","","","","","","","","","","","","","","","","","","","","","","","","","","","","","","",""
"","localizer","","html-keyboard-response","204","489343","0.0-2.0-66.0-0.0","34","47658","male ","363","","","","68","0","64","","Stimuli/Experimental_stims/localizer/faces/philip-martin-5aGUyCW_PJw-unsplash.jpg","488939","1","faces","","0","0","1","400","68000","404","68520","","","","","","","","","","","","","","","","","","","","","","","","","","","","","","","","","","","","","","","","","","","","","","","","","","","","","",""
"","iti_localizer","","html-keyboard-response","205","489648","0.0-2.0-66.0-1.0","34","47658","male ","null","","","","null","","64","","","489343","1","","","","","","300","68400","305","68924","300","","","","","","","","","","","","","","","","","","","","","","","","","","","","","","","","","","","","","","","","","","","","","","","","","","","","",""
"","localizer","","html-keyboard-response","206","490052","0.0-2.0-67.0-0.0","34","47658","male ","382","","","","68","0","65","","Stimuli/Experimental_stims/localizer/faces/christina-wocintechchat-com-0Zx1bDv5BNY-unsplash.jpg","489648","1","faces","","0","0","1","400","68700","404","69229","","","","","","","","","","","","","","","","","","","","","","","","","","","","","","","","","","","","","","","","","","","","","","","","","","","","","",""
"","iti_localizer","","html-keyboard-response","207","504056","0.0-2.0-67.0-1.0","34","47658","male ","null","","","","null","","65","","","490052","1","","","","","","14000","69100","14004","69633","14000","","","","","","","","","","","","","","","","","","","","","","","","","","","","","","","","","","","","","","","","","","","","","","","","","","","","",""
"","localizer","","html-keyboard-response","208","504461","0.0-2.0-68.0-0.0","34","47658","male ","NaN","","","","null","NaN","66","","Stimuli/Experimental_stims/localizer/body_parts/bady-abbas-N-VEeMnm7gE-unsplash.jpg","504056","1","body_parts","","0","1","0","400","83100","405","83637","","","","","","","","","","","","","","","","","","","","","","","","","","","","","","","","","","","","","","","","","","","","","","","","","","","","","",""
"","iti_localizer","","html-keyboard-response","209","504766","0.0-2.0-68.0-1.0","34","47658","male ","null","","","","null","","66","","","504461","1","","","","","","300","83500","305","84042","300","","","","","","","","","","","","","","","","","","","","","","","","","","","","","","","","","","","","","","","","","","","","","","","","","","","","",""
"","localizer","","html-keyboard-response","210","505170","0.0-2.0-69.0-0.0","34","47658","male ","368","","","","68","0","67","","Stimuli/Experimental_stims/localizer/body_parts/hu-chen-tCbTGNwrFNM-unsplash.jpg","504766","1","body_parts","","0","0","1","400","83800","404","84347","","","","","","","","","","","","","","","","","","","","","","","","","","","","","","","","","","","","","","","","","","","","","","","","","","","","","",""
"","iti_localizer","","html-keyboard-response","211","505474","0.0-2.0-69.0-1.0","34","47658","male ","null","","","","null","","67","","","505170","1","","","","","","300","84200","304","84751","300","","","","","","","","","","","","","","","","","","","","","","","","","","","","","","","","","","","","","","","","","","","","","","","","","","","","",""
"","localizer","","html-keyboard-response","212","505879","0.0-2.0-70.0-0.0","34","47658","male ","380","","","","68","0","68","","Stimuli/Experimental_stims/localizer/body_parts/toa-heftiba-qxvWnfHb3-M-unsplash.jpg","505474","1","body_parts","","0","0","1","400","84500","405","85055","","","","","","","","","","","","","","","","","","","","","","","","","","","","","","","","","","","","","","","","","","","","","","","","","","","","","",""
"","iti_localizer","","html-keyboard-response","213","506184","0.0-2.0-70.0-1.0","34","47658","male ","null","","","","null","","68","","","505879","1","","","","","","300","84900","305","85460","300","","","","","","","","","","","","","","","","","","","","","","","","","","","","","","","","","","","","","","","","","","","","","","","","","","","","",""
"","localizer","","html-keyboard-response","214","506588","0.0-2.0-71.0-0.0","34","47658","male ","351","","","","68","0","69","","Stimuli/Experimental_stims/localizer/body_parts/matthew-wheeler-2_UxqsaDMmo-unsplash.jpg","506184","1","body_parts","","0","0","1","400","85200","404","85765","","","","","","","","","","","","","","","","","","","","","","","","","","","","","","","","","","","","","","","","","","","","","","","","","","","","","",""
"","iti_localizer","","html-keyboard-response","215","506892","0.0-2.0-71.0-1.0","34","47658","male ","null","","","","null","","69","","","506588","1","","","","","","300","85600","304","86169","300","","","","","","","","","","","","","","","","","","","","","","","","","","","","","","","","","","","","","","","","","","","","","","","","","","","","",""
"","localizer","","html-keyboard-response","216","507297","0.0-2.0-72.0-0.0","34","47658","male ","NaN","","","","null","NaN","70","","Stimuli/Experimental_stims/localizer/body_parts/billie-5OXE3KjDEfI-unsplash.jpg","506892","1","body_parts","","0","1","0","400","85900","405","86473","","","","","","","","","","","","","","","","","","","","","","","","","","","","","","","","","","","","","","","","","","","","","","","","","","","","","",""
"","iti_localizer","","html-keyboard-response","217","507601","0.0-2.0-72.0-1.0","34","47658","male ","null","","","","null","","70","","","507297","1","","","","","","300","86300","304","86878","300","","","","","","","","","","","","","","","","","","","","","","","","","","","","","","","","","","","","","","","","","","","","","","","","","","","","",""
"","localizer","","html-keyboard-response","218","508005","0.0-2.0-73.0-0.0","34","47658","male ","NaN","","","","null","NaN","71","","Stimuli/Experimental_stims/localizer/body_parts/lilartsy-1KkhQ8uL28g-unsplash.jpg","507601","1","body_parts","","1","1","0","400","86600","404","87182","","","","","","","","","","","","","","","","","","","","","","","","","","","","","","","","","","","","","","","","","","","","","","","","","","","","","",""
"","iti_localizer","","html-keyboard-response","219","508309","0.0-2.0-73.0-1.0","34","47658","male ","null","","","","null","","71","","","508005","1","","","","","","300","87000","304","87586","300","","","","","","","","","","","","","","","","","","","","","","","","","","","","","","","","","","","","","","","","","","","","","","","","","","","","",""
"","localizer","","html-keyboard-response","220","508713","0.0-2.0-74.0-0.0","34","47658","male ","361","","","","68","0","72","","Stimuli/Experimental_stims/localizer/body_parts/sincerely-media-Q7qRyaurQfo-unsplash.jpg","508309","1","body_parts","","0","0","1","400","87300","404","87890","","","","","","","","","","","","","","","","","","","","","","","","","","","","","","","","","","","","","","","","","","","","","","","","","","","","","",""
"","iti_localizer","","html-keyboard-response","221","509018","0.0-2.0-74.0-1.0","34","47658","male ","null","","","","null","","72","","","508713","1","","","","","","300","87700","305","88294","300","","","","","","","","","","","","","","","","","","","","","","","","","","","","","","","","","","","","","","","","","","","","","","","","","","","","",""
"","localizer","","html-keyboard-response","222","509423","0.0-2.0-75.0-0.0","34","47658","male ","372","","","","68","0","73","","Stimuli/Experimental_stims/localizer/body_parts/semen-zhuravlev-_XxH_mV8dnk-unsplash (1).jpg","509018","1","body_parts","","0","0","1","400","88000","405","88599","","","","","","","","","","","","","","","","","","","","","","","","","","","","","","","","","","","","","","","","","","","","","","","","","","","","","",""
"","iti_localizer","","html-keyboard-response","223","509727","0.0-2.0-75.0-1.0","34","47658","male ","null","","","","null","","73","","","509423","1","","","","","","300","88400","304","89004","300","","","","","","","","","","","","","","","","","","","","","","","","","","","","","","","","","","","","","","","","","","","","","","","","","","","","",""
"","localizer","","html-keyboard-response","224","510132","0.0-2.0-76.0-0.0","34","47658","male ","384","","","","68","0","74","","Stimuli/Experimental_stims/localizer/body_parts/sincerely-media-7TBFwUQA6Xk-unsplash.jpg","509727","1","body_parts","","0","0","1","400","88700","405","89308","","","","","","","","","","","","","","","","","","","","","","","","","","","","","","","","","","","","","","","","","","","","","","","","","","","","","",""
"","iti_localizer","","html-keyboard-response","225","510436","0.0-2.0-76.0-1.0","34","47658","male ","null","","","","null","","74","","","510132","1","","","","","","300","89100","304","89713","300","","","","","","","","","","","","","","","","","","","","","","","","","","","","","","","","","","","","","","","","","","","","","","","","","","","","",""
"","localizer","","html-keyboard-response","226","510840","0.0-2.0-77.0-0.0","34","47658","male ","NaN","","","","null","NaN","75","","Stimuli/Experimental_stims/localizer/body_parts/liv-bruce-M0oVPGsWk1E-unsplash.jpg","510436","1","body_parts","","0","1","0","400","89400","404","90017","","","","","","","","","","","","","","","","","","","","","","","","","","","","","","","","","","","","","","","","","","","","","","","","","","","","","",""
"","iti_localizer","","html-keyboard-response","227","511144","0.0-2.0-77.0-1.0","34","47658","male ","null","","","","null","","75","","","510840","1","","","","","","300","89800","304","90421","300","","","","","","","","","","","","","","","","","","","","","","","","","","","","","","","","","","","","","","","","","","","","","","","","","","","","",""
"","localizer","","html-keyboard-response","228","511549","0.0-2.0-78.0-0.0","34","47658","male ","398","","","","68","0","76","","Stimuli/Experimental_stims/localizer/body_parts/louis-hansel-FjKTMRTQYAs-unsplash.jpg","511144","1","body_parts","","0","0","1","400","90100","405","90725","","","","","","","","","","","","","","","","","","","","","","","","","","","","","","","","","","","","","","","","","","","","","","","","","","","","","",""
"","iti_localizer","","html-keyboard-response","229","511854","0.0-2.0-78.0-1.0","34","47658","male ","null","","","","null","","76","","","511549","1","","","","","","300","90500","305","91130","300","","","","","","","","","","","","","","","","","","","","","","","","","","","","","","","","","","","","","","","","","","","","","","","","","","","","",""
"","localizer","","html-keyboard-response","230","512259","0.0-2.0-79.0-0.0","34","47658","male ","306","","","","68","0","77","","Stimuli/Experimental_stims/localizer/body_parts/lucaxx-freire-CacZwMexYdk-unsplash.jpg","511854","1","body_parts","","0","0","1","400","90800","405","91435","","","","","","","","","","","","","","","","","","","","","","","","","","","","","","","","","","","","","","","","","","","","","","","","","","","","","",""
"","iti_localizer","","html-keyboard-response","231","512563","0.0-2.0-79.0-1.0","34","47658","male ","null","","","","null","","77","","","512259","1","","","","","","300","91200","304","91840","300","","","","","","","","","","","","","","","","","","","","","","","","","","","","","","","","","","","","","","","","","","","","","","","","","","","","",""
"","localizer","","html-keyboard-response","232","512969","0.0-2.0-80.0-0.0","34","47658","male ","339","","","","68","0","78","","Stimuli/Experimental_stims/localizer/body_parts/sippakorn-yamkasikorn-32_sJlJa5gA-unsplash.jpg","512563","1","body_parts","","0","0","1","400","91500","406","92144","","","","","","","","","","","","","","","","","","","","","","","","","","","","","","","","","","","","","","","","","","","","","","","","","","","","","",""
"","iti_localizer","","html-keyboard-response","233","513273","0.0-2.0-80.0-1.0","34","47658","male ","null","","","","null","","78","","","512969","1","","","","","","300","91900","304","92550","300","","","","","","","","","","","","","","","","","","","","","","","","","","","","","","","","","","","","","","","","","","","","","","","","","","","","",""
"","localizer","","html-keyboard-response","234","513677","0.0-2.0-81.0-0.0","34","47658","male ","359","","","","68","0","79","","Stimuli/Experimental_stims/localizer/body_parts/charles-etoroma-1fo0biloDOc-unsplash.jpg","513273","1","body_parts","","0","0","1","400","92200","404","92854","","","","","","","","","","","","","","","","","","","","","","","","","","","","","","","","","","","","","","","","","","","","","","","","","","","","","",""
"","iti_localizer","","html-keyboard-response","235","513981","0.0-2.0-81.0-1.0","34","47658","male ","null","","","","null","","79","","","513677","1","","","","","","300","92600","304","93258","300","","","","","","","","","","","","","","","","","","","","","","","","","","","","","","","","","","","","","","","","","","","","","","","","","","","","",""
"","localizer","","html-keyboard-response","236","514386","0.0-2.0-82.0-0.0","34","47658","male ","402","","","","68","0","80","","Stimuli/Experimental_stims/localizer/body_parts/nadine-shaabana-ypyaaEf2ntM-unsplash.jpg","513981","1","body_parts","","0","0","1","400","92900","405","93562","","","","","","","","","","","","","","","","","","","","","","","","","","","","","","","","","","","","","","","","","","","","","","","","","","","","","",""
"","iti_localizer","","html-keyboard-response","237","514690","0.0-2.0-82.0-1.0","34","47658","male ","null","","","","null","","80","","","514386","1","","","","","","300","93300","304","93967","300","","","","","","","","","","","","","","","","","","","","","","","","","","","","","","","","","","","","","","","","","","","","","","","","","","","","",""
"","localizer","","html-keyboard-response","238","515095","0.0-2.0-83.0-0.0","34","47658","male ","NaN","","","","null","NaN","81","","Stimuli/Experimental_stims/localizer/body_parts/diana-polekhina-SwWjCbIIoFE-unsplash.jpg","514690","1","body_parts","","1","1","0","400","93600","405","94271","","","","","","","","","","","","","","","","","","","","","","","","","","","","","","","","","","","","","","","","","","","","","","","","","","","","","",""
"","iti_localizer","","html-keyboard-response","239","515399","0.0-2.0-83.0-1.0","34","47658","male ","null","","","","null","","81","","","515095","1","","","","","","300","94000","304","94676","300","","","","","","","","","","","","","","","","","","","","","","","","","","","","","","","","","","","","","","","","","","","","","","","","","","","","",""
"","localizer","","html-keyboard-response","240","515804","0.0-2.0-84.0-0.0","34","47658","male ","NaN","","","","null","NaN","82","","Stimuli/Experimental_stims/localizer/body_parts/deborah-diem-ieVxpPjl1e0-unsplash.jpg","515399","1","body_parts","","0","1","0","400","94300","405","94980","","","","","","","","","","","","","","","","","","","","","","","","","","","","","","","","","","","","","","","","","","","","","","","","","","","","","",""
"","iti_localizer","","html-keyboard-response","241","516108","0.0-2.0-84.0-1.0","34","47658","male ","null","","","","null","","82","","","515804","1","","","","","","300","94700","304","95385","300","","","","","","","","","","","","","","","","","","","","","","","","","","","","","","","","","","","","","","","","","","","","","","","","","","","","",""
"","localizer","","html-keyboard-response","242","516513","0.0-2.0-85.0-0.0","34","47658","male ","NaN","","","","null","NaN","83","","Stimuli/Experimental_stims/localizer/body_parts/sincerely-media-pdynOoM7xmA-unsplash.jpg","516108","1","body_parts","","0","1","0","400","95000","405","95689","","","","","","","","","","","","","","","","","","","","","","","","","","","","","","","","","","","","","","","","","","","","","","","","","","","","","",""
"","iti_localizer","","html-keyboard-response","243","516817","0.0-2.0-85.0-1.0","34","47658","male ","null","","","","null","","83","","","516513","1","","","","","","300","95400","304","96094","300","","","","","","","","","","","","","","","","","","","","","","","","","","","","","","","","","","","","","","","","","","","","","","","","","","","","",""
"","localizer","","html-keyboard-response","244","517221","0.0-2.0-86.0-0.0","34","47658","male ","NaN","","","","null","NaN","84","","Stimuli/Experimental_stims/localizer/body_parts/ben-hartley-RbrsejLGVZ8-unsplash.jpg","516817","1","body_parts","","0","1","0","400","95700","404","96398","","","","","","","","","","","","","","","","","","","","","","","","","","","","","","","","","","","","","","","","","","","","","","","","","","","","","",""
"","iti_localizer","","html-keyboard-response","245","517525","0.0-2.0-86.0-1.0","34","47658","male ","null","","","","null","","84","","","517221","1","","","","","","300","96100","304","96802","300","","","","","","","","","","","","","","","","","","","","","","","","","","","","","","","","","","","","","","","","","","","","","","","","","","","","",""
"","localizer","","html-keyboard-response","246","517931","0.0-2.0-87.0-0.0","34","47658","male ","361","","","","68","0","85","","Stimuli/Experimental_stims/localizer/body_parts/apostolos-vamvouras-g5wKHRu2QW0-unsplash.jpg","517525","1","body_parts","","0","0","1","400","96400","406","97106","","","","","","","","","","","","","","","","","","","","","","","","","","","","","","","","","","","","","","","","","","","","","","","","","","","","","",""
