"success","ttype","start_time","trial_type","trial_index","time_elapsed","internal_node_id","age","PID","gender","rt","responses","view_history","repeat_instructions","key_press","response","index","stimulus_index","path","missed_checkup","run","task","isi","is_odd_ball","no_response","acc","duration","onset"
"true","full_screen","d06302023hr1735","fullscreen","0","40522","0.0-0.0-0.0","16","17069","2s","","","","","","","","","","","","","","","","","",""
"","get_id","","survey-text","1","46589","0.0-0.0-1.0","16","17069","2s","6061","{""Q0"":""16"",""Q1"":""2s""}","","","","","","","","","","","","","","","",""
"","ratings_instructions","","instructions","2","48283","0.0-1.0-0.0-0.0","16","17069","2s","1578","","[{""page_index"":0,""viewing_time"":1116},{""page_index"":1,""viewing_time"":462}]","","","","","","","","","","","","","","",""
"","rating_comprehension_check","","survey-multi-choice","3","50629","0.0-1.0-0.0-1.0","16","17069","2s","2340","{""Q0"":""True"",""Q1"":""Mouse""}","","0","","","","","","","","","","","","","",""
"","","","html-keyboard-response","4","51698","0.0-1.0-1.0","16","17069","2s","1063","","","","68","","","","","","","","","","","","",""
"","rating","","html-slider-response","5","52797","0.0-1.0-2.0","16","17069","2s","1093","","","","","50","0","28","Stimuli/Experimental_stims/body_parts/ira-vishnevskaya-8DQAvdCby1I-unsplash.jpg","","","","","","","","",""
"","rating","","html-slider-response","6","52957","0.0-1.0-3.0","16","17069","2s","154","","","","","50","1","4","Stimuli/Experimental_stims/outdoor_scenes/jarrett-kow-1ZOyYPOBn7I-unsplash.jpg","","","","","","","","",""
"","rating","","html-slider-response","7","53348","0.0-1.0-4.0","16","17069","2s","383","","","","","50","2","35","Stimuli/Experimental_stims/body_parts/wc-so-KH4AAPjb-tI-unsplash.jpg","","","","","","","","",""
"","rating","","html-slider-response","8","53509","0.0-1.0-5.0","16","17069","2s","155","","","","","50","3","47","Stimuli/Experimental_stims/objects/ronaldo-arthur-vidal-Cdz_lvnl37k-unsplash.jpg","","","","","","","","",""
"","rating","","html-slider-response","9","53669","0.0-1.0-6.0","16","17069","2s","155","","","","","50","4","9","Stimuli/Experimental_stims/outdoor_scenes/sergey-pesterev-y-b_FOmJXdg-unsplash.jpg","","","","","","","","",""
"","rating","","html-slider-response","10","53832","0.0-1.0-7.0","16","17069","2s","158","","","","","50","5","31","Stimuli/Experimental_stims/body_parts/sincerely-media-VN6DbKajo5s-unsplash.jpg","","","","","","","","",""
"","rating","","html-slider-response","11","53991","0.0-1.0-8.0","16","17069","2s","154","","","","","50","6","5","Stimuli/Experimental_stims/outdoor_scenes/jeff-king-bJHWJeiHfHc-unsplash.jpg","","","","","","","","",""
"","rating","","html-slider-response","12","54139","0.0-1.0-9.0","16","17069","2s","143","","","","","50","7","27","Stimuli/Experimental_stims/body_parts/heike-mintel-i_Gns0ELnLw-unsplash.jpg","","","","","","","","",""
"","rating","","html-slider-response","13","54301","0.0-1.0-10.0","16","17069","2s","156","","","","","50","8","37","Stimuli/Experimental_stims/objects/alexander-andrews-VLGWE_SumrA-unsplash.jpg","","","","","","","","",""
"","rating","","html-slider-response","14","54471","0.0-1.0-11.0","16","17069","2s","165","","","","","50","9","19","Stimuli/Experimental_stims/faces/joel-mott-LaK153ghdig-unsplash.jpg","","","","","","","","",""
"","rating","","html-slider-response","15","54658","0.0-1.0-12.0","16","17069","2s","180","","","","","50","10","34","Stimuli/Experimental_stims/body_parts/wagner-santos-mBWMvIuVnso-unsplash.jpg","","","","","","","","",""
"","rating","","html-slider-response","16","54824","0.0-1.0-13.0","16","17069","2s","161","","","","","50","11","22","Stimuli/Experimental_stims/faces/ravi-patel-VMGAbeeJTKo-unsplash.jpg","","","","","","","","",""
"","rating","","html-slider-response","17","54981","0.0-1.0-14.0","16","17069","2s","152","","","","","50","12","1","Stimuli/Experimental_stims/outdoor_scenes/ashim-d-silva-S2Q5mdOrrVc-unsplash.jpg","","","","","","","","",""
"","rating","","html-slider-response","18","55141","0.0-1.0-15.0","16","17069","2s","154","","","","","50","13","15","Stimuli/Experimental_stims/faces/erik-lucatero-d2MSDujJl2g-unsplash.jpg","","","","","","","","",""
"","rating","","html-slider-response","19","55321","0.0-1.0-16.0","16","17069","2s","174","","","","","50","14","17","Stimuli/Experimental_stims/faces/good-faces-xmSWVeGEnJw-unsplash.jpg","","","","","","","","",""
"","rating","","html-slider-response","20","55483","0.0-1.0-17.0","16","17069","2s","156","","","","","50","15","12","Stimuli/Experimental_stims/faces/aiony-haust-jmATI5Q_YgY-unsplash.jpg","","","","","","","","",""
"","rating","","html-slider-response","21","55658","0.0-1.0-18.0","16","17069","2s","169","","","","","50","16","0","Stimuli/Experimental_stims/outdoor_scenes/aleksandra-boguslawska-MS7KD9Ti7FQ-unsplash.jpg","","","","","","","","",""
"","rating","","html-slider-response","22","55831","0.0-1.0-19.0","16","17069","2s","167","","","","","50","17","41","Stimuli/Experimental_stims/objects/insung-yoon-w2JtIQQXoRU-unsplash.jpg","","","","","","","","",""
"","rating","","html-slider-response","23","55984","0.0-1.0-20.0","16","17069","2s","148","","","","","50","18","18","Stimuli/Experimental_stims/faces/jessica-radanavong-mrYkTuAesKE-unsplash.jpg","","","","","","","","",""
"","rating","","html-slider-response","24","56146","0.0-1.0-21.0","16","17069","2s","155","","","","","50","19","11","Stimuli/Experimental_stims/outdoor_scenes/stephen-leonardi-gyIRjKPXupE-unsplash.jpg","","","","","","","","",""
"","rating","","html-slider-response","25","56308","0.0-1.0-22.0","16","17069","2s","156","","","","","50","20","20","Stimuli/Experimental_stims/faces/justin-chen-J7Cf1Gch49E-unsplash.jpg","","","","","","","","",""
"","rating","","html-slider-response","26","56478","0.0-1.0-23.0","16","17069","2s","165","","","","","50","21","23","Stimuli/Experimental_stims/faces/rikonavt-HQjfrvdTfak-unsplash.jpg","","","","","","","","",""
"","rating","","html-slider-response","27","56639","0.0-1.0-24.0","16","17069","2s","156","","","","","50","22","25","Stimuli/Experimental_stims/body_parts/engin-akyurt-Q2rfH3GW39c-unsplash.jpg","","","","","","","","",""
"","rating","","html-slider-response","28","56801","0.0-1.0-25.0","16","17069","2s","157","","","","","50","23","33","Stimuli/Experimental_stims/body_parts/tucker-good-36skLT5jZcc-unsplash.jpg","","","","","","","","",""
"","rating","","html-slider-response","29","56964","0.0-1.0-26.0","16","17069","2s","156","","","","","50","24","32","Stimuli/Experimental_stims/body_parts/towfiqu-barbhuiya-3AsiVDsZnHg-unsplash.jpg","","","","","","","","",""
"","rating","","html-slider-response","30","57133","0.0-1.0-27.0","16","17069","2s","164","","","","","50","25","30","Stimuli/Experimental_stims/body_parts/mika-korhonen-Xodzxosar18-unsplash.jpg","","","","","","","","",""
"","rating","","html-slider-response","31","57294","0.0-1.0-28.0","16","17069","2s","156","","","","","50","26","16","Stimuli/Experimental_stims/faces/freddy-kearney-o-ioeoATbIM-unsplash.jpg","","","","","","","","",""
"","rating","","html-slider-response","32","57465","0.0-1.0-29.0","16","17069","2s","166","","","","","50","27","14","Stimuli/Experimental_stims/faces/david-siglin-UuW4psOb388-unsplash.jpg","","","","","","","","",""
"","rating","","html-slider-response","33","57788","0.0-1.0-30.0","16","17069","2s","317","","","","","50","28","36","Stimuli/Experimental_stims/objects/alexander-andrews-JYGnB9gTCls-unsplash.jpg","","","","","","","","",""
"","rating","","html-slider-response","34","57957","0.0-1.0-31.0","16","17069","2s","164","","","","","50","29","3","Stimuli/Experimental_stims/outdoor_scenes/henry-be-NLF6hTe4PAg-unsplash.jpg","","","","","","","","",""
"","rating","","html-slider-response","35","58129","0.0-1.0-32.0","16","17069","2s","165","","","","","50","30","29","Stimuli/Experimental_stims/body_parts/manuel-schinner-ZwjFuJ7ebpk-unsplash.jpg","","","","","","","","",""
"","rating","","html-slider-response","36","58306","0.0-1.0-33.0","16","17069","2s","172","","","","","50","31","43","Stimuli/Experimental_stims/objects/jonathan-greenaway-Y4hGgeiFn3s-unsplash.jpg","","","","","","","","",""
"","rating","","html-slider-response","37","58484","0.0-1.0-34.0","16","17069","2s","172","","","","","50","32","40","Stimuli/Experimental_stims/objects/fabian-blank-pElSkGRA2NU-unsplash.jpg","","","","","","","","",""
"","rating","","html-slider-response","38","58655","0.0-1.0-35.0","16","17069","2s","165","","","","","50","33","2","Stimuli/Experimental_stims/outdoor_scenes/bruno-van-der-kraan-qez8mNJ3ilU-unsplash.jpg","","","","","","","","",""
"","rating","","html-slider-response","39","58838","0.0-1.0-36.0","16","17069","2s","177","","","","","50","34","26","Stimuli/Experimental_stims/body_parts/engin-akyurt-x_3gyC42btc-unsplash.jpg","","","","","","","","",""
"","rating","","html-slider-response","40","59011","0.0-1.0-37.0","16","17069","2s","167","","","","","50","35","45","Stimuli/Experimental_stims/objects/leohoho-rngTKHXumy0-unsplash.jpg","","","","","","","","",""
"","rating","","html-slider-response","41","59188","0.0-1.0-38.0","16","17069","2s","172","","","","","50","36","6","Stimuli/Experimental_stims/outdoor_scenes/meng-ji-8BH_M-53CyA-unsplash.jpg","","","","","","","","",""
"","rating","","html-slider-response","42","59359","0.0-1.0-39.0","16","17069","2s","164","","","","","50","37","13","Stimuli/Experimental_stims/faces/daniel-rigdon-dXmXKPP2L4E-unsplash.jpg","","","","","","","","",""
"","rating","","html-slider-response","43","59534","0.0-1.0-40.0","16","17069","2s","169","","","","","50","38","44","Stimuli/Experimental_stims/objects/kuiye-chen-NuOGFo4PudE-unsplash.jpg","","","","","","","","",""
"","rating","","html-slider-response","44","59706","0.0-1.0-41.0","16","17069","2s","166","","","","","50","39","42","Stimuli/Experimental_stims/objects/jess-bailey-nOeVi8DsN8U-unsplash.jpg","","","","","","","","",""
"","rating","","html-slider-response","45","59868","0.0-1.0-42.0","16","17069","2s","157","","","","","50","40","24","Stimuli/Experimental_stims/body_parts/clay-banks-LjqARJaJotc-unsplash.jpg","","","","","","","","",""
"","rating","","html-slider-response","46","60063","0.0-1.0-43.0","16","17069","2s","189","","","","","50","41","21","Stimuli/Experimental_stims/faces/leilani-angel-K84vnnzxmTQ-unsplash.jpg","","","","","","","","",""
"","rating","","html-slider-response","47","60216","0.0-1.0-44.0","16","17069","2s","148","","","","","50","42","7","Stimuli/Experimental_stims/outdoor_scenes/petr-vysohlid-9fqwGqGLUxc-unsplash.jpg","","","","","","","","",""
"","rating","","html-slider-response","48","60385","0.0-1.0-45.0","16","17069","2s","163","","","","","50","43","46","Stimuli/Experimental_stims/objects/mockup-graphics-PNsj6RiHAF4-unsplash.jpg","","","","","","","","",""
"","rating","","html-slider-response","49","60742","0.0-1.0-46.0","16","17069","2s","352","","","","","50","44","38","Stimuli/Experimental_stims/objects/art-lasovsky-8XddFc6NkBY-unsplash.jpg","","","","","","","","",""
"","rating","","html-slider-response","50","61414","0.0-1.0-47.0","16","17069","2s","666","","","","","50","45","8","Stimuli/Experimental_stims/outdoor_scenes/samsommer-vddccTqwal8-unsplash.jpg","","","","","","","","",""
"","rating","","html-slider-response","51","61721","0.0-1.0-48.0","16","17069","2s","300","","","","","50","46","10","Stimuli/Experimental_stims/outdoor_scenes/shannon-kunkle-dM8INmkyDas-unsplash.jpg","","","","","","","","",""
"","rating","","html-slider-response","52","61923","0.0-1.0-49.0","16","17069","2s","197","","","","","50","47","39","Stimuli/Experimental_stims/objects/charlesdeluvio-1-nx1QR5dTE-unsplash.jpg","","","","","","","","",""
"","localizer_instructions","","instructions","53","64205","0.0-2.0-0.0-0.0","16","17069","2s","2249","","[{""page_index"":0,""viewing_time"":1625},{""page_index"":1,""viewing_time"":178},{""page_index"":2,""viewing_time"":446}]","","","","","","","","","","","","","","",""
"","localizer_comprehension_check","","survey-multi-choice","54","68039","0.0-2.0-0.0-1.0","16","17069","2s","3826","{""Q0"":""True"",""Q1"":""D"",""Q2"":""D""}","","1","","","","","","","","","","","","","",""
"","missed_instruction_checkup","","html-keyboard-response","55","69485","0.0-2.0-0.0-2.0-0.0","16","17069","2s","1441","","","","68","","","","","1","","","","","","","",""
"","localizer_instructions","","instructions","56","71050","0.0-2.0-0.1-0.1","16","17069","2s","1560","","[{""page_index"":0,""viewing_time"":1099},{""page_index"":1,""viewing_time"":234},{""page_index"":2,""viewing_time"":226}]","","","","","","","","","","","","","","",""
"","localizer_comprehension_check","","survey-multi-choice","57","75939","0.0-2.0-0.1-1.1","16","17069","2s","4882","{""Q0"":""True"",""Q1"":""K"",""Q2"":""D""}","","0","","","","","","","","","","","","","",""
"","","","html-keyboard-response","58","76324","0.0-2.0-1.0","16","17069","2s","380","","","","68","","","","","","","","","","","","",""
"","localizer","","html-keyboard-response","59","76732","0.0-2.0-2.0-0.0","16","17069","2s","NaN","","","","null","NaN","0","","Stimuli/Practice_stims/Localizer/annie-spratt-g9KFpAfQ5bc-unsplash.jpg","","0","NaN","","0","1","0","0.4","0"
"","iti_localizer","","html-keyboard-response","60","77043","0.0-2.0-2.0-1.0","16","17069","2s","null","","","","null","","0","","","","0","","","","","","0.3","0.4"
"","localizer","","html-keyboard-response","61","77456","0.0-2.0-3.0-0.0","16","17069","2s","NaN","","","","null","NaN","1","","Stimuli/Practice_stims/Localizer/becca-tapert-sY5RjMB1KkE-unsplash.jpg","","0","NaN","","0","1","0","0.4","0.7"
"","iti_localizer","","html-keyboard-response","62","77764","0.0-2.0-3.0-1.0","16","17069","2s","null","","","","null","","1","","","","0","","","","","","0.3","1.1"
"","localizer","","html-keyboard-response","63","78172","0.0-2.0-4.0-0.0","16","17069","2s","NaN","","","","null","NaN","2","","Stimuli/Practice_stims/Localizer/charl-durand-bsfXvI25iNg-unsplash.jpg","","0","NaN","","1","1","0","0.4","1.4000000000000001"
"","iti_localizer","","html-keyboard-response","64","78489","0.0-2.0-4.0-1.0","16","17069","2s","null","","","","null","","2","","","","0","","","","","","0.3","1.8000000000000003"
"","localizer","","html-keyboard-response","65","78896","0.0-2.0-5.0-0.0","16","17069","2s","NaN","","","","null","NaN","3","","Stimuli/Practice_stims/Localizer/nizar-albusaidy-B2r2SWAf5CE-unsplash.jpg","","0","NaN","","0","1","0","0.4","2.1"
"","iti_localizer","","html-keyboard-response","66","79204","0.0-2.0-5.0-1.0","16","17069","2s","null","","","","null","","3","","","","0","","","","","","0.3","2.5"
"","localizer","","html-keyboard-response","67","79615","0.0-2.0-6.0-0.0","16","17069","2s","NaN","","","","null","NaN","4","","Stimuli/Practice_stims/Localizer/randy-fath-epf1tdtIIkM-unsplash.jpg","","0","NaN","","1","1","0","0.4","2.8"
"","iti_localizer","","html-keyboard-response","68","79928","0.0-2.0-6.0-1.0","16","17069","2s","null","","","","null","","4","","","","0","","","","","","0.3","3.1999999999999997"
"","localizer","","html-keyboard-response","69","80344","0.0-2.0-7.0-0.0","16","17069","2s","NaN","","","","null","NaN","5","","Stimuli/Practice_stims/Localizer/yassine-khalfalli-adsQ9d_Cx0c-unsplash.jpg","","0","NaN","","0","1","0","0.4","3.4999999999999996"
"","iti_localizer","","html-keyboard-response","70","80656","0.0-2.0-7.0-1.0","16","17069","2s","null","","","","null","","5","","","","0","","","","","","0.3","3.8999999999999995"
"","practice_over","","html-keyboard-response","71","82033","0.0-2.0-7.0-2.0-0.0","16","17069","2s","1371","","","","68","","","","","","","","","","","","",""
"","start_run","","html-keyboard-response","72","83031","0.0-2.0-7.0-2.0-1.0","16","17069","2s","994","","","","84","","","","","","","","","","","","",""
"","localizer","","html-keyboard-response","73","83442","0.0-2.0-8.0-0.0","16","17069","2s","NaN","","","","null","NaN","6","","Stimuli/Experimental_stims/localizer/outdoor_scenes/willian-justen-de-vasconcellos-T_Qe4QlMIvQ-unsplash.jpg","","1","outdoor_scenes","","0","1","0","0.4","0"
"","iti_localizer","","html-keyboard-response","74","83761","0.0-2.0-8.0-1.0","16","17069","2s","null","","","","null","","6","","","","1","","","","","","0.3","0.4"
"","localizer","","html-keyboard-response","75","84170","0.0-2.0-9.0-0.0","16","17069","2s","71","","","","68","0","7","","Stimuli/Experimental_stims/localizer/outdoor_scenes/kenneth-thewissen-D76DklsG-5U-unsplash.jpg","","1","outdoor_scenes","","0","0","1","0.4","0.7"
"","iti_localizer","","html-keyboard-response","76","84478","0.0-2.0-9.0-1.0","16","17069","2s","null","","","","null","","7","","","","1","","","","","","0.3","1.1"
"","localizer","","html-keyboard-response","77","84882","0.0-2.0-10.0-0.0","16","17069","2s","169","","","","68","0","8","","Stimuli/Experimental_stims/localizer/outdoor_scenes/eberhard-grossgasteiger-y2azHvupCVo-unsplash.jpg","","1","outdoor_scenes","","0","0","1","0.4","1.4000000000000001"
"","iti_localizer","","html-keyboard-response","78","85201","0.0-2.0-10.0-1.0","16","17069","2s","null","","","","null","","8","","","","1","","","","","","0.3","1.8000000000000003"
"","localizer","","html-keyboard-response","79","85612","0.0-2.0-11.0-0.0","16","17069","2s","128","","","","68","0","9","","Stimuli/Experimental_stims/localizer/outdoor_scenes/alice-donovan-rouse-pZ61ZA8QgcY-unsplash.jpg","","1","outdoor_scenes","","0","0","1","0.4","2.1"
"","iti_localizer","","html-keyboard-response","80","85926","0.0-2.0-11.0-1.0","16","17069","2s","null","","","","null","","9","","","","1","","","","","","0.3","2.5"
"","localizer","","html-keyboard-response","81","86345","0.0-2.0-12.0-0.0","16","17069","2s","89","","","","68","0","10","","Stimuli/Experimental_stims/localizer/outdoor_scenes/adam-kool-ndN00KmbJ1c-unsplash.jpg","","1","outdoor_scenes","","0","0","1","0.4","2.8"
"","iti_localizer","","html-keyboard-response","82","86651","0.0-2.0-12.0-1.0","16","17069","2s","null","","","","null","","10","","","","1","","","","","","0.3","3.1999999999999997"
"","localizer","","html-keyboard-response","83","87063","0.0-2.0-13.0-0.0","16","17069","2s","34","","","","68","0","11","","Stimuli/Experimental_stims/localizer/outdoor_scenes/derek-mack-CcRZ4k3c6gA-unsplash.jpg","","1","outdoor_scenes","","0","0","1","0.4","3.4999999999999996"
"","iti_localizer","","html-keyboard-response","84","87372","0.0-2.0-13.0-1.0","16","17069","2s","null","","","","null","","11","","","","1","","","","","","0.3","3.8999999999999995"
"","localizer","","html-keyboard-response","85","87779","0.0-2.0-14.0-0.0","16","17069","2s","0","","","","68","0","12","","Stimuli/Experimental_stims/localizer/outdoor_scenes/nicolas-jehly-LzVB84KkZOE-unsplash.jpg","","1","outdoor_scenes","","0","0","1","0.4","4.199999999999999"
"","iti_localizer","","html-keyboard-response","86","88094","0.0-2.0-14.0-1.0","16","17069","2s","null","","","","null","","12","","","","1","","","","","","0.3","4.6"
"","localizer","","html-keyboard-response","87","88508","0.0-2.0-15.0-0.0","16","17069","2s","100","","","","68","0","13","","Stimuli/Experimental_stims/localizer/outdoor_scenes/tomasz-filipek-CUWC-6MRcNg-unsplash.jpg","","1","outdoor_scenes","","1","0","0","0.4","4.8999999999999995"
"","iti_localizer","","html-keyboard-response","88","88819","0.0-2.0-15.0-1.0","16","17069","2s","null","","","","null","","13","","","","1","","","","","","0.3","5.3"
"","localizer","","html-keyboard-response","89","89228","0.0-2.0-16.0-0.0","16","17069","2s","62","","","","68","0","14","","Stimuli/Experimental_stims/localizer/outdoor_scenes/federico-beccari-kRnkqSKZODQ-unsplash.jpg","","1","outdoor_scenes","","0","0","1","0.4","5.6"
"","iti_localizer","","html-keyboard-response","90","89545","0.0-2.0-16.0-1.0","16","17069","2s","null","","","","null","","14","","","","1","","","","","","0.3","6"
"","localizer","","html-keyboard-response","91","89958","0.0-2.0-17.0-0.0","16","17069","2s","35","","","","68","0","15","","Stimuli/Experimental_stims/localizer/outdoor_scenes/john-lee-oMneOBYhJxY-unsplash.jpg","","1","outdoor_scenes","","1","0","0","0.4","6.3"
"","iti_localizer","","html-keyboard-response","92","90269","0.0-2.0-17.0-1.0","16","17069","2s","null","","","","null","","15","","","","1","","","","","","0.3","6.7"
"","localizer","","html-keyboard-response","93","90686","0.0-2.0-18.0-0.0","16","17069","2s","12","","","","68","0","16","","Stimuli/Experimental_stims/localizer/outdoor_scenes/damian-patkowski-T-LfvX-7IVg-unsplash.jpg","","1","outdoor_scenes","","0","0","1","0.4","7"
"","iti_localizer","","html-keyboard-response","94","91001","0.0-2.0-18.0-1.0","16","17069","2s","null","","","","null","","16","","","","1","","","","","","0.3","7.4"
"","localizer","","html-keyboard-response","95","91416","0.0-2.0-19.0-0.0","16","17069","2s","32","","","","68","0","17","","Stimuli/Experimental_stims/localizer/outdoor_scenes/marcelo-quinan-u0ZgqJD55pE-unsplash.jpg","","1","outdoor_scenes","","0","0","1","0.4","7.7"
"","iti_localizer","","html-keyboard-response","96","91728","0.0-2.0-19.0-1.0","16","17069","2s","null","","","","null","","17","","","","1","","","","","","0.3","8.1"
"","localizer","","html-keyboard-response","97","92140","0.0-2.0-20.0-0.0","16","17069","2s","66","","","","68","0","18","","Stimuli/Experimental_stims/localizer/outdoor_scenes/mark-harpur-K2s_YE031CA-unsplash.jpg","","1","outdoor_scenes","","0","0","1","0.4","8.4"
"","iti_localizer","","html-keyboard-response","98","92452","0.0-2.0-20.0-1.0","16","17069","2s","null","","","","null","","18","","","","1","","","","","","0.3","8.8"
"","localizer","","html-keyboard-response","99","92865","0.0-2.0-21.0-0.0","16","17069","2s","85","","","","68","0","19","","Stimuli/Experimental_stims/localizer/outdoor_scenes/ken-cheung-KonWFWUaAuk-unsplash.jpg","","1","outdoor_scenes","","0","0","1","0.4","9.100000000000001"
"","iti_localizer","","html-keyboard-response","100","93176","0.0-2.0-21.0-1.0","16","17069","2s","null","","","","null","","19","","","","1","","","","","","0.3","9.500000000000002"
"","localizer","","html-keyboard-response","101","93588","0.0-2.0-22.0-0.0","16","17069","2s","125","","","","68","0","20","","Stimuli/Experimental_stims/localizer/outdoor_scenes/kace-rodriguez-p3OzJuT_Dks-unsplash.jpg","","1","outdoor_scenes","","0","0","1","0.4","9.800000000000002"
"","iti_localizer","","html-keyboard-response","102","93902","0.0-2.0-22.0-1.0","16","17069","2s","null","","","","null","","20","","","","1","","","","","","0.3","10.200000000000003"
"","localizer","","html-keyboard-response","103","94319","0.0-2.0-23.0-0.0","16","17069","2s","122","","","","68","0","21","","Stimuli/Experimental_stims/localizer/outdoor_scenes/dave-hoefler-lsoogGC_5dg-unsplash.jpg","","1","outdoor_scenes","","0","0","1","0.4","10.500000000000004"
"","iti_localizer","","html-keyboard-response","104","94628","0.0-2.0-23.0-1.0","16","17069","2s","null","","","","null","","21","","","","1","","","","","","0.3","10.900000000000004"
"","localizer","","html-keyboard-response","105","95038","0.0-2.0-24.0-0.0","16","17069","2s","103","","","","68","0","22","","Stimuli/Experimental_stims/localizer/outdoor_scenes/michael-martinelli-mFbrMEVKCkc-unsplash.jpg","","1","outdoor_scenes","","0","0","1","0.4","11.200000000000005"
"","iti_localizer","","html-keyboard-response","106","95348","0.0-2.0-24.0-1.0","16","17069","2s","null","","","","null","","22","","","","1","","","","","","0.3","11.600000000000005"
"","localizer","","html-keyboard-response","107","95755","0.0-2.0-25.0-0.0","16","17069","2s","65","","","","68","0","23","","Stimuli/Experimental_stims/localizer/outdoor_scenes/quino-al-mBQIfKlvowM-unsplash.jpg","","1","outdoor_scenes","","0","0","1","0.4","11.900000000000006"
"","iti_localizer","","html-keyboard-response","108","96073","0.0-2.0-25.0-1.0","16","17069","2s","null","","","","null","","23","","","","1","","","","","","0.3","12.300000000000006"
"","localizer","","html-keyboard-response","109","96490","0.0-2.0-26.0-0.0","16","17069","2s","39","","","","68","0","24","","Stimuli/Experimental_stims/localizer/outdoor_scenes/keith-hardy-PP8Escz15d8-unsplash.jpg","","1","outdoor_scenes","","0","0","1","0.4","12.600000000000007"
"","iti_localizer","","html-keyboard-response","110","96800","0.0-2.0-26.0-1.0","16","17069","2s","null","","","","null","","24","","","","1","","","","","","0.3","13.000000000000007"
"","localizer","","html-keyboard-response","111","97216","0.0-2.0-27.0-0.0","16","17069","2s","0","","","","68","0","25","","Stimuli/Experimental_stims/localizer/outdoor_scenes/cayetano-gil-rguHxZmOF5U-unsplash.jpg","","1","outdoor_scenes","","0","0","1","0.4","13.300000000000008"
"","iti_localizer","","html-keyboard-response","112","97523","0.0-2.0-27.0-1.0","16","17069","2s","null","","","","null","","25","","","","1","","","","","","14","13.700000000000008"
"","localizer","","html-keyboard-response","113","97935","0.0-2.0-28.0-0.0","16","17069","2s","173","","","","68","0","26","","Stimuli/Experimental_stims/localizer/faces/ivan-dodig-R21SyyJDFgc-unsplash.jpg","","1","faces","","0","0","1","0.4","27.70000000000001"
"","iti_localizer","","html-keyboard-response","114","98249","0.0-2.0-28.0-1.0","16","17069","2s","null","","","","null","","26","","","","1","","","","","","0.3","28.10000000000001"
"","localizer","","html-keyboard-response","115","98664","0.0-2.0-29.0-0.0","16","17069","2s","0","","","","68","0","27","","Stimuli/Experimental_stims/localizer/faces/juan-encalada-WC7KIHo13Fc-unsplash.jpg","","1","faces","","0","0","1","0.4","28.40000000000001"
"","iti_localizer","","html-keyboard-response","116","98974","0.0-2.0-29.0-1.0","16","17069","2s","null","","","","null","","27","","","","1","","","","","","0.3","28.800000000000008"
"","localizer","","html-keyboard-response","117","99388","0.0-2.0-30.0-0.0","16","17069","2s","180","","","","68","0","28","","Stimuli/Experimental_stims/localizer/faces/joseph-gonzalez-iFgRcqHznqg-unsplash.jpg","","1","faces","","0","0","1","0.4","29.10000000000001"
"","iti_localizer","","html-keyboard-response","118","99696","0.0-2.0-30.0-1.0","16","17069","2s","null","","","","null","","28","","","","1","","","","","","0.3","29.500000000000007"
"","localizer","","html-keyboard-response","119","100113","0.0-2.0-31.0-0.0","16","17069","2s","179","","","","68","0","29","","Stimuli/Experimental_stims/localizer/faces/christian-ferrer-8vT-DgHZDG4-unsplash.jpg","","1","faces","","0","0","1","0.4","29.800000000000008"
"","iti_localizer","","html-keyboard-response","120","100422","0.0-2.0-31.0-1.0","16","17069","2s","null","","","","null","","29","","","","1","","","","","","0.3","30.200000000000006"
"","localizer","","html-keyboard-response","121","100840","0.0-2.0-32.0-0.0","16","17069","2s","4","","","","68","0","30","","Stimuli/Experimental_stims/localizer/faces/katsiaryna-endruszkiewicz-BteCp6aq4GI-unsplash.jpg","","1","faces","","0","0","1","0.4","30.500000000000007"
"","iti_localizer","","html-keyboard-response","122","101148","0.0-2.0-32.0-1.0","16","17069","2s","null","","","","null","","30","","","","1","","","","","","0.3","30.900000000000006"
"","localizer","","html-keyboard-response","123","101561","0.0-2.0-33.0-0.0","16","17069","2s","17","","","","68","0","31","","Stimuli/Experimental_stims/localizer/faces/toa-heftiba-O3ymvT7Wf9U-unsplash.jpg","","1","faces","","0","0","1","0.4","31.200000000000006"
"","iti_localizer","","html-keyboard-response","124","101869","0.0-2.0-33.0-1.0","16","17069","2s","null","","","","null","","31","","","","1","","","","","","0.3","31.600000000000005"
"","localizer","","html-keyboard-response","125","102281","0.0-2.0-34.0-0.0","16","17069","2s","36","","","","68","0","32","","Stimuli/Experimental_stims/localizer/faces/ihor-saveliev-3POm-bxWIN8-unsplash.jpg","","1","faces","","0","0","1","0.4","31.900000000000006"
"","iti_localizer","","html-keyboard-response","126","102591","0.0-2.0-34.0-1.0","16","17069","2s","null","","","","null","","32","","","","1","","","","","","0.3","32.300000000000004"
"","localizer","","html-keyboard-response","127","103009","0.0-2.0-35.0-0.0","16","17069","2s","NaN","","","","null","NaN","33","","Stimuli/Experimental_stims/localizer/faces/christopher-campbell-rDEOVtE7vOs-unsplash.jpg","","1","faces","","0","1","0","0.4","32.6"
"","iti_localizer","","html-keyboard-response","128","103322","0.0-2.0-35.0-1.0","16","17069","2s","null","","","","null","","33","","","","1","","","","","","0.3","33"
"","localizer","","html-keyboard-response","129","103735","0.0-2.0-36.0-0.0","16","17069","2s","NaN","","","","null","NaN","34","","Stimuli/Experimental_stims/localizer/faces/chanvre-quebec-mXu1SpzHq6w-unsplash.jpg","","1","faces","","0","1","0","0.4","33.3"
"","iti_localizer","","html-keyboard-response","130","104046","0.0-2.0-36.0-1.0","16","17069","2s","null","","","","null","","34","","","","1","","","","","","0.3","33.699999999999996"
"","localizer","","html-keyboard-response","131","104465","0.0-2.0-37.0-0.0","16","17069","2s","NaN","","","","null","NaN","35","","Stimuli/Experimental_stims/localizer/faces/carlos-vaz-KP4bxnxAilU-unsplash.jpg","","1","faces","","0","1","0","0.4","33.99999999999999"
"","iti_localizer","","html-keyboard-response","132","104775","0.0-2.0-37.0-1.0","16","17069","2s","null","","","","null","","35","","","","1","","","","","","0.3","34.39999999999999"
"","localizer","","html-keyboard-response","133","105189","0.0-2.0-38.0-0.0","16","17069","2s","NaN","","","","null","NaN","36","","Stimuli/Experimental_stims/localizer/faces/elijah-hiett-umfpFoKxIVg-unsplash.jpg","","1","faces","","0","1","0","0.4","34.69999999999999"
"","iti_localizer","","html-keyboard-response","134","105505","0.0-2.0-38.0-1.0","16","17069","2s","null","","","","null","","36","","","","1","","","","","","0.3","35.09999999999999"
"","localizer","","html-keyboard-response","135","105920","0.0-2.0-39.0-0.0","16","17069","2s","NaN","","","","null","NaN","37","","Stimuli/Experimental_stims/localizer/faces/whereslugo-zl_fPgiwduo-unsplash.jpg","","1","faces","","0","1","0","0.4","35.399999999999984"
"","iti_localizer","","html-keyboard-response","136","106229","0.0-2.0-39.0-1.0","16","17069","2s","null","","","","null","","37","","","","1","","","","","","0.3","35.79999999999998"
"","localizer","","html-keyboard-response","137","106639","0.0-2.0-40.0-0.0","16","17069","2s","NaN","","","","null","NaN","38","","Stimuli/Experimental_stims/localizer/faces/etty-fidele-nF8eo2nX374-unsplash.jpg","","1","faces","","1","1","0","0.4","36.09999999999998"
"","iti_localizer","","html-keyboard-response","138","106951","0.0-2.0-40.0-1.0","16","17069","2s","null","","","","null","","38","","","","1","","","","","","0.3","36.49999999999998"
"","localizer","","html-keyboard-response","139","107368","0.0-2.0-41.0-0.0","16","17069","2s","NaN","","","","null","NaN","39","","Stimuli/Experimental_stims/localizer/faces/hisu-lee-2qvxIr_DXGo-unsplash.jpg","","1","faces","","1","1","0","0.4","36.799999999999976"
"","iti_localizer","","html-keyboard-response","140","107678","0.0-2.0-41.0-1.0","16","17069","2s","null","","","","null","","39","","","","1","","","","","","0.3","37.199999999999974"
"","localizer","","html-keyboard-response","141","108097","0.0-2.0-42.0-0.0","16","17069","2s","NaN","","","","null","NaN","40","","Stimuli/Experimental_stims/localizer/faces/abstral-official-cyOKLSgkgCE-unsplash.jpg","","1","faces","","0","1","0","0.4","37.49999999999997"
"","iti_localizer","","html-keyboard-response","142","108406","0.0-2.0-42.0-1.0","16","17069","2s","null","","","","null","","40","","","","1","","","","","","0.3","37.89999999999997"
"","localizer","","html-keyboard-response","143","108820","0.0-2.0-43.0-0.0","16","17069","2s","NaN","","","","null","NaN","41","","Stimuli/Experimental_stims/localizer/faces/icons8-team-6LZuSzSwso0-unsplash.jpg","","1","faces","","0","1","0","0.4","38.19999999999997"
"","iti_localizer","","html-keyboard-response","144","109138","0.0-2.0-43.0-1.0","16","17069","2s","null","","","","null","","41","","","","1","","","","","","0.3","38.599999999999966"
"","localizer","","html-keyboard-response","145","109551","0.0-2.0-44.0-0.0","16","17069","2s","NaN","","","","null","NaN","42","","Stimuli/Experimental_stims/localizer/faces/prince-akachi-LWkFHEGpleE-unsplash.jpg","","1","faces","","0","1","0","0.4","38.89999999999996"
"","iti_localizer","","html-keyboard-response","146","109865","0.0-2.0-44.0-1.0","16","17069","2s","null","","","","null","","42","","","","1","","","","","","0.3","39.29999999999996"
"","localizer","","html-keyboard-response","147","110282","0.0-2.0-45.0-0.0","16","17069","2s","NaN","","","","null","NaN","43","","Stimuli/Experimental_stims/localizer/faces/christian-buehner-DItYlc26zVI-unsplash.jpg","","1","faces","","0","1","0","0.4","39.59999999999996"
"","iti_localizer","","html-keyboard-response","148","110596","0.0-2.0-45.0-1.0","16","17069","2s","null","","","","null","","43","","","","1","","","","","","0.3","39.99999999999996"
"","localizer","","html-keyboard-response","149","111010","0.0-2.0-46.0-0.0","16","17069","2s","NaN","","","","null","NaN","44","","Stimuli/Experimental_stims/localizer/faces/ivana-cajina-_7LbC5J-jw4-unsplash.jpg","","1","faces","","0","1","0","0.4","40.299999999999955"
"","iti_localizer","","html-keyboard-response","150","111321","0.0-2.0-46.0-1.0","16","17069","2s","null","","","","null","","44","","","","1","","","","","","0.3","40.69999999999995"
"","localizer","","html-keyboard-response","151","111732","0.0-2.0-47.0-0.0","16","17069","2s","NaN","","","","null","NaN","45","","Stimuli/Experimental_stims/localizer/faces/art-hauntington-jzY0KRJopEI-unsplash.jpg","","1","faces","","0","1","0","0.4","40.99999999999995"
"","iti_localizer","","html-keyboard-response","152","112045","0.0-2.0-47.0-1.0","16","17069","2s","null","","","","null","","45","","","","1","","","","","","14","41.39999999999995"
"","localizer","","html-keyboard-response","153","112455","0.0-2.0-48.0-0.0","16","17069","2s","NaN","","","","null","NaN","46","","Stimuli/Experimental_stims/localizer/body_parts/bady-abbas-pIySu25o0bM-unsplash.jpg","","1","body_parts","","0","1","0","0.4","55.39999999999995"
"","iti_localizer","","html-keyboard-response","154","112769","0.0-2.0-48.0-1.0","16","17069","2s","null","","","","null","","46","","","","1","","","","","","0.3","55.79999999999995"
"","localizer","","html-keyboard-response","155","113182","0.0-2.0-49.0-0.0","16","17069","2s","NaN","","","","null","NaN","47","","Stimuli/Experimental_stims/localizer/body_parts/carlos-henrique-NAOJKwZswbs-unsplash.jpg","","1","body_parts","","0","1","0","0.4","56.099999999999945"
"","iti_localizer","","html-keyboard-response","156","113495","0.0-2.0-49.0-1.0","16","17069","2s","null","","","","null","","47","","","","1","","","","","","0.3","56.49999999999994"
"","localizer","","html-keyboard-response","157","113912","0.0-2.0-50.0-0.0","16","17069","2s","NaN","","","","null","NaN","48","","Stimuli/Experimental_stims/localizer/body_parts/sincerely-media-Q7qRyaurQfo-unsplash.jpg","","1","body_parts","","0","1","0","0.4","56.79999999999994"
"","iti_localizer","","html-keyboard-response","158","114224","0.0-2.0-50.0-1.0","16","17069","2s","null","","","","null","","48","","","","1","","","","","","0.3","57.19999999999994"
"","localizer","","html-keyboard-response","159","114635","0.0-2.0-51.0-0.0","16","17069","2s","NaN","","","","null","NaN","49","","Stimuli/Experimental_stims/localizer/body_parts/megan-menegay-UojxG_BJxnI-unsplash.jpg","","1","body_parts","","0","1","0","0.4","57.499999999999936"
"","iti_localizer","","html-keyboard-response","160","114951","0.0-2.0-51.0-1.0","16","17069","2s","null","","","","null","","49","","","","1","","","","","","0.3","57.899999999999935"
"","localizer","","html-keyboard-response","161","115365","0.0-2.0-52.0-0.0","16","17069","2s","NaN","","","","null","NaN","50","","Stimuli/Experimental_stims/localizer/body_parts/debby-hudson--B_757qSA4k-unsplash.jpg","","1","body_parts","","0","1","0","0.4","58.19999999999993"
"","iti_localizer","","html-keyboard-response","162","115681","0.0-2.0-52.0-1.0","16","17069","2s","null","","","","null","","50","","","","1","","","","","","0.3","58.59999999999993"
"","localizer","","html-keyboard-response","163","116097","0.0-2.0-53.0-0.0","16","17069","2s","NaN","","","","null","NaN","51","","Stimuli/Experimental_stims/localizer/body_parts/betzy-arosemena-YHdgnygtVCQ-unsplash.jpg","","1","body_parts","","0","1","0","0.4","58.89999999999993"
"","iti_localizer","","html-keyboard-response","164","116409","0.0-2.0-53.0-1.0","16","17069","2s","null","","","","null","","51","","","","1","","","","","","0.3","59.299999999999926"
"","localizer","","html-keyboard-response","165","116822","0.0-2.0-54.0-0.0","16","17069","2s","NaN","","","","null","NaN","52","","Stimuli/Experimental_stims/localizer/body_parts/ben-hartley-RbrsejLGVZ8-unsplash.jpg","","1","body_parts","","1","1","0","0.4","59.59999999999992"
"","iti_localizer","","html-keyboard-response","166","117133","0.0-2.0-54.0-1.0","16","17069","2s","null","","","","null","","52","","","","1","","","","","","0.3","59.99999999999992"
"","localizer","","html-keyboard-response","167","117541","0.0-2.0-55.0-0.0","16","17069","2s","NaN","","","","null","NaN","53","","Stimuli/Experimental_stims/localizer/body_parts/pure-julia-9lVaya31sMk-unsplash.jpg","","1","body_parts","","1","1","0","0.4","60.29999999999992"
"","iti_localizer","","html-keyboard-response","168","117856","0.0-2.0-55.0-1.0","16","17069","2s","null","","","","null","","53","","","","1","","","","","","0.3","60.69999999999992"
"","localizer","","html-keyboard-response","169","118273","0.0-2.0-56.0-0.0","16","17069","2s","NaN","","","","null","NaN","54","","Stimuli/Experimental_stims/localizer/body_parts/diana-polekhina-SwWjCbIIoFE-unsplash.jpg","","1","body_parts","","0","1","0","0.4","60.999999999999915"
"","iti_localizer","","html-keyboard-response","170","118580","0.0-2.0-56.0-1.0","16","17069","2s","null","","","","null","","54","","","","1","","","","","","0.3","61.39999999999991"
"","localizer","","html-keyboard-response","171","118989","0.0-2.0-57.0-0.0","16","17069","2s","NaN","","","","null","NaN","55","","Stimuli/Experimental_stims/localizer/body_parts/i-am_nah--S4OsO0c6Ts-unsplash.jpg","","1","body_parts","","0","1","0","0.4","61.69999999999991"
"","iti_localizer","","html-keyboard-response","172","119306","0.0-2.0-57.0-1.0","16","17069","2s","null","","","","null","","55","","","","1","","","","","","0.3","62.09999999999991"
"","localizer","","html-keyboard-response","173","119721","0.0-2.0-58.0-0.0","16","17069","2s","NaN","","","","null","NaN","56","","Stimuli/Experimental_stims/localizer/body_parts/femme-spirit-RGYBDUHYbyM-unsplash.jpg","","1","body_parts","","0","1","0","0.4","62.399999999999906"
"","iti_localizer","","html-keyboard-response","174","120028","0.0-2.0-58.0-1.0","16","17069","2s","null","","","","null","","56","","","","1","","","","","","0.3","62.799999999999905"
"","localizer","","html-keyboard-response","175","120437","0.0-2.0-59.0-0.0","16","17069","2s","NaN","","","","null","NaN","57","","Stimuli/Experimental_stims/localizer/body_parts/sincerely-media-9Zf6yh7RYbQ-unsplash.jpg","","1","body_parts","","0","1","0","0.4","63.0999999999999"
"","iti_localizer","","html-keyboard-response","176","120754","0.0-2.0-59.0-1.0","16","17069","2s","null","","","","null","","57","","","","1","","","","","","0.3","63.4999999999999"
"","localizer","","html-keyboard-response","177","121169","0.0-2.0-60.0-0.0","16","17069","2s","NaN","","","","null","NaN","58","","Stimuli/Experimental_stims/localizer/body_parts/luisa-denu-o5EU_lUB1rg-unsplash.jpg","","1","body_parts","","0","1","0","0.4","63.7999999999999"
"","iti_localizer","","html-keyboard-response","178","121480","0.0-2.0-60.0-1.0","16","17069","2s","null","","","","null","","58","","","","1","","","","","","0.3","64.1999999999999"
"","localizer","","html-keyboard-response","179","121897","0.0-2.0-61.0-0.0","16","17069","2s","NaN","","","","null","NaN","59","","Stimuli/Experimental_stims/localizer/body_parts/jan-romero-DL4DDQb8yjc-unsplash.jpg","","1","body_parts","","0","1","0","0.4","64.4999999999999"
"","iti_localizer","","html-keyboard-response","180","122210","0.0-2.0-61.0-1.0","16","17069","2s","null","","","","null","","59","","","","1","","","","","","0.3","64.8999999999999"
"","localizer","","html-keyboard-response","181","122625","0.0-2.0-62.0-0.0","16","17069","2s","NaN","","","","null","NaN","60","","Stimuli/Experimental_stims/localizer/body_parts/jonathan-borba-hTwH8QFkPMs-unsplash.jpg","","1","body_parts","","0","1","0","0.4","65.1999999999999"
"","iti_localizer","","html-keyboard-response","182","122935","0.0-2.0-62.0-1.0","16","17069","2s","null","","","","null","","60","","","","1","","","","","","0.3","65.59999999999991"
"","localizer","","html-keyboard-response","183","123350","0.0-2.0-63.0-0.0","16","17069","2s","NaN","","","","null","NaN","61","","Stimuli/Experimental_stims/localizer/body_parts/louis-hansel-FjKTMRTQYAs-unsplash.jpg","","1","body_parts","","0","1","0","0.4","65.8999999999999"
"","iti_localizer","","html-keyboard-response","184","123665","0.0-2.0-63.0-1.0","16","17069","2s","null","","","","null","","61","","","","1","","","","","","0.3","66.29999999999991"
"","localizer","","html-keyboard-response","185","124081","0.0-2.0-64.0-0.0","16","17069","2s","NaN","","","","null","NaN","62","","Stimuli/Experimental_stims/localizer/body_parts/hu-chen-tCbTGNwrFNM-unsplash.jpg","","1","body_parts","","0","1","0","0.4","66.59999999999991"
"","iti_localizer","","html-keyboard-response","186","124394","0.0-2.0-64.0-1.0","16","17069","2s","null","","","","null","","62","","","","1","","","","","","0.3","66.99999999999991"
"","localizer","","html-keyboard-response","187","124806","0.0-2.0-65.0-0.0","16","17069","2s","NaN","","","","null","NaN","63","","Stimuli/Experimental_stims/localizer/body_parts/sincerely-media-pdynOoM7xmA-unsplash.jpg","","1","body_parts","","0","1","0","0.4","67.29999999999991"
"","iti_localizer","","html-keyboard-response","188","125117","0.0-2.0-65.0-1.0","16","17069","2s","null","","","","null","","63","","","","1","","","","","","0.3","67.69999999999992"
"","localizer","","html-keyboard-response","189","125528","0.0-2.0-66.0-0.0","16","17069","2s","NaN","","","","null","NaN","64","","Stimuli/Experimental_stims/localizer/body_parts/juja-han-Z8-6EI2tYtw-unsplash.jpg","","1","body_parts","","0","1","0","0.4","67.99999999999991"
"","iti_localizer","","html-keyboard-response","190","125841","0.0-2.0-66.0-1.0","16","17069","2s","null","","","","null","","64","","","","1","","","","","","0.3","68.39999999999992"
"","localizer","","html-keyboard-response","191","126254","0.0-2.0-67.0-0.0","16","17069","2s","NaN","","","","null","NaN","65","","Stimuli/Experimental_stims/localizer/body_parts/apostolos-vamvouras-g5wKHRu2QW0-unsplash.jpg","","1","body_parts","","0","1","0","0.4","68.69999999999992"
"","iti_localizer","","html-keyboard-response","192","126564","0.0-2.0-67.0-1.0","16","17069","2s","null","","","","null","","65","","","","1","","","","","","14","69.09999999999992"
"","localizer","","html-keyboard-response","193","126978","0.0-2.0-68.0-0.0","16","17069","2s","NaN","","","","null","NaN","66","","Stimuli/Experimental_stims/localizer/objects/florian-klauer-nptLmg6jqDo-unsplash.jpg","","1","objects","","0","1","0","0.4","83.09999999999992"
"","iti_localizer","","html-keyboard-response","194","127294","0.0-2.0-68.0-1.0","16","17069","2s","null","","","","null","","66","","","","1","","","","","","0.3","83.49999999999993"
"","localizer","","html-keyboard-response","195","127714","0.0-2.0-69.0-0.0","16","17069","2s","NaN","","","","null","NaN","67","","Stimuli/Experimental_stims/localizer/objects/petr-sidorov-3jm5TGqtULU-unsplash.jpg","","1","objects","","0","1","0","0.4","83.79999999999993"
"","iti_localizer","","html-keyboard-response","196","128025","0.0-2.0-69.0-1.0","16","17069","2s","null","","","","null","","67","","","","1","","","","","","0.3","84.19999999999993"
"","localizer","","html-keyboard-response","197","128437","0.0-2.0-70.0-0.0","16","17069","2s","NaN","","","","null","NaN","68","","Stimuli/Experimental_stims/localizer/objects/barrett-ward-0lMpQaXfOCg-unsplash.jpg","","1","objects","","0","1","0","0.4","84.49999999999993"
"","iti_localizer","","html-keyboard-response","198","128754","0.0-2.0-70.0-1.0","16","17069","2s","null","","","","null","","68","","","","1","","","","","","0.3","84.89999999999993"
"","localizer","","html-keyboard-response","199","129166","0.0-2.0-71.0-0.0","16","17069","2s","NaN","","","","null","NaN","69","","Stimuli/Experimental_stims/localizer/objects/kelly-jean-cKjbI0Y00X0-unsplash.jpg","","1","objects","","0","1","0","0.4","85.19999999999993"
"","iti_localizer","","html-keyboard-response","200","129477","0.0-2.0-71.0-1.0","16","17069","2s","null","","","","null","","69","","","","1","","","","","","0.3","85.59999999999994"
"","localizer","","html-keyboard-response","201","129885","0.0-2.0-72.0-0.0","16","17069","2s","NaN","","","","null","NaN","70","","Stimuli/Experimental_stims/localizer/objects/ian-talmacs-ugqU0a4P18U-unsplash.jpg","","1","objects","","0","1","0","0.4","85.89999999999993"
"","iti_localizer","","html-keyboard-response","202","130202","0.0-2.0-72.0-1.0","16","17069","2s","null","","","","null","","70","","","","1","","","","","","0.3","86.29999999999994"
"","localizer","","html-keyboard-response","203","130615","0.0-2.0-73.0-0.0","16","17069","2s","NaN","","","","null","NaN","71","","Stimuli/Experimental_stims/localizer/objects/eugene-chystiakov-3neSwyntbQ8-unsplash.jpg","","1","objects","","1","1","0","0.4","86.59999999999994"
"","iti_localizer","","html-keyboard-response","204","130927","0.0-2.0-73.0-1.0","16","17069","2s","null","","","","null","","71","","","","1","","","","","","0.3","86.99999999999994"
"","localizer","","html-keyboard-response","205","131345","0.0-2.0-74.0-0.0","16","17069","2s","NaN","","","","null","NaN","72","","Stimuli/Experimental_stims/localizer/objects/saif71-com-VIKdvmGUhq8-unsplash.jpg","","1","objects","","0","1","0","0.4","87.29999999999994"
"","iti_localizer","","html-keyboard-response","206","131653","0.0-2.0-74.0-1.0","16","17069","2s","null","","","","null","","72","","","","1","","","","","","0.3","87.69999999999995"
"","localizer","","html-keyboard-response","207","132061","0.0-2.0-75.0-0.0","16","17069","2s","NaN","","","","null","NaN","73","","Stimuli/Experimental_stims/localizer/objects/mockup-graphics-v_a3DWpOFc0-unsplash.jpg","","1","objects","","0","1","0","0.4","87.99999999999994"
"","iti_localizer","","html-keyboard-response","208","132374","0.0-2.0-75.0-1.0","16","17069","2s","null","","","","null","","73","","","","1","","","","","","0.3","88.39999999999995"
"","localizer","","html-keyboard-response","209","132782","0.0-2.0-76.0-0.0","16","17069","2s","NaN","","","","null","NaN","74","","Stimuli/Experimental_stims/localizer/objects/chris-briggs-FobzAZJGM9M-unsplash.jpg","","1","objects","","0","1","0","0.4","88.69999999999995"
"","iti_localizer","","html-keyboard-response","210","133098","0.0-2.0-76.0-1.0","16","17069","2s","null","","","","null","","74","","","","1","","","","","","0.3","89.09999999999995"
"","localizer","","html-keyboard-response","211","133514","0.0-2.0-77.0-0.0","16","17069","2s","NaN","","","","null","NaN","75","","Stimuli/Experimental_stims/localizer/objects/ana-9GmAaEMMKho-unsplash.jpg","","1","objects","","0","1","0","0.4","89.39999999999995"
"","iti_localizer","","html-keyboard-response","212","133822","0.0-2.0-77.0-1.0","16","17069","2s","null","","","","null","","75","","","","1","","","","","","0.3","89.79999999999995"
"","localizer","","html-keyboard-response","213","134239","0.0-2.0-78.0-0.0","16","17069","2s","NaN","","","","null","NaN","76","","Stimuli/Experimental_stims/localizer/objects/sam-moghadam-khamseh-L_7MQsHl_aU-unsplash.jpg","","1","objects","","0","1","0","0.4","90.09999999999995"
"","iti_localizer","","html-keyboard-response","214","134548","0.0-2.0-78.0-1.0","16","17069","2s","null","","","","null","","76","","","","1","","","","","","0.3","90.49999999999996"
"","localizer","","html-keyboard-response","215","134958","0.0-2.0-79.0-0.0","16","17069","2s","NaN","","","","null","NaN","77","","Stimuli/Experimental_stims/localizer/objects/recha-oktaviani-t__61ap00Mc-unsplash.jpg","","1","objects","","0","1","0","0.4","90.79999999999995"
"","iti_localizer","","html-keyboard-response","216","135271","0.0-2.0-79.0-1.0","16","17069","2s","null","","","","null","","77","","","","1","","","","","","0.3","91.19999999999996"
"","localizer","","html-keyboard-response","217","135684","0.0-2.0-80.0-0.0","16","17069","2s","NaN","","","","null","NaN","78","","Stimuli/Experimental_stims/localizer/objects/chris-briggs-x9TCnxNBofE-unsplash.jpg","","1","objects","","0","1","0","0.4","91.49999999999996"
"","iti_localizer","","html-keyboard-response","218","135999","0.0-2.0-80.0-1.0","16","17069","2s","null","","","","null","","78","","","","1","","","","","","0.3","91.89999999999996"
"","localizer","","html-keyboard-response","219","136414","0.0-2.0-81.0-0.0","16","17069","2s","NaN","","","","null","NaN","79","","Stimuli/Experimental_stims/localizer/objects/andrew-petrov-TVJqDat4MAw-unsplash.jpg","","1","objects","","0","1","0","0.4","92.19999999999996"
"","iti_localizer","","html-keyboard-response","220","136730","0.0-2.0-81.0-1.0","16","17069","2s","null","","","","null","","79","","","","1","","","","","","0.3","92.59999999999997"
"","localizer","","html-keyboard-response","221","137143","0.0-2.0-82.0-0.0","16","17069","2s","NaN","","","","null","NaN","80","","Stimuli/Experimental_stims/localizer/objects/girl-with-red-hat-oJG9HOVKGMs-unsplash.jpg","","1","objects","","0","1","0","0.4","92.89999999999996"
"","iti_localizer","","html-keyboard-response","222","137454","0.0-2.0-82.0-1.0","16","17069","2s","null","","","","null","","80","","","","1","","","","","","0.3","93.29999999999997"
"","localizer","","html-keyboard-response","223","137864","0.0-2.0-83.0-0.0","16","17069","2s","NaN","","","","null","NaN","81","","Stimuli/Experimental_stims/localizer/objects/miti-MZPdB1DU4a4-unsplash.jpg","","1","objects","","0","1","0","0.4","93.59999999999997"
"","iti_localizer","","html-keyboard-response","224","138175","0.0-2.0-83.0-1.0","16","17069","2s","null","","","","null","","81","","","","1","","","","","","0.3","93.99999999999997"
"","localizer","","html-keyboard-response","225","138589","0.0-2.0-84.0-0.0","16","17069","2s","NaN","","","","null","NaN","82","","Stimuli/Experimental_stims/localizer/objects/quino-al-8gWEAAXJjtI-unsplash.jpg","","1","objects","","0","1","0","0.4","94.29999999999997"
"","iti_localizer","","html-keyboard-response","226","138904","0.0-2.0-84.0-1.0","16","17069","2s","null","","","","null","","82","","","","1","","","","","","0.3","94.69999999999997"
"","localizer","","html-keyboard-response","227","139321","0.0-2.0-85.0-0.0","16","17069","2s","NaN","","","","null","NaN","83","","Stimuli/Experimental_stims/localizer/objects/florian-klauer-mk7D-4UCfmg-unsplash.jpg","","1","objects","","0","1","0","0.4","94.99999999999997"
"","iti_localizer","","html-keyboard-response","228","139631","0.0-2.0-85.0-1.0","16","17069","2s","null","","","","null","","83","","","","1","","","","","","0.3","95.39999999999998"
"","localizer","","html-keyboard-response","229","140046","0.0-2.0-86.0-0.0","16","17069","2s","NaN","","","","null","NaN","84","","Stimuli/Experimental_stims/localizer/objects/quaritsch-photography-lZ8onQ1wuY8-unsplash.jpg","","1","objects","","0","1","0","0.4","95.69999999999997"
"","iti_localizer","","html-keyboard-response","230","140362","0.0-2.0-86.0-1.0","16","17069","2s","null","","","","null","","84","","","","1","","","","","","0.3","96.09999999999998"
"","localizer","","html-keyboard-response","231","140777","0.0-2.0-87.0-0.0","16","17069","2s","NaN","","","","null","NaN","85","","Stimuli/Experimental_stims/localizer/objects/jiangxulei1990-eIzzzwtkBjU-unsplash.jpg","","1","objects","","1","1","0","0.4","96.39999999999998"
"","iti_localizer","","html-keyboard-response","232","141090","0.0-2.0-87.0-1.0","16","17069","2s","null","","","","null","","85","","","","1","","","","","","14","96.79999999999998"
"","localizer","","html-keyboard-response","233","141506","0.0-2.0-88.0-0.0","16","17069","2s","NaN","","","","null","NaN","86","","Stimuli/Experimental_stims/localizer/body_parts/ignacio-campo-tC9boyqy_40-unsplash.jpg","","1","body_parts","","0","1","0","0.4","110.79999999999998"
"","iti_localizer","","html-keyboard-response","234","141812","0.0-2.0-88.0-1.0","16","17069","2s","null","","","","null","","86","","","","1","","","","","","0.3","111.19999999999999"
"","localizer","","html-keyboard-response","235","142224","0.0-2.0-89.0-0.0","16","17069","2s","NaN","","","","null","NaN","87","","Stimuli/Experimental_stims/localizer/body_parts/niu-niu-5HzOtV-FSlw-unsplash.jpg","","1","body_parts","","0","1","0","0.4","111.49999999999999"
"","iti_localizer","","html-keyboard-response","236","142536","0.0-2.0-89.0-1.0","16","17069","2s","null","","","","null","","87","","","","1","","","","","","0.3","111.89999999999999"
"","localizer","","html-keyboard-response","237","142954","0.0-2.0-90.0-0.0","16","17069","2s","NaN","","","","null","NaN","88","","Stimuli/Experimental_stims/localizer/body_parts/marcel-fagin-OUYg0Q3ec-Y-unsplash.jpg","","1","body_parts","","0","1","0","0.4","112.19999999999999"
"","iti_localizer","","html-keyboard-response","238","143264","0.0-2.0-90.0-1.0","16","17069","2s","null","","","","null","","88","","","","1","","","","","","0.3","112.6"
"","localizer","","html-keyboard-response","239","143682","0.0-2.0-91.0-0.0","16","17069","2s","NaN","","","","null","NaN","89","","Stimuli/Experimental_stims/localizer/body_parts/liv-bruce-M0oVPGsWk1E-unsplash.jpg","","1","body_parts","","0","1","0","0.4","112.89999999999999"
"","iti_localizer","","html-keyboard-response","240","143990","0.0-2.0-91.0-1.0","16","17069","2s","null","","","","null","","89","","","","1","","","","","","0.3","113.3"
"","localizer","","html-keyboard-response","241","144405","0.0-2.0-92.0-0.0","16","17069","2s","NaN","","","","null","NaN","90","","Stimuli/Experimental_stims/localizer/body_parts/billie-5OXE3KjDEfI-unsplash.jpg","","1","body_parts","","0","1","0","0.4","113.6"
"","iti_localizer","","html-keyboard-response","242","144722","0.0-2.0-92.0-1.0","16","17069","2s","null","","","","null","","90","","","","1","","","","","","0.3","114"
"","localizer","","html-keyboard-response","243","145133","0.0-2.0-93.0-0.0","16","17069","2s","NaN","","","","null","NaN","91","","Stimuli/Experimental_stims/localizer/body_parts/sincerely-media-3DZHTq_i7Qk-unsplash.jpg","","1","body_parts","","0","1","0","0.4","114.3"
"","iti_localizer","","html-keyboard-response","244","145445","0.0-2.0-93.0-1.0","16","17069","2s","null","","","","null","","91","","","","1","","","","","","0.3","114.7"
"","localizer","","html-keyboard-response","245","145854","0.0-2.0-94.0-0.0","16","17069","2s","NaN","","","","null","NaN","92","","Stimuli/Experimental_stims/localizer/body_parts/kai-wenzel-zYDJOxjaZrQ-unsplash.jpg","","1","body_parts","","0","1","0","0.4","115"
"","iti_localizer","","html-keyboard-response","246","146169","0.0-2.0-94.0-1.0","16","17069","2s","null","","","","null","","92","","","","1","","","","","","0.3","115.4"
"","localizer","","html-keyboard-response","247","146582","0.0-2.0-95.0-0.0","16","17069","2s","NaN","","","","null","NaN","93","","Stimuli/Experimental_stims/localizer/body_parts/toan-nguyen-VIeLuUFzesg-unsplash.jpg","","1","body_parts","","1","1","0","0.4","115.7"
"","iti_localizer","","html-keyboard-response","248","146898","0.0-2.0-95.0-1.0","16","17069","2s","null","","","","null","","93","","","","1","","","","","","0.3","116.10000000000001"
"","localizer","","html-keyboard-response","249","147313","0.0-2.0-96.0-0.0","16","17069","2s","NaN","","","","null","NaN","94","","Stimuli/Experimental_stims/localizer/body_parts/jasper-garratt-Ng_Kl7K6V8Y-unsplash.jpg","","1","body_parts","","0","1","0","0.4","116.4"
"","iti_localizer","","html-keyboard-response","250","147622","0.0-2.0-96.0-1.0","16","17069","2s","null","","","","null","","94","","","","1","","","","","","0.3","116.80000000000001"
"","localizer","","html-keyboard-response","251","148028","0.0-2.0-97.0-0.0","16","17069","2s","NaN","","","","null","NaN","95","","Stimuli/Experimental_stims/localizer/body_parts/sippakorn-yamkasikorn-32_sJlJa5gA-unsplash.jpg","","1","body_parts","","0","1","0","0.4","117.10000000000001"
"","iti_localizer","","html-keyboard-response","252","148342","0.0-2.0-97.0-1.0","16","17069","2s","null","","","","null","","95","","","","1","","","","","","0.3","117.50000000000001"
"","localizer","","html-keyboard-response","253","148751","0.0-2.0-98.0-0.0","16","17069","2s","NaN","","","","null","NaN","96","","Stimuli/Experimental_stims/localizer/body_parts/freestocks-qw9LFf5T790-unsplash.jpg","","1","body_parts","","0","1","0","0.4","117.80000000000001"
"","iti_localizer","","html-keyboard-response","254","149064","0.0-2.0-98.0-1.0","16","17069","2s","null","","","","null","","96","","","","1","","","","","","0.3","118.20000000000002"
"","localizer","","html-keyboard-response","255","149481","0.0-2.0-99.0-0.0","16","17069","2s","NaN","","","","null","NaN","97","","Stimuli/Experimental_stims/localizer/body_parts/jeremy-yap-TfJEi17kA0w-unsplash.jpg","","1","body_parts","","0","1","0","0.4","118.50000000000001"
"","iti_localizer","","html-keyboard-response","256","149789","0.0-2.0-99.0-1.0","16","17069","2s","null","","","","null","","97","","","","1","","","","","","0.3","118.90000000000002"
"","localizer","","html-keyboard-response","257","150201","0.0-2.0-100.0-0.0","16","17069","2s","NaN","","","","null","NaN","98","","Stimuli/Experimental_stims/localizer/body_parts/anelya-okapova-V69kmOyZ3SU-unsplash.jpg","","1","body_parts","","1","1","0","0.4","119.20000000000002"
"","iti_localizer","","html-keyboard-response","258","150513","0.0-2.0-100.0-1.0","16","17069","2s","null","","","","null","","98","","","","1","","","","","","0.3","119.60000000000002"
"","localizer","","html-keyboard-response","259","150929","0.0-2.0-101.0-0.0","16","17069","2s","NaN","","","","null","NaN","99","","Stimuli/Experimental_stims/localizer/body_parts/nick-page-WTNmgJtwzGI-unsplash.jpg","","1","body_parts","","0","1","0","0.4","119.90000000000002"
"","iti_localizer","","html-keyboard-response","260","151242","0.0-2.0-101.0-1.0","16","17069","2s","null","","","","null","","99","","","","1","","","","","","0.3","120.30000000000003"
"","localizer","","html-keyboard-response","261","151656","0.0-2.0-102.0-0.0","16","17069","2s","NaN","","","","null","NaN","100","","Stimuli/Experimental_stims/localizer/body_parts/lilartsy-1KkhQ8uL28g-unsplash.jpg","","1","body_parts","","0","1","0","0.4","120.60000000000002"
"","iti_localizer","","html-keyboard-response","262","151967","0.0-2.0-102.0-1.0","16","17069","2s","null","","","","null","","100","","","","1","","","","","","0.3","121.00000000000003"
"","localizer","","html-keyboard-response","263","152383","0.0-2.0-103.0-0.0","16","17069","2s","NaN","","","","null","NaN","101","","Stimuli/Experimental_stims/localizer/body_parts/xavier-foucrier-dLZUNHsT8vo-unsplash.jpg","","1","body_parts","","0","1","0","0.4","121.30000000000003"
"","iti_localizer","","html-keyboard-response","264","152697","0.0-2.0-103.0-1.0","16","17069","2s","null","","","","null","","101","","","","1","","","","","","0.3","121.70000000000003"
"","localizer","","html-keyboard-response","265","153112","0.0-2.0-104.0-0.0","16","17069","2s","NaN","","","","null","NaN","102","","Stimuli/Experimental_stims/localizer/body_parts/toa-heftiba-qxvWnfHb3-M-unsplash.jpg","","1","body_parts","","0","1","0","0.4","122.00000000000003"
"","iti_localizer","","html-keyboard-response","266","153426","0.0-2.0-104.0-1.0","16","17069","2s","null","","","","null","","102","","","","1","","","","","","0.3","122.40000000000003"
"","localizer","","html-keyboard-response","267","153842","0.0-2.0-105.0-0.0","16","17069","2s","NaN","","","","null","NaN","103","","Stimuli/Experimental_stims/localizer/body_parts/louisa-potter-zd29nBmLuig-unsplash.jpg","","1","body_parts","","0","1","0","0.4","122.70000000000003"
"","iti_localizer","","html-keyboard-response","268","154154","0.0-2.0-105.0-1.0","16","17069","2s","null","","","","null","","103","","","","1","","","","","","0.3","123.10000000000004"
"","localizer","","html-keyboard-response","269","154566","0.0-2.0-106.0-0.0","16","17069","2s","NaN","","","","null","NaN","104","","Stimuli/Experimental_stims/localizer/body_parts/ant-rozetsky-bXQd8JXx0vs-unsplash.jpg","","1","body_parts","","0","1","0","0.4","123.40000000000003"
"","iti_localizer","","html-keyboard-response","270","154882","0.0-2.0-106.0-1.0","16","17069","2s","null","","","","null","","104","","","","1","","","","","","0.3","123.80000000000004"
"","localizer","","html-keyboard-response","271","155296","0.0-2.0-107.0-0.0","16","17069","2s","NaN","","","","null","NaN","105","","Stimuli/Experimental_stims/localizer/body_parts/sina-rezakhani-d1gQi0Jl05U-unsplash (1).jpg","","1","body_parts","","0","1","0","0.4","124.10000000000004"
"","iti_localizer","","html-keyboard-response","272","155607","0.0-2.0-107.0-1.0","16","17069","2s","null","","","","null","","105","","","","1","","","","","","14","124.50000000000004"
"","localizer","","html-keyboard-response","273","156023","0.0-2.0-108.0-0.0","16","17069","2s","NaN","","","","null","NaN","106","","Stimuli/Experimental_stims/localizer/outdoor_scenes/jaanus-jagomagi-FddgewYQF2M-unsplash.jpg","","1","outdoor_scenes","","1","1","0","0.4","138.50000000000006"
"","iti_localizer","","html-keyboard-response","274","156338","0.0-2.0-108.0-1.0","16","17069","2s","null","","","","null","","106","","","","1","","","","","","0.3","138.90000000000006"
"","localizer","","html-keyboard-response","275","156752","0.0-2.0-109.0-0.0","16","17069","2s","NaN","","","","null","NaN","107","","Stimuli/Experimental_stims/localizer/outdoor_scenes/ryan-schroeder-Gg7uKdHFb_c-unsplash.jpg","","1","outdoor_scenes","","0","1","0","0.4","139.20000000000007"
"","iti_localizer","","html-keyboard-response","276","157063","0.0-2.0-109.0-1.0","16","17069","2s","null","","","","null","","107","","","","1","","","","","","0.3","139.60000000000008"
"","localizer","","html-keyboard-response","277","157483","0.0-2.0-110.0-0.0","16","17069","2s","NaN","","","","null","NaN","108","","Stimuli/Experimental_stims/localizer/outdoor_scenes/alessio-furlan-Vw3a0HgE7AM-unsplash.jpg","","1","outdoor_scenes","","0","1","0","0.4","139.9000000000001"
"","iti_localizer","","html-keyboard-response","278","157791","0.0-2.0-110.0-1.0","16","17069","2s","null","","","","null","","108","","","","1","","","","","","0.3","140.3000000000001"
"","localizer","","html-keyboard-response","279","158207","0.0-2.0-111.0-0.0","16","17069","2s","NaN","","","","null","NaN","109","","Stimuli/Experimental_stims/localizer/outdoor_scenes/bruno-van-der-kraan-qez8mNJ3ilU-unsplash.jpg","","1","outdoor_scenes","","0","1","0","0.4","140.6000000000001"
"","iti_localizer","","html-keyboard-response","280","158521","0.0-2.0-111.0-1.0","16","17069","2s","null","","","","null","","109","","","","1","","","","","","0.3","141.0000000000001"
"","localizer","","html-keyboard-response","281","158937","0.0-2.0-112.0-0.0","16","17069","2s","NaN","","","","null","NaN","110","","Stimuli/Experimental_stims/localizer/outdoor_scenes/v2osk-1Z2niiBPg5A-unsplash.jpg","","1","outdoor_scenes","","0","1","0","0.4","141.30000000000013"
"","iti_localizer","","html-keyboard-response","282","159247","0.0-2.0-112.0-1.0","16","17069","2s","null","","","","null","","110","","","","1","","","","","","0.3","141.70000000000013"
"","localizer","","html-keyboard-response","283","159664","0.0-2.0-113.0-0.0","16","17069","2s","NaN","","","","null","NaN","111","","Stimuli/Experimental_stims/localizer/outdoor_scenes/dawid-zawila--G3rw6Y02D0-unsplash.jpg","","1","outdoor_scenes","","0","1","0","0.4","142.00000000000014"
"","iti_localizer","","html-keyboard-response","284","159978","0.0-2.0-113.0-1.0","16","17069","2s","null","","","","null","","111","","","","1","","","","","","0.3","142.40000000000015"
"","localizer","","html-keyboard-response","285","160390","0.0-2.0-114.0-0.0","16","17069","2s","NaN","","","","null","NaN","112","","Stimuli/Experimental_stims/localizer/outdoor_scenes/cosmic-timetraveler-pYyOZ8q7AII-unsplash.jpg","","1","outdoor_scenes","","1","1","0","0.4","142.70000000000016"
"","iti_localizer","","html-keyboard-response","286","160706","0.0-2.0-114.0-1.0","16","17069","2s","null","","","","null","","112","","","","1","","","","","","0.3","143.10000000000016"
"","localizer","","html-keyboard-response","287","161116","0.0-2.0-115.0-0.0","16","17069","2s","NaN","","","","null","NaN","113","","Stimuli/Experimental_stims/localizer/outdoor_scenes/chris-holgersson-zshyCr6HGw0-unsplash.jpg","","1","outdoor_scenes","","0","1","0","0.4","143.40000000000018"
"","iti_localizer","","html-keyboard-response","288","161434","0.0-2.0-115.0-1.0","16","17069","2s","null","","","","null","","113","","","","1","","","","","","0.3","143.80000000000018"
"","localizer","","html-keyboard-response","289","161849","0.0-2.0-116.0-0.0","16","17069","2s","NaN","","","","null","NaN","114","","Stimuli/Experimental_stims/localizer/outdoor_scenes/ricardo-gomez-angel-dTSaC-S-7fs-unsplash.jpg","","1","outdoor_scenes","","0","1","0","0.4","144.1000000000002"
"","iti_localizer","","html-keyboard-response","290","162156","0.0-2.0-116.0-1.0","16","17069","2s","null","","","","null","","114","","","","1","","","","","","0.3","144.5000000000002"
"","localizer","","html-keyboard-response","291","162570","0.0-2.0-117.0-0.0","16","17069","2s","NaN","","","","null","NaN","115","","Stimuli/Experimental_stims/localizer/outdoor_scenes/andres-sanz-uILhNE1VcwA-unsplash.jpg","","1","outdoor_scenes","","0","1","0","0.4","144.8000000000002"
"","iti_localizer","","html-keyboard-response","292","162881","0.0-2.0-117.0-1.0","16","17069","2s","null","","","","null","","115","","","","1","","","","","","0.3","145.20000000000022"
"","localizer","","html-keyboard-response","293","163298","0.0-2.0-118.0-0.0","16","17069","2s","NaN","","","","null","NaN","116","","Stimuli/Experimental_stims/localizer/outdoor_scenes/john-fowler-aaIN3y2zcMQ-unsplash.jpg","","1","outdoor_scenes","","0","1","0","0.4","145.50000000000023"
"","iti_localizer","","html-keyboard-response","294","163607","0.0-2.0-118.0-1.0","16","17069","2s","null","","","","null","","116","","","","1","","","","","","0.3","145.90000000000023"
"","localizer","","html-keyboard-response","295","164022","0.0-2.0-119.0-0.0","16","17069","2s","NaN","","","","null","NaN","117","","Stimuli/Experimental_stims/localizer/outdoor_scenes/quino-al-vmZ2DehWQ3Q-unsplash.jpg","","1","outdoor_scenes","","0","1","0","0.4","146.20000000000024"
"","iti_localizer","","html-keyboard-response","296","164338","0.0-2.0-119.0-1.0","16","17069","2s","null","","","","null","","117","","","","1","","","","","","0.3","146.60000000000025"
"","localizer","","html-keyboard-response","297","164754","0.0-2.0-120.0-0.0","16","17069","2s","NaN","","","","null","NaN","118","","Stimuli/Experimental_stims/localizer/outdoor_scenes/antoine-beauvillain-qrPqGP-SG8w-unsplash.jpg","","1","outdoor_scenes","","0","1","0","0.4","146.90000000000026"
"","iti_localizer","","html-keyboard-response","298","165064","0.0-2.0-120.0-1.0","16","17069","2s","null","","","","null","","118","","","","1","","","","","","0.3","147.30000000000027"
"","localizer","","html-keyboard-response","299","165482","0.0-2.0-121.0-0.0","16","17069","2s","NaN","","","","null","NaN","119","","Stimuli/Experimental_stims/localizer/outdoor_scenes/jack-millard-zjyP-UYI-ko-unsplash.jpg","","1","outdoor_scenes","","0","1","0","0.4","147.60000000000028"
"","iti_localizer","","html-keyboard-response","300","165788","0.0-2.0-121.0-1.0","16","17069","2s","null","","","","null","","119","","","","1","","","","","","0.3","148.00000000000028"
"","localizer","","html-keyboard-response","301","166200","0.0-2.0-122.0-0.0","16","17069","2s","NaN","","","","null","NaN","120","","Stimuli/Experimental_stims/localizer/outdoor_scenes/kalen-emsley-_LuLiJc1cdo-unsplash.jpg","","1","outdoor_scenes","","0","1","0","0.4","148.3000000000003"
"","iti_localizer","","html-keyboard-response","302","166509","0.0-2.0-122.0-1.0","16","17069","2s","null","","","","null","","120","","","","1","","","","","","0.3","148.7000000000003"
"","localizer","","html-keyboard-response","303","166916","0.0-2.0-123.0-0.0","16","17069","2s","NaN","","","","null","NaN","121","","Stimuli/Experimental_stims/localizer/outdoor_scenes/jay-cai-F_laX9E8CUo-unsplash.jpg","","1","outdoor_scenes","","0","1","0","0.4","149.0000000000003"
"","iti_localizer","","html-keyboard-response","304","167230","0.0-2.0-123.0-1.0","16","17069","2s","null","","","","null","","121","","","","1","","","","","","0.3","149.40000000000032"
"","localizer","","html-keyboard-response","305","167639","0.0-2.0-124.0-0.0","16","17069","2s","NaN","","","","null","NaN","122","","Stimuli/Experimental_stims/localizer/outdoor_scenes/john-mark-arnold-XNIjmb6Ax04-unsplash.jpg","","1","outdoor_scenes","","0","1","0","0.4","149.70000000000033"
"","iti_localizer","","html-keyboard-response","306","167954","0.0-2.0-124.0-1.0","16","17069","2s","null","","","","null","","122","","","","1","","","","","","0.3","150.10000000000034"
"","localizer","","html-keyboard-response","307","168366","0.0-2.0-125.0-0.0","16","17069","2s","NaN","","","","null","NaN","123","","Stimuli/Experimental_stims/localizer/outdoor_scenes/erol-ahmed-d3pTF3r_hwY-unsplash.jpg","","1","outdoor_scenes","","0","1","0","0.4","150.40000000000035"
"","iti_localizer","","html-keyboard-response","308","168678","0.0-2.0-125.0-1.0","16","17069","2s","null","","","","null","","123","","","","1","","","","","","0.3","150.80000000000035"
"","localizer","","html-keyboard-response","309","169087","0.0-2.0-126.0-0.0","16","17069","2s","NaN","","","","null","NaN","124","","Stimuli/Experimental_stims/localizer/outdoor_scenes/gabriel-garcia-marengo-ht9aLtovtSo-unsplash.jpg","","1","outdoor_scenes","","0","1","0","0.4","151.10000000000036"
"","iti_localizer","","html-keyboard-response","310","169399","0.0-2.0-126.0-1.0","16","17069","2s","null","","","","null","","124","","","","1","","","","","","0.3","151.50000000000037"
"","localizer","","html-keyboard-response","311","169814","0.0-2.0-127.0-0.0","16","17069","2s","NaN","","","","null","NaN","125","","Stimuli/Experimental_stims/localizer/outdoor_scenes/simon-berger-UqCnDyc_3vA-unsplash.jpg","","1","outdoor_scenes","","0","1","0","0.4","151.80000000000038"
"","iti_localizer","","html-keyboard-response","312","170131","0.0-2.0-127.0-1.0","16","17069","2s","null","","","","null","","125","","","","1","","","","","","14","152.2000000000004"
"","localizer","","html-keyboard-response","313","170546","0.0-2.0-128.0-0.0","16","17069","2s","NaN","","","","null","NaN","126","","Stimuli/Experimental_stims/localizer/faces/drew-hays-agGIKYs4mYs-unsplash.jpg","","1","faces","","0","1","0","0.4","166.2000000000004"
"","iti_localizer","","html-keyboard-response","314","170858","0.0-2.0-128.0-1.0","16","17069","2s","null","","","","null","","126","","","","1","","","","","","0.3","166.6000000000004"
"","localizer","","html-keyboard-response","315","171273","0.0-2.0-129.0-0.0","16","17069","2s","NaN","","","","null","NaN","127","","Stimuli/Experimental_stims/localizer/faces/allef-vinicius-C_1jjFJioWg-unsplash.jpg","","1","faces","","0","1","0","0.4","166.9000000000004"
"","iti_localizer","","html-keyboard-response","316","171583","0.0-2.0-129.0-1.0","16","17069","2s","null","","","","null","","127","","","","1","","","","","","0.3","167.3000000000004"
"","localizer","","html-keyboard-response","317","172002","0.0-2.0-130.0-0.0","16","17069","2s","NaN","","","","null","NaN","128","","Stimuli/Experimental_stims/localizer/faces/toa-heftiba-2O1EUSTRBrY-unsplash.jpg","","1","faces","","0","1","0","0.4","167.60000000000042"
"","iti_localizer","","html-keyboard-response","318","172314","0.0-2.0-130.0-1.0","16","17069","2s","null","","","","null","","128","","","","1","","","","","","0.3","168.00000000000043"
"","localizer","","html-keyboard-response","319","172725","0.0-2.0-131.0-0.0","16","17069","2s","NaN","","","","null","NaN","129","","Stimuli/Experimental_stims/localizer/faces/jimmy-fermin-bqe0J0b26RQ-unsplash.jpg","","1","faces","","0","1","0","0.4","168.30000000000044"
"","iti_localizer","","html-keyboard-response","320","173040","0.0-2.0-131.0-1.0","16","17069","2s","null","","","","null","","129","","","","1","","","","","","0.3","168.70000000000044"
"","localizer","","html-keyboard-response","321","173452","0.0-2.0-132.0-0.0","16","17069","2s","NaN","","","","null","NaN","130","","Stimuli/Experimental_stims/localizer/faces/gabriel-silverio-u3WmDyKGsrY-unsplash.jpg","","1","faces","","0","1","0","0.4","169.00000000000045"
"","iti_localizer","","html-keyboard-response","322","173771","0.0-2.0-132.0-1.0","16","17069","2s","null","","","","null","","130","","","","1","","","","","","0.3","169.40000000000046"
"","localizer","","html-keyboard-response","323","174181","0.0-2.0-133.0-0.0","16","17069","2s","NaN","","","","null","NaN","131","","Stimuli/Experimental_stims/localizer/faces/olena-sergienko-0TSd6uCKTKc-unsplash.jpg","","1","faces","","1","1","0","0.4","169.70000000000047"
"","iti_localizer","","html-keyboard-response","324","174494","0.0-2.0-133.0-1.0","16","17069","2s","null","","","","null","","131","","","","1","","","","","","0.3","170.10000000000048"
"","localizer","","html-keyboard-response","325","174906","0.0-2.0-134.0-0.0","16","17069","2s","NaN","","","","null","NaN","132","","Stimuli/Experimental_stims/localizer/faces/aatik-tasneem-7omHUGhhmZ0-unsplash.jpg","","1","faces","","1","1","0","0.4","170.4000000000005"
"","iti_localizer","","html-keyboard-response","326","175213","0.0-2.0-134.0-1.0","16","17069","2s","null","","","","null","","132","","","","1","","","","","","0.3","170.8000000000005"
"","localizer","","html-keyboard-response","327","175627","0.0-2.0-135.0-0.0","16","17069","2s","NaN","","","","null","NaN","133","","Stimuli/Experimental_stims/localizer/faces/ian-dooley-d1UPkiFd04A-unsplash.jpg","","1","faces","","0","1","0","0.4","171.1000000000005"
"","iti_localizer","","html-keyboard-response","328","175939","0.0-2.0-135.0-1.0","16","17069","2s","null","","","","null","","133","","","","1","","","","","","0.3","171.5000000000005"
"","localizer","","html-keyboard-response","329","176351","0.0-2.0-136.0-0.0","16","17069","2s","NaN","","","","null","NaN","134","","Stimuli/Experimental_stims/localizer/faces/janaya-dasiuk-_A2LZdUqHgA-unsplash.jpg","","1","faces","","0","1","0","0.4","171.80000000000052"
"","iti_localizer","","html-keyboard-response","330","176667","0.0-2.0-136.0-1.0","16","17069","2s","null","","","","null","","134","","","","1","","","","","","0.3","172.20000000000053"
"","localizer","","html-keyboard-response","331","177082","0.0-2.0-137.0-0.0","16","17069","2s","NaN","","","","null","NaN","135","","Stimuli/Experimental_stims/localizer/faces/rafaella-mendes-diniz-et_78QkMMQs-unsplash.jpg","","1","faces","","0","1","0","0.4","172.50000000000054"
"","iti_localizer","","html-keyboard-response","332","177394","0.0-2.0-137.0-1.0","16","17069","2s","null","","","","null","","135","","","","1","","","","","","0.3","172.90000000000055"
"","localizer","","html-keyboard-response","333","177810","0.0-2.0-138.0-0.0","16","17069","2s","NaN","","","","null","NaN","136","","Stimuli/Experimental_stims/localizer/faces/linkedin-sales-solutions-pAtA8xe_iVM-unsplash.jpg","","1","faces","","0","1","0","0.4","173.20000000000056"
"","iti_localizer","","html-keyboard-response","334","178118","0.0-2.0-138.0-1.0","16","17069","2s","null","","","","null","","136","","","","1","","","","","","0.3","173.60000000000056"
"","localizer","","html-keyboard-response","335","178526","0.0-2.0-139.0-0.0","16","17069","2s","NaN","","","","null","NaN","137","","Stimuli/Experimental_stims/localizer/faces/jeffery-erhunse-vp9mRauo68c-unsplash.jpg","","1","faces","","0","1","0","0.4","173.90000000000057"
"","iti_localizer","","html-keyboard-response","336","178838","0.0-2.0-139.0-1.0","16","17069","2s","null","","","","null","","137","","","","1","","","","","","0.3","174.30000000000058"
"","localizer","","html-keyboard-response","337","179247","0.0-2.0-140.0-0.0","16","17069","2s","NaN","","","","null","NaN","138","","Stimuli/Experimental_stims/localizer/faces/jakob-owens-lkMJcGDZLVs-unsplash.jpg","","1","faces","","0","1","0","0.4","174.6000000000006"
"","iti_localizer","","html-keyboard-response","338","179562","0.0-2.0-140.0-1.0","16","17069","2s","null","","","","null","","138","","","","1","","","","","","0.3","175.0000000000006"
"","localizer","","html-keyboard-response","339","179973","0.0-2.0-141.0-0.0","16","17069","2s","NaN","","","","null","NaN","139","","Stimuli/Experimental_stims/localizer/faces/jurica-koletic-7YVZYZeITc8-unsplash.jpg","","1","faces","","0","1","0","0.4","175.3000000000006"
"","iti_localizer","","html-keyboard-response","340","180284","0.0-2.0-141.0-1.0","16","17069","2s","null","","","","null","","139","","","","1","","","","","","0.3","175.7000000000006"
"","localizer","","html-keyboard-response","341","180696","0.0-2.0-142.0-0.0","16","17069","2s","NaN","","","","null","NaN","140","","Stimuli/Experimental_stims/localizer/faces/philip-martin-5aGUyCW_PJw-unsplash.jpg","","1","faces","","0","1","0","0.4","176.00000000000063"
"","iti_localizer","","html-keyboard-response","342","181006","0.0-2.0-142.0-1.0","16","17069","2s","null","","","","null","","140","","","","1","","","","","","0.3","176.40000000000063"
"","localizer","","html-keyboard-response","343","181418","0.0-2.0-143.0-0.0","16","17069","2s","NaN","","","","null","NaN","141","","Stimuli/Experimental_stims/localizer/faces/james-marty-h1BuNJZzpC8-unsplash.jpg","","1","faces","","0","1","0","0.4","176.70000000000064"
"","iti_localizer","","html-keyboard-response","344","181728","0.0-2.0-143.0-1.0","16","17069","2s","null","","","","null","","141","","","","1","","","","","","0.3","177.10000000000065"
"","localizer","","html-keyboard-response","345","182147","0.0-2.0-144.0-0.0","16","17069","2s","NaN","","","","null","NaN","142","","Stimuli/Experimental_stims/localizer/faces/ayo-ogunseinde-sibVwORYqs0-unsplash.jpg","","1","faces","","0","1","0","0.4","177.40000000000066"
"","iti_localizer","","html-keyboard-response","346","182459","0.0-2.0-144.0-1.0","16","17069","2s","null","","","","null","","142","","","","1","","","","","","0.3","177.80000000000067"
"","localizer","","html-keyboard-response","347","182874","0.0-2.0-145.0-0.0","16","17069","2s","NaN","","","","null","NaN","143","","Stimuli/Experimental_stims/localizer/faces/rui-silvestre-hAMJpesMeDE-unsplash.jpg","","1","faces","","0","1","0","0.4","178.10000000000068"
"","iti_localizer","","html-keyboard-response","348","183187","0.0-2.0-145.0-1.0","16","17069","2s","null","","","","null","","143","","","","1","","","","","","0.3","178.50000000000068"
"","localizer","","html-keyboard-response","349","183602","0.0-2.0-146.0-0.0","16","17069","2s","NaN","","","","null","NaN","144","","Stimuli/Experimental_stims/localizer/faces/aiony-haust-K0DxxljcRv0-unsplash.jpg","","1","faces","","0","1","0","0.4","178.8000000000007"
"","iti_localizer","","html-keyboard-response","350","183915","0.0-2.0-146.0-1.0","16","17069","2s","null","","","","null","","144","","","","1","","","","","","0.3","179.2000000000007"
"","localizer","","html-keyboard-response","351","184326","0.0-2.0-147.0-0.0","16","17069","2s","NaN","","","","null","NaN","145","","Stimuli/Experimental_stims/localizer/faces/austin-wade-X6Uj51n5CE8-unsplash.jpg","","1","faces","","0","1","0","0.4","179.5000000000007"
"","iti_localizer","","html-keyboard-response","352","184643","0.0-2.0-147.0-1.0","16","17069","2s","null","","","","null","","145","","","","1","","","","","","14","179.90000000000072"
"","localizer","","html-keyboard-response","353","185057","0.0-2.0-148.0-0.0","16","17069","2s","NaN","","","","null","NaN","146","","Stimuli/Experimental_stims/localizer/objects/nordwood-themes-E9tFH39iRPE-unsplash.jpg","","1","objects","","0","1","0","0.4","193.90000000000072"
"","iti_localizer","","html-keyboard-response","354","185370","0.0-2.0-148.0-1.0","16","17069","2s","null","","","","null","","146","","","","1","","","","","","0.3","194.30000000000072"
"","localizer","","html-keyboard-response","355","185787","0.0-2.0-149.0-0.0","16","17069","2s","NaN","","","","null","NaN","147","","Stimuli/Experimental_stims/localizer/objects/mockup-graphics-Pj2PY-E-LfM-unsplash.jpg","","1","objects","","1","1","0","0.4","194.60000000000073"
"","iti_localizer","","html-keyboard-response","356","186093","0.0-2.0-149.0-1.0","16","17069","2s","null","","","","null","","147","","","","1","","","","","","0.3","195.00000000000074"
"","localizer","","html-keyboard-response","357","186506","0.0-2.0-150.0-0.0","16","17069","2s","NaN","","","","null","NaN","148","","Stimuli/Experimental_stims/localizer/objects/dario-mendez-WmF_XLF4-Rs-unsplash.jpg","","1","objects","","0","1","0","0.4","195.30000000000075"
"","iti_localizer","","html-keyboard-response","358","186814","0.0-2.0-150.0-1.0","16","17069","2s","null","","","","null","","148","","","","1","","","","","","0.3","195.70000000000076"
"","localizer","","html-keyboard-response","359","187224","0.0-2.0-151.0-0.0","16","17069","2s","NaN","","","","null","NaN","149","","Stimuli/Experimental_stims/localizer/objects/hipster-mum-XookgCxFw6Q-unsplash.jpg","","1","objects","","0","1","0","0.4","196.00000000000077"
"","iti_localizer","","html-keyboard-response","360","187534","0.0-2.0-151.0-1.0","16","17069","2s","null","","","","null","","149","","","","1","","","","","","0.3","196.40000000000077"
"","localizer","","html-keyboard-response","361","187947","0.0-2.0-152.0-0.0","16","17069","2s","NaN","","","","null","NaN","150","","Stimuli/Experimental_stims/localizer/objects/maria-lupan-Rlakka_pZMU-unsplash.jpg","","1","objects","","0","1","0","0.4","196.70000000000078"
"","iti_localizer","","html-keyboard-response","362","188253","0.0-2.0-152.0-1.0","16","17069","2s","null","","","","null","","150","","","","1","","","","","","0.3","197.1000000000008"
"","localizer","","html-keyboard-response","363","188663","0.0-2.0-153.0-0.0","16","17069","2s","NaN","","","","null","NaN","151","","Stimuli/Experimental_stims/localizer/objects/yossy-made-yulian-WaEqwDSIeTY-unsplash.jpg","","1","objects","","0","1","0","0.4","197.4000000000008"
"","iti_localizer","","html-keyboard-response","364","188977","0.0-2.0-153.0-1.0","16","17069","2s","null","","","","null","","151","","","","1","","","","","","0.3","197.8000000000008"
"","localizer","","html-keyboard-response","365","189394","0.0-2.0-154.0-0.0","16","17069","2s","NaN","","","","null","NaN","152","","Stimuli/Experimental_stims/localizer/objects/nicolas-hippert-SVgX47QIUlc-unsplash.jpg","","1","objects","","0","1","0","0.4","198.10000000000082"
"","iti_localizer","","html-keyboard-response","366","189702","0.0-2.0-154.0-1.0","16","17069","2s","null","","","","null","","152","","","","1","","","","","","0.3","198.50000000000082"
"","localizer","","html-keyboard-response","367","190112","0.0-2.0-155.0-0.0","16","17069","2s","NaN","","","","null","NaN","153","","Stimuli/Experimental_stims/localizer/objects/lance-reis-v0FYj9iioQg-unsplash.jpg","","1","objects","","0","1","0","0.4","198.80000000000084"
"","iti_localizer","","html-keyboard-response","368","190422","0.0-2.0-155.0-1.0","16","17069","2s","null","","","","null","","153","","","","1","","","","","","0.3","199.20000000000084"
"","localizer","","html-keyboard-response","369","190831","0.0-2.0-156.0-0.0","16","17069","2s","NaN","","","","null","NaN","154","","Stimuli/Experimental_stims/localizer/objects/jonny-caspari-wsvCC6UyKjs-unsplash.jpg","","1","objects","","0","1","0","0.4","199.50000000000085"
"","iti_localizer","","html-keyboard-response","370","191144","0.0-2.0-156.0-1.0","16","17069","2s","null","","","","null","","154","","","","1","","","","","","0.3","199.90000000000086"
"","localizer","","html-keyboard-response","371","191561","0.0-2.0-157.0-0.0","16","17069","2s","NaN","","","","null","NaN","155","","Stimuli/Experimental_stims/localizer/objects/dario-mendez-hnJ2VNZzbns-unsplash.jpg","","1","objects","","0","1","0","0.4","200.20000000000087"
"","iti_localizer","","html-keyboard-response","372","191870","0.0-2.0-157.0-1.0","16","17069","2s","null","","","","null","","155","","","","1","","","","","","0.3","200.60000000000088"
"","localizer","","html-keyboard-response","373","192278","0.0-2.0-158.0-0.0","16","17069","2s","NaN","","","","null","NaN","156","","Stimuli/Experimental_stims/localizer/objects/mockup-graphics-aUkYaG12Dgs-unsplash.jpg","","1","objects","","0","1","0","0.4","200.9000000000009"
"","iti_localizer","","html-keyboard-response","374","192595","0.0-2.0-158.0-1.0","16","17069","2s","null","","","","null","","156","","","","1","","","","","","0.3","201.3000000000009"
"","localizer","","html-keyboard-response","375","193010","0.0-2.0-159.0-0.0","16","17069","2s","NaN","","","","null","NaN","157","","Stimuli/Experimental_stims/localizer/objects/ryunosuke-kikuno-viEzuL1ouDs-unsplash.jpg","","1","objects","","0","1","0","0.4","201.6000000000009"
"","iti_localizer","","html-keyboard-response","376","193322","0.0-2.0-159.0-1.0","16","17069","2s","null","","","","null","","157","","","","1","","","","","","0.3","202.0000000000009"
"","localizer","","html-keyboard-response","377","193739","0.0-2.0-160.0-0.0","16","17069","2s","NaN","","","","null","NaN","158","","Stimuli/Experimental_stims/localizer/objects/yoann-siloine-_T4w3JDm6ug-unsplash.jpg","","1","objects","","0","1","0","0.4","202.30000000000092"
"","iti_localizer","","html-keyboard-response","378","194052","0.0-2.0-160.0-1.0","16","17069","2s","null","","","","null","","158","","","","1","","","","","","0.3","202.70000000000093"
"","localizer","","html-keyboard-response","379","194463","0.0-2.0-161.0-0.0","16","17069","2s","NaN","","","","null","NaN","159","","Stimuli/Experimental_stims/localizer/objects/engin-akyurt-bbbKzTmY2Gg-unsplash.jpg","","1","objects","","0","1","0","0.4","203.00000000000094"
"","iti_localizer","","html-keyboard-response","380","194775","0.0-2.0-161.0-1.0","16","17069","2s","null","","","","null","","159","","","","1","","","","","","0.3","203.40000000000094"
"","localizer","","html-keyboard-response","381","195195","0.0-2.0-162.0-0.0","16","17069","2s","NaN","","","","null","NaN","160","","Stimuli/Experimental_stims/localizer/objects/alex-lvrs-2zDw14yCYqk-unsplash.jpg","","1","objects","","0","1","0","0.4","203.70000000000095"
"","iti_localizer","","html-keyboard-response","382","195515","0.0-2.0-162.0-1.0","16","17069","2s","null","","","","null","","160","","","","1","","","","","","0.3","204.10000000000096"
"","localizer","","html-keyboard-response","383","195925","0.0-2.0-163.0-0.0","16","17069","2s","NaN","","","","null","NaN","161","","Stimuli/Experimental_stims/localizer/objects/dan-cristian-padure-ezoshbcxWrM-unsplash.jpg","","1","objects","","1","1","0","0.4","204.40000000000097"
"","iti_localizer","","html-keyboard-response","384","196241","0.0-2.0-163.0-1.0","16","17069","2s","null","","","","null","","161","","","","1","","","","","","0.3","204.80000000000098"
"","localizer","","html-keyboard-response","385","196653","0.0-2.0-164.0-0.0","16","17069","2s","NaN","","","","null","NaN","162","","Stimuli/Experimental_stims/localizer/objects/namroud-gorguis-FZWivbri0Xk-unsplash.jpg","","1","objects","","0","1","0","0.4","205.100000000001"
"","iti_localizer","","html-keyboard-response","386","196968","0.0-2.0-164.0-1.0","16","17069","2s","null","","","","null","","162","","","","1","","","","","","0.3","205.500000000001"
"","localizer","","html-keyboard-response","387","197384","0.0-2.0-165.0-0.0","16","17069","2s","NaN","","","","null","NaN","163","","Stimuli/Experimental_stims/localizer/objects/mockup-graphics-U6ZMEefFGx8-unsplash.jpg","","1","objects","","0","1","0","0.4","205.800000000001"
"","iti_localizer","","html-keyboard-response","388","197693","0.0-2.0-165.0-1.0","16","17069","2s","null","","","","null","","163","","","","1","","","","","","0.3","206.200000000001"
"","localizer","","html-keyboard-response","389","198102","0.0-2.0-166.0-0.0","16","17069","2s","NaN","","","","null","NaN","164","","Stimuli/Experimental_stims/localizer/objects/sam-moghadam-khamseh-kvmdsTrGOBM-unsplash.jpg","","1","objects","","0","1","0","0.4","206.50000000000102"
"","iti_localizer","","html-keyboard-response","390","198416","0.0-2.0-166.0-1.0","16","17069","2s","null","","","","null","","164","","","","1","","","","","","0.3","206.90000000000103"
"","localizer","","html-keyboard-response","391","198835","0.0-2.0-167.0-0.0","16","17069","2s","NaN","","","","null","NaN","165","","Stimuli/Experimental_stims/localizer/objects/ales-krivec-ZMZHcvIVgbg-unsplash.jpg","","1","objects","","0","1","0","0.4","207.20000000000104"
"","iti_localizer","","html-keyboard-response","392","199141","0.0-2.0-167.0-1.0","16","17069","2s","null","","","","null","","165","","","","1","","","","","","14","207.60000000000105"
"","localizer","","html-keyboard-response","393","199553","0.0-2.0-168.0-0.0","16","17069","2s","NaN","","","","null","NaN","166","","Stimuli/Experimental_stims/localizer/outdoor_scenes/benjamin-davies-Zm2n2O7Fph4-unsplash.jpg","","1","outdoor_scenes","","0","1","0","0.4","221.60000000000105"
"","iti_localizer","","html-keyboard-response","394","199865","0.0-2.0-168.0-1.0","16","17069","2s","null","","","","null","","166","","","","1","","","","","","0.3","222.00000000000105"
"","localizer","","html-keyboard-response","395","200283","0.0-2.0-169.0-0.0","16","17069","2s","NaN","","","","null","NaN","167","","Stimuli/Experimental_stims/localizer/outdoor_scenes/darrell-cassell-hoCXpPUMCoE-unsplash.jpg","","1","outdoor_scenes","","0","1","0","0.4","222.30000000000106"
"","iti_localizer","","html-keyboard-response","396","200594","0.0-2.0-169.0-1.0","16","17069","2s","null","","","","null","","167","","","","1","","","","","","0.3","222.70000000000107"
"","localizer","","html-keyboard-response","397","201009","0.0-2.0-170.0-0.0","16","17069","2s","NaN","","","","null","NaN","168","","Stimuli/Experimental_stims/localizer/outdoor_scenes/pietro-de-grandi-T7K4aEPoGGk-unsplash.jpg","","1","outdoor_scenes","","0","1","0","0.4","223.00000000000108"
"","iti_localizer","","html-keyboard-response","398","201321","0.0-2.0-170.0-1.0","16","17069","2s","null","","","","null","","168","","","","1","","","","","","0.3","223.40000000000109"
"","localizer","","html-keyboard-response","399","201739","0.0-2.0-171.0-0.0","16","17069","2s","NaN","","","","null","NaN","169","","Stimuli/Experimental_stims/localizer/outdoor_scenes/ales-krivec-hsX9KpLLsIE-unsplash.jpg","","1","outdoor_scenes","","0","1","0","0.4","223.7000000000011"
"","iti_localizer","","html-keyboard-response","400","202051","0.0-2.0-171.0-1.0","16","17069","2s","null","","","","null","","169","","","","1","","","","","","0.3","224.1000000000011"
"","localizer","","html-keyboard-response","401","202464","0.0-2.0-172.0-0.0","16","17069","2s","NaN","","","","null","NaN","170","","Stimuli/Experimental_stims/localizer/outdoor_scenes/pascal-debrunner-1WQ5RZuH9xo-unsplash.jpg","","1","outdoor_scenes","","0","1","0","0.4","224.4000000000011"
"","iti_localizer","","html-keyboard-response","402","202774","0.0-2.0-172.0-1.0","16","17069","2s","null","","","","null","","170","","","","1","","","","","","0.3","224.80000000000112"
"","localizer","","html-keyboard-response","403","203182","0.0-2.0-173.0-0.0","16","17069","2s","NaN","","","","null","NaN","171","","Stimuli/Experimental_stims/localizer/outdoor_scenes/simon-berger-twukN12EN7c-unsplash.jpg","","1","outdoor_scenes","","0","1","0","0.4","225.10000000000113"
"","iti_localizer","","html-keyboard-response","404","203494","0.0-2.0-173.0-1.0","16","17069","2s","null","","","","null","","171","","","","1","","","","","","0.3","225.50000000000114"
"","localizer","","html-keyboard-response","405","203903","0.0-2.0-174.0-0.0","16","17069","2s","NaN","","","","null","NaN","172","","Stimuli/Experimental_stims/localizer/outdoor_scenes/keith-hardy-UVyavSwslOg-unsplash.jpg","","1","outdoor_scenes","","1","1","0","0.4","225.80000000000115"
"","iti_localizer","","html-keyboard-response","406","204215","0.0-2.0-174.0-1.0","16","17069","2s","null","","","","null","","172","","","","1","","","","","","0.3","226.20000000000115"
"","localizer","","html-keyboard-response","407","204620","0.0-2.0-175.0-0.0","16","17069","2s","NaN","","","","null","NaN","173","","Stimuli/Experimental_stims/localizer/outdoor_scenes/damian-denis-D8R_txR_0PE-unsplash.jpg","","1","outdoor_scenes","","0","1","0","0.4","226.50000000000117"
"","iti_localizer","","html-keyboard-response","408","204932","0.0-2.0-175.0-1.0","16","17069","2s","null","","","","null","","173","","","","1","","","","","","0.3","226.90000000000117"
"","localizer","","html-keyboard-response","409","205338","0.0-2.0-176.0-0.0","16","17069","2s","NaN","","","","null","NaN","174","","Stimuli/Experimental_stims/localizer/outdoor_scenes/wil-stewart-pHANr-CpbYM-unsplash.jpg","","1","outdoor_scenes","","0","1","0","0.4","227.20000000000118"
"","iti_localizer","","html-keyboard-response","410","205651","0.0-2.0-176.0-1.0","16","17069","2s","null","","","","null","","174","","","","1","","","","","","0.3","227.6000000000012"
"","localizer","","html-keyboard-response","411","206064","0.0-2.0-177.0-0.0","16","17069","2s","NaN","","","","null","NaN","175","","Stimuli/Experimental_stims/localizer/outdoor_scenes/daniel-roe-lpjb_UMOyx8-unsplash.jpg","","1","outdoor_scenes","","0","1","0","0.4","227.9000000000012"
"","iti_localizer","","html-keyboard-response","412","206374","0.0-2.0-177.0-1.0","16","17069","2s","null","","","","null","","175","","","","1","","","","","","0.3","228.3000000000012"
"","localizer","","html-keyboard-response","413","206783","0.0-2.0-178.0-0.0","16","17069","2s","NaN","","","","null","NaN","176","","Stimuli/Experimental_stims/localizer/outdoor_scenes/sean-oulashin-KMn4VEeEPR8-unsplash.jpg","","1","outdoor_scenes","","0","1","0","0.4","228.60000000000122"
"","iti_localizer","","html-keyboard-response","414","207093","0.0-2.0-178.0-1.0","16","17069","2s","null","","","","null","","176","","","","1","","","","","","0.3","229.00000000000122"
"","localizer","","html-keyboard-response","415","207504","0.0-2.0-179.0-0.0","16","17069","2s","NaN","","","","null","NaN","177","","Stimuli/Experimental_stims/localizer/outdoor_scenes/niko-photos-tGTVxeOr_Rs-unsplash.jpg","","1","outdoor_scenes","","0","1","0","0.4","229.30000000000123"
"","iti_localizer","","html-keyboard-response","416","207813","0.0-2.0-179.0-1.0","16","17069","2s","null","","","","null","","177","","","","1","","","","","","0.3","229.70000000000124"
"","localizer","","html-keyboard-response","417","208224","0.0-2.0-180.0-0.0","16","17069","2s","NaN","","","","null","NaN","178","","Stimuli/Experimental_stims/localizer/outdoor_scenes/redd-f-Lm5rkxzgiFQ-unsplash.jpg","","1","outdoor_scenes","","0","1","0","0.4","230.00000000000125"
"","iti_localizer","","html-keyboard-response","418","208534","0.0-2.0-180.0-1.0","16","17069","2s","null","","","","null","","178","","","","1","","","","","","0.3","230.40000000000126"
"","localizer","","html-keyboard-response","419","208947","0.0-2.0-181.0-0.0","16","17069","2s","NaN","","","","null","NaN","179","","Stimuli/Experimental_stims/localizer/outdoor_scenes/samuel-ferrara-IEHPDNk2-8w-unsplash.jpg","","1","outdoor_scenes","","0","1","0","0.4","230.70000000000127"
"","iti_localizer","","html-keyboard-response","420","209256","0.0-2.0-181.0-1.0","16","17069","2s","null","","","","null","","179","","","","1","","","","","","0.3","231.10000000000127"
"","localizer","","html-keyboard-response","421","209675","0.0-2.0-182.0-0.0","16","17069","2s","NaN","","","","null","NaN","180","","Stimuli/Experimental_stims/localizer/outdoor_scenes/sebastian-unrau-v4e3JI7DDHI-unsplash.jpg","","1","outdoor_scenes","","0","1","0","0.4","231.40000000000128"
"","iti_localizer","","html-keyboard-response","422","209987","0.0-2.0-182.0-1.0","16","17069","2s","null","","","","null","","180","","","","1","","","","","","0.3","231.8000000000013"
"","localizer","","html-keyboard-response","423","210398","0.0-2.0-183.0-0.0","16","17069","2s","NaN","","","","null","NaN","181","","Stimuli/Experimental_stims/localizer/outdoor_scenes/kalen-emsley-Bkci_8qcdvQ-unsplash.jpg","","1","outdoor_scenes","","0","1","0","0.4","232.1000000000013"
"","iti_localizer","","html-keyboard-response","424","210715","0.0-2.0-183.0-1.0","16","17069","2s","null","","","","null","","181","","","","1","","","","","","0.3","232.5000000000013"
"","localizer","","html-keyboard-response","425","211129","0.0-2.0-184.0-0.0","16","17069","2s","NaN","","","","null","NaN","182","","Stimuli/Experimental_stims/localizer/outdoor_scenes/rod-sot-X_vbB7wfv5k-unsplash.jpg","","1","outdoor_scenes","","0","1","0","0.4","232.80000000000132"
"","iti_localizer","","html-keyboard-response","426","211439","0.0-2.0-184.0-1.0","16","17069","2s","null","","","","null","","182","","","","1","","","","","","0.3","233.20000000000132"
"","localizer","","html-keyboard-response","427","211854","0.0-2.0-185.0-0.0","16","17069","2s","NaN","","","","null","NaN","183","","Stimuli/Experimental_stims/localizer/outdoor_scenes/neom-THlO6Mkf5uI-unsplash.jpg","","1","outdoor_scenes","","0","1","0","0.4","233.50000000000134"
"","iti_localizer","","html-keyboard-response","428","212166","0.0-2.0-185.0-1.0","16","17069","2s","null","","","","null","","183","","","","1","","","","","","0.3","233.90000000000134"
"","localizer","","html-keyboard-response","429","212577","0.0-2.0-186.0-0.0","16","17069","2s","NaN","","","","null","NaN","184","","Stimuli/Experimental_stims/localizer/outdoor_scenes/jeremy-cai-ucYWe5mzTMU-unsplash.jpg","","1","outdoor_scenes","","1","1","0","0.4","234.20000000000135"
"","iti_localizer","","html-keyboard-response","430","212891","0.0-2.0-186.0-1.0","16","17069","2s","null","","","","null","","184","","","","1","","","","","","0.3","234.60000000000136"
"","localizer","","html-keyboard-response","431","213307","0.0-2.0-187.0-0.0","16","17069","2s","NaN","","","","null","NaN","185","","Stimuli/Experimental_stims/localizer/outdoor_scenes/nikola-majksner-hXNGeAFOgT4-unsplash.jpg","","1","outdoor_scenes","","0","1","0","0.4","234.90000000000137"
"","iti_localizer","","html-keyboard-response","432","213619","0.0-2.0-187.0-1.0","16","17069","2s","null","","","","null","","185","","","","1","","","","","","14","235.30000000000138"
