"success","ttype","start_time","trial_type","trial_index","time_elapsed","internal_node_id","age","PID","gender","rt","responses","view_history","repeat_instructions","key_press","response","index","stimulus_index","path","missed_checkup","start_time_elapsed","run","task","isi","is_odd_ball","no_response","acc","duration","onset","duration_time_elapsed","onset_time_elapsed","trial_duration","left_chosen","chosen_stimulus","unchosen_stimulus","chosen_category","unchosen_category","chosen_rating","unchosen_rating","chosen_path","unchosen_path","pair_id","practice","scramble_screen_time","scramble_instructed_side","stim_type","iti","block","left_stimulus","right_stimulus","left_category","right_category","left_path","right_path","left_rating","right_rating","warning","scramble_acc","scramble_no_response","stimulus_id","item_id","outcome","response_rt","deliberation_reward_tally","choice_type","gain_left","left_item_id","right_item_id","higher_outcome_chosen","chosen_left","old_pair","pair_type","old_response","pair_acc","reward_type","outcome_response","outcome_rt","outcome_acc","category","choice","deliberated_stim","old_rating","new_rating","total_reward_tally"
"true","full_screen","d08162023hr1938","fullscreen","0","26709","0.0-0.0-0.0","32","47210","male","","","","","","","","","","","","","","","","","","","","","","","","","","","","","","","","","","","","","","","","","","","","","","","","","","","","","","","","","","","","","","","","","","","","","","","","","",""
"","get_id","","survey-text","1","33348","0.0-0.0-1.0","32","47210","male","6600","{""Q0"":""32"",""Q1"":""male""}","","","","","","","","","","","","","","","","","","","","","","","","","","","","","","","","","","","","","","","","","","","","","","","","","","","","","","","","","","","","","","","","","","","","","","","",""
"","ratings_instructions","","instructions","2","54327","0.0-1.0-0.0-0.0","32","47210","male","19542","","[{""page_index"":0,""viewing_time"":15512},{""page_index"":1,""viewing_time"":4029}]","","","","","","","","","","","","","","","","","","","","","","","","","","","","","","","","","","","","","","","","","","","","","","","","","","","","","","","","","","","","","","","","","","","","","","",""
"","rating_comprehension_check","","survey-multi-choice","3","67958","0.0-1.0-0.0-1.0","32","47210","male","13601","{""Q0"":""True"",""Q1"":""Mouse""}","","0","","","","","","","","","","","","","","","","","","","","","","","","","","","","","","","","","","","","","","","","","","","","","","","","","","","","","","","","","","","","","","","","","","","","","",""
"","","","html-keyboard-response","4","73417","0.0-1.0-1.0","32","47210","male","5434","","","","68","","","","","","","","","","","","","","","","","","","","","","","","","","","","","","","","","","","","","","","","","","","","","","","","","","","","","","","","","","","","","","","","","","","","",""
"","rating","","html-slider-response","5","78888","0.0-1.0-2.0","32","47210","male","5444","","","","","86","0","11","Stimuli/Experimental_stims/outdoor_scenes/stephen-leonardi-gyIRjKPXupE-unsplash.jpg","","","","","","","","","","","","","","","","","","","","","","","","","","","","","","","","","","","","","","","","","","","","","","","","","","","","","","","","","","","","","","","","",""
"","rating","","html-slider-response","6","84068","0.0-1.0-3.0","32","47210","male","5164","","","","","81","1","37","Stimuli/Experimental_stims/objects/alexander-andrews-VLGWE_SumrA-unsplash.jpg","","","","","","","","","","","","","","","","","","","","","","","","","","","","","","","","","","","","","","","","","","","","","","","","","","","","","","","","","","","","","","","","",""
"","rating","","html-slider-response","7","87889","0.0-1.0-4.0","32","47210","male","3805","","","","","58","2","43","Stimuli/Experimental_stims/objects/jonathan-greenaway-Y4hGgeiFn3s-unsplash.jpg","","","","","","","","","","","","","","","","","","","","","","","","","","","","","","","","","","","","","","","","","","","","","","","","","","","","","","","","","","","","","","","","",""
"","rating","","html-slider-response","8","90850","0.0-1.0-5.0","32","47210","male","2947","","","","","92","3","45","Stimuli/Experimental_stims/objects/leohoho-rngTKHXumy0-unsplash.jpg","","","","","","","","","","","","","","","","","","","","","","","","","","","","","","","","","","","","","","","","","","","","","","","","","","","","","","","","","","","","","","","","",""
"","rating","","html-slider-response","9","93669","0.0-1.0-6.0","32","47210","male","2799","","","","","70","4","1","Stimuli/Experimental_stims/outdoor_scenes/ashim-d-silva-S2Q5mdOrrVc-unsplash.jpg","","","","","","","","","","","","","","","","","","","","","","","","","","","","","","","","","","","","","","","","","","","","","","","","","","","","","","","","","","","","","","","","",""
"","rating","","html-slider-response","10","111129","0.0-1.0-7.0","32","47210","male","17446","","","","","77","5","4","Stimuli/Experimental_stims/outdoor_scenes/jarrett-kow-1ZOyYPOBn7I-unsplash.jpg","","","","","","","","","","","","","","","","","","","","","","","","","","","","","","","","","","","","","","","","","","","","","","","","","","","","","","","","","","","","","","","","",""
"","rating","","html-slider-response","11","115481","0.0-1.0-8.0","32","47210","male","4335","","","","","62","6","35","Stimuli/Experimental_stims/body_parts/wc-so-KH4AAPjb-tI-unsplash.jpg","","","","","","","","","","","","","","","","","","","","","","","","","","","","","","","","","","","","","","","","","","","","","","","","","","","","","","","","","","","","","","","","",""
"","rating","","html-slider-response","12","120070","0.0-1.0-9.0","32","47210","male","4571","","","","","77","7","24","Stimuli/Experimental_stims/body_parts/clay-banks-LjqARJaJotc-unsplash.jpg","","","","","","","","","","","","","","","","","","","","","","","","","","","","","","","","","","","","","","","","","","","","","","","","","","","","","","","","","","","","","","","","",""
"","rating","","html-slider-response","13","143940","0.0-1.0-10.0","32","47210","male","23846","","","","","89","8","6","Stimuli/Experimental_stims/outdoor_scenes/meng-ji-8BH_M-53CyA-unsplash.jpg","","","","","","","","","","","","","","","","","","","","","","","","","","","","","","","","","","","","","","","","","","","","","","","","","","","","","","","","","","","","","","","","",""
"","rating","","html-slider-response","14","147284","0.0-1.0-11.0","32","47210","male","3327","","","","","95","9","3","Stimuli/Experimental_stims/outdoor_scenes/henry-be-NLF6hTe4PAg-unsplash.jpg","","","","","","","","","","","","","","","","","","","","","","","","","","","","","","","","","","","","","","","","","","","","","","","","","","","","","","","","","","","","","","","","",""
"","rating","","html-slider-response","15","150861","0.0-1.0-12.0","32","47210","male","3558","","","","","95","10","5","Stimuli/Experimental_stims/outdoor_scenes/jeff-king-bJHWJeiHfHc-unsplash.jpg","","","","","","","","","","","","","","","","","","","","","","","","","","","","","","","","","","","","","","","","","","","","","","","","","","","","","","","","","","","","","","","","",""
"","rating","","html-slider-response","16","154513","0.0-1.0-13.0","32","47210","male","3636","","","","","42","11","25","Stimuli/Experimental_stims/body_parts/engin-akyurt-Q2rfH3GW39c-unsplash.jpg","","","","","","","","","","","","","","","","","","","","","","","","","","","","","","","","","","","","","","","","","","","","","","","","","","","","","","","","","","","","","","","","",""
"","rating","","html-slider-response","17","157366","0.0-1.0-14.0","32","47210","male","2839","","","","","43","12","21","Stimuli/Experimental_stims/faces/leilani-angel-K84vnnzxmTQ-unsplash.jpg","","","","","","","","","","","","","","","","","","","","","","","","","","","","","","","","","","","","","","","","","","","","","","","","","","","","","","","","","","","","","","","","",""
"","rating","","html-slider-response","18","160450","0.0-1.0-15.0","32","47210","male","3064","","","","","88","13","40","Stimuli/Experimental_stims/objects/fabian-blank-pElSkGRA2NU-unsplash.jpg","","","","","","","","","","","","","","","","","","","","","","","","","","","","","","","","","","","","","","","","","","","","","","","","","","","","","","","","","","","","","","","","",""
"","rating","","html-slider-response","19","163926","0.0-1.0-16.0","32","47210","male","3461","","","","","91","14","46","Stimuli/Experimental_stims/objects/mockup-graphics-PNsj6RiHAF4-unsplash.jpg","","","","","","","","","","","","","","","","","","","","","","","","","","","","","","","","","","","","","","","","","","","","","","","","","","","","","","","","","","","","","","","","",""
"","rating","","html-slider-response","20","167019","0.0-1.0-17.0","32","47210","male","3077","","","","","44","15","34","Stimuli/Experimental_stims/body_parts/wagner-santos-mBWMvIuVnso-unsplash.jpg","","","","","","","","","","","","","","","","","","","","","","","","","","","","","","","","","","","","","","","","","","","","","","","","","","","","","","","","","","","","","","","","",""
"","rating","","html-slider-response","21","170203","0.0-1.0-18.0","32","47210","male","3168","","","","","39","16","32","Stimuli/Experimental_stims/body_parts/towfiqu-barbhuiya-3AsiVDsZnHg-unsplash.jpg","","","","","","","","","","","","","","","","","","","","","","","","","","","","","","","","","","","","","","","","","","","","","","","","","","","","","","","","","","","","","","","","",""
"","rating","","html-slider-response","22","173683","0.0-1.0-19.0","32","47210","male","3459","","","","","33","17","18","Stimuli/Experimental_stims/faces/jessica-radanavong-mrYkTuAesKE-unsplash.jpg","","","","","","","","","","","","","","","","","","","","","","","","","","","","","","","","","","","","","","","","","","","","","","","","","","","","","","","","","","","","","","","","",""
"","rating","","html-slider-response","23","176169","0.0-1.0-20.0","32","47210","male","2473","","","","","61","18","22","Stimuli/Experimental_stims/faces/ravi-patel-VMGAbeeJTKo-unsplash.jpg","","","","","","","","","","","","","","","","","","","","","","","","","","","","","","","","","","","","","","","","","","","","","","","","","","","","","","","","","","","","","","","","",""
"","rating","","html-slider-response","24","179574","0.0-1.0-21.0","32","47210","male","3396","","","","","98","19","33","Stimuli/Experimental_stims/body_parts/tucker-good-36skLT5jZcc-unsplash.jpg","","","","","","","","","","","","","","","","","","","","","","","","","","","","","","","","","","","","","","","","","","","","","","","","","","","","","","","","","","","","","","","","",""
"","rating","","html-slider-response","25","182922","0.0-1.0-22.0","32","47210","male","3334","","","","","62","20","47","Stimuli/Experimental_stims/objects/ronaldo-arthur-vidal-Cdz_lvnl37k-unsplash.jpg","","","","","","","","","","","","","","","","","","","","","","","","","","","","","","","","","","","","","","","","","","","","","","","","","","","","","","","","","","","","","","","","",""
"","rating","","html-slider-response","26","187674","0.0-1.0-23.0","32","47210","male","4733","","","","","57","21","20","Stimuli/Experimental_stims/faces/justin-chen-J7Cf1Gch49E-unsplash.jpg","","","","","","","","","","","","","","","","","","","","","","","","","","","","","","","","","","","","","","","","","","","","","","","","","","","","","","","","","","","","","","","","",""
"","rating","","html-slider-response","27","190775","0.0-1.0-24.0","32","47210","male","3086","","","","","76","22","19","Stimuli/Experimental_stims/faces/joel-mott-LaK153ghdig-unsplash.jpg","","","","","","","","","","","","","","","","","","","","","","","","","","","","","","","","","","","","","","","","","","","","","","","","","","","","","","","","","","","","","","","","",""
"","rating","","html-slider-response","28","194187","0.0-1.0-25.0","32","47210","male","3397","","","","","57","23","42","Stimuli/Experimental_stims/objects/jess-bailey-nOeVi8DsN8U-unsplash.jpg","","","","","","","","","","","","","","","","","","","","","","","","","","","","","","","","","","","","","","","","","","","","","","","","","","","","","","","","","","","","","","","","",""
"","rating","","html-slider-response","29","197524","0.0-1.0-26.0","32","47210","male","3327","","","","","86","24","26","Stimuli/Experimental_stims/body_parts/engin-akyurt-x_3gyC42btc-unsplash.jpg","","","","","","","","","","","","","","","","","","","","","","","","","","","","","","","","","","","","","","","","","","","","","","","","","","","","","","","","","","","","","","","","",""
"","rating","","html-slider-response","30","200355","0.0-1.0-27.0","32","47210","male","2814","","","","","77","25","36","Stimuli/Experimental_stims/objects/alexander-andrews-JYGnB9gTCls-unsplash.jpg","","","","","","","","","","","","","","","","","","","","","","","","","","","","","","","","","","","","","","","","","","","","","","","","","","","","","","","","","","","","","","","","",""
"","rating","","html-slider-response","31","203484","0.0-1.0-28.0","32","47210","male","3118","","","","","91","26","41","Stimuli/Experimental_stims/objects/insung-yoon-w2JtIQQXoRU-unsplash.jpg","","","","","","","","","","","","","","","","","","","","","","","","","","","","","","","","","","","","","","","","","","","","","","","","","","","","","","","","","","","","","","","","",""
"","rating","","html-slider-response","32","207097","0.0-1.0-29.0","32","47210","male","3603","","","","","85","27","0","Stimuli/Experimental_stims/outdoor_scenes/aleksandra-boguslawska-MS7KD9Ti7FQ-unsplash.jpg","","","","","","","","","","","","","","","","","","","","","","","","","","","","","","","","","","","","","","","","","","","","","","","","","","","","","","","","","","","","","","","","",""
"","rating","","html-slider-response","33","211924","0.0-1.0-30.0","32","47210","male","4818","","","","","100","28","29","Stimuli/Experimental_stims/body_parts/manuel-schinner-ZwjFuJ7ebpk-unsplash.jpg","","","","","","","","","","","","","","","","","","","","","","","","","","","","","","","","","","","","","","","","","","","","","","","","","","","","","","","","","","","","","","","","",""
"","rating","","html-slider-response","34","215600","0.0-1.0-31.0","32","47210","male","3663","","","","","88","29","39","Stimuli/Experimental_stims/objects/charlesdeluvio-1-nx1QR5dTE-unsplash.jpg","","","","","","","","","","","","","","","","","","","","","","","","","","","","","","","","","","","","","","","","","","","","","","","","","","","","","","","","","","","","","","","","",""
"","rating","","html-slider-response","35","219423","0.0-1.0-32.0","32","47210","male","3805","","","","","100","30","27","Stimuli/Experimental_stims/body_parts/heike-mintel-i_Gns0ELnLw-unsplash.jpg","","","","","","","","","","","","","","","","","","","","","","","","","","","","","","","","","","","","","","","","","","","","","","","","","","","","","","","","","","","","","","","","",""
"","rating","","html-slider-response","36","223224","0.0-1.0-33.0","32","47210","male","3788","","","","","32","31","16","Stimuli/Experimental_stims/faces/freddy-kearney-o-ioeoATbIM-unsplash.jpg","","","","","","","","","","","","","","","","","","","","","","","","","","","","","","","","","","","","","","","","","","","","","","","","","","","","","","","","","","","","","","","","",""
"","rating","","html-slider-response","37","226320","0.0-1.0-34.0","32","47210","male","3081","","","","","43","32","8","Stimuli/Experimental_stims/outdoor_scenes/samsommer-vddccTqwal8-unsplash.jpg","","","","","","","","","","","","","","","","","","","","","","","","","","","","","","","","","","","","","","","","","","","","","","","","","","","","","","","","","","","","","","","","",""
"","rating","","html-slider-response","38","229203","0.0-1.0-35.0","32","47210","male","2867","","","","","63","33","38","Stimuli/Experimental_stims/objects/art-lasovsky-8XddFc6NkBY-unsplash.jpg","","","","","","","","","","","","","","","","","","","","","","","","","","","","","","","","","","","","","","","","","","","","","","","","","","","","","","","","","","","","","","","","",""
"","rating","","html-slider-response","39","232008","0.0-1.0-36.0","32","47210","male","2788","","","","","65","34","30","Stimuli/Experimental_stims/body_parts/mika-korhonen-Xodzxosar18-unsplash.jpg","","","","","","","","","","","","","","","","","","","","","","","","","","","","","","","","","","","","","","","","","","","","","","","","","","","","","","","","","","","","","","","","",""
"","rating","","html-slider-response","40","234724","0.0-1.0-37.0","32","47210","male","2700","","","","","39","35","23","Stimuli/Experimental_stims/faces/rikonavt-HQjfrvdTfak-unsplash.jpg","","","","","","","","","","","","","","","","","","","","","","","","","","","","","","","","","","","","","","","","","","","","","","","","","","","","","","","","","","","","","","","","",""
"","rating","","html-slider-response","41","238226","0.0-1.0-38.0","32","47210","male","3492","","","","","78","36","10","Stimuli/Experimental_stims/outdoor_scenes/shannon-kunkle-dM8INmkyDas-unsplash.jpg","","","","","","","","","","","","","","","","","","","","","","","","","","","","","","","","","","","","","","","","","","","","","","","","","","","","","","","","","","","","","","","","",""
"","rating","","html-slider-response","42","240860","0.0-1.0-39.0","32","47210","male","2622","","","","","72","37","12","Stimuli/Experimental_stims/faces/aiony-haust-jmATI5Q_YgY-unsplash.jpg","","","","","","","","","","","","","","","","","","","","","","","","","","","","","","","","","","","","","","","","","","","","","","","","","","","","","","","","","","","","","","","","",""
"","rating","","html-slider-response","43","243957","0.0-1.0-40.0","32","47210","male","3086","","","","","75","38","31","Stimuli/Experimental_stims/body_parts/sincerely-media-VN6DbKajo5s-unsplash.jpg","","","","","","","","","","","","","","","","","","","","","","","","","","","","","","","","","","","","","","","","","","","","","","","","","","","","","","","","","","","","","","","","",""
"","rating","","html-slider-response","44","246574","0.0-1.0-41.0","32","47210","male","2604","","","","","69","39","7","Stimuli/Experimental_stims/outdoor_scenes/petr-vysohlid-9fqwGqGLUxc-unsplash.jpg","","","","","","","","","","","","","","","","","","","","","","","","","","","","","","","","","","","","","","","","","","","","","","","","","","","","","","","","","","","","","","","","",""
"","rating","","html-slider-response","45","249217","0.0-1.0-42.0","32","47210","male","2626","","","","","39","40","15","Stimuli/Experimental_stims/faces/erik-lucatero-d2MSDujJl2g-unsplash.jpg","","","","","","","","","","","","","","","","","","","","","","","","","","","","","","","","","","","","","","","","","","","","","","","","","","","","","","","","","","","","","","","","",""
"","rating","","html-slider-response","46","252174","0.0-1.0-43.0","32","47210","male","2944","","","","","86","41","28","Stimuli/Experimental_stims/body_parts/ira-vishnevskaya-8DQAvdCby1I-unsplash.jpg","","","","","","","","","","","","","","","","","","","","","","","","","","","","","","","","","","","","","","","","","","","","","","","","","","","","","","","","","","","","","","","","",""
"","rating","","html-slider-response","47","255554","0.0-1.0-44.0","32","47210","male","3370","","","","","83","42","9","Stimuli/Experimental_stims/outdoor_scenes/sergey-pesterev-y-b_FOmJXdg-unsplash.jpg","","","","","","","","","","","","","","","","","","","","","","","","","","","","","","","","","","","","","","","","","","","","","","","","","","","","","","","","","","","","","","","","",""
"","rating","","html-slider-response","48","257756","0.0-1.0-45.0","32","47210","male","2193","","","","","90","43","2","Stimuli/Experimental_stims/outdoor_scenes/bruno-van-der-kraan-qez8mNJ3ilU-unsplash.jpg","","","","","","","","","","","","","","","","","","","","","","","","","","","","","","","","","","","","","","","","","","","","","","","","","","","","","","","","","","","","","","","","",""
"","rating","","html-slider-response","49","260439","0.0-1.0-46.0","32","47210","male","2673","","","","","68","44","17","Stimuli/Experimental_stims/faces/good-faces-xmSWVeGEnJw-unsplash.jpg","","","","","","","","","","","","","","","","","","","","","","","","","","","","","","","","","","","","","","","","","","","","","","","","","","","","","","","","","","","","","","","","",""
"","rating","","html-slider-response","50","263678","0.0-1.0-47.0","32","47210","male","3228","","","","","83","45","44","Stimuli/Experimental_stims/objects/kuiye-chen-NuOGFo4PudE-unsplash.jpg","","","","","","","","","","","","","","","","","","","","","","","","","","","","","","","","","","","","","","","","","","","","","","","","","","","","","","","","","","","","","","","","",""
"","rating","","html-slider-response","51","266428","0.0-1.0-48.0","32","47210","male","2738","","","","","81","46","13","Stimuli/Experimental_stims/faces/daniel-rigdon-dXmXKPP2L4E-unsplash.jpg","","","","","","","","","","","","","","","","","","","","","","","","","","","","","","","","","","","","","","","","","","","","","","","","","","","","","","","","","","","","","","","","",""
"","rating","","html-slider-response","52","270321","0.0-1.0-49.0","32","47210","male","3879","","","","","53","47","14","Stimuli/Experimental_stims/faces/david-siglin-UuW4psOb388-unsplash.jpg","","","","","","","","","","","","","","","","","","","","","","","","","","","","","","","","","","","","","","","","","","","","","","","","","","","","","","","","","","","","","","","","",""
"","localizer_instructions","","instructions","53","377407","0.0-2.0-0.0-0.0","32","47210","male","106979","","[{""page_index"":0,""viewing_time"":77173},{""page_index"":1,""viewing_time"":27652},{""page_index"":2,""viewing_time"":2154}]","","","","","","","","","","","","","","","","","","","","","","","","","","","","","","","","","","","","","","","","","","","","","","","","","","","","","","","","","","","","","","","","","","","","","","",""
"","localizer_comprehension_check","","survey-multi-choice","54","403764","0.0-2.0-0.0-1.0","32","47210","male","26337","{""Q0"":""True"",""Q1"":""D"",""Q2"":""K""}","","1","","","","","","","","","","","","","","","","","","","","","","","","","","","","","","","","","","","","","","","","","","","","","","","","","","","","","","","","","","","","","","","","","","","","","",""
"","missed_instruction_checkup","","html-keyboard-response","55","408081","0.0-2.0-0.0-2.0-0.0","32","47210","male","4304","","","","68","","","","","1","","","","","","","","","","","","","","","","","","","","","","","","","","","","","","","","","","","","","","","","","","","","","","","","","","","","","","","","","","","","","","","",""
"","localizer_instructions","","instructions","56","501743","0.0-2.0-0.1-0.1","32","47210","male","93649","","[{""page_index"":0,""viewing_time"":28054},{""page_index"":1,""viewing_time"":63618},{""page_index"":2,""viewing_time"":1975}]","","","","","","","","","","","","","","","","","","","","","","","","","","","","","","","","","","","","","","","","","","","","","","","","","","","","","","","","","","","","","","","","","","","","","","",""
"","localizer_comprehension_check","","survey-multi-choice","57","526101","0.0-2.0-0.1-1.1","32","47210","male","24336","{""Q0"":""True"",""Q1"":""K"",""Q2"":""D""}","","0","","","","","","","","","","","","","","","","","","","","","","","","","","","","","","","","","","","","","","","","","","","","","","","","","","","","","","","","","","","","","","","","","","","","","",""
"","","","html-keyboard-response","58","529827","0.0-2.0-1.0","32","47210","male","3715","","","","68","","","","","","","","","","","","","","","","","","","","","","","","","","","","","","","","","","","","","","","","","","","","","","","","","","","","","","","","","","","","","","","","","","","","",""
"","localizer","","html-keyboard-response","59","530247","0.0-2.0-2.0-0.0","32","47210","male","NaN","","","","null","NaN","0","","Stimuli/Practice_stims/Localizer/annie-spratt-g9KFpAfQ5bc-unsplash.jpg","","529827","0","NaN","","0","1","0","400","0","420","0","","","","","","","","","","","","","","","","","","","","","","","","","","","","","","","","","","","","","","","","","","","","","","","","","","","","",""
"","iti_localizer","","html-keyboard-response","60","530563","0.0-2.0-2.0-1.0","32","47210","male","null","","","","null","","0","","","","530247","0","","","","","","300","400","316","420","300","","","","","","","","","","","","","","","","","","","","","","","","","","","","","","","","","","","","","","","","","","","","","","","","","","","",""
"","localizer","","html-keyboard-response","61","530982","0.0-2.0-2.1-0.1","32","47210","male","NaN","","","","null","NaN","0","","Stimuli/Practice_stims/Localizer/annie-spratt-g9KFpAfQ5bc-unsplash.jpg","","530563","0","NaN","","0","1","0","400","700","419","736","","","","","","","","","","","","","","","","","","","","","","","","","","","","","","","","","","","","","","","","","","","","","","","","","","","","",""
"","iti_localizer","","html-keyboard-response","62","531298","0.0-2.0-2.1-1.1","32","47210","male","null","","","","null","","0","","","","530982","0","","","","","","300","1100","316","1155","300","","","","","","","","","","","","","","","","","","","","","","","","","","","","","","","","","","","","","","","","","","","","","","","","","","","",""
"","localizer","","html-keyboard-response","63","531714","0.0-2.0-2.2-0.2","32","47210","male","NaN","","","","null","NaN","0","","Stimuli/Practice_stims/Localizer/annie-spratt-g9KFpAfQ5bc-unsplash.jpg","","531298","0","NaN","","0","1","0","400","1400","416","1471","","","","","","","","","","","","","","","","","","","","","","","","","","","","","","","","","","","","","","","","","","","","","","","","","","","","",""
"","iti_localizer","","html-keyboard-response","64","532029","0.0-2.0-2.2-1.2","32","47210","male","null","","","","null","","0","","","","531714","0","","","","","","300","1800","315","1887","300","","","","","","","","","","","","","","","","","","","","","","","","","","","","","","","","","","","","","","","","","","","","","","","","","","","",""
"","localizer","","html-keyboard-response","65","532443","0.0-2.0-2.3-0.3","32","47210","male","NaN","","","","null","NaN","0","","Stimuli/Practice_stims/Localizer/annie-spratt-g9KFpAfQ5bc-unsplash.jpg","","532029","0","NaN","","0","1","0","400","2100","414","2202","","","","","","","","","","","","","","","","","","","","","","","","","","","","","","","","","","","","","","","","","","","","","","","","","","","","",""
"","iti_localizer","","html-keyboard-response","66","532754","0.0-2.0-2.3-1.3","32","47210","male","null","","","","null","","0","","","","532443","0","","","","","","300","2500","311","2616","300","","","","","","","","","","","","","","","","","","","","","","","","","","","","","","","","","","","","","","","","","","","","","","","","","","","",""
"","localizer","","html-keyboard-response","67","533168","0.0-2.0-2.4-0.4","32","47210","male","NaN","","","","null","NaN","0","","Stimuli/Practice_stims/Localizer/annie-spratt-g9KFpAfQ5bc-unsplash.jpg","","532754","0","NaN","","0","1","0","400","2800","414","2927","","","","","","","","","","","","","","","","","","","","","","","","","","","","","","","","","","","","","","","","","","","","","","","","","","","","",""
"","iti_localizer","","html-keyboard-response","68","533483","0.0-2.0-2.4-1.4","32","47210","male","null","","","","null","","0","","","","533168","0","","","","","","300","3200","315","3341","300","","","","","","","","","","","","","","","","","","","","","","","","","","","","","","","","","","","","","","","","","","","","","","","","","","","",""
"","localizer","","html-keyboard-response","69","533906","0.0-2.0-2.5-0.5","32","47210","male","NaN","","","","null","NaN","0","","Stimuli/Practice_stims/Localizer/annie-spratt-g9KFpAfQ5bc-unsplash.jpg","","533483","0","NaN","","0","1","0","400","3500","423","3656","","","","","","","","","","","","","","","","","","","","","","","","","","","","","","","","","","","","","","","","","","","","","","","","","","","","",""
"","iti_localizer","","html-keyboard-response","70","534223","0.0-2.0-2.5-1.5","32","47210","male","null","","","","null","","0","","","","533906","0","","","","","","300","3900","317","4079","300","","","","","","","","","","","","","","","","","","","","","","","","","","","","","","","","","","","","","","","","","","","","","","","","","","","",""
"","localizer","","html-keyboard-response","71","534649","0.0-2.0-2.6-0.6","32","47210","male","NaN","","","","null","NaN","0","","Stimuli/Practice_stims/Localizer/annie-spratt-g9KFpAfQ5bc-unsplash.jpg","","534223","0","NaN","","0","1","0","400","4200","426","4396","","","","","","","","","","","","","","","","","","","","","","","","","","","","","","","","","","","","","","","","","","","","","","","","","","","","",""
"","iti_localizer","","html-keyboard-response","72","534966","0.0-2.0-2.6-1.6","32","47210","male","null","","","","null","","0","","","","534649","0","","","","","","300","4600","317","4822","300","","","","","","","","","","","","","","","","","","","","","","","","","","","","","","","","","","","","","","","","","","","","","","","","","","","",""
"","localizer","","html-keyboard-response","73","535385","0.0-2.0-2.7-0.7","32","47210","male","128","","","","68","0","0","","Stimuli/Practice_stims/Localizer/annie-spratt-g9KFpAfQ5bc-unsplash.jpg","","534966","0","NaN","","0","0","1","400","4900","419","5139","","","","","","","","","","","","","","","","","","","","","","","","","","","","","","","","","","","","","","","","","","","","","","","","","","","","",""
"","iti_localizer","","html-keyboard-response","74","535700","0.0-2.0-2.7-1.7","32","47210","male","null","","","","null","","0","","","","535385","0","","","","","","300","5300","315","5558","300","","","","","","","","","","","","","","","","","","","","","","","","","","","","","","","","","","","","","","","","","","","","","","","","","","","",""
"","localizer","","html-keyboard-response","75","536110","0.0-2.0-3.0-0.0","32","47210","male","NaN","","","","null","NaN","1","","Stimuli/Practice_stims/Localizer/becca-tapert-sY5RjMB1KkE-unsplash.jpg","","535700","0","NaN","","0","1","0","400","5600","410","5873","","","","","","","","","","","","","","","","","","","","","","","","","","","","","","","","","","","","","","","","","","","","","","","","","","","","",""
"","iti_localizer","","html-keyboard-response","76","536435","0.0-2.0-3.0-1.0","32","47210","male","null","","","","null","","1","","","","536110","0","","","","","","300","6000","325","6283","300","","","","","","","","","","","","","","","","","","","","","","","","","","","","","","","","","","","","","","","","","","","","","","","","","","","",""
"","localizer","","html-keyboard-response","77","536846","0.0-2.0-3.1-0.1","32","47210","male","NaN","","","","null","NaN","1","","Stimuli/Practice_stims/Localizer/becca-tapert-sY5RjMB1KkE-unsplash.jpg","","536435","0","NaN","","0","1","0","400","6300","411","6608","","","","","","","","","","","","","","","","","","","","","","","","","","","","","","","","","","","","","","","","","","","","","","","","","","","","",""
"","iti_localizer","","html-keyboard-response","78","537158","0.0-2.0-3.1-1.1","32","47210","male","null","","","","null","","1","","","","536846","0","","","","","","300","6700","312","7019","300","","","","","","","","","","","","","","","","","","","","","","","","","","","","","","","","","","","","","","","","","","","","","","","","","","","",""
"","localizer","","html-keyboard-response","79","537573","0.0-2.0-3.2-0.2","32","47210","male","268","","","","68","0","1","","Stimuli/Practice_stims/Localizer/becca-tapert-sY5RjMB1KkE-unsplash.jpg","","537158","0","NaN","","0","0","1","400","7000","415","7331","","","","","","","","","","","","","","","","","","","","","","","","","","","","","","","","","","","","","","","","","","","","","","","","","","","","",""
"","iti_localizer","","html-keyboard-response","80","537886","0.0-2.0-3.2-1.2","32","47210","male","null","","","","null","","1","","","","537573","0","","","","","","300","7400","313","7746","300","","","","","","","","","","","","","","","","","","","","","","","","","","","","","","","","","","","","","","","","","","","","","","","","","","","",""
"","localizer","","html-keyboard-response","81","538302","0.0-2.0-4.0-0.0","32","47210","male","NaN","","","","null","NaN","2","","Stimuli/Practice_stims/Localizer/charl-durand-bsfXvI25iNg-unsplash.jpg","","537886","0","NaN","","1","1","0","400","7700","416","8059","","","","","","","","","","","","","","","","","","","","","","","","","","","","","","","","","","","","","","","","","","","","","","","","","","","","",""
"","iti_localizer","","html-keyboard-response","82","538615","0.0-2.0-4.0-1.0","32","47210","male","null","","","","null","","2","","","","538302","0","","","","","","300","8100","313","8475","300","","","","","","","","","","","","","","","","","","","","","","","","","","","","","","","","","","","","","","","","","","","","","","","","","","","",""
"","localizer","","html-keyboard-response","83","539036","0.0-2.0-4.1-0.1","32","47210","male","183","","","","75","1","2","","Stimuli/Practice_stims/Localizer/charl-durand-bsfXvI25iNg-unsplash.jpg","","538615","0","NaN","","1","0","1","400","8400","421","8788","","","","","","","","","","","","","","","","","","","","","","","","","","","","","","","","","","","","","","","","","","","","","","","","","","","","",""
"","iti_localizer","","html-keyboard-response","84","539356","0.0-2.0-4.1-1.1","32","47210","male","null","","","","null","","2","","","","539036","0","","","","","","300","8800","320","9209","300","","","","","","","","","","","","","","","","","","","","","","","","","","","","","","","","","","","","","","","","","","","","","","","","","","","",""
"","localizer","","html-keyboard-response","85","539786","0.0-2.0-5.0-0.0","32","47210","male","NaN","","","","null","NaN","3","","Stimuli/Practice_stims/Localizer/nizar-albusaidy-B2r2SWAf5CE-unsplash.jpg","","539356","0","NaN","","0","1","0","400","9100","430","9529","","","","","","","","","","","","","","","","","","","","","","","","","","","","","","","","","","","","","","","","","","","","","","","","","","","","",""
"","iti_localizer","","html-keyboard-response","86","540098","0.0-2.0-5.0-1.0","32","47210","male","null","","","","null","","3","","","","539786","0","","","","","","300","9500","312","9959","300","","","","","","","","","","","","","","","","","","","","","","","","","","","","","","","","","","","","","","","","","","","","","","","","","","","",""
"","localizer","","html-keyboard-response","87","540511","0.0-2.0-5.1-0.1","32","47210","male","322","","","","68","0","3","","Stimuli/Practice_stims/Localizer/nizar-albusaidy-B2r2SWAf5CE-unsplash.jpg","","540098","0","NaN","","0","0","1","400","9800","413","10271","","","","","","","","","","","","","","","","","","","","","","","","","","","","","","","","","","","","","","","","","","","","","","","","","","","","",""
"","iti_localizer","","html-keyboard-response","88","540826","0.0-2.0-5.1-1.1","32","47210","male","null","","","","null","","3","","","","540511","0","","","","","","300","10200","315","10684","300","","","","","","","","","","","","","","","","","","","","","","","","","","","","","","","","","","","","","","","","","","","","","","","","","","","",""
"","localizer","","html-keyboard-response","89","541237","0.0-2.0-6.0-0.0","32","47210","male","NaN","","","","null","NaN","4","","Stimuli/Practice_stims/Localizer/randy-fath-epf1tdtIIkM-unsplash.jpg","","540826","0","NaN","","1","1","0","400","10500","411","10999","","","","","","","","","","","","","","","","","","","","","","","","","","","","","","","","","","","","","","","","","","","","","","","","","","","","",""
"","iti_localizer","","html-keyboard-response","90","541556","0.0-2.0-6.0-1.0","32","47210","male","null","","","","null","","4","","","","541237","0","","","","","","300","10900","319","11410","300","","","","","","","","","","","","","","","","","","","","","","","","","","","","","","","","","","","","","","","","","","","","","","","","","","","",""
"","localizer","","html-keyboard-response","91","541971","0.0-2.0-6.1-0.1","32","47210","male","59","","","","75","1","4","","Stimuli/Practice_stims/Localizer/randy-fath-epf1tdtIIkM-unsplash.jpg","","541556","0","NaN","","1","0","1","400","11200","415","11729","","","","","","","","","","","","","","","","","","","","","","","","","","","","","","","","","","","","","","","","","","","","","","","","","","","","",""
"","iti_localizer","","html-keyboard-response","92","542281","0.0-2.0-6.1-1.1","32","47210","male","null","","","","null","","4","","","","541971","0","","","","","","300","11600","310","12144","300","","","","","","","","","","","","","","","","","","","","","","","","","","","","","","","","","","","","","","","","","","","","","","","","","","","",""
"","localizer","","html-keyboard-response","93","542695","0.0-2.0-7.0-0.0","32","47210","male","NaN","","","","null","NaN","5","","Stimuli/Practice_stims/Localizer/yassine-khalfalli-adsQ9d_Cx0c-unsplash.jpg","","542281","0","NaN","","0","1","0","400","11900","414","12454","","","","","","","","","","","","","","","","","","","","","","","","","","","","","","","","","","","","","","","","","","","","","","","","","","","","",""
"","iti_localizer","","html-keyboard-response","94","543008","0.0-2.0-7.0-1.0","32","47210","male","null","","","","null","","5","","","","542695","0","","","","","","300","12300","313","12868","300","","","","","","","","","","","","","","","","","","","","","","","","","","","","","","","","","","","","","","","","","","","","","","","","","","","",""
"","localizer","","html-keyboard-response","95","543424","0.0-2.0-7.1-0.1","32","47210","male","NaN","","","","null","NaN","5","","Stimuli/Practice_stims/Localizer/yassine-khalfalli-adsQ9d_Cx0c-unsplash.jpg","","543008","0","NaN","","0","1","0","400","12600","416","13181","","","","","","","","","","","","","","","","","","","","","","","","","","","","","","","","","","","","","","","","","","","","","","","","","","","","",""
"","iti_localizer","","html-keyboard-response","96","543737","0.0-2.0-7.1-1.1","32","47210","male","null","","","","null","","5","","","","543424","0","","","","","","300","13000","313","13597","300","","","","","","","","","","","","","","","","","","","","","","","","","","","","","","","","","","","","","","","","","","","","","","","","","","","",""
"","localizer","","html-keyboard-response","97","544150","0.0-2.0-7.2-0.2","32","47210","male","7","","","","68","0","5","","Stimuli/Practice_stims/Localizer/yassine-khalfalli-adsQ9d_Cx0c-unsplash.jpg","","543737","0","NaN","","0","0","1","400","13300","413","13910","","","","","","","","","","","","","","","","","","","","","","","","","","","","","","","","","","","","","","","","","","","","","","","","","","","","",""
"","iti_localizer","","html-keyboard-response","98","544470","0.0-2.0-7.2-1.2","32","47210","male","null","","","","null","","5","","","","544150","0","","","","","","300","13700","320","14323","300","","","","","","","","","","","","","","","","","","","","","","","","","","","","","","","","","","","","","","","","","","","","","","","","","","","",""
"","practice_over","","html-keyboard-response","99","547713","0.0-2.0-7.2-2.2-0.2","32","47210","male","3232","","","","68","","","","","","","","","","","","","","","","","","","","","","","","","","","","","","","","","","","","","","","","","","","","","","","","","","","","","","","","","","","","","","","","","","","","",""
"","start_run","","html-keyboard-response","100","550447","0.0-2.0-7.2-2.2-1.2","32","47210","male","2723","","","","84","","","","","","","","","","","","","","","","","","","","","","","","","","","","","","","","","","","","","","","","","","","","","","","","","","","","","","","","","","","","","","","","","","","","",""
"","localizer","","html-keyboard-response","101","550902","0.0-2.0-8.0-0.0","32","47210","male","NaN","","","","null","NaN","6","","Stimuli/Experimental_stims/localizer/objects/jonny-caspari-wsvCC6UyKjs-unsplash.jpg","","550447","1","objects","","0","1","0","400","0","455","0","","","","","","","","","","","","","","","","","","","","","","","","","","","","","","","","","","","","","","","","","","","","","","","","","","","","",""
"","iti_localizer","","html-keyboard-response","102","551215","0.0-2.0-8.0-1.0","32","47210","male","null","","","","null","","6","","","","550902","1","","","","","","300","400","313","455","300","","","","","","","","","","","","","","","","","","","","","","","","","","","","","","","","","","","","","","","","","","","","","","","","","","","",""
"","localizer","","html-keyboard-response","103","551628","0.0-2.0-9.0-0.0","32","47210","male","NaN","","","","null","NaN","7","","Stimuli/Experimental_stims/localizer/objects/charlesdeluvio-RDjZh9dqlP4-unsplash.jpg","","551215","1","objects","","0","1","0","400","700","413","768","","","","","","","","","","","","","","","","","","","","","","","","","","","","","","","","","","","","","","","","","","","","","","","","","","","","",""
"","iti_localizer","","html-keyboard-response","104","551941","0.0-2.0-9.0-1.0","32","47210","male","null","","","","null","","7","","","","551628","1","","","","","","300","1100","313","1181","300","","","","","","","","","","","","","","","","","","","","","","","","","","","","","","","","","","","","","","","","","","","","","","","","","","","",""
"","localizer","","html-keyboard-response","105","552358","0.0-2.0-10.0-0.0","32","47210","male","NaN","","","","null","NaN","8","","Stimuli/Experimental_stims/localizer/objects/adriano-pucciarelli-Jl3S1yM8gi8-unsplash.jpg","","551941","1","objects","","0","1","0","400","1400","417","1494","","","","","","","","","","","","","","","","","","","","","","","","","","","","","","","","","","","","","","","","","","","","","","","","","","","","",""
"","iti_localizer","","html-keyboard-response","106","552668","0.0-2.0-10.0-1.0","32","47210","male","null","","","","null","","8","","","","552358","1","","","","","","300","1800","310","1911","300","","","","","","","","","","","","","","","","","","","","","","","","","","","","","","","","","","","","","","","","","","","","","","","","","","","",""
"","localizer","","html-keyboard-response","107","553083","0.0-2.0-11.0-0.0","32","47210","male","361","","","","68","0","9","","Stimuli/Experimental_stims/localizer/objects/mockup-graphics-Pj2PY-E-LfM-unsplash.jpg","","552668","1","objects","","0","0","1","400","2100","415","2221","","","","","","","","","","","","","","","","","","","","","","","","","","","","","","","","","","","","","","","","","","","","","","","","","","","","",""
"","iti_localizer","","html-keyboard-response","108","553392","0.0-2.0-11.0-1.0","32","47210","male","null","","","","null","","9","","","","553083","1","","","","","","300","2500","309","2636","300","","","","","","","","","","","","","","","","","","","","","","","","","","","","","","","","","","","","","","","","","","","","","","","","","","","",""
"","localizer","","html-keyboard-response","109","553824","0.0-2.0-12.0-0.0","32","47210","male","NaN","","","","null","NaN","10","","Stimuli/Experimental_stims/localizer/objects/chris-briggs-x9TCnxNBofE-unsplash.jpg","","553392","1","objects","","0","1","0","400","2800","432","2945","","","","","","","","","","","","","","","","","","","","","","","","","","","","","","","","","","","","","","","","","","","","","","","","","","","","",""
"","iti_localizer","","html-keyboard-response","110","554131","0.0-2.0-12.0-1.0","32","47210","male","null","","","","null","","10","","","","553824","1","","","","","","300","3200","307","3377","300","","","","","","","","","","","","","","","","","","","","","","","","","","","","","","","","","","","","","","","","","","","","","","","","","","","",""
"","localizer","","html-keyboard-response","111","554548","0.0-2.0-13.0-0.0","32","47210","male","NaN","","","","null","NaN","11","","Stimuli/Experimental_stims/localizer/objects/ignat-dolomanov-kFBDVnmskPA-unsplash.jpg","","554131","1","objects","","1","1","0","400","3500","417","3684","","","","","","","","","","","","","","","","","","","","","","","","","","","","","","","","","","","","","","","","","","","","","","","","","","","","",""
"","iti_localizer","","html-keyboard-response","112","554875","0.0-2.0-13.0-1.0","32","47210","male","null","","","","null","","11","","","","554548","1","","","","","","300","3900","327","4101","300","","","","","","","","","","","","","","","","","","","","","","","","","","","","","","","","","","","","","","","","","","","","","","","","","","","",""
"","localizer","","html-keyboard-response","113","555285","0.0-2.0-14.0-0.0","32","47210","male","88","","","","75","1","12","","Stimuli/Experimental_stims/localizer/objects/adriano-pucciarelli-BE7yaZnZX6o-unsplash.jpg","","554875","1","objects","","0","0","0","400","4200","410","4428","","","","","","","","","","","","","","","","","","","","","","","","","","","","","","","","","","","","","","","","","","","","","","","","","","","","",""
"","iti_localizer","","html-keyboard-response","114","555601","0.0-2.0-14.0-1.0","32","47210","male","null","","","","null","","12","","","","555285","1","","","","","","300","4600","316","4838","300","","","","","","","","","","","","","","","","","","","","","","","","","","","","","","","","","","","","","","","","","","","","","","","","","","","",""
"","localizer","","html-keyboard-response","115","556017","0.0-2.0-15.0-0.0","32","47210","male","225","","","","68","0","13","","Stimuli/Experimental_stims/localizer/objects/eugene-chystiakov-3neSwyntbQ8-unsplash.jpg","","555601","1","objects","","0","0","1","400","4900","416","5154","","","","","","","","","","","","","","","","","","","","","","","","","","","","","","","","","","","","","","","","","","","","","","","","","","","","",""
"","iti_localizer","","html-keyboard-response","116","556331","0.0-2.0-15.0-1.0","32","47210","male","null","","","","null","","13","","","","556017","1","","","","","","300","5300","314","5570","300","","","","","","","","","","","","","","","","","","","","","","","","","","","","","","","","","","","","","","","","","","","","","","","","","","","",""
"","localizer","","html-keyboard-response","117","556745","0.0-2.0-16.0-0.0","32","47210","male","321","","","","68","0","14","","Stimuli/Experimental_stims/localizer/objects/girl-with-red-hat-Xxg-r574pLE-unsplash.jpg","","556331","1","objects","","0","0","1","400","5600","414","5884","","","","","","","","","","","","","","","","","","","","","","","","","","","","","","","","","","","","","","","","","","","","","","","","","","","","",""
"","iti_localizer","","html-keyboard-response","118","557058","0.0-2.0-16.0-1.0","32","47210","male","null","","","","null","","14","","","","556745","1","","","","","","300","6000","313","6298","300","","","","","","","","","","","","","","","","","","","","","","","","","","","","","","","","","","","","","","","","","","","","","","","","","","","",""
"","localizer","","html-keyboard-response","119","557469","0.0-2.0-17.0-0.0","32","47210","male","NaN","","","","null","NaN","15","","Stimuli/Experimental_stims/localizer/objects/hipster-mum-XookgCxFw6Q-unsplash.jpg","","557058","1","objects","","0","1","0","400","6300","411","6611","","","","","","","","","","","","","","","","","","","","","","","","","","","","","","","","","","","","","","","","","","","","","","","","","","","","",""
"","iti_localizer","","html-keyboard-response","120","557777","0.0-2.0-17.0-1.0","32","47210","male","null","","","","null","","15","","","","557469","1","","","","","","300","6700","308","7022","300","","","","","","","","","","","","","","","","","","","","","","","","","","","","","","","","","","","","","","","","","","","","","","","","","","","",""
"","localizer","","html-keyboard-response","121","558189","0.0-2.0-18.0-0.0","32","47210","male","94","","","","68","0","16","","Stimuli/Experimental_stims/localizer/objects/quino-al-8gWEAAXJjtI-unsplash.jpg","","557777","1","objects","","0","0","1","400","7000","412","7330","","","","","","","","","","","","","","","","","","","","","","","","","","","","","","","","","","","","","","","","","","","","","","","","","","","","",""
"","iti_localizer","","html-keyboard-response","122","558501","0.0-2.0-18.0-1.0","32","47210","male","null","","","","null","","16","","","","558189","1","","","","","","300","7400","312","7742","300","","","","","","","","","","","","","","","","","","","","","","","","","","","","","","","","","","","","","","","","","","","","","","","","","","","",""
"","localizer","","html-keyboard-response","123","558922","0.0-2.0-19.0-0.0","32","47210","male","121","","","","68","0","17","","Stimuli/Experimental_stims/localizer/objects/florian-klauer-mk7D-4UCfmg-unsplash.jpg","","558501","1","objects","","0","0","1","400","7700","421","8054","","","","","","","","","","","","","","","","","","","","","","","","","","","","","","","","","","","","","","","","","","","","","","","","","","","","",""
"","iti_localizer","","html-keyboard-response","124","559239","0.0-2.0-19.0-1.0","32","47210","male","null","","","","null","","17","","","","558922","1","","","","","","300","8100","317","8475","300","","","","","","","","","","","","","","","","","","","","","","","","","","","","","","","","","","","","","","","","","","","","","","","","","","","",""
"","localizer","","html-keyboard-response","125","559654","0.0-2.0-20.0-0.0","32","47210","male","132","","","","68","0","18","","Stimuli/Experimental_stims/localizer/objects/andrew-petrov-TVJqDat4MAw-unsplash.jpg","","559239","1","objects","","0","0","1","400","8400","415","8792","","","","","","","","","","","","","","","","","","","","","","","","","","","","","","","","","","","","","","","","","","","","","","","","","","","","",""
"","iti_localizer","","html-keyboard-response","126","559968","0.0-2.0-20.0-1.0","32","47210","male","null","","","","null","","18","","","","559654","1","","","","","","300","8800","314","9207","300","","","","","","","","","","","","","","","","","","","","","","","","","","","","","","","","","","","","","","","","","","","","","","","","","","","",""
"","localizer","","html-keyboard-response","127","560384","0.0-2.0-21.0-0.0","32","47210","male","NaN","","","","null","NaN","19","","Stimuli/Experimental_stims/localizer/objects/carlos-felipe-ramirez-mesa-HW7bfB3ERSQ-unsplash.jpg","","559968","1","objects","","0","1","0","400","9100","416","9521","","","","","","","","","","","","","","","","","","","","","","","","","","","","","","","","","","","","","","","","","","","","","","","","","","","","",""
"","iti_localizer","","html-keyboard-response","128","560694","0.0-2.0-21.0-1.0","32","47210","male","null","","","","null","","19","","","","560384","1","","","","","","300","9500","310","9937","300","","","","","","","","","","","","","","","","","","","","","","","","","","","","","","","","","","","","","","","","","","","","","","","","","","","",""
"","localizer","","html-keyboard-response","129","561105","0.0-2.0-22.0-0.0","32","47210","male","NaN","","","","null","NaN","20","","Stimuli/Experimental_stims/localizer/objects/yoann-siloine-_T4w3JDm6ug-unsplash.jpg","","560694","1","objects","","1","1","0","400","9800","411","10247","","","","","","","","","","","","","","","","","","","","","","","","","","","","","","","","","","","","","","","","","","","","","","","","","","","","",""
"","iti_localizer","","html-keyboard-response","130","561421","0.0-2.0-22.0-1.0","32","47210","male","null","","","","null","","20","","","","561105","1","","","","","","300","10200","316","10658","300","","","","","","","","","","","","","","","","","","","","","","","","","","","","","","","","","","","","","","","","","","","","","","","","","","","",""
"","localizer","","html-keyboard-response","131","561873","0.0-2.0-23.0-0.0","32","47210","male","25","","","","75","1","21","","Stimuli/Experimental_stims/localizer/objects/ales-krivec-ZMZHcvIVgbg-unsplash.jpg","","561421","1","objects","","0","0","0","400","10500","452","10974","","","","","","","","","","","","","","","","","","","","","","","","","","","","","","","","","","","","","","","","","","","","","","","","","","","","",""
"","iti_localizer","","html-keyboard-response","132","562184","0.0-2.0-23.0-1.0","32","47210","male","null","","","","null","","21","","","","561873","1","","","","","","300","10900","311","11426","300","","","","","","","","","","","","","","","","","","","","","","","","","","","","","","","","","","","","","","","","","","","","","","","","","","","",""
"","localizer","","html-keyboard-response","133","562603","0.0-2.0-24.0-0.0","32","47210","male","139","","","","68","0","22","","Stimuli/Experimental_stims/localizer/objects/designecologist-hvgd0ygXuQQ-unsplash.jpg","","562184","1","objects","","0","0","1","400","11200","419","11737","","","","","","","","","","","","","","","","","","","","","","","","","","","","","","","","","","","","","","","","","","","","","","","","","","","","",""
"","iti_localizer","","html-keyboard-response","134","562919","0.0-2.0-24.0-1.0","32","47210","male","null","","","","null","","22","","","","562603","1","","","","","","300","11600","316","12156","300","","","","","","","","","","","","","","","","","","","","","","","","","","","","","","","","","","","","","","","","","","","","","","","","","","","",""
"","localizer","","html-keyboard-response","135","563341","0.0-2.0-25.0-0.0","32","47210","male","NaN","","","","null","NaN","23","","Stimuli/Experimental_stims/localizer/objects/dario-mendez-hnJ2VNZzbns-unsplash.jpg","","562919","1","objects","","0","1","0","400","11900","422","12472","","","","","","","","","","","","","","","","","","","","","","","","","","","","","","","","","","","","","","","","","","","","","","","","","","","","",""
"","iti_localizer","","html-keyboard-response","136","563655","0.0-2.0-25.0-1.0","32","47210","male","null","","","","null","","23","","","","563341","1","","","","","","300","12300","314","12894","300","","","","","","","","","","","","","","","","","","","","","","","","","","","","","","","","","","","","","","","","","","","","","","","","","","","",""
"","localizer","","html-keyboard-response","137","564065","0.0-2.0-26.0-0.0","32","47210","male","NaN","","","","null","NaN","24","","Stimuli/Experimental_stims/localizer/objects/muhammad-toqeer-NRJ9ipvz2iE-unsplash.jpg","","563655","1","objects","","0","1","0","400","12600","410","13208","","","","","","","","","","","","","","","","","","","","","","","","","","","","","","","","","","","","","","","","","","","","","","","","","","","","",""
"","iti_localizer","","html-keyboard-response","138","564389","0.0-2.0-26.0-1.0","32","47210","male","null","","","","null","","24","","","","564065","1","","","","","","300","13000","324","13618","300","","","","","","","","","","","","","","","","","","","","","","","","","","","","","","","","","","","","","","","","","","","","","","","","","","","",""
"","localizer","","html-keyboard-response","139","564806","0.0-2.0-27.0-0.0","32","47210","male","NaN","","","","null","NaN","25","","Stimuli/Experimental_stims/localizer/objects/markus-spiske-ANrVtttbNss-unsplash.jpg","","564389","1","objects","","0","1","0","400","13300","417","13942","","","","","","","","","","","","","","","","","","","","","","","","","","","","","","","","","","","","","","","","","","","","","","","","","","","","",""
"","iti_localizer","","html-keyboard-response","140","578836","0.0-2.0-27.0-1.0","32","47210","male","null","","","","null","","25","","","","564806","1","","","","","","14000","13700","14030","14359","14000","","","","","","","","","","","","","","","","","","","","","","","","","","","","","","","","","","","","","","","","","","","","","","","","","","","",""
"","localizer","","html-keyboard-response","141","579250","0.0-2.0-28.0-0.0","32","47210","male","NaN","","","","null","NaN","26","","Stimuli/Experimental_stims/localizer/body_parts/jan-romero-DL4DDQb8yjc-unsplash.jpg","","578836","1","body_parts","","0","1","0","400","27700","414","28389","","","","","","","","","","","","","","","","","","","","","","","","","","","","","","","","","","","","","","","","","","","","","","","","","","","","",""
"","iti_localizer","","html-keyboard-response","142","579566","0.0-2.0-28.0-1.0","32","47210","male","null","","","","null","","26","","","","579250","1","","","","","","300","28100","316","28803","300","","","","","","","","","","","","","","","","","","","","","","","","","","","","","","","","","","","","","","","","","","","","","","","","","","","",""
"","localizer","","html-keyboard-response","143","580005","0.0-2.0-29.0-0.0","32","47210","male","NaN","","","","null","NaN","27","","Stimuli/Experimental_stims/localizer/body_parts/juja-han-Z8-6EI2tYtw-unsplash.jpg","","579566","1","body_parts","","0","1","0","400","28400","439","29119","","","","","","","","","","","","","","","","","","","","","","","","","","","","","","","","","","","","","","","","","","","","","","","","","","","","",""
"","iti_localizer","","html-keyboard-response","144","580320","0.0-2.0-29.0-1.0","32","47210","male","null","","","","null","","27","","","","580005","1","","","","","","300","28800","315","29558","300","","","","","","","","","","","","","","","","","","","","","","","","","","","","","","","","","","","","","","","","","","","","","","","","","","","",""
"","localizer","","html-keyboard-response","145","580744","0.0-2.0-30.0-0.0","32","47210","male","NaN","","","","null","NaN","28","","Stimuli/Experimental_stims/localizer/body_parts/kai-wenzel-zYDJOxjaZrQ-unsplash.jpg","","580320","1","body_parts","","1","1","0","400","29100","424","29873","","","","","","","","","","","","","","","","","","","","","","","","","","","","","","","","","","","","","","","","","","","","","","","","","","","","",""
"","iti_localizer","","html-keyboard-response","146","581059","0.0-2.0-30.0-1.0","32","47210","male","null","","","","null","","28","","","","580744","1","","","","","","300","29500","315","30297","300","","","","","","","","","","","","","","","","","","","","","","","","","","","","","","","","","","","","","","","","","","","","","","","","","","","",""
"","localizer","","html-keyboard-response","147","581473","0.0-2.0-31.0-0.0","32","47210","male","101","","","","75","1","29","","Stimuli/Experimental_stims/localizer/body_parts/igordoon-primus-CdyHqfrbGIs-unsplash.jpg","","581059","1","body_parts","","0","0","0","400","29800","414","30612","","","","","","","","","","","","","","","","","","","","","","","","","","","","","","","","","","","","","","","","","","","","","","","","","","","","",""
"","iti_localizer","","html-keyboard-response","148","581795","0.0-2.0-31.0-1.0","32","47210","male","null","","","","null","","29","","","","581473","1","","","","","","300","30200","322","31026","300","","","","","","","","","","","","","","","","","","","","","","","","","","","","","","","","","","","","","","","","","","","","","","","","","","","",""
"","localizer","","html-keyboard-response","149","582215","0.0-2.0-32.0-0.0","32","47210","male","NaN","","","","null","NaN","30","","Stimuli/Experimental_stims/localizer/body_parts/nick-page-WTNmgJtwzGI-unsplash.jpg","","581795","1","body_parts","","0","1","0","400","30500","420","31348","","","","","","","","","","","","","","","","","","","","","","","","","","","","","","","","","","","","","","","","","","","","","","","","","","","","",""
"","iti_localizer","","html-keyboard-response","150","582531","0.0-2.0-32.0-1.0","32","47210","male","null","","","","null","","30","","","","582215","1","","","","","","300","30900","316","31768","300","","","","","","","","","","","","","","","","","","","","","","","","","","","","","","","","","","","","","","","","","","","","","","","","","","","",""
"","localizer","","html-keyboard-response","151","582946","0.0-2.0-33.0-0.0","32","47210","male","145","","","","68","0","31","","Stimuli/Experimental_stims/localizer/body_parts/callum-skelton-3KLMq7y46nA-unsplash.jpg","","582531","1","body_parts","","0","0","1","400","31200","415","32084","","","","","","","","","","","","","","","","","","","","","","","","","","","","","","","","","","","","","","","","","","","","","","","","","","","","",""
"","iti_localizer","","html-keyboard-response","152","583267","0.0-2.0-33.0-1.0","32","47210","male","null","","","","null","","31","","","","582946","1","","","","","","300","31600","321","32499","300","","","","","","","","","","","","","","","","","","","","","","","","","","","","","","","","","","","","","","","","","","","","","","","","","","","",""
"","localizer","","html-keyboard-response","153","583680","0.0-2.0-34.0-0.0","32","47210","male","NaN","","","","null","NaN","32","","Stimuli/Experimental_stims/localizer/body_parts/anelya-okapova-V69kmOyZ3SU-unsplash.jpg","","583267","1","body_parts","","0","1","0","400","31900","413","32820","","","","","","","","","","","","","","","","","","","","","","","","","","","","","","","","","","","","","","","","","","","","","","","","","","","","",""
"","iti_localizer","","html-keyboard-response","154","584037","0.0-2.0-34.0-1.0","32","47210","male","null","","","","null","","32","","","","583680","1","","","","","","300","32300","357","33233","300","","","","","","","","","","","","","","","","","","","","","","","","","","","","","","","","","","","","","","","","","","","","","","","","","","","",""
"","localizer","","html-keyboard-response","155","584449","0.0-2.0-35.0-0.0","32","47210","male","NaN","","","","null","NaN","33","","Stimuli/Experimental_stims/localizer/body_parts/jeremy-yap-TfJEi17kA0w-unsplash.jpg","","584037","1","body_parts","","0","1","0","400","32600","412","33590","","","","","","","","","","","","","","","","","","","","","","","","","","","","","","","","","","","","","","","","","","","","","","","","","","","","",""
"","iti_localizer","","html-keyboard-response","156","584758","0.0-2.0-35.0-1.0","32","47210","male","null","","","","null","","33","","","","584449","1","","","","","","300","33000","309","34002","300","","","","","","","","","","","","","","","","","","","","","","","","","","","","","","","","","","","","","","","","","","","","","","","","","","","",""
"","localizer","","html-keyboard-response","157","585175","0.0-2.0-36.0-0.0","32","47210","male","NaN","","","","null","NaN","34","","Stimuli/Experimental_stims/localizer/body_parts/debby-hudson--B_757qSA4k-unsplash.jpg","","584758","1","body_parts","","0","1","0","400","33300","417","34311","","","","","","","","","","","","","","","","","","","","","","","","","","","","","","","","","","","","","","","","","","","","","","","","","","","","",""
"","iti_localizer","","html-keyboard-response","158","585485","0.0-2.0-36.0-1.0","32","47210","male","null","","","","null","","34","","","","585175","1","","","","","","300","33700","310","34728","300","","","","","","","","","","","","","","","","","","","","","","","","","","","","","","","","","","","","","","","","","","","","","","","","","","","",""
"","localizer","","html-keyboard-response","159","585897","0.0-2.0-37.0-0.0","32","47210","male","NaN","","","","null","NaN","35","","Stimuli/Experimental_stims/localizer/body_parts/danie-franco-jyyNiSEcCl4-unsplash.jpg","","585485","1","body_parts","","0","1","0","400","34000","412","35038","","","","","","","","","","","","","","","","","","","","","","","","","","","","","","","","","","","","","","","","","","","","","","","","","","","","",""
"","iti_localizer","","html-keyboard-response","160","586209","0.0-2.0-37.0-1.0","32","47210","male","null","","","","null","","35","","","","585897","1","","","","","","300","34400","312","35450","300","","","","","","","","","","","","","","","","","","","","","","","","","","","","","","","","","","","","","","","","","","","","","","","","","","","",""
"","localizer","","html-keyboard-response","161","586625","0.0-2.0-38.0-0.0","32","47210","male","167","","","","68","0","36","","Stimuli/Experimental_stims/localizer/body_parts/toan-nguyen-VIeLuUFzesg-unsplash.jpg","","586209","1","body_parts","","0","0","1","400","34700","416","35762","","","","","","","","","","","","","","","","","","","","","","","","","","","","","","","","","","","","","","","","","","","","","","","","","","","","",""
"","iti_localizer","","html-keyboard-response","162","586946","0.0-2.0-38.0-1.0","32","47210","male","null","","","","null","","36","","","","586625","1","","","","","","300","35100","321","36178","300","","","","","","","","","","","","","","","","","","","","","","","","","","","","","","","","","","","","","","","","","","","","","","","","","","","",""
"","localizer","","html-keyboard-response","163","587358","0.0-2.0-39.0-0.0","32","47210","male","212","","","","68","0","37","","Stimuli/Experimental_stims/localizer/body_parts/femme-spirit-RGYBDUHYbyM-unsplash.jpg","","586946","1","body_parts","","0","0","1","400","35400","412","36499","","","","","","","","","","","","","","","","","","","","","","","","","","","","","","","","","","","","","","","","","","","","","","","","","","","","",""
"","iti_localizer","","html-keyboard-response","164","587672","0.0-2.0-39.0-1.0","32","47210","male","null","","","","null","","37","","","","587358","1","","","","","","300","35800","314","36911","300","","","","","","","","","","","","","","","","","","","","","","","","","","","","","","","","","","","","","","","","","","","","","","","","","","","",""
"","localizer","","html-keyboard-response","165","588095","0.0-2.0-40.0-0.0","32","47210","male","NaN","","","","null","NaN","38","","Stimuli/Experimental_stims/localizer/body_parts/sincerely-media-QyzlAZjm0r0-unsplash.jpg","","587672","1","body_parts","","0","1","0","400","36100","423","37225","","","","","","","","","","","","","","","","","","","","","","","","","","","","","","","","","","","","","","","","","","","","","","","","","","","","",""
"","iti_localizer","","html-keyboard-response","166","588412","0.0-2.0-40.0-1.0","32","47210","male","null","","","","null","","38","","","","588095","1","","","","","","300","36500","317","37648","300","","","","","","","","","","","","","","","","","","","","","","","","","","","","","","","","","","","","","","","","","","","","","","","","","","","",""
"","localizer","","html-keyboard-response","167","588829","0.0-2.0-41.0-0.0","32","47210","male","NaN","","","","null","NaN","39","","Stimuli/Experimental_stims/localizer/body_parts/betzy-arosemena-YHdgnygtVCQ-unsplash.jpg","","588412","1","body_parts","","0","1","0","400","36800","417","37965","","","","","","","","","","","","","","","","","","","","","","","","","","","","","","","","","","","","","","","","","","","","","","","","","","","","",""
"","iti_localizer","","html-keyboard-response","168","589149","0.0-2.0-41.0-1.0","32","47210","male","null","","","","null","","39","","","","588829","1","","","","","","300","37200","320","38382","300","","","","","","","","","","","","","","","","","","","","","","","","","","","","","","","","","","","","","","","","","","","","","","","","","","","",""
"","localizer","","html-keyboard-response","169","589568","0.0-2.0-42.0-0.0","32","47210","male","21","","","","68","0","40","","Stimuli/Experimental_stims/localizer/body_parts/nihal-karkala-LlOfbQD-IJ0-unsplash.jpg","","589149","1","body_parts","","0","0","1","400","37500","419","38702","","","","","","","","","","","","","","","","","","","","","","","","","","","","","","","","","","","","","","","","","","","","","","","","","","","","",""
"","iti_localizer","","html-keyboard-response","170","589914","0.0-2.0-42.0-1.0","32","47210","male","null","","","","null","","40","","","","589568","1","","","","","","300","37900","346","39121","300","","","","","","","","","","","","","","","","","","","","","","","","","","","","","","","","","","","","","","","","","","","","","","","","","","","",""
"","localizer","","html-keyboard-response","171","590326","0.0-2.0-43.0-0.0","32","47210","male","122","","","","68","0","41","","Stimuli/Experimental_stims/localizer/body_parts/nattalia-nunez-MB9sdDfZMSg-unsplash.jpg","","589914","1","body_parts","","0","0","1","400","38200","412","39467","","","","","","","","","","","","","","","","","","","","","","","","","","","","","","","","","","","","","","","","","","","","","","","","","","","","",""
"","iti_localizer","","html-keyboard-response","172","590647","0.0-2.0-43.0-1.0","32","47210","male","null","","","","null","","41","","","","590326","1","","","","","","300","38600","321","39879","300","","","","","","","","","","","","","","","","","","","","","","","","","","","","","","","","","","","","","","","","","","","","","","","","","","","",""
"","localizer","","html-keyboard-response","173","591066","0.0-2.0-44.0-0.0","32","47210","male","NaN","","","","null","NaN","42","","Stimuli/Experimental_stims/localizer/body_parts/xavier-foucrier-dLZUNHsT8vo-unsplash.jpg","","590647","1","body_parts","","0","1","0","400","38900","419","40200","","","","","","","","","","","","","","","","","","","","","","","","","","","","","","","","","","","","","","","","","","","","","","","","","","","","",""
"","iti_localizer","","html-keyboard-response","174","591384","0.0-2.0-44.0-1.0","32","47210","male","null","","","","null","","42","","","","591066","1","","","","","","300","39300","318","40619","300","","","","","","","","","","","","","","","","","","","","","","","","","","","","","","","","","","","","","","","","","","","","","","","","","","","",""
"","localizer","","html-keyboard-response","175","591798","0.0-2.0-45.0-0.0","32","47210","male","NaN","","","","null","NaN","43","","Stimuli/Experimental_stims/localizer/body_parts/i-am_nah--S4OsO0c6Ts-unsplash.jpg","","591384","1","body_parts","","0","1","0","400","39600","414","40937","","","","","","","","","","","","","","","","","","","","","","","","","","","","","","","","","","","","","","","","","","","","","","","","","","","","",""
"","iti_localizer","","html-keyboard-response","176","592116","0.0-2.0-45.0-1.0","32","47210","male","null","","","","null","","43","","","","591798","1","","","","","","300","40000","318","41351","300","","","","","","","","","","","","","","","","","","","","","","","","","","","","","","","","","","","","","","","","","","","","","","","","","","","",""
"","localizer","","html-keyboard-response","177","592534","0.0-2.0-46.0-0.0","32","47210","male","NaN","","","","null","NaN","44","","Stimuli/Experimental_stims/localizer/body_parts/megan-menegay-UojxG_BJxnI-unsplash.jpg","","592116","1","body_parts","","0","1","0","400","40300","418","41669","","","","","","","","","","","","","","","","","","","","","","","","","","","","","","","","","","","","","","","","","","","","","","","","","","","","",""
"","iti_localizer","","html-keyboard-response","178","592848","0.0-2.0-46.0-1.0","32","47210","male","null","","","","null","","44","","","","592534","1","","","","","","300","40700","314","42087","300","","","","","","","","","","","","","","","","","","","","","","","","","","","","","","","","","","","","","","","","","","","","","","","","","","","",""
"","localizer","","html-keyboard-response","179","593266","0.0-2.0-47.0-0.0","32","47210","male","189","","","","68","0","45","","Stimuli/Experimental_stims/localizer/body_parts/priscilla-du-preez-e6fcNpur53A-unsplash.jpg","","592848","1","body_parts","","1","0","0","400","41000","418","42401","","","","","","","","","","","","","","","","","","","","","","","","","","","","","","","","","","","","","","","","","","","","","","","","","","","","",""
"","iti_localizer","","html-keyboard-response","180","607290","0.0-2.0-47.0-1.0","32","47210","male","null","","","","null","","45","","","","593266","1","","","","","","14000","41400","14024","42819","14000","","","","","","","","","","","","","","","","","","","","","","","","","","","","","","","","","","","","","","","","","","","","","","","","","","","",""
"","localizer","","html-keyboard-response","181","607703","0.0-2.0-48.0-0.0","32","47210","male","NaN","","","","null","NaN","46","","Stimuli/Experimental_stims/localizer/faces/jake-nackos-IF9TK5Uy-KI-unsplash.jpg","","607290","1","faces","","0","1","0","400","55400","413","56843","","","","","","","","","","","","","","","","","","","","","","","","","","","","","","","","","","","","","","","","","","","","","","","","","","","","",""
"","iti_localizer","","html-keyboard-response","182","608042","0.0-2.0-48.0-1.0","32","47210","male","null","","","","null","","46","","","","607703","1","","","","","","300","55800","339","57256","300","","","","","","","","","","","","","","","","","","","","","","","","","","","","","","","","","","","","","","","","","","","","","","","","","","","",""
"","localizer","","html-keyboard-response","183","608453","0.0-2.0-49.0-0.0","32","47210","male","NaN","","","","null","NaN","47","","Stimuli/Experimental_stims/localizer/faces/ethan-haddox-__ng3cRXmFE-unsplash.jpg","","608042","1","faces","","0","1","0","400","56100","411","57595","","","","","","","","","","","","","","","","","","","","","","","","","","","","","","","","","","","","","","","","","","","","","","","","","","","","",""
"","iti_localizer","","html-keyboard-response","184","608761","0.0-2.0-49.0-1.0","32","47210","male","null","","","","null","","47","","","","608453","1","","","","","","300","56500","308","58006","300","","","","","","","","","","","","","","","","","","","","","","","","","","","","","","","","","","","","","","","","","","","","","","","","","","","",""
"","localizer","","html-keyboard-response","185","609171","0.0-2.0-50.0-0.0","32","47210","male","399","","","","68","0","48","","Stimuli/Experimental_stims/localizer/faces/samuel-dixon--fQ5XNOcqFQ-unsplash.jpg","","608761","1","faces","","1","0","0","400","56800","410","58314","","","","","","","","","","","","","","","","","","","","","","","","","","","","","","","","","","","","","","","","","","","","","","","","","","","","",""
"","iti_localizer","","html-keyboard-response","186","609483","0.0-2.0-50.0-1.0","32","47210","male","null","","","","null","","48","","","","609171","1","","","","","","300","57200","312","58724","300","","","","","","","","","","","","","","","","","","","","","","","","","","","","","","","","","","","","","","","","","","","","","","","","","","","",""
"","localizer","","html-keyboard-response","187","609894","0.0-2.0-51.0-0.0","32","47210","male","192","","","","75","1","49","","Stimuli/Experimental_stims/localizer/faces/jakob-owens-lkMJcGDZLVs-unsplash.jpg","","609483","1","faces","","0","0","0","400","57500","411","59036","","","","","","","","","","","","","","","","","","","","","","","","","","","","","","","","","","","","","","","","","","","","","","","","","","","","",""
"","iti_localizer","","html-keyboard-response","188","610210","0.0-2.0-51.0-1.0","32","47210","male","null","","","","null","","49","","","","609894","1","","","","","","300","57900","316","59447","300","","","","","","","","","","","","","","","","","","","","","","","","","","","","","","","","","","","","","","","","","","","","","","","","","","","",""
"","localizer","","html-keyboard-response","189","610622","0.0-2.0-52.0-0.0","32","47210","male","221","","","","68","0","50","","Stimuli/Experimental_stims/localizer/faces/joseph-gonzalez-iFgRcqHznqg-unsplash.jpg","","610210","1","faces","","0","0","1","400","58200","412","59763","","","","","","","","","","","","","","","","","","","","","","","","","","","","","","","","","","","","","","","","","","","","","","","","","","","","",""
"","iti_localizer","","html-keyboard-response","190","610938","0.0-2.0-52.0-1.0","32","47210","male","null","","","","null","","50","","","","610622","1","","","","","","300","58600","316","60175","300","","","","","","","","","","","","","","","","","","","","","","","","","","","","","","","","","","","","","","","","","","","","","","","","","","","",""
"","localizer","","html-keyboard-response","191","611349","0.0-2.0-53.0-0.0","32","47210","male","250","","","","68","0","51","","Stimuli/Experimental_stims/localizer/faces/tyler-nix-ZGa9d1a_4tA-unsplash.jpg","","610938","1","faces","","0","0","1","400","58900","411","60491","","","","","","","","","","","","","","","","","","","","","","","","","","","","","","","","","","","","","","","","","","","","","","","","","","","","",""
"","iti_localizer","","html-keyboard-response","192","611655","0.0-2.0-53.0-1.0","32","47210","male","null","","","","null","","51","","","","611349","1","","","","","","300","59300","306","60902","300","","","","","","","","","","","","","","","","","","","","","","","","","","","","","","","","","","","","","","","","","","","","","","","","","","","",""
"","localizer","","html-keyboard-response","193","612073","0.0-2.0-54.0-0.0","32","47210","male","NaN","","","","null","NaN","52","","Stimuli/Experimental_stims/localizer/faces/allef-vinicius-C_1jjFJioWg-unsplash.jpg","","611655","1","faces","","0","1","0","400","59600","418","61208","","","","","","","","","","","","","","","","","","","","","","","","","","","","","","","","","","","","","","","","","","","","","","","","","","","","",""
"","iti_localizer","","html-keyboard-response","194","612394","0.0-2.0-54.0-1.0","32","47210","male","null","","","","null","","52","","","","612073","1","","","","","","300","60000","321","61626","300","","","","","","","","","","","","","","","","","","","","","","","","","","","","","","","","","","","","","","","","","","","","","","","","","","","",""
"","localizer","","html-keyboard-response","195","612805","0.0-2.0-55.0-0.0","32","47210","male","NaN","","","","null","NaN","53","","Stimuli/Experimental_stims/localizer/faces/midas-hofstra-tidSLv-UaNs-unsplash.jpg","","612394","1","faces","","0","1","0","400","60300","411","61947","","","","","","","","","","","","","","","","","","","","","","","","","","","","","","","","","","","","","","","","","","","","","","","","","","","","",""
"","iti_localizer","","html-keyboard-response","196","613115","0.0-2.0-55.0-1.0","32","47210","male","null","","","","null","","53","","","","612805","1","","","","","","300","60700","310","62358","300","","","","","","","","","","","","","","","","","","","","","","","","","","","","","","","","","","","","","","","","","","","","","","","","","","","",""
"","localizer","","html-keyboard-response","197","613526","0.0-2.0-56.0-0.0","32","47210","male","NaN","","","","null","NaN","54","","Stimuli/Experimental_stims/localizer/faces/elijah-hiett-umfpFoKxIVg-unsplash.jpg","","613115","1","faces","","0","1","0","400","61000","411","62668","","","","","","","","","","","","","","","","","","","","","","","","","","","","","","","","","","","","","","","","","","","","","","","","","","","","",""
"","iti_localizer","","html-keyboard-response","198","613846","0.0-2.0-56.0-1.0","32","47210","male","null","","","","null","","54","","","","613526","1","","","","","","300","61400","320","63079","300","","","","","","","","","","","","","","","","","","","","","","","","","","","","","","","","","","","","","","","","","","","","","","","","","","","",""
"","localizer","","html-keyboard-response","199","614272","0.0-2.0-57.0-0.0","32","47210","male","59","","","","68","0","55","","Stimuli/Experimental_stims/localizer/faces/austin-wade-X6Uj51n5CE8-unsplash.jpg","","613846","1","faces","","0","0","1","400","61700","426","63399","","","","","","","","","","","","","","","","","","","","","","","","","","","","","","","","","","","","","","","","","","","","","","","","","","","","",""
"","iti_localizer","","html-keyboard-response","200","614595","0.0-2.0-57.0-1.0","32","47210","male","null","","","","null","","55","","","","614272","1","","","","","","300","62100","323","63825","300","","","","","","","","","","","","","","","","","","","","","","","","","","","","","","","","","","","","","","","","","","","","","","","","","","","",""
"","localizer","","html-keyboard-response","201","615014","0.0-2.0-58.0-0.0","32","47210","male","258","","","","68","0","56","","Stimuli/Experimental_stims/localizer/faces/mathias-huysmans-U4JDjYmjn1g-unsplash.jpg","","614595","1","faces","","0","0","1","400","62400","419","64148","","","","","","","","","","","","","","","","","","","","","","","","","","","","","","","","","","","","","","","","","","","","","","","","","","","","",""
"","iti_localizer","","html-keyboard-response","202","615329","0.0-2.0-58.0-1.0","32","47210","male","null","","","","null","","56","","","","615014","1","","","","","","300","62800","315","64567","300","","","","","","","","","","","","","","","","","","","","","","","","","","","","","","","","","","","","","","","","","","","","","","","","","","","",""
"","localizer","","html-keyboard-response","203","615814","0.0-2.0-59.0-0.0","32","47210","male","NaN","","","","null","NaN","57","","Stimuli/Experimental_stims/localizer/faces/ian-dooley-d1UPkiFd04A-unsplash.jpg","","615329","1","faces","","0","1","0","400","63100","485","64882","","","","","","","","","","","","","","","","","","","","","","","","","","","","","","","","","","","","","","","","","","","","","","","","","","","","",""
"","iti_localizer","","html-keyboard-response","204","616129","0.0-2.0-59.0-1.0","32","47210","male","null","","","","null","","57","","","","615814","1","","","","","","300","63500","315","65367","300","","","","","","","","","","","","","","","","","","","","","","","","","","","","","","","","","","","","","","","","","","","","","","","","","","","",""
"","localizer","","html-keyboard-response","205","616549","0.0-2.0-60.0-0.0","32","47210","male","NaN","","","","null","NaN","58","","Stimuli/Experimental_stims/localizer/faces/icons8-team-6LZuSzSwso0-unsplash.jpg","","616129","1","faces","","0","1","0","400","63800","420","65682","","","","","","","","","","","","","","","","","","","","","","","","","","","","","","","","","","","","","","","","","","","","","","","","","","","","",""
"","iti_localizer","","html-keyboard-response","206","616860","0.0-2.0-60.0-1.0","32","47210","male","null","","","","null","","58","","","","616549","1","","","","","","300","64200","311","66102","300","","","","","","","","","","","","","","","","","","","","","","","","","","","","","","","","","","","","","","","","","","","","","","","","","","","",""
"","localizer","","html-keyboard-response","207","617274","0.0-2.0-61.0-0.0","32","47210","male","NaN","","","","null","NaN","59","","Stimuli/Experimental_stims/localizer/faces/alexis-chloe-TYDkKEgc0Fg-unsplash.jpg","","616860","1","faces","","0","1","0","400","64500","414","66413","","","","","","","","","","","","","","","","","","","","","","","","","","","","","","","","","","","","","","","","","","","","","","","","","","","","",""
"","iti_localizer","","html-keyboard-response","208","617584","0.0-2.0-61.0-1.0","32","47210","male","null","","","","null","","59","","","","617274","1","","","","","","300","64900","310","66827","300","","","","","","","","","","","","","","","","","","","","","","","","","","","","","","","","","","","","","","","","","","","","","","","","","","","",""
"","localizer","","html-keyboard-response","209","618019","0.0-2.0-62.0-0.0","32","47210","male","227","","","","68","0","60","","Stimuli/Experimental_stims/localizer/faces/prince-akachi-LWkFHEGpleE-unsplash.jpg","","617584","1","faces","","0","0","1","400","65200","435","67137","","","","","","","","","","","","","","","","","","","","","","","","","","","","","","","","","","","","","","","","","","","","","","","","","","","","",""
"","iti_localizer","","html-keyboard-response","210","618335","0.0-2.0-62.0-1.0","32","47210","male","null","","","","null","","60","","","","618019","1","","","","","","300","65600","316","67572","300","","","","","","","","","","","","","","","","","","","","","","","","","","","","","","","","","","","","","","","","","","","","","","","","","","","",""
"","localizer","","html-keyboard-response","211","618743","0.0-2.0-63.0-0.0","32","47210","male","NaN","","","","null","NaN","61","","Stimuli/Experimental_stims/localizer/faces/katsiaryna-endruszkiewicz-BteCp6aq4GI-unsplash.jpg","","618335","1","faces","","1","1","0","400","65900","408","67888","","","","","","","","","","","","","","","","","","","","","","","","","","","","","","","","","","","","","","","","","","","","","","","","","","","","",""
"","iti_localizer","","html-keyboard-response","212","619053","0.0-2.0-63.0-1.0","32","47210","male","null","","","","null","","61","","","","618743","1","","","","","","300","66300","310","68296","300","","","","","","","","","","","","","","","","","","","","","","","","","","","","","","","","","","","","","","","","","","","","","","","","","","","",""
"","localizer","","html-keyboard-response","213","619461","0.0-2.0-64.0-0.0","32","47210","male","84","","","","75","1","62","","Stimuli/Experimental_stims/localizer/faces/hassan-khan-EGVccebWodM-unsplash.jpg","","619053","1","faces","","0","0","0","400","66600","408","68606","","","","","","","","","","","","","","","","","","","","","","","","","","","","","","","","","","","","","","","","","","","","","","","","","","","","",""
"","iti_localizer","","html-keyboard-response","214","619773","0.0-2.0-64.0-1.0","32","47210","male","null","","","","null","","62","","","","619461","1","","","","","","300","67000","312","69014","300","","","","","","","","","","","","","","","","","","","","","","","","","","","","","","","","","","","","","","","","","","","","","","","","","","","",""
"","localizer","","html-keyboard-response","215","620188","0.0-2.0-65.0-0.0","32","47210","male","190","","","","68","0","63","","Stimuli/Experimental_stims/localizer/faces/linkedin-sales-solutions-pAtA8xe_iVM-unsplash.jpg","","619773","1","faces","","0","0","1","400","67300","415","69326","","","","","","","","","","","","","","","","","","","","","","","","","","","","","","","","","","","","","","","","","","","","","","","","","","","","",""
"","iti_localizer","","html-keyboard-response","216","620506","0.0-2.0-65.0-1.0","32","47210","male","null","","","","null","","63","","","","620188","1","","","","","","300","67700","318","69741","300","","","","","","","","","","","","","","","","","","","","","","","","","","","","","","","","","","","","","","","","","","","","","","","","","","","",""
"","localizer","","html-keyboard-response","217","620922","0.0-2.0-66.0-0.0","32","47210","male","373","","","","68","0","64","","Stimuli/Experimental_stims/localizer/faces/philip-martin-5aGUyCW_PJw-unsplash.jpg","","620506","1","faces","","0","0","1","400","68000","416","70059","","","","","","","","","","","","","","","","","","","","","","","","","","","","","","","","","","","","","","","","","","","","","","","","","","","","",""
"","iti_localizer","","html-keyboard-response","218","621242","0.0-2.0-66.0-1.0","32","47210","male","null","","","","null","","64","","","","620922","1","","","","","","300","68400","320","70475","300","","","","","","","","","","","","","","","","","","","","","","","","","","","","","","","","","","","","","","","","","","","","","","","","","","","",""
"","localizer","","html-keyboard-response","219","621656","0.0-2.0-67.0-0.0","32","47210","male","NaN","","","","null","NaN","65","","Stimuli/Experimental_stims/localizer/faces/christina-wocintechchat-com-0Zx1bDv5BNY-unsplash.jpg","","621242","1","faces","","0","1","0","400","68700","414","70795","","","","","","","","","","","","","","","","","","","","","","","","","","","","","","","","","","","","","","","","","","","","","","","","","","","","",""
"","iti_localizer","","html-keyboard-response","220","635676","0.0-2.0-67.0-1.0","32","47210","male","null","","","","null","","65","","","","621656","1","","","","","","14000","69100","14020","71209","14000","","","","","","","","","","","","","","","","","","","","","","","","","","","","","","","","","","","","","","","","","","","","","","","","","","","",""
"","localizer","","html-keyboard-response","221","636093","0.0-2.0-68.0-0.0","32","47210","male","NaN","","","","null","NaN","66","","Stimuli/Experimental_stims/localizer/body_parts/bady-abbas-N-VEeMnm7gE-unsplash.jpg","","635676","1","body_parts","","0","1","0","400","83100","417","85229","","","","","","","","","","","","","","","","","","","","","","","","","","","","","","","","","","","","","","","","","","","","","","","","","","","","",""
"","iti_localizer","","html-keyboard-response","222","636407","0.0-2.0-68.0-1.0","32","47210","male","null","","","","null","","66","","","","636093","1","","","","","","300","83500","314","85646","300","","","","","","","","","","","","","","","","","","","","","","","","","","","","","","","","","","","","","","","","","","","","","","","","","","","",""
"","localizer","","html-keyboard-response","223","636836","0.0-2.0-69.0-0.0","32","47210","male","98","","","","68","0","67","","Stimuli/Experimental_stims/localizer/body_parts/hu-chen-tCbTGNwrFNM-unsplash.jpg","","636407","1","body_parts","","0","0","1","400","83800","429","85960","","","","","","","","","","","","","","","","","","","","","","","","","","","","","","","","","","","","","","","","","","","","","","","","","","","","",""
"","iti_localizer","","html-keyboard-response","224","637154","0.0-2.0-69.0-1.0","32","47210","male","null","","","","null","","67","","","","636836","1","","","","","","300","84200","318","86389","300","","","","","","","","","","","","","","","","","","","","","","","","","","","","","","","","","","","","","","","","","","","","","","","","","","","",""
"","localizer","","html-keyboard-response","225","637578","0.0-2.0-70.0-0.0","32","47210","male","NaN","","","","null","NaN","68","","Stimuli/Experimental_stims/localizer/body_parts/toa-heftiba-qxvWnfHb3-M-unsplash.jpg","","637154","1","body_parts","","0","1","0","400","84500","424","86707","","","","","","","","","","","","","","","","","","","","","","","","","","","","","","","","","","","","","","","","","","","","","","","","","","","","",""
"","iti_localizer","","html-keyboard-response","226","637909","0.0-2.0-70.0-1.0","32","47210","male","null","","","","null","","68","","","","637578","1","","","","","","300","84900","331","87131","300","","","","","","","","","","","","","","","","","","","","","","","","","","","","","","","","","","","","","","","","","","","","","","","","","","","",""
"","localizer","","html-keyboard-response","227","638321","0.0-2.0-71.0-0.0","32","47210","male","15","","","","68","0","69","","Stimuli/Experimental_stims/localizer/body_parts/matthew-wheeler-2_UxqsaDMmo-unsplash.jpg","","637909","1","body_parts","","0","0","1","400","85200","412","87462","","","","","","","","","","","","","","","","","","","","","","","","","","","","","","","","","","","","","","","","","","","","","","","","","","","","",""
"","iti_localizer","","html-keyboard-response","228","638636","0.0-2.0-71.0-1.0","32","47210","male","null","","","","null","","69","","","","638321","1","","","","","","300","85600","315","87874","300","","","","","","","","","","","","","","","","","","","","","","","","","","","","","","","","","","","","","","","","","","","","","","","","","","","",""
"","localizer","","html-keyboard-response","229","639049","0.0-2.0-72.0-0.0","32","47210","male","136","","","","68","0","70","","Stimuli/Experimental_stims/localizer/body_parts/billie-5OXE3KjDEfI-unsplash.jpg","","638636","1","body_parts","","0","0","1","400","85900","413","88189","","","","","","","","","","","","","","","","","","","","","","","","","","","","","","","","","","","","","","","","","","","","","","","","","","","","",""
"","iti_localizer","","html-keyboard-response","230","639366","0.0-2.0-72.0-1.0","32","47210","male","null","","","","null","","70","","","","639049","1","","","","","","300","86300","317","88602","300","","","","","","","","","","","","","","","","","","","","","","","","","","","","","","","","","","","","","","","","","","","","","","","","","","","",""
"","localizer","","html-keyboard-response","231","639781","0.0-2.0-73.0-0.0","32","47210","male","215","","","","68","0","71","","Stimuli/Experimental_stims/localizer/body_parts/lilartsy-1KkhQ8uL28g-unsplash.jpg","","639366","1","body_parts","","1","0","0","400","86600","415","88919","","","","","","","","","","","","","","","","","","","","","","","","","","","","","","","","","","","","","","","","","","","","","","","","","","","","",""
"","iti_localizer","","html-keyboard-response","232","640097","0.0-2.0-73.0-1.0","32","47210","male","null","","","","null","","71","","","","639781","1","","","","","","300","87000","316","89334","300","","","","","","","","","","","","","","","","","","","","","","","","","","","","","","","","","","","","","","","","","","","","","","","","","","","",""
"","localizer","","html-keyboard-response","233","640520","0.0-2.0-74.0-0.0","32","47210","male","17","","","","75","1","72","","Stimuli/Experimental_stims/localizer/body_parts/sincerely-media-Q7qRyaurQfo-unsplash.jpg","","640097","1","body_parts","","0","0","0","400","87300","423","89650","","","","","","","","","","","","","","","","","","","","","","","","","","","","","","","","","","","","","","","","","","","","","","","","","","","","",""
"","iti_localizer","","html-keyboard-response","234","640835","0.0-2.0-74.0-1.0","32","47210","male","null","","","","null","","72","","","","640520","1","","","","","","300","87700","315","90073","300","","","","","","","","","","","","","","","","","","","","","","","","","","","","","","","","","","","","","","","","","","","","","","","","","","","",""
"","localizer","","html-keyboard-response","235","641250","0.0-2.0-75.0-0.0","32","47210","male","16","","","","68","0","73","","Stimuli/Experimental_stims/localizer/body_parts/semen-zhuravlev-_XxH_mV8dnk-unsplash (1).jpg","","640835","1","body_parts","","0","0","1","400","88000","415","90388","","","","","","","","","","","","","","","","","","","","","","","","","","","","","","","","","","","","","","","","","","","","","","","","","","","","",""
"","iti_localizer","","html-keyboard-response","236","641562","0.0-2.0-75.0-1.0","32","47210","male","null","","","","null","","73","","","","641250","1","","","","","","300","88400","312","90803","300","","","","","","","","","","","","","","","","","","","","","","","","","","","","","","","","","","","","","","","","","","","","","","","","","","","",""
"","localizer","","html-keyboard-response","237","641978","0.0-2.0-76.0-0.0","32","47210","male","70","","","","68","0","74","","Stimuli/Experimental_stims/localizer/body_parts/sincerely-media-7TBFwUQA6Xk-unsplash.jpg","","641562","1","body_parts","","0","0","1","400","88700","416","91115","","","","","","","","","","","","","","","","","","","","","","","","","","","","","","","","","","","","","","","","","","","","","","","","","","","","",""
"","iti_localizer","","html-keyboard-response","238","642289","0.0-2.0-76.0-1.0","32","47210","male","null","","","","null","","74","","","","641978","1","","","","","","300","89100","311","91531","300","","","","","","","","","","","","","","","","","","","","","","","","","","","","","","","","","","","","","","","","","","","","","","","","","","","",""
"","localizer","","html-keyboard-response","239","642702","0.0-2.0-77.0-0.0","32","47210","male","312","","","","68","0","75","","Stimuli/Experimental_stims/localizer/body_parts/liv-bruce-M0oVPGsWk1E-unsplash.jpg","","642289","1","body_parts","","0","0","1","400","89400","413","91842","","","","","","","","","","","","","","","","","","","","","","","","","","","","","","","","","","","","","","","","","","","","","","","","","","","","",""
"","iti_localizer","","html-keyboard-response","240","643016","0.0-2.0-77.0-1.0","32","47210","male","null","","","","null","","75","","","","642702","1","","","","","","300","89800","314","92255","300","","","","","","","","","","","","","","","","","","","","","","","","","","","","","","","","","","","","","","","","","","","","","","","","","","","",""
"","localizer","","html-keyboard-response","241","643430","0.0-2.0-78.0-0.0","32","47210","male","NaN","","","","null","NaN","76","","Stimuli/Experimental_stims/localizer/body_parts/louis-hansel-FjKTMRTQYAs-unsplash.jpg","","643016","1","body_parts","","0","1","0","400","90100","414","92569","","","","","","","","","","","","","","","","","","","","","","","","","","","","","","","","","","","","","","","","","","","","","","","","","","","","",""
"","iti_localizer","","html-keyboard-response","242","643737","0.0-2.0-78.0-1.0","32","47210","male","null","","","","null","","76","","","","643430","1","","","","","","300","90500","307","92983","300","","","","","","","","","","","","","","","","","","","","","","","","","","","","","","","","","","","","","","","","","","","","","","","","","","","",""
"","localizer","","html-keyboard-response","243","644157","0.0-2.0-79.0-0.0","32","47210","male","NaN","","","","null","NaN","77","","Stimuli/Experimental_stims/localizer/body_parts/lucaxx-freire-CacZwMexYdk-unsplash.jpg","","643737","1","body_parts","","0","1","0","400","90800","420","93290","","","","","","","","","","","","","","","","","","","","","","","","","","","","","","","","","","","","","","","","","","","","","","","","","","","","",""
"","iti_localizer","","html-keyboard-response","244","644472","0.0-2.0-79.0-1.0","32","47210","male","null","","","","null","","77","","","","644157","1","","","","","","300","91200","315","93710","300","","","","","","","","","","","","","","","","","","","","","","","","","","","","","","","","","","","","","","","","","","","","","","","","","","","",""
"","localizer","","html-keyboard-response","245","644898","0.0-2.0-80.0-0.0","32","47210","male","145","","","","68","0","78","","Stimuli/Experimental_stims/localizer/body_parts/sippakorn-yamkasikorn-32_sJlJa5gA-unsplash.jpg","","644472","1","body_parts","","0","0","1","400","91500","426","94025","","","","","","","","","","","","","","","","","","","","","","","","","","","","","","","","","","","","","","","","","","","","","","","","","","","","",""
"","iti_localizer","","html-keyboard-response","246","645215","0.0-2.0-80.0-1.0","32","47210","male","null","","","","null","","78","","","","644898","1","","","","","","300","91900","317","94451","300","","","","","","","","","","","","","","","","","","","","","","","","","","","","","","","","","","","","","","","","","","","","","","","","","","","",""
"","localizer","","html-keyboard-response","247","645630","0.0-2.0-81.0-0.0","32","47210","male","208","","","","68","0","79","","Stimuli/Experimental_stims/localizer/body_parts/charles-etoroma-1fo0biloDOc-unsplash.jpg","","645215","1","body_parts","","0","0","1","400","92200","415","94768","","","","","","","","","","","","","","","","","","","","","","","","","","","","","","","","","","","","","","","","","","","","","","","","","","","","",""
