"success","ttype","start_time","trial_type","trial_index","time_elapsed","internal_node_id","age","PID","gender","rt","responses","view_history","repeat_instructions","key_press","response","index","stimulus_index","path","start_time_elapsed","run","task","isi","is_odd_ball","no_response","acc","duration","onset","duration_time_elapsed","onset_time_elapsed","trial_duration","left_chosen","chosen_stimulus","unchosen_stimulus","chosen_category","unchosen_category","chosen_rating","unchosen_rating","chosen_path","unchosen_path","pair_id","practice","scramble_screen_time","scramble_instructed_side","stim_type","iti","block","left_stimulus","right_stimulus","left_category","right_category","left_path","right_path","left_rating","right_rating","scramble_acc","warning","missed_checkup","stimulus_id","item_id","outcome","response_rt","deliberation_reward_tally","choice_type","gain_left","left_item_id","right_item_id","higher_outcome_chosen","chosen_left","old_pair","pair_type","old_response","pair_acc","reward_type","outcome_response","outcome_rt","outcome_acc","category","choice","deliberated_stim","old_rating","new_rating","total_reward_tally"
"true","full_screen","d08172023hr1500","fullscreen","0","21713","0.0-0.0-0.0","29","15966","female","","","","","","","","","","","","","","","","","","","","","","","","","","","","","","","","","","","","","","","","","","","","","","","","","","","","","","","","","","","","","","","","","","","","","","","","",""
"","get_id","","survey-text","1","34016","0.0-0.0-1.0","29","15966","female","12299","{""Q0"":""29"",""Q1"":""female""}","","","","","","","","","","","","","","","","","","","","","","","","","","","","","","","","","","","","","","","","","","","","","","","","","","","","","","","","","","","","","","","","","","","","","","",""
"","ratings_instructions","","instructions","2","47829","0.0-1.0-0.0-0.0","29","15966","female","13068","","[{""page_index"":0,""viewing_time"":7218},{""page_index"":1,""viewing_time"":2660},{""page_index"":0,""viewing_time"":2268},{""page_index"":1,""viewing_time"":921}]","","","","","","","","","","","","","","","","","","","","","","","","","","","","","","","","","","","","","","","","","","","","","","","","","","","","","","","","","","","","","","","","","","","","","",""
"","rating_comprehension_check","","survey-multi-choice","3","53791","0.0-1.0-0.0-1.0","29","15966","female","5958","{""Q0"":""True"",""Q1"":""Mouse""}","","0","","","","","","","","","","","","","","","","","","","","","","","","","","","","","","","","","","","","","","","","","","","","","","","","","","","","","","","","","","","","","","","","","","","","",""
"","","","html-keyboard-response","4","55651","0.0-1.0-1.0","29","15966","female","1853","","","","68","","","","","","","","","","","","","","","","","","","","","","","","","","","","","","","","","","","","","","","","","","","","","","","","","","","","","","","","","","","","","","","","","","","",""
"","rating","","html-slider-response","5","58764","0.0-1.0-2.0","29","15966","female","3109","","","","","79","0","11","Stimuli/Experimental_stims/outdoor_scenes/stephen-leonardi-gyIRjKPXupE-unsplash.jpg","","","","","","","","","","","","","","","","","","","","","","","","","","","","","","","","","","","","","","","","","","","","","","","","","","","","","","","","","","","","","","","",""
"","rating","","html-slider-response","6","61768","0.0-1.0-3.0","29","15966","female","2999","","","","","47","1","37","Stimuli/Experimental_stims/objects/alexander-andrews-VLGWE_SumrA-unsplash.jpg","","","","","","","","","","","","","","","","","","","","","","","","","","","","","","","","","","","","","","","","","","","","","","","","","","","","","","","","","","","","","","","",""
"","rating","","html-slider-response","7","65028","0.0-1.0-4.0","29","15966","female","3256","","","","","36","2","43","Stimuli/Experimental_stims/objects/jonathan-greenaway-Y4hGgeiFn3s-unsplash.jpg","","","","","","","","","","","","","","","","","","","","","","","","","","","","","","","","","","","","","","","","","","","","","","","","","","","","","","","","","","","","","","","",""
"","rating","","html-slider-response","8","67697","0.0-1.0-5.0","29","15966","female","2664","","","","","32","3","45","Stimuli/Experimental_stims/objects/leohoho-rngTKHXumy0-unsplash.jpg","","","","","","","","","","","","","","","","","","","","","","","","","","","","","","","","","","","","","","","","","","","","","","","","","","","","","","","","","","","","","","","",""
"","rating","","html-slider-response","9","70363","0.0-1.0-6.0","29","15966","female","2662","","","","","69","4","1","Stimuli/Experimental_stims/outdoor_scenes/ashim-d-silva-S2Q5mdOrrVc-unsplash.jpg","","","","","","","","","","","","","","","","","","","","","","","","","","","","","","","","","","","","","","","","","","","","","","","","","","","","","","","","","","","","","","","",""
"","rating","","html-slider-response","10","74074","0.0-1.0-7.0","29","15966","female","3707","","","","","76","5","4","Stimuli/Experimental_stims/outdoor_scenes/jarrett-kow-1ZOyYPOBn7I-unsplash.jpg","","","","","","","","","","","","","","","","","","","","","","","","","","","","","","","","","","","","","","","","","","","","","","","","","","","","","","","","","","","","","","","",""
"","rating","","html-slider-response","11","77071","0.0-1.0-8.0","29","15966","female","2993","","","","","50","6","35","Stimuli/Experimental_stims/body_parts/wc-so-KH4AAPjb-tI-unsplash.jpg","","","","","","","","","","","","","","","","","","","","","","","","","","","","","","","","","","","","","","","","","","","","","","","","","","","","","","","","","","","","","","","",""
"","rating","","html-slider-response","12","79783","0.0-1.0-9.0","29","15966","female","2708","","","","","55","7","24","Stimuli/Experimental_stims/body_parts/clay-banks-LjqARJaJotc-unsplash.jpg","","","","","","","","","","","","","","","","","","","","","","","","","","","","","","","","","","","","","","","","","","","","","","","","","","","","","","","","","","","","","","","",""
"","rating","","html-slider-response","13","82533","0.0-1.0-10.0","29","15966","female","2745","","","","","73","8","6","Stimuli/Experimental_stims/outdoor_scenes/meng-ji-8BH_M-53CyA-unsplash.jpg","","","","","","","","","","","","","","","","","","","","","","","","","","","","","","","","","","","","","","","","","","","","","","","","","","","","","","","","","","","","","","","",""
"","rating","","html-slider-response","14","85561","0.0-1.0-11.0","29","15966","female","3024","","","","","45","9","3","Stimuli/Experimental_stims/outdoor_scenes/henry-be-NLF6hTe4PAg-unsplash.jpg","","","","","","","","","","","","","","","","","","","","","","","","","","","","","","","","","","","","","","","","","","","","","","","","","","","","","","","","","","","","","","","",""
"","rating","","html-slider-response","15","88240","0.0-1.0-12.0","29","15966","female","2676","","","","","64","10","5","Stimuli/Experimental_stims/outdoor_scenes/jeff-king-bJHWJeiHfHc-unsplash.jpg","","","","","","","","","","","","","","","","","","","","","","","","","","","","","","","","","","","","","","","","","","","","","","","","","","","","","","","","","","","","","","","",""
"","rating","","html-slider-response","16","91196","0.0-1.0-13.0","29","15966","female","2951","","","","","50","11","25","Stimuli/Experimental_stims/body_parts/engin-akyurt-Q2rfH3GW39c-unsplash.jpg","","","","","","","","","","","","","","","","","","","","","","","","","","","","","","","","","","","","","","","","","","","","","","","","","","","","","","","","","","","","","","","",""
"","rating","","html-slider-response","17","94353","0.0-1.0-14.0","29","15966","female","3152","","","","","54","12","21","Stimuli/Experimental_stims/faces/leilani-angel-K84vnnzxmTQ-unsplash.jpg","","","","","","","","","","","","","","","","","","","","","","","","","","","","","","","","","","","","","","","","","","","","","","","","","","","","","","","","","","","","","","","",""
"","rating","","html-slider-response","18","97537","0.0-1.0-15.0","29","15966","female","3180","","","","","42","13","40","Stimuli/Experimental_stims/objects/fabian-blank-pElSkGRA2NU-unsplash.jpg","","","","","","","","","","","","","","","","","","","","","","","","","","","","","","","","","","","","","","","","","","","","","","","","","","","","","","","","","","","","","","","",""
"","rating","","html-slider-response","19","99817","0.0-1.0-16.0","29","15966","female","2275","","","","","62","14","46","Stimuli/Experimental_stims/objects/mockup-graphics-PNsj6RiHAF4-unsplash.jpg","","","","","","","","","","","","","","","","","","","","","","","","","","","","","","","","","","","","","","","","","","","","","","","","","","","","","","","","","","","","","","","",""
"","rating","","html-slider-response","20","102821","0.0-1.0-17.0","29","15966","female","3000","","","","","48","15","34","Stimuli/Experimental_stims/body_parts/wagner-santos-mBWMvIuVnso-unsplash.jpg","","","","","","","","","","","","","","","","","","","","","","","","","","","","","","","","","","","","","","","","","","","","","","","","","","","","","","","","","","","","","","","",""
"","rating","","html-slider-response","21","105621","0.0-1.0-18.0","29","15966","female","2795","","","","","46","16","32","Stimuli/Experimental_stims/body_parts/towfiqu-barbhuiya-3AsiVDsZnHg-unsplash.jpg","","","","","","","","","","","","","","","","","","","","","","","","","","","","","","","","","","","","","","","","","","","","","","","","","","","","","","","","","","","","","","","",""
"","rating","","html-slider-response","22","109735","0.0-1.0-19.0","29","15966","female","4109","","","","","45","17","18","Stimuli/Experimental_stims/faces/jessica-radanavong-mrYkTuAesKE-unsplash.jpg","","","","","","","","","","","","","","","","","","","","","","","","","","","","","","","","","","","","","","","","","","","","","","","","","","","","","","","","","","","","","","","",""
"","rating","","html-slider-response","23","112575","0.0-1.0-20.0","29","15966","female","2836","","","","","50","18","22","Stimuli/Experimental_stims/faces/ravi-patel-VMGAbeeJTKo-unsplash.jpg","","","","","","","","","","","","","","","","","","","","","","","","","","","","","","","","","","","","","","","","","","","","","","","","","","","","","","","","","","","","","","","",""
"","rating","","html-slider-response","24","115622","0.0-1.0-21.0","29","15966","female","3043","","","","","61","19","33","Stimuli/Experimental_stims/body_parts/tucker-good-36skLT5jZcc-unsplash.jpg","","","","","","","","","","","","","","","","","","","","","","","","","","","","","","","","","","","","","","","","","","","","","","","","","","","","","","","","","","","","","","","",""
"","rating","","html-slider-response","25","120769","0.0-1.0-22.0","29","15966","female","5142","","","","","60","20","47","Stimuli/Experimental_stims/objects/ronaldo-arthur-vidal-Cdz_lvnl37k-unsplash.jpg","","","","","","","","","","","","","","","","","","","","","","","","","","","","","","","","","","","","","","","","","","","","","","","","","","","","","","","","","","","","","","","",""
"","rating","","html-slider-response","26","124173","0.0-1.0-23.0","29","15966","female","3399","","","","","50","21","20","Stimuli/Experimental_stims/faces/justin-chen-J7Cf1Gch49E-unsplash.jpg","","","","","","","","","","","","","","","","","","","","","","","","","","","","","","","","","","","","","","","","","","","","","","","","","","","","","","","","","","","","","","","",""
"","rating","","html-slider-response","27","128886","0.0-1.0-24.0","29","15966","female","4708","","","","","61","22","19","Stimuli/Experimental_stims/faces/joel-mott-LaK153ghdig-unsplash.jpg","","","","","","","","","","","","","","","","","","","","","","","","","","","","","","","","","","","","","","","","","","","","","","","","","","","","","","","","","","","","","","","",""
"","rating","","html-slider-response","28","133896","0.0-1.0-25.0","29","15966","female","5006","","","","","45","23","42","Stimuli/Experimental_stims/objects/jess-bailey-nOeVi8DsN8U-unsplash.jpg","","","","","","","","","","","","","","","","","","","","","","","","","","","","","","","","","","","","","","","","","","","","","","","","","","","","","","","","","","","","","","","",""
"","rating","","html-slider-response","29","138396","0.0-1.0-26.0","29","15966","female","4496","","","","","57","24","26","Stimuli/Experimental_stims/body_parts/engin-akyurt-x_3gyC42btc-unsplash.jpg","","","","","","","","","","","","","","","","","","","","","","","","","","","","","","","","","","","","","","","","","","","","","","","","","","","","","","","","","","","","","","","",""
"","rating","","html-slider-response","30","141774","0.0-1.0-27.0","29","15966","female","3373","","","","","47","25","36","Stimuli/Experimental_stims/objects/alexander-andrews-JYGnB9gTCls-unsplash.jpg","","","","","","","","","","","","","","","","","","","","","","","","","","","","","","","","","","","","","","","","","","","","","","","","","","","","","","","","","","","","","","","",""
"","rating","","html-slider-response","31","146359","0.0-1.0-28.0","29","15966","female","4580","","","","","50","26","41","Stimuli/Experimental_stims/objects/insung-yoon-w2JtIQQXoRU-unsplash.jpg","","","","","","","","","","","","","","","","","","","","","","","","","","","","","","","","","","","","","","","","","","","","","","","","","","","","","","","","","","","","","","","",""
"","rating","","html-slider-response","32","156225","0.0-1.0-29.0","29","15966","female","9861","","","","","57","27","0","Stimuli/Experimental_stims/outdoor_scenes/aleksandra-boguslawska-MS7KD9Ti7FQ-unsplash.jpg","","","","","","","","","","","","","","","","","","","","","","","","","","","","","","","","","","","","","","","","","","","","","","","","","","","","","","","","","","","","","","","",""
"","rating","","html-slider-response","33","161819","0.0-1.0-30.0","29","15966","female","5589","","","","","58","28","29","Stimuli/Experimental_stims/body_parts/manuel-schinner-ZwjFuJ7ebpk-unsplash.jpg","","","","","","","","","","","","","","","","","","","","","","","","","","","","","","","","","","","","","","","","","","","","","","","","","","","","","","","","","","","","","","","",""
"","rating","","html-slider-response","34","164550","0.0-1.0-31.0","29","15966","female","2727","","","","","59","29","39","Stimuli/Experimental_stims/objects/charlesdeluvio-1-nx1QR5dTE-unsplash.jpg","","","","","","","","","","","","","","","","","","","","","","","","","","","","","","","","","","","","","","","","","","","","","","","","","","","","","","","","","","","","","","","",""
"","rating","","html-slider-response","35","172607","0.0-1.0-32.0","29","15966","female","8053","","","","","56","30","27","Stimuli/Experimental_stims/body_parts/heike-mintel-i_Gns0ELnLw-unsplash.jpg","","","","","","","","","","","","","","","","","","","","","","","","","","","","","","","","","","","","","","","","","","","","","","","","","","","","","","","","","","","","","","","",""
"","rating","","html-slider-response","36","177470","0.0-1.0-33.0","29","15966","female","4858","","","","","59","31","16","Stimuli/Experimental_stims/faces/freddy-kearney-o-ioeoATbIM-unsplash.jpg","","","","","","","","","","","","","","","","","","","","","","","","","","","","","","","","","","","","","","","","","","","","","","","","","","","","","","","","","","","","","","","",""
"","rating","","html-slider-response","37","183482","0.0-1.0-34.0","29","15966","female","6007","","","","","72","32","8","Stimuli/Experimental_stims/outdoor_scenes/samsommer-vddccTqwal8-unsplash.jpg","","","","","","","","","","","","","","","","","","","","","","","","","","","","","","","","","","","","","","","","","","","","","","","","","","","","","","","","","","","","","","","",""
"","rating","","html-slider-response","38","187936","0.0-1.0-35.0","29","15966","female","4449","","","","","67","33","38","Stimuli/Experimental_stims/objects/art-lasovsky-8XddFc6NkBY-unsplash.jpg","","","","","","","","","","","","","","","","","","","","","","","","","","","","","","","","","","","","","","","","","","","","","","","","","","","","","","","","","","","","","","","",""
"","rating","","html-slider-response","39","195484","0.0-1.0-36.0","29","15966","female","7544","","","","","62","34","30","Stimuli/Experimental_stims/body_parts/mika-korhonen-Xodzxosar18-unsplash.jpg","","","","","","","","","","","","","","","","","","","","","","","","","","","","","","","","","","","","","","","","","","","","","","","","","","","","","","","","","","","","","","","",""
"","rating","","html-slider-response","40","201396","0.0-1.0-37.0","29","15966","female","5908","","","","","81","35","23","Stimuli/Experimental_stims/faces/rikonavt-HQjfrvdTfak-unsplash.jpg","","","","","","","","","","","","","","","","","","","","","","","","","","","","","","","","","","","","","","","","","","","","","","","","","","","","","","","","","","","","","","","",""
"","rating","","html-slider-response","41","207577","0.0-1.0-38.0","29","15966","female","6177","","","","","86","36","10","Stimuli/Experimental_stims/outdoor_scenes/shannon-kunkle-dM8INmkyDas-unsplash.jpg","","","","","","","","","","","","","","","","","","","","","","","","","","","","","","","","","","","","","","","","","","","","","","","","","","","","","","","","","","","","","","","",""
"","rating","","html-slider-response","42","212498","0.0-1.0-39.0","29","15966","female","4917","","","","","46","37","12","Stimuli/Experimental_stims/faces/aiony-haust-jmATI5Q_YgY-unsplash.jpg","","","","","","","","","","","","","","","","","","","","","","","","","","","","","","","","","","","","","","","","","","","","","","","","","","","","","","","","","","","","","","","",""
"","rating","","html-slider-response","43","215227","0.0-1.0-40.0","29","15966","female","2725","","","","","54","38","31","Stimuli/Experimental_stims/body_parts/sincerely-media-VN6DbKajo5s-unsplash.jpg","","","","","","","","","","","","","","","","","","","","","","","","","","","","","","","","","","","","","","","","","","","","","","","","","","","","","","","","","","","","","","","",""
"","rating","","html-slider-response","44","217681","0.0-1.0-41.0","29","15966","female","2449","","","","","78","39","7","Stimuli/Experimental_stims/outdoor_scenes/petr-vysohlid-9fqwGqGLUxc-unsplash.jpg","","","","","","","","","","","","","","","","","","","","","","","","","","","","","","","","","","","","","","","","","","","","","","","","","","","","","","","","","","","","","","","",""
"","rating","","html-slider-response","45","220211","0.0-1.0-42.0","29","15966","female","2526","","","","","59","40","15","Stimuli/Experimental_stims/faces/erik-lucatero-d2MSDujJl2g-unsplash.jpg","","","","","","","","","","","","","","","","","","","","","","","","","","","","","","","","","","","","","","","","","","","","","","","","","","","","","","","","","","","","","","","",""
"","rating","","html-slider-response","46","223147","0.0-1.0-43.0","29","15966","female","2932","","","","","73","41","28","Stimuli/Experimental_stims/body_parts/ira-vishnevskaya-8DQAvdCby1I-unsplash.jpg","","","","","","","","","","","","","","","","","","","","","","","","","","","","","","","","","","","","","","","","","","","","","","","","","","","","","","","","","","","","","","","",""
"","rating","","html-slider-response","47","225838","0.0-1.0-44.0","29","15966","female","2686","","","","","82","42","9","Stimuli/Experimental_stims/outdoor_scenes/sergey-pesterev-y-b_FOmJXdg-unsplash.jpg","","","","","","","","","","","","","","","","","","","","","","","","","","","","","","","","","","","","","","","","","","","","","","","","","","","","","","","","","","","","","","","",""
"","rating","","html-slider-response","48","228595","0.0-1.0-45.0","29","15966","female","2753","","","","","92","43","2","Stimuli/Experimental_stims/outdoor_scenes/bruno-van-der-kraan-qez8mNJ3ilU-unsplash.jpg","","","","","","","","","","","","","","","","","","","","","","","","","","","","","","","","","","","","","","","","","","","","","","","","","","","","","","","","","","","","","","","",""
"","rating","","html-slider-response","49","231191","0.0-1.0-46.0","29","15966","female","2592","","","","","87","44","17","Stimuli/Experimental_stims/faces/good-faces-xmSWVeGEnJw-unsplash.jpg","","","","","","","","","","","","","","","","","","","","","","","","","","","","","","","","","","","","","","","","","","","","","","","","","","","","","","","","","","","","","","","",""
"","rating","","html-slider-response","50","234219","0.0-1.0-47.0","29","15966","female","3023","","","","","46","45","44","Stimuli/Experimental_stims/objects/kuiye-chen-NuOGFo4PudE-unsplash.jpg","","","","","","","","","","","","","","","","","","","","","","","","","","","","","","","","","","","","","","","","","","","","","","","","","","","","","","","","","","","","","","","",""
"","rating","","html-slider-response","51","236619","0.0-1.0-48.0","29","15966","female","2396","","","","","61","46","13","Stimuli/Experimental_stims/faces/daniel-rigdon-dXmXKPP2L4E-unsplash.jpg","","","","","","","","","","","","","","","","","","","","","","","","","","","","","","","","","","","","","","","","","","","","","","","","","","","","","","","","","","","","","","","",""
"","rating","","html-slider-response","52","238858","0.0-1.0-49.0","29","15966","female","2234","","","","","80","47","14","Stimuli/Experimental_stims/faces/david-siglin-UuW4psOb388-unsplash.jpg","","","","","","","","","","","","","","","","","","","","","","","","","","","","","","","","","","","","","","","","","","","","","","","","","","","","","","","","","","","","","","","",""
"","localizer_instructions","","instructions","53","263177","0.0-2.0-0.0-0.0","29","15966","female","24281","","[{""page_index"":0,""viewing_time"":17453},{""page_index"":1,""viewing_time"":5289},{""page_index"":2,""viewing_time"":1539}]","","","","","","","","","","","","","","","","","","","","","","","","","","","","","","","","","","","","","","","","","","","","","","","","","","","","","","","","","","","","","","","","","","","","","",""
"","localizer_comprehension_check","","survey-multi-choice","54","271628","0.0-2.0-0.0-1.0","29","15966","female","8446","{""Q0"":""True"",""Q1"":""K"",""Q2"":""D""}","","0","","","","","","","","","","","","","","","","","","","","","","","","","","","","","","","","","","","","","","","","","","","","","","","","","","","","","","","","","","","","","","","","","","","","",""
"","","","html-keyboard-response","55","277177","0.0-2.0-1.0","29","15966","female","5544","","","","68","","","","","","","","","","","","","","","","","","","","","","","","","","","","","","","","","","","","","","","","","","","","","","","","","","","","","","","","","","","","","","","","","","","",""
"","localizer","","html-keyboard-response","56","277590","0.0-2.0-2.0-0.0","29","15966","female","NaN","","","","null","NaN","0","","Stimuli/Practice_stims/Localizer/annie-spratt-g9KFpAfQ5bc-unsplash.jpg","277177","0","NaN","","0","1","0","400","0","413","0","","","","","","","","","","","","","","","","","","","","","","","","","","","","","","","","","","","","","","","","","","","","","","","","","","","","",""
"","iti_localizer","","html-keyboard-response","57","277902","0.0-2.0-2.0-1.0","29","15966","female","null","","","","null","","0","","","277590","0","","","","","","300","400","312","413","300","","","","","","","","","","","","","","","","","","","","","","","","","","","","","","","","","","","","","","","","","","","","","","","","","","","",""
"","localizer","","html-keyboard-response","58","278310","0.0-2.0-2.1-0.1","29","15966","female","NaN","","","","null","NaN","0","","Stimuli/Practice_stims/Localizer/annie-spratt-g9KFpAfQ5bc-unsplash.jpg","277902","0","NaN","","0","1","0","400","700","408","725","","","","","","","","","","","","","","","","","","","","","","","","","","","","","","","","","","","","","","","","","","","","","","","","","","","","",""
"","iti_localizer","","html-keyboard-response","59","278621","0.0-2.0-2.1-1.1","29","15966","female","null","","","","null","","0","","","278310","0","","","","","","300","1100","311","1133","300","","","","","","","","","","","","","","","","","","","","","","","","","","","","","","","","","","","","","","","","","","","","","","","","","","","",""
"","localizer","","html-keyboard-response","60","279030","0.0-2.0-2.2-0.2","29","15966","female","77","","","","68","0","0","","Stimuli/Practice_stims/Localizer/annie-spratt-g9KFpAfQ5bc-unsplash.jpg","278621","0","NaN","","0","0","1","400","1400","409","1444","","","","","","","","","","","","","","","","","","","","","","","","","","","","","","","","","","","","","","","","","","","","","","","","","","","","",""
"","iti_localizer","","html-keyboard-response","61","279341","0.0-2.0-2.2-1.2","29","15966","female","null","","","","null","","0","","","279030","0","","","","","","300","1800","311","1853","300","","","","","","","","","","","","","","","","","","","","","","","","","","","","","","","","","","","","","","","","","","","","","","","","","","","",""
"","localizer","","html-keyboard-response","62","279750","0.0-2.0-3.0-0.0","29","15966","female","NaN","","","","null","NaN","1","","Stimuli/Practice_stims/Localizer/becca-tapert-sY5RjMB1KkE-unsplash.jpg","279341","0","NaN","","0","1","0","400","2100","409","2164","","","","","","","","","","","","","","","","","","","","","","","","","","","","","","","","","","","","","","","","","","","","","","","","","","","","",""
"","iti_localizer","","html-keyboard-response","63","280061","0.0-2.0-3.0-1.0","29","15966","female","null","","","","null","","1","","","279750","0","","","","","","300","2500","311","2573","300","","","","","","","","","","","","","","","","","","","","","","","","","","","","","","","","","","","","","","","","","","","","","","","","","","","",""
"","localizer","","html-keyboard-response","64","280469","0.0-2.0-3.1-0.1","29","15966","female","124","","","","68","0","1","","Stimuli/Practice_stims/Localizer/becca-tapert-sY5RjMB1KkE-unsplash.jpg","280061","0","NaN","","0","0","1","400","2800","408","2884","","","","","","","","","","","","","","","","","","","","","","","","","","","","","","","","","","","","","","","","","","","","","","","","","","","","",""
"","iti_localizer","","html-keyboard-response","65","280782","0.0-2.0-3.1-1.1","29","15966","female","null","","","","null","","1","","","280469","0","","","","","","300","3200","313","3292","300","","","","","","","","","","","","","","","","","","","","","","","","","","","","","","","","","","","","","","","","","","","","","","","","","","","",""
"","localizer","","html-keyboard-response","66","281189","0.0-2.0-4.0-0.0","29","15966","female","NaN","","","","null","NaN","2","","Stimuli/Practice_stims/Localizer/charl-durand-bsfXvI25iNg-unsplash.jpg","280782","0","NaN","","1","1","0","400","3500","407","3605","","","","","","","","","","","","","","","","","","","","","","","","","","","","","","","","","","","","","","","","","","","","","","","","","","","","",""
"","iti_localizer","","html-keyboard-response","67","281501","0.0-2.0-4.0-1.0","29","15966","female","null","","","","null","","2","","","281189","0","","","","","","300","3900","312","4012","300","","","","","","","","","","","","","","","","","","","","","","","","","","","","","","","","","","","","","","","","","","","","","","","","","","","",""
"","localizer","","html-keyboard-response","68","281910","0.0-2.0-4.1-0.1","29","15966","female","8","","","","75","1","2","","Stimuli/Practice_stims/Localizer/charl-durand-bsfXvI25iNg-unsplash.jpg","281501","0","NaN","","1","0","1","400","4200","409","4324","","","","","","","","","","","","","","","","","","","","","","","","","","","","","","","","","","","","","","","","","","","","","","","","","","","","",""
"","iti_localizer","","html-keyboard-response","69","282221","0.0-2.0-4.1-1.1","29","15966","female","null","","","","null","","2","","","281910","0","","","","","","300","4600","311","4733","300","","","","","","","","","","","","","","","","","","","","","","","","","","","","","","","","","","","","","","","","","","","","","","","","","","","",""
"","localizer","","html-keyboard-response","70","282630","0.0-2.0-5.0-0.0","29","15966","female","NaN","","","","null","NaN","3","","Stimuli/Practice_stims/Localizer/nizar-albusaidy-B2r2SWAf5CE-unsplash.jpg","282221","0","NaN","","0","1","0","400","4900","409","5044","","","","","","","","","","","","","","","","","","","","","","","","","","","","","","","","","","","","","","","","","","","","","","","","","","","","",""
"","iti_localizer","","html-keyboard-response","71","282941","0.0-2.0-5.0-1.0","29","15966","female","null","","","","null","","3","","","282630","0","","","","","","300","5300","311","5453","300","","","","","","","","","","","","","","","","","","","","","","","","","","","","","","","","","","","","","","","","","","","","","","","","","","","",""
"","localizer","","html-keyboard-response","72","283351","0.0-2.0-5.1-0.1","29","15966","female","NaN","","","","null","NaN","3","","Stimuli/Practice_stims/Localizer/nizar-albusaidy-B2r2SWAf5CE-unsplash.jpg","282941","0","NaN","","0","1","0","400","5600","410","5764","","","","","","","","","","","","","","","","","","","","","","","","","","","","","","","","","","","","","","","","","","","","","","","","","","","","",""
"","iti_localizer","","html-keyboard-response","73","283662","0.0-2.0-5.1-1.1","29","15966","female","null","","","","null","","3","","","283351","0","","","","","","300","6000","311","6174","300","","","","","","","","","","","","","","","","","","","","","","","","","","","","","","","","","","","","","","","","","","","","","","","","","","","",""
"","localizer","","html-keyboard-response","74","284067","0.0-2.0-5.2-0.2","29","15966","female","NaN","","","","null","NaN","3","","Stimuli/Practice_stims/Localizer/nizar-albusaidy-B2r2SWAf5CE-unsplash.jpg","283662","0","NaN","","0","1","0","400","6300","405","6485","","","","","","","","","","","","","","","","","","","","","","","","","","","","","","","","","","","","","","","","","","","","","","","","","","","","",""
"","iti_localizer","","html-keyboard-response","75","284372","0.0-2.0-5.2-1.2","29","15966","female","null","","","","null","","3","","","284067","0","","","","","","300","6700","305","6890","300","","","","","","","","","","","","","","","","","","","","","","","","","","","","","","","","","","","","","","","","","","","","","","","","","","","",""
"","localizer","","html-keyboard-response","76","284781","0.0-2.0-5.3-0.3","29","15966","female","NaN","","","","null","NaN","3","","Stimuli/Practice_stims/Localizer/nizar-albusaidy-B2r2SWAf5CE-unsplash.jpg","284372","0","NaN","","0","1","0","400","7000","409","7195","","","","","","","","","","","","","","","","","","","","","","","","","","","","","","","","","","","","","","","","","","","","","","","","","","","","",""
"","iti_localizer","","html-keyboard-response","77","285093","0.0-2.0-5.3-1.3","29","15966","female","null","","","","null","","3","","","284781","0","","","","","","300","7400","312","7604","300","","","","","","","","","","","","","","","","","","","","","","","","","","","","","","","","","","","","","","","","","","","","","","","","","","","",""
"","localizer","","html-keyboard-response","78","285500","0.0-2.0-5.4-0.4","29","15966","female","NaN","","","","null","NaN","3","","Stimuli/Practice_stims/Localizer/nizar-albusaidy-B2r2SWAf5CE-unsplash.jpg","285093","0","NaN","","0","1","0","400","7700","407","7916","","","","","","","","","","","","","","","","","","","","","","","","","","","","","","","","","","","","","","","","","","","","","","","","","","","","",""
"","iti_localizer","","html-keyboard-response","79","285805","0.0-2.0-5.4-1.4","29","15966","female","null","","","","null","","3","","","285500","0","","","","","","300","8100","305","8323","300","","","","","","","","","","","","","","","","","","","","","","","","","","","","","","","","","","","","","","","","","","","","","","","","","","","",""
"","localizer","","html-keyboard-response","80","286214","0.0-2.0-5.5-0.5","29","15966","female","NaN","","","","null","NaN","3","","Stimuli/Practice_stims/Localizer/nizar-albusaidy-B2r2SWAf5CE-unsplash.jpg","285805","0","NaN","","0","1","0","400","8400","409","8628","","","","","","","","","","","","","","","","","","","","","","","","","","","","","","","","","","","","","","","","","","","","","","","","","","","","",""
"","iti_localizer","","html-keyboard-response","81","286522","0.0-2.0-5.5-1.5","29","15966","female","null","","","","null","","3","","","286214","0","","","","","","300","8800","308","9037","300","","","","","","","","","","","","","","","","","","","","","","","","","","","","","","","","","","","","","","","","","","","","","","","","","","","",""
"","localizer","","html-keyboard-response","82","286933","0.0-2.0-5.6-0.6","29","15966","female","NaN","","","","null","NaN","3","","Stimuli/Practice_stims/Localizer/nizar-albusaidy-B2r2SWAf5CE-unsplash.jpg","286522","0","NaN","","0","1","0","400","9100","411","9345","","","","","","","","","","","","","","","","","","","","","","","","","","","","","","","","","","","","","","","","","","","","","","","","","","","","",""
"","iti_localizer","","html-keyboard-response","83","287245","0.0-2.0-5.6-1.6","29","15966","female","null","","","","null","","3","","","286933","0","","","","","","300","9500","312","9756","300","","","","","","","","","","","","","","","","","","","","","","","","","","","","","","","","","","","","","","","","","","","","","","","","","","","",""
"","localizer","","html-keyboard-response","84","287654","0.0-2.0-5.7-0.7","29","15966","female","NaN","","","","null","NaN","3","","Stimuli/Practice_stims/Localizer/nizar-albusaidy-B2r2SWAf5CE-unsplash.jpg","287245","0","NaN","","0","1","0","400","9800","409","10068","","","","","","","","","","","","","","","","","","","","","","","","","","","","","","","","","","","","","","","","","","","","","","","","","","","","",""
"","iti_localizer","","html-keyboard-response","85","287965","0.0-2.0-5.7-1.7","29","15966","female","null","","","","null","","3","","","287654","0","","","","","","300","10200","311","10477","300","","","","","","","","","","","","","","","","","","","","","","","","","","","","","","","","","","","","","","","","","","","","","","","","","","","",""
"","localizer","","html-keyboard-response","86","288374","0.0-2.0-5.8-0.8","29","15966","female","NaN","","","","null","NaN","3","","Stimuli/Practice_stims/Localizer/nizar-albusaidy-B2r2SWAf5CE-unsplash.jpg","287965","0","NaN","","0","1","0","400","10500","409","10788","","","","","","","","","","","","","","","","","","","","","","","","","","","","","","","","","","","","","","","","","","","","","","","","","","","","",""
"","iti_localizer","","html-keyboard-response","87","288685","0.0-2.0-5.8-1.8","29","15966","female","null","","","","null","","3","","","288374","0","","","","","","300","10900","311","11197","300","","","","","","","","","","","","","","","","","","","","","","","","","","","","","","","","","","","","","","","","","","","","","","","","","","","",""
"","localizer","","html-keyboard-response","88","289094","0.0-2.0-5.9-0.9","29","15966","female","NaN","","","","null","NaN","3","","Stimuli/Practice_stims/Localizer/nizar-albusaidy-B2r2SWAf5CE-unsplash.jpg","288685","0","NaN","","0","1","0","400","11200","409","11508","","","","","","","","","","","","","","","","","","","","","","","","","","","","","","","","","","","","","","","","","","","","","","","","","","","","",""
"","iti_localizer","","html-keyboard-response","89","289404","0.0-2.0-5.9-1.9","29","15966","female","null","","","","null","","3","","","289094","0","","","","","","300","11600","310","11917","300","","","","","","","","","","","","","","","","","","","","","","","","","","","","","","","","","","","","","","","","","","","","","","","","","","","",""
"","localizer","","html-keyboard-response","90","289812","0.0-2.0-5.10-0.10","29","15966","female","NaN","","","","null","NaN","3","","Stimuli/Practice_stims/Localizer/nizar-albusaidy-B2r2SWAf5CE-unsplash.jpg","289404","0","NaN","","0","1","0","400","11900","408","12227","","","","","","","","","","","","","","","","","","","","","","","","","","","","","","","","","","","","","","","","","","","","","","","","","","","","",""
"","iti_localizer","","html-keyboard-response","91","290126","0.0-2.0-5.10-1.10","29","15966","female","null","","","","null","","3","","","289812","0","","","","","","300","12300","314","12635","300","","","","","","","","","","","","","","","","","","","","","","","","","","","","","","","","","","","","","","","","","","","","","","","","","","","",""
"","localizer","","html-keyboard-response","92","290533","0.0-2.0-5.11-0.11","29","15966","female","NaN","","","","null","NaN","3","","Stimuli/Practice_stims/Localizer/nizar-albusaidy-B2r2SWAf5CE-unsplash.jpg","290126","0","NaN","","0","1","0","400","12600","407","12949","","","","","","","","","","","","","","","","","","","","","","","","","","","","","","","","","","","","","","","","","","","","","","","","","","","","",""
"","iti_localizer","","html-keyboard-response","93","290844","0.0-2.0-5.11-1.11","29","15966","female","null","","","","null","","3","","","290533","0","","","","","","300","13000","311","13356","300","","","","","","","","","","","","","","","","","","","","","","","","","","","","","","","","","","","","","","","","","","","","","","","","","","","",""
"","localizer","","html-keyboard-response","94","291254","0.0-2.0-5.12-0.12","29","15966","female","NaN","","","","null","NaN","3","","Stimuli/Practice_stims/Localizer/nizar-albusaidy-B2r2SWAf5CE-unsplash.jpg","290844","0","NaN","","0","1","0","400","13300","410","13667","","","","","","","","","","","","","","","","","","","","","","","","","","","","","","","","","","","","","","","","","","","","","","","","","","","","",""
"","iti_localizer","","html-keyboard-response","95","291565","0.0-2.0-5.12-1.12","29","15966","female","null","","","","null","","3","","","291254","0","","","","","","300","13700","311","14077","300","","","","","","","","","","","","","","","","","","","","","","","","","","","","","","","","","","","","","","","","","","","","","","","","","","","",""
"","localizer","","html-keyboard-response","96","291974","0.0-2.0-5.13-0.13","29","15966","female","NaN","","","","null","NaN","3","","Stimuli/Practice_stims/Localizer/nizar-albusaidy-B2r2SWAf5CE-unsplash.jpg","291565","0","NaN","","0","1","0","400","14000","409","14388","","","","","","","","","","","","","","","","","","","","","","","","","","","","","","","","","","","","","","","","","","","","","","","","","","","","",""
"","iti_localizer","","html-keyboard-response","97","292281","0.0-2.0-5.13-1.13","29","15966","female","null","","","","null","","3","","","291974","0","","","","","","300","14400","307","14797","300","","","","","","","","","","","","","","","","","","","","","","","","","","","","","","","","","","","","","","","","","","","","","","","","","","","",""
"","localizer","","html-keyboard-response","98","292692","0.0-2.0-5.14-0.14","29","15966","female","322","","","","68","0","3","","Stimuli/Practice_stims/Localizer/nizar-albusaidy-B2r2SWAf5CE-unsplash.jpg","292281","0","NaN","","0","0","1","400","14700","411","15104","","","","","","","","","","","","","","","","","","","","","","","","","","","","","","","","","","","","","","","","","","","","","","","","","","","","",""
"","iti_localizer","","html-keyboard-response","99","293006","0.0-2.0-5.14-1.14","29","15966","female","null","","","","null","","3","","","292692","0","","","","","","300","15100","314","15515","300","","","","","","","","","","","","","","","","","","","","","","","","","","","","","","","","","","","","","","","","","","","","","","","","","","","",""
"","localizer","","html-keyboard-response","100","293412","0.0-2.0-6.0-0.0","29","15966","female","NaN","","","","null","NaN","4","","Stimuli/Practice_stims/Localizer/randy-fath-epf1tdtIIkM-unsplash.jpg","293006","0","NaN","","1","1","0","400","15400","406","15829","","","","","","","","","","","","","","","","","","","","","","","","","","","","","","","","","","","","","","","","","","","","","","","","","","","","",""
"","iti_localizer","","html-keyboard-response","101","293725","0.0-2.0-6.0-1.0","29","15966","female","null","","","","null","","4","","","293412","0","","","","","","300","15800","313","16235","300","","","","","","","","","","","","","","","","","","","","","","","","","","","","","","","","","","","","","","","","","","","","","","","","","","","",""
"","localizer","","html-keyboard-response","102","294132","0.0-2.0-6.1-0.1","29","15966","female","NaN","","","","null","NaN","4","","Stimuli/Practice_stims/Localizer/randy-fath-epf1tdtIIkM-unsplash.jpg","293725","0","NaN","","1","1","0","400","16100","407","16548","","","","","","","","","","","","","","","","","","","","","","","","","","","","","","","","","","","","","","","","","","","","","","","","","","","","",""
"","iti_localizer","","html-keyboard-response","103","294445","0.0-2.0-6.1-1.1","29","15966","female","null","","","","null","","4","","","294132","0","","","","","","300","16500","313","16955","300","","","","","","","","","","","","","","","","","","","","","","","","","","","","","","","","","","","","","","","","","","","","","","","","","","","",""
"","localizer","","html-keyboard-response","104","294853","0.0-2.0-6.2-0.2","29","15966","female","NaN","","","","null","NaN","4","","Stimuli/Practice_stims/Localizer/randy-fath-epf1tdtIIkM-unsplash.jpg","294445","0","NaN","","1","1","0","400","16800","408","17268","","","","","","","","","","","","","","","","","","","","","","","","","","","","","","","","","","","","","","","","","","","","","","","","","","","","",""
"","iti_localizer","","html-keyboard-response","105","295164","0.0-2.0-6.2-1.2","29","15966","female","null","","","","null","","4","","","294853","0","","","","","","300","17200","311","17676","300","","","","","","","","","","","","","","","","","","","","","","","","","","","","","","","","","","","","","","","","","","","","","","","","","","","",""
"","localizer","","html-keyboard-response","106","295574","0.0-2.0-6.3-0.3","29","15966","female","NaN","","","","null","NaN","4","","Stimuli/Practice_stims/Localizer/randy-fath-epf1tdtIIkM-unsplash.jpg","295164","0","NaN","","1","1","0","400","17500","410","17987","","","","","","","","","","","","","","","","","","","","","","","","","","","","","","","","","","","","","","","","","","","","","","","","","","","","",""
"","iti_localizer","","html-keyboard-response","107","295885","0.0-2.0-6.3-1.3","29","15966","female","null","","","","null","","4","","","295574","0","","","","","","300","17900","311","18397","300","","","","","","","","","","","","","","","","","","","","","","","","","","","","","","","","","","","","","","","","","","","","","","","","","","","",""
"","localizer","","html-keyboard-response","108","296293","0.0-2.0-6.4-0.4","29","15966","female","NaN","","","","null","NaN","4","","Stimuli/Practice_stims/Localizer/randy-fath-epf1tdtIIkM-unsplash.jpg","295885","0","NaN","","1","1","0","400","18200","408","18708","","","","","","","","","","","","","","","","","","","","","","","","","","","","","","","","","","","","","","","","","","","","","","","","","","","","",""
"","iti_localizer","","html-keyboard-response","109","296606","0.0-2.0-6.4-1.4","29","15966","female","null","","","","null","","4","","","296293","0","","","","","","300","18600","313","19116","300","","","","","","","","","","","","","","","","","","","","","","","","","","","","","","","","","","","","","","","","","","","","","","","","","","","",""
"","localizer","","html-keyboard-response","110","297013","0.0-2.0-6.5-0.5","29","15966","female","NaN","","","","null","NaN","4","","Stimuli/Practice_stims/Localizer/randy-fath-epf1tdtIIkM-unsplash.jpg","296606","0","NaN","","1","1","0","400","18900","407","19429","","","","","","","","","","","","","","","","","","","","","","","","","","","","","","","","","","","","","","","","","","","","","","","","","","","","",""
"","iti_localizer","","html-keyboard-response","111","297326","0.0-2.0-6.5-1.5","29","15966","female","null","","","","null","","4","","","297013","0","","","","","","300","19300","313","19836","300","","","","","","","","","","","","","","","","","","","","","","","","","","","","","","","","","","","","","","","","","","","","","","","","","","","",""
"","localizer","","html-keyboard-response","112","297733","0.0-2.0-6.6-0.6","29","15966","female","NaN","","","","null","NaN","4","","Stimuli/Practice_stims/Localizer/randy-fath-epf1tdtIIkM-unsplash.jpg","297326","0","NaN","","1","1","0","400","19600","407","20149","","","","","","","","","","","","","","","","","","","","","","","","","","","","","","","","","","","","","","","","","","","","","","","","","","","","",""
"","iti_localizer","","html-keyboard-response","113","298045","0.0-2.0-6.6-1.6","29","15966","female","null","","","","null","","4","","","297733","0","","","","","","300","20000","312","20556","300","","","","","","","","","","","","","","","","","","","","","","","","","","","","","","","","","","","","","","","","","","","","","","","","","","","",""
"","localizer","","html-keyboard-response","114","298453","0.0-2.0-6.7-0.7","29","15966","female","NaN","","","","null","NaN","4","","Stimuli/Practice_stims/Localizer/randy-fath-epf1tdtIIkM-unsplash.jpg","298045","0","NaN","","1","1","0","400","20300","408","20868","","","","","","","","","","","","","","","","","","","","","","","","","","","","","","","","","","","","","","","","","","","","","","","","","","","","",""
"","iti_localizer","","html-keyboard-response","115","298766","0.0-2.0-6.7-1.7","29","15966","female","null","","","","null","","4","","","298453","0","","","","","","300","20700","313","21276","300","","","","","","","","","","","","","","","","","","","","","","","","","","","","","","","","","","","","","","","","","","","","","","","","","","","",""
"","localizer","","html-keyboard-response","116","299172","0.0-2.0-6.8-0.8","29","15966","female","NaN","","","","null","NaN","4","","Stimuli/Practice_stims/Localizer/randy-fath-epf1tdtIIkM-unsplash.jpg","298766","0","NaN","","1","1","0","400","21000","406","21589","","","","","","","","","","","","","","","","","","","","","","","","","","","","","","","","","","","","","","","","","","","","","","","","","","","","",""
"","iti_localizer","","html-keyboard-response","117","299485","0.0-2.0-6.8-1.8","29","15966","female","null","","","","null","","4","","","299172","0","","","","","","300","21400","313","21995","300","","","","","","","","","","","","","","","","","","","","","","","","","","","","","","","","","","","","","","","","","","","","","","","","","","","",""
"","localizer","","html-keyboard-response","118","299893","0.0-2.0-6.9-0.9","29","15966","female","NaN","","","","null","NaN","4","","Stimuli/Practice_stims/Localizer/randy-fath-epf1tdtIIkM-unsplash.jpg","299485","0","NaN","","1","1","0","400","21700","408","22308","","","","","","","","","","","","","","","","","","","","","","","","","","","","","","","","","","","","","","","","","","","","","","","","","","","","",""
"","iti_localizer","","html-keyboard-response","119","300204","0.0-2.0-6.9-1.9","29","15966","female","null","","","","null","","4","","","299893","0","","","","","","300","22100","311","22716","300","","","","","","","","","","","","","","","","","","","","","","","","","","","","","","","","","","","","","","","","","","","","","","","","","","","",""
"","localizer","","html-keyboard-response","120","300613","0.0-2.0-6.10-0.10","29","15966","female","NaN","","","","null","NaN","4","","Stimuli/Practice_stims/Localizer/randy-fath-epf1tdtIIkM-unsplash.jpg","300204","0","NaN","","1","1","0","400","22400","409","23027","","","","","","","","","","","","","","","","","","","","","","","","","","","","","","","","","","","","","","","","","","","","","","","","","","","","",""
"","iti_localizer","","html-keyboard-response","121","300925","0.0-2.0-6.10-1.10","29","15966","female","null","","","","null","","4","","","300613","0","","","","","","300","22800","312","23436","300","","","","","","","","","","","","","","","","","","","","","","","","","","","","","","","","","","","","","","","","","","","","","","","","","","","",""
"","localizer","","html-keyboard-response","122","301333","0.0-2.0-6.11-0.11","29","15966","female","386","","","","75","1","4","","Stimuli/Practice_stims/Localizer/randy-fath-epf1tdtIIkM-unsplash.jpg","300925","0","NaN","","1","0","1","400","23100","408","23748","","","","","","","","","","","","","","","","","","","","","","","","","","","","","","","","","","","","","","","","","","","","","","","","","","","","",""
"","iti_localizer","","html-keyboard-response","123","301645","0.0-2.0-6.11-1.11","29","15966","female","null","","","","null","","4","","","301333","0","","","","","","300","23500","312","24156","300","","","","","","","","","","","","","","","","","","","","","","","","","","","","","","","","","","","","","","","","","","","","","","","","","","","",""
"","localizer","","html-keyboard-response","124","302054","0.0-2.0-7.0-0.0","29","15966","female","363","","","","75","1","5","","Stimuli/Practice_stims/Localizer/yassine-khalfalli-adsQ9d_Cx0c-unsplash.jpg","301645","0","NaN","","0","0","0","400","23800","409","24468","","","","","","","","","","","","","","","","","","","","","","","","","","","","","","","","","","","","","","","","","","","","","","","","","","","","",""
"","iti_localizer","","html-keyboard-response","125","302364","0.0-2.0-7.0-1.0","29","15966","female","null","","","","null","","5","","","302054","0","","","","","","300","24200","310","24877","300","","","","","","","","","","","","","","","","","","","","","","","","","","","","","","","","","","","","","","","","","","","","","","","","","","","",""
"","practice_over","","html-keyboard-response","126","305544","0.0-2.0-7.0-2.0-0.0","29","15966","female","3176","","","","68","","","","","","","","","","","","","","","","","","","","","","","","","","","","","","","","","","","","","","","","","","","","","","","","","","","","","","","","","","","","","","","","","","","",""
"","start_run","","html-keyboard-response","127","307277","0.0-2.0-7.0-2.0-1.0","29","15966","female","1729","","","","84","","","","","","","","","","","","","","","","","","","","","","","","","","","","","","","","","","","","","","","","","","","","","","","","","","","","","","","","","","","","","","","","","","","",""
"","localizer","","html-keyboard-response","128","307685","0.0-2.0-8.0-0.0","29","15966","female","NaN","","","","null","NaN","6","","Stimuli/Experimental_stims/localizer/objects/jonny-caspari-wsvCC6UyKjs-unsplash.jpg","307277","1","objects","","0","1","0","400","0","408","0","","","","","","","","","","","","","","","","","","","","","","","","","","","","","","","","","","","","","","","","","","","","","","","","","","","","",""
"","iti_localizer","","html-keyboard-response","129","307996","0.0-2.0-8.0-1.0","29","15966","female","null","","","","null","","6","","","307685","1","","","","","","300","400","311","408","300","","","","","","","","","","","","","","","","","","","","","","","","","","","","","","","","","","","","","","","","","","","","","","","","","","","",""
"","localizer","","html-keyboard-response","130","308406","0.0-2.0-9.0-0.0","29","15966","female","42","","","","68","0","7","","Stimuli/Experimental_stims/localizer/objects/charlesdeluvio-RDjZh9dqlP4-unsplash.jpg","307996","1","objects","","0","0","1","400","700","410","719","","","","","","","","","","","","","","","","","","","","","","","","","","","","","","","","","","","","","","","","","","","","","","","","","","","","",""
"","iti_localizer","","html-keyboard-response","131","308717","0.0-2.0-9.0-1.0","29","15966","female","null","","","","null","","7","","","308406","1","","","","","","300","1100","311","1129","300","","","","","","","","","","","","","","","","","","","","","","","","","","","","","","","","","","","","","","","","","","","","","","","","","","","",""
"","localizer","","html-keyboard-response","132","309125","0.0-2.0-10.0-0.0","29","15966","female","NaN","","","","null","NaN","8","","Stimuli/Experimental_stims/localizer/objects/adriano-pucciarelli-Jl3S1yM8gi8-unsplash.jpg","308717","1","objects","","0","1","0","400","1400","408","1440","","","","","","","","","","","","","","","","","","","","","","","","","","","","","","","","","","","","","","","","","","","","","","","","","","","","",""
"","iti_localizer","","html-keyboard-response","133","309436","0.0-2.0-10.0-1.0","29","15966","female","null","","","","null","","8","","","309125","1","","","","","","300","1800","311","1848","300","","","","","","","","","","","","","","","","","","","","","","","","","","","","","","","","","","","","","","","","","","","","","","","","","","","",""
"","localizer","","html-keyboard-response","134","309846","0.0-2.0-11.0-0.0","29","15966","female","NaN","","","","null","NaN","9","","Stimuli/Experimental_stims/localizer/objects/mockup-graphics-Pj2PY-E-LfM-unsplash.jpg","309436","1","objects","","0","1","0","400","2100","410","2159","","","","","","","","","","","","","","","","","","","","","","","","","","","","","","","","","","","","","","","","","","","","","","","","","","","","",""
"","iti_localizer","","html-keyboard-response","135","310157","0.0-2.0-11.0-1.0","29","15966","female","null","","","","null","","9","","","309846","1","","","","","","300","2500","311","2569","300","","","","","","","","","","","","","","","","","","","","","","","","","","","","","","","","","","","","","","","","","","","","","","","","","","","",""
"","localizer","","html-keyboard-response","136","310563","0.0-2.0-12.0-0.0","29","15966","female","402","","","","68","0","10","","Stimuli/Experimental_stims/localizer/objects/chris-briggs-x9TCnxNBofE-unsplash.jpg","310157","1","objects","","0","0","1","400","2800","406","2880","","","","","","","","","","","","","","","","","","","","","","","","","","","","","","","","","","","","","","","","","","","","","","","","","","","","",""
"","iti_localizer","","html-keyboard-response","137","310869","0.0-2.0-12.0-1.0","29","15966","female","null","","","","null","","10","","","310563","1","","","","","","300","3200","306","3286","300","","","","","","","","","","","","","","","","","","","","","","","","","","","","","","","","","","","","","","","","","","","","","","","","","","","",""
"","localizer","","html-keyboard-response","138","311277","0.0-2.0-13.0-0.0","29","15966","female","342","","","","68","0","11","","Stimuli/Experimental_stims/localizer/objects/ignat-dolomanov-kFBDVnmskPA-unsplash.jpg","310869","1","objects","","1","0","0","400","3500","408","3592","","","","","","","","","","","","","","","","","","","","","","","","","","","","","","","","","","","","","","","","","","","","","","","","","","","","",""
"","iti_localizer","","html-keyboard-response","139","311589","0.0-2.0-13.0-1.0","29","15966","female","null","","","","null","","11","","","311277","1","","","","","","300","3900","312","4000","300","","","","","","","","","","","","","","","","","","","","","","","","","","","","","","","","","","","","","","","","","","","","","","","","","","","",""
"","localizer","","html-keyboard-response","140","311997","0.0-2.0-14.0-0.0","29","15966","female","NaN","","","","null","NaN","12","","Stimuli/Experimental_stims/localizer/objects/adriano-pucciarelli-BE7yaZnZX6o-unsplash.jpg","311589","1","objects","","0","1","0","400","4200","408","4312","","","","","","","","","","","","","","","","","","","","","","","","","","","","","","","","","","","","","","","","","","","","","","","","","","","","",""
"","iti_localizer","","html-keyboard-response","141","312309","0.0-2.0-14.0-1.0","29","15966","female","null","","","","null","","12","","","311997","1","","","","","","300","4600","312","4720","300","","","","","","","","","","","","","","","","","","","","","","","","","","","","","","","","","","","","","","","","","","","","","","","","","","","",""
"","localizer","","html-keyboard-response","142","312717","0.0-2.0-15.0-0.0","29","15966","female","NaN","","","","null","NaN","13","","Stimuli/Experimental_stims/localizer/objects/eugene-chystiakov-3neSwyntbQ8-unsplash.jpg","312309","1","objects","","0","1","0","400","4900","408","5032","","","","","","","","","","","","","","","","","","","","","","","","","","","","","","","","","","","","","","","","","","","","","","","","","","","","",""
"","iti_localizer","","html-keyboard-response","143","313029","0.0-2.0-15.0-1.0","29","15966","female","null","","","","null","","13","","","312717","1","","","","","","300","5300","312","5440","300","","","","","","","","","","","","","","","","","","","","","","","","","","","","","","","","","","","","","","","","","","","","","","","","","","","",""
"","localizer","","html-keyboard-response","144","313437","0.0-2.0-16.0-0.0","29","15966","female","NaN","","","","null","NaN","14","","Stimuli/Experimental_stims/localizer/objects/girl-with-red-hat-Xxg-r574pLE-unsplash.jpg","313029","1","objects","","0","1","0","400","5600","408","5752","","","","","","","","","","","","","","","","","","","","","","","","","","","","","","","","","","","","","","","","","","","","","","","","","","","","",""
"","iti_localizer","","html-keyboard-response","145","313749","0.0-2.0-16.0-1.0","29","15966","female","null","","","","null","","14","","","313437","1","","","","","","300","6000","312","6160","300","","","","","","","","","","","","","","","","","","","","","","","","","","","","","","","","","","","","","","","","","","","","","","","","","","","",""
"","localizer","","html-keyboard-response","146","314156","0.0-2.0-17.0-0.0","29","15966","female","NaN","","","","null","NaN","15","","Stimuli/Experimental_stims/localizer/objects/hipster-mum-XookgCxFw6Q-unsplash.jpg","313749","1","objects","","0","1","0","400","6300","407","6472","","","","","","","","","","","","","","","","","","","","","","","","","","","","","","","","","","","","","","","","","","","","","","","","","","","","",""
"","iti_localizer","","html-keyboard-response","147","314469","0.0-2.0-17.0-1.0","29","15966","female","null","","","","null","","15","","","314156","1","","","","","","300","6700","313","6879","300","","","","","","","","","","","","","","","","","","","","","","","","","","","","","","","","","","","","","","","","","","","","","","","","","","","",""
"","localizer","","html-keyboard-response","148","314876","0.0-2.0-18.0-0.0","29","15966","female","NaN","","","","null","NaN","16","","Stimuli/Experimental_stims/localizer/objects/quino-al-8gWEAAXJjtI-unsplash.jpg","314469","1","objects","","0","1","0","400","7000","407","7192","","","","","","","","","","","","","","","","","","","","","","","","","","","","","","","","","","","","","","","","","","","","","","","","","","","","",""
"","iti_localizer","","html-keyboard-response","149","315189","0.0-2.0-18.0-1.0","29","15966","female","null","","","","null","","16","","","314876","1","","","","","","300","7400","313","7599","300","","","","","","","","","","","","","","","","","","","","","","","","","","","","","","","","","","","","","","","","","","","","","","","","","","","",""
"","localizer","","html-keyboard-response","150","315598","0.0-2.0-19.0-0.0","29","15966","female","NaN","","","","null","NaN","17","","Stimuli/Experimental_stims/localizer/objects/florian-klauer-mk7D-4UCfmg-unsplash.jpg","315189","1","objects","","0","1","0","400","7700","409","7912","","","","","","","","","","","","","","","","","","","","","","","","","","","","","","","","","","","","","","","","","","","","","","","","","","","","",""
"","iti_localizer","","html-keyboard-response","151","315909","0.0-2.0-19.0-1.0","29","15966","female","null","","","","null","","17","","","315598","1","","","","","","300","8100","311","8321","300","","","","","","","","","","","","","","","","","","","","","","","","","","","","","","","","","","","","","","","","","","","","","","","","","","","",""
"","localizer","","html-keyboard-response","152","316317","0.0-2.0-20.0-0.0","29","15966","female","NaN","","","","null","NaN","18","","Stimuli/Experimental_stims/localizer/objects/andrew-petrov-TVJqDat4MAw-unsplash.jpg","315909","1","objects","","0","1","0","400","8400","408","8632","","","","","","","","","","","","","","","","","","","","","","","","","","","","","","","","","","","","","","","","","","","","","","","","","","","","",""
"","iti_localizer","","html-keyboard-response","153","316629","0.0-2.0-20.0-1.0","29","15966","female","null","","","","null","","18","","","316317","1","","","","","","300","8800","312","9040","300","","","","","","","","","","","","","","","","","","","","","","","","","","","","","","","","","","","","","","","","","","","","","","","","","","","",""
"","localizer","","html-keyboard-response","154","317038","0.0-2.0-21.0-0.0","29","15966","female","NaN","","","","null","NaN","19","","Stimuli/Experimental_stims/localizer/objects/carlos-felipe-ramirez-mesa-HW7bfB3ERSQ-unsplash.jpg","316629","1","objects","","0","1","0","400","9100","409","9352","","","","","","","","","","","","","","","","","","","","","","","","","","","","","","","","","","","","","","","","","","","","","","","","","","","","",""
"","iti_localizer","","html-keyboard-response","155","317348","0.0-2.0-21.0-1.0","29","15966","female","null","","","","null","","19","","","317038","1","","","","","","300","9500","310","9761","300","","","","","","","","","","","","","","","","","","","","","","","","","","","","","","","","","","","","","","","","","","","","","","","","","","","",""
"","localizer","","html-keyboard-response","156","317758","0.0-2.0-22.0-0.0","29","15966","female","NaN","","","","null","NaN","20","","Stimuli/Experimental_stims/localizer/objects/yoann-siloine-_T4w3JDm6ug-unsplash.jpg","317348","1","objects","","1","1","0","400","9800","410","10071","","","","","","","","","","","","","","","","","","","","","","","","","","","","","","","","","","","","","","","","","","","","","","","","","","","","",""
"","iti_localizer","","html-keyboard-response","157","318069","0.0-2.0-22.0-1.0","29","15966","female","null","","","","null","","20","","","317758","1","","","","","","300","10200","311","10481","300","","","","","","","","","","","","","","","","","","","","","","","","","","","","","","","","","","","","","","","","","","","","","","","","","","","",""
"","localizer","","html-keyboard-response","158","318476","0.0-2.0-23.0-0.0","29","15966","female","NaN","","","","null","NaN","21","","Stimuli/Experimental_stims/localizer/objects/ales-krivec-ZMZHcvIVgbg-unsplash.jpg","318069","1","objects","","0","1","0","400","10500","407","10792","","","","","","","","","","","","","","","","","","","","","","","","","","","","","","","","","","","","","","","","","","","","","","","","","","","","",""
"","iti_localizer","","html-keyboard-response","159","318789","0.0-2.0-23.0-1.0","29","15966","female","null","","","","null","","21","","","318476","1","","","","","","300","10900","313","11199","300","","","","","","","","","","","","","","","","","","","","","","","","","","","","","","","","","","","","","","","","","","","","","","","","","","","",""
"","localizer","","html-keyboard-response","160","319196","0.0-2.0-24.0-0.0","29","15966","female","95","","","","68","0","22","","Stimuli/Experimental_stims/localizer/objects/designecologist-hvgd0ygXuQQ-unsplash.jpg","318789","1","objects","","0","0","1","400","11200","407","11512","","","","","","","","","","","","","","","","","","","","","","","","","","","","","","","","","","","","","","","","","","","","","","","","","","","","",""
"","iti_localizer","","html-keyboard-response","161","319508","0.0-2.0-24.0-1.0","29","15966","female","null","","","","null","","22","","","319196","1","","","","","","300","11600","312","11919","300","","","","","","","","","","","","","","","","","","","","","","","","","","","","","","","","","","","","","","","","","","","","","","","","","","","",""
"","localizer","","html-keyboard-response","162","319917","0.0-2.0-25.0-0.0","29","15966","female","NaN","","","","null","NaN","23","","Stimuli/Experimental_stims/localizer/objects/dario-mendez-hnJ2VNZzbns-unsplash.jpg","319508","1","objects","","0","1","0","400","11900","409","12231","","","","","","","","","","","","","","","","","","","","","","","","","","","","","","","","","","","","","","","","","","","","","","","","","","","","",""
"","iti_localizer","","html-keyboard-response","163","320228","0.0-2.0-25.0-1.0","29","15966","female","null","","","","null","","23","","","319917","1","","","","","","300","12300","311","12640","300","","","","","","","","","","","","","","","","","","","","","","","","","","","","","","","","","","","","","","","","","","","","","","","","","","","",""
"","localizer","","html-keyboard-response","164","320636","0.0-2.0-26.0-0.0","29","15966","female","NaN","","","","null","NaN","24","","Stimuli/Experimental_stims/localizer/objects/muhammad-toqeer-NRJ9ipvz2iE-unsplash.jpg","320228","1","objects","","0","1","0","400","12600","408","12951","","","","","","","","","","","","","","","","","","","","","","","","","","","","","","","","","","","","","","","","","","","","","","","","","","","","",""
"","iti_localizer","","html-keyboard-response","165","320949","0.0-2.0-26.0-1.0","29","15966","female","null","","","","null","","24","","","320636","1","","","","","","300","13000","313","13359","300","","","","","","","","","","","","","","","","","","","","","","","","","","","","","","","","","","","","","","","","","","","","","","","","","","","",""
"","localizer","","html-keyboard-response","166","321356","0.0-2.0-27.0-0.0","29","15966","female","NaN","","","","null","NaN","25","","Stimuli/Experimental_stims/localizer/objects/markus-spiske-ANrVtttbNss-unsplash.jpg","320949","1","objects","","0","1","0","400","13300","407","13672","","","","","","","","","","","","","","","","","","","","","","","","","","","","","","","","","","","","","","","","","","","","","","","","","","","","",""
"","iti_localizer","","html-keyboard-response","167","335364","0.0-2.0-27.0-1.0","29","15966","female","null","","","","null","","25","","","321356","1","","","","","","14000","13700","14008","14079","14000","","","","","","","","","","","","","","","","","","","","","","","","","","","","","","","","","","","","","","","","","","","","","","","","","","","",""
"","localizer","","html-keyboard-response","168","335772","0.0-2.0-28.0-0.0","29","15966","female","NaN","","","","null","NaN","26","","Stimuli/Experimental_stims/localizer/body_parts/jan-romero-DL4DDQb8yjc-unsplash.jpg","335364","1","body_parts","","0","1","0","400","27700","408","28087","","","","","","","","","","","","","","","","","","","","","","","","","","","","","","","","","","","","","","","","","","","","","","","","","","","","",""
"","iti_localizer","","html-keyboard-response","169","336085","0.0-2.0-28.0-1.0","29","15966","female","null","","","","null","","26","","","335772","1","","","","","","300","28100","313","28495","300","","","","","","","","","","","","","","","","","","","","","","","","","","","","","","","","","","","","","","","","","","","","","","","","","","","",""
"","localizer","","html-keyboard-response","170","336493","0.0-2.0-29.0-0.0","29","15966","female","NaN","","","","null","NaN","27","","Stimuli/Experimental_stims/localizer/body_parts/juja-han-Z8-6EI2tYtw-unsplash.jpg","336085","1","body_parts","","0","1","0","400","28400","408","28808","","","","","","","","","","","","","","","","","","","","","","","","","","","","","","","","","","","","","","","","","","","","","","","","","","","","",""
"","iti_localizer","","html-keyboard-response","171","336804","0.0-2.0-29.0-1.0","29","15966","female","null","","","","null","","27","","","336493","1","","","","","","300","28800","311","29216","300","","","","","","","","","","","","","","","","","","","","","","","","","","","","","","","","","","","","","","","","","","","","","","","","","","","",""
"","localizer","","html-keyboard-response","172","337214","0.0-2.0-30.0-0.0","29","15966","female","372","","","","68","0","28","","Stimuli/Experimental_stims/localizer/body_parts/kai-wenzel-zYDJOxjaZrQ-unsplash.jpg","336804","1","body_parts","","1","0","0","400","29100","410","29527","","","","","","","","","","","","","","","","","","","","","","","","","","","","","","","","","","","","","","","","","","","","","","","","","","","","",""
"","iti_localizer","","html-keyboard-response","173","337525","0.0-2.0-30.0-1.0","29","15966","female","null","","","","null","","28","","","337214","1","","","","","","300","29500","311","29937","300","","","","","","","","","","","","","","","","","","","","","","","","","","","","","","","","","","","","","","","","","","","","","","","","","","","",""
"","localizer","","html-keyboard-response","174","337932","0.0-2.0-31.0-0.0","29","15966","female","NaN","","","","null","NaN","29","","Stimuli/Experimental_stims/localizer/body_parts/igordoon-primus-CdyHqfrbGIs-unsplash.jpg","337525","1","body_parts","","0","1","0","400","29800","407","30248","","","","","","","","","","","","","","","","","","","","","","","","","","","","","","","","","","","","","","","","","","","","","","","","","","","","",""
"","iti_localizer","","html-keyboard-response","175","338243","0.0-2.0-31.0-1.0","29","15966","female","null","","","","null","","29","","","337932","1","","","","","","300","30200","311","30655","300","","","","","","","","","","","","","","","","","","","","","","","","","","","","","","","","","","","","","","","","","","","","","","","","","","","",""
"","localizer","","html-keyboard-response","176","338653","0.0-2.0-32.0-0.0","29","15966","female","NaN","","","","null","NaN","30","","Stimuli/Experimental_stims/localizer/body_parts/nick-page-WTNmgJtwzGI-unsplash.jpg","338243","1","body_parts","","0","1","0","400","30500","410","30966","","","","","","","","","","","","","","","","","","","","","","","","","","","","","","","","","","","","","","","","","","","","","","","","","","","","",""
"","iti_localizer","","html-keyboard-response","177","338965","0.0-2.0-32.0-1.0","29","15966","female","null","","","","null","","30","","","338653","1","","","","","","300","30900","312","31376","300","","","","","","","","","","","","","","","","","","","","","","","","","","","","","","","","","","","","","","","","","","","","","","","","","","","",""
"","localizer","","html-keyboard-response","178","339373","0.0-2.0-33.0-0.0","29","15966","female","NaN","","","","null","NaN","31","","Stimuli/Experimental_stims/localizer/body_parts/callum-skelton-3KLMq7y46nA-unsplash.jpg","338965","1","body_parts","","0","1","0","400","31200","408","31688","","","","","","","","","","","","","","","","","","","","","","","","","","","","","","","","","","","","","","","","","","","","","","","","","","","","",""
"","iti_localizer","","html-keyboard-response","179","339684","0.0-2.0-33.0-1.0","29","15966","female","null","","","","null","","31","","","339373","1","","","","","","300","31600","311","32096","300","","","","","","","","","","","","","","","","","","","","","","","","","","","","","","","","","","","","","","","","","","","","","","","","","","","",""
"","localizer","","html-keyboard-response","180","340091","0.0-2.0-34.0-0.0","29","15966","female","NaN","","","","null","NaN","32","","Stimuli/Experimental_stims/localizer/body_parts/anelya-okapova-V69kmOyZ3SU-unsplash.jpg","339684","1","body_parts","","0","1","0","400","31900","407","32407","","","","","","","","","","","","","","","","","","","","","","","","","","","","","","","","","","","","","","","","","","","","","","","","","","","","",""
"","iti_localizer","","html-keyboard-response","181","340405","0.0-2.0-34.0-1.0","29","15966","female","null","","","","null","","32","","","340091","1","","","","","","300","32300","314","32814","300","","","","","","","","","","","","","","","","","","","","","","","","","","","","","","","","","","","","","","","","","","","","","","","","","","","",""
"","localizer","","html-keyboard-response","182","340813","0.0-2.0-35.0-0.0","29","15966","female","393","","","","68","0","33","","Stimuli/Experimental_stims/localizer/body_parts/jeremy-yap-TfJEi17kA0w-unsplash.jpg","340405","1","body_parts","","0","0","1","400","32600","408","33128","","","","","","","","","","","","","","","","","","","","","","","","","","","","","","","","","","","","","","","","","","","","","","","","","","","","",""
"","iti_localizer","","html-keyboard-response","183","341125","0.0-2.0-35.0-1.0","29","15966","female","null","","","","null","","33","","","340813","1","","","","","","300","33000","312","33536","300","","","","","","","","","","","","","","","","","","","","","","","","","","","","","","","","","","","","","","","","","","","","","","","","","","","",""
"","localizer","","html-keyboard-response","184","341531","0.0-2.0-36.0-0.0","29","15966","female","NaN","","","","null","NaN","34","","Stimuli/Experimental_stims/localizer/body_parts/debby-hudson--B_757qSA4k-unsplash.jpg","341125","1","body_parts","","0","1","0","400","33300","406","33848","","","","","","","","","","","","","","","","","","","","","","","","","","","","","","","","","","","","","","","","","","","","","","","","","","","","",""
"","iti_localizer","","html-keyboard-response","185","341845","0.0-2.0-36.0-1.0","29","15966","female","null","","","","null","","34","","","341531","1","","","","","","300","33700","314","34254","300","","","","","","","","","","","","","","","","","","","","","","","","","","","","","","","","","","","","","","","","","","","","","","","","","","","",""
"","localizer","","html-keyboard-response","186","342252","0.0-2.0-37.0-0.0","29","15966","female","392","","","","68","0","35","","Stimuli/Experimental_stims/localizer/body_parts/danie-franco-jyyNiSEcCl4-unsplash.jpg","341845","1","body_parts","","0","0","1","400","34000","407","34568","","","","","","","","","","","","","","","","","","","","","","","","","","","","","","","","","","","","","","","","","","","","","","","","","","","","",""
"","iti_localizer","","html-keyboard-response","187","342564","0.0-2.0-37.0-1.0","29","15966","female","null","","","","null","","35","","","342252","1","","","","","","300","34400","312","34975","300","","","","","","","","","","","","","","","","","","","","","","","","","","","","","","","","","","","","","","","","","","","","","","","","","","","",""
"","localizer","","html-keyboard-response","188","342973","0.0-2.0-38.0-0.0","29","15966","female","NaN","","","","null","NaN","36","","Stimuli/Experimental_stims/localizer/body_parts/toan-nguyen-VIeLuUFzesg-unsplash.jpg","342564","1","body_parts","","0","1","0","400","34700","409","35287","","","","","","","","","","","","","","","","","","","","","","","","","","","","","","","","","","","","","","","","","","","","","","","","","","","","",""
"","iti_localizer","","html-keyboard-response","189","343284","0.0-2.0-38.0-1.0","29","15966","female","null","","","","null","","36","","","342973","1","","","","","","300","35100","311","35696","300","","","","","","","","","","","","","","","","","","","","","","","","","","","","","","","","","","","","","","","","","","","","","","","","","","","",""
"","localizer","","html-keyboard-response","190","343692","0.0-2.0-39.0-0.0","29","15966","female","NaN","","","","null","NaN","37","","Stimuli/Experimental_stims/localizer/body_parts/femme-spirit-RGYBDUHYbyM-unsplash.jpg","343284","1","body_parts","","0","1","0","400","35400","408","36007","","","","","","","","","","","","","","","","","","","","","","","","","","","","","","","","","","","","","","","","","","","","","","","","","","","","",""
"","iti_localizer","","html-keyboard-response","191","344004","0.0-2.0-39.0-1.0","29","15966","female","null","","","","null","","37","","","343692","1","","","","","","300","35800","312","36415","300","","","","","","","","","","","","","","","","","","","","","","","","","","","","","","","","","","","","","","","","","","","","","","","","","","","",""
"","localizer","","html-keyboard-response","192","344411","0.0-2.0-40.0-0.0","29","15966","female","350","","","","68","0","38","","Stimuli/Experimental_stims/localizer/body_parts/sincerely-media-QyzlAZjm0r0-unsplash.jpg","344004","1","body_parts","","0","0","1","400","36100","407","36727","","","","","","","","","","","","","","","","","","","","","","","","","","","","","","","","","","","","","","","","","","","","","","","","","","","","",""
"","iti_localizer","","html-keyboard-response","193","344724","0.0-2.0-40.0-1.0","29","15966","female","null","","","","null","","38","","","344411","1","","","","","","300","36500","313","37134","300","","","","","","","","","","","","","","","","","","","","","","","","","","","","","","","","","","","","","","","","","","","","","","","","","","","",""
"","localizer","","html-keyboard-response","194","345131","0.0-2.0-41.0-0.0","29","15966","female","327","","","","68","0","39","","Stimuli/Experimental_stims/localizer/body_parts/betzy-arosemena-YHdgnygtVCQ-unsplash.jpg","344724","1","body_parts","","0","0","1","400","36800","407","37447","","","","","","","","","","","","","","","","","","","","","","","","","","","","","","","","","","","","","","","","","","","","","","","","","","","","",""
"","iti_localizer","","html-keyboard-response","195","345442","0.0-2.0-41.0-1.0","29","15966","female","null","","","","null","","39","","","345131","1","","","","","","300","37200","311","37854","300","","","","","","","","","","","","","","","","","","","","","","","","","","","","","","","","","","","","","","","","","","","","","","","","","","","",""
"","localizer","","html-keyboard-response","196","345852","0.0-2.0-42.0-0.0","29","15966","female","396","","","","68","0","40","","Stimuli/Experimental_stims/localizer/body_parts/nihal-karkala-LlOfbQD-IJ0-unsplash.jpg","345442","1","body_parts","","0","0","1","400","37500","410","38165","","","","","","","","","","","","","","","","","","","","","","","","","","","","","","","","","","","","","","","","","","","","","","","","","","","","",""
"","iti_localizer","","html-keyboard-response","197","346164","0.0-2.0-42.0-1.0","29","15966","female","null","","","","null","","40","","","345852","1","","","","","","300","37900","312","38575","300","","","","","","","","","","","","","","","","","","","","","","","","","","","","","","","","","","","","","","","","","","","","","","","","","","","",""
"","localizer","","html-keyboard-response","198","346572","0.0-2.0-43.0-0.0","29","15966","female","395","","","","68","0","41","","Stimuli/Experimental_stims/localizer/body_parts/nattalia-nunez-MB9sdDfZMSg-unsplash.jpg","346164","1","body_parts","","0","0","1","400","38200","408","38887","","","","","","","","","","","","","","","","","","","","","","","","","","","","","","","","","","","","","","","","","","","","","","","","","","","","",""
"","iti_localizer","","html-keyboard-response","199","346885","0.0-2.0-43.0-1.0","29","15966","female","null","","","","null","","41","","","346572","1","","","","","","300","38600","313","39295","300","","","","","","","","","","","","","","","","","","","","","","","","","","","","","","","","","","","","","","","","","","","","","","","","","","","",""
"","localizer","","html-keyboard-response","200","347291","0.0-2.0-44.0-0.0","29","15966","female","326","","","","68","0","42","","Stimuli/Experimental_stims/localizer/body_parts/xavier-foucrier-dLZUNHsT8vo-unsplash.jpg","346885","1","body_parts","","0","0","1","400","38900","406","39608","","","","","","","","","","","","","","","","","","","","","","","","","","","","","","","","","","","","","","","","","","","","","","","","","","","","",""
"","iti_localizer","","html-keyboard-response","201","347605","0.0-2.0-44.0-1.0","29","15966","female","null","","","","null","","42","","","347291","1","","","","","","300","39300","314","40014","300","","","","","","","","","","","","","","","","","","","","","","","","","","","","","","","","","","","","","","","","","","","","","","","","","","","",""
"","localizer","","html-keyboard-response","202","348012","0.0-2.0-45.0-0.0","29","15966","female","393","","","","68","0","43","","Stimuli/Experimental_stims/localizer/body_parts/i-am_nah--S4OsO0c6Ts-unsplash.jpg","347605","1","body_parts","","0","0","1","400","39600","407","40328","","","","","","","","","","","","","","","","","","","","","","","","","","","","","","","","","","","","","","","","","","","","","","","","","","","","",""
"","iti_localizer","","html-keyboard-response","203","348324","0.0-2.0-45.0-1.0","29","15966","female","null","","","","null","","43","","","348012","1","","","","","","300","40000","312","40735","300","","","","","","","","","","","","","","","","","","","","","","","","","","","","","","","","","","","","","","","","","","","","","","","","","","","",""
"","localizer","","html-keyboard-response","204","348733","0.0-2.0-46.0-0.0","29","15966","female","394","","","","68","0","44","","Stimuli/Experimental_stims/localizer/body_parts/megan-menegay-UojxG_BJxnI-unsplash.jpg","348324","1","body_parts","","0","0","1","400","40300","409","41047","","","","","","","","","","","","","","","","","","","","","","","","","","","","","","","","","","","","","","","","","","","","","","","","","","","","",""
"","iti_localizer","","html-keyboard-response","205","349045","0.0-2.0-46.0-1.0","29","15966","female","null","","","","null","","44","","","348733","1","","","","","","300","40700","312","41456","300","","","","","","","","","","","","","","","","","","","","","","","","","","","","","","","","","","","","","","","","","","","","","","","","","","","",""
"","localizer","","html-keyboard-response","206","349452","0.0-2.0-47.0-0.0","29","15966","female","326","","","","68","0","45","","Stimuli/Experimental_stims/localizer/body_parts/priscilla-du-preez-e6fcNpur53A-unsplash.jpg","349045","1","body_parts","","1","0","0","400","41000","407","41768","","","","","","","","","","","","","","","","","","","","","","","","","","","","","","","","","","","","","","","","","","","","","","","","","","","","",""
"","iti_localizer","","html-keyboard-response","207","363458","0.0-2.0-47.0-1.0","29","15966","female","null","","","","null","","45","","","349452","1","","","","","","14000","41400","14006","42175","14000","","","","","","","","","","","","","","","","","","","","","","","","","","","","","","","","","","","","","","","","","","","","","","","","","","","",""
"","localizer","","html-keyboard-response","208","363868","0.0-2.0-48.0-0.0","29","15966","female","NaN","","","","null","NaN","46","","Stimuli/Experimental_stims/localizer/faces/jake-nackos-IF9TK5Uy-KI-unsplash.jpg","363458","1","faces","","0","1","0","400","55400","410","56181","","","","","","","","","","","","","","","","","","","","","","","","","","","","","","","","","","","","","","","","","","","","","","","","","","","","",""
"","iti_localizer","","html-keyboard-response","209","364180","0.0-2.0-48.0-1.0","29","15966","female","null","","","","null","","46","","","363868","1","","","","","","300","55800","312","56591","300","","","","","","","","","","","","","","","","","","","","","","","","","","","","","","","","","","","","","","","","","","","","","","","","","","","",""
"","localizer","","html-keyboard-response","210","364588","0.0-2.0-49.0-0.0","29","15966","female","NaN","","","","null","NaN","47","","Stimuli/Experimental_stims/localizer/faces/ethan-haddox-__ng3cRXmFE-unsplash.jpg","364180","1","faces","","0","1","0","400","56100","408","56903","","","","","","","","","","","","","","","","","","","","","","","","","","","","","","","","","","","","","","","","","","","","","","","","","","","","",""
"","iti_localizer","","html-keyboard-response","211","364899","0.0-2.0-49.0-1.0","29","15966","female","null","","","","null","","47","","","364588","1","","","","","","300","56500","311","57311","300","","","","","","","","","","","","","","","","","","","","","","","","","","","","","","","","","","","","","","","","","","","","","","","","","","","",""
"","localizer","","html-keyboard-response","212","365309","0.0-2.0-50.0-0.0","29","15966","female","65","","","","68","0","48","","Stimuli/Experimental_stims/localizer/faces/samuel-dixon--fQ5XNOcqFQ-unsplash.jpg","364899","1","faces","","1","0","0","400","56800","410","57622","","","","","","","","","","","","","","","","","","","","","","","","","","","","","","","","","","","","","","","","","","","","","","","","","","","","",""
"","iti_localizer","","html-keyboard-response","213","365619","0.0-2.0-50.0-1.0","29","15966","female","null","","","","null","","48","","","365309","1","","","","","","300","57200","310","58032","300","","","","","","","","","","","","","","","","","","","","","","","","","","","","","","","","","","","","","","","","","","","","","","","","","","","",""
"","localizer","","html-keyboard-response","214","366028","0.0-2.0-51.0-0.0","29","15966","female","NaN","","","","null","NaN","49","","Stimuli/Experimental_stims/localizer/faces/jakob-owens-lkMJcGDZLVs-unsplash.jpg","365619","1","faces","","0","1","0","400","57500","409","58342","","","","","","","","","","","","","","","","","","","","","","","","","","","","","","","","","","","","","","","","","","","","","","","","","","","","",""
"","iti_localizer","","html-keyboard-response","215","366339","0.0-2.0-51.0-1.0","29","15966","female","null","","","","null","","49","","","366028","1","","","","","","300","57900","311","58751","300","","","","","","","","","","","","","","","","","","","","","","","","","","","","","","","","","","","","","","","","","","","","","","","","","","","",""
"","localizer","","html-keyboard-response","216","366747","0.0-2.0-52.0-0.0","29","15966","female","378","","","","68","0","50","","Stimuli/Experimental_stims/localizer/faces/joseph-gonzalez-iFgRcqHznqg-unsplash.jpg","366339","1","faces","","0","0","1","400","58200","408","59062","","","","","","","","","","","","","","","","","","","","","","","","","","","","","","","","","","","","","","","","","","","","","","","","","","","","",""
"","iti_localizer","","html-keyboard-response","217","367060","0.0-2.0-52.0-1.0","29","15966","female","null","","","","null","","50","","","366747","1","","","","","","300","58600","313","59470","300","","","","","","","","","","","","","","","","","","","","","","","","","","","","","","","","","","","","","","","","","","","","","","","","","","","",""
"","localizer","","html-keyboard-response","218","367467","0.0-2.0-53.0-0.0","29","15966","female","NaN","","","","null","NaN","51","","Stimuli/Experimental_stims/localizer/faces/tyler-nix-ZGa9d1a_4tA-unsplash.jpg","367060","1","faces","","0","1","0","400","58900","407","59783","","","","","","","","","","","","","","","","","","","","","","","","","","","","","","","","","","","","","","","","","","","","","","","","","","","","",""
"","iti_localizer","","html-keyboard-response","219","367780","0.0-2.0-53.0-1.0","29","15966","female","null","","","","null","","51","","","367467","1","","","","","","300","59300","313","60190","300","","","","","","","","","","","","","","","","","","","","","","","","","","","","","","","","","","","","","","","","","","","","","","","","","","","",""
"","localizer","","html-keyboard-response","220","368189","0.0-2.0-54.0-0.0","29","15966","female","378","","","","68","0","52","","Stimuli/Experimental_stims/localizer/faces/allef-vinicius-C_1jjFJioWg-unsplash.jpg","367780","1","faces","","0","0","1","400","59600","409","60503","","","","","","","","","","","","","","","","","","","","","","","","","","","","","","","","","","","","","","","","","","","","","","","","","","","","",""
"","iti_localizer","","html-keyboard-response","221","368499","0.0-2.0-54.0-1.0","29","15966","female","null","","","","null","","52","","","368189","1","","","","","","300","60000","310","60912","300","","","","","","","","","","","","","","","","","","","","","","","","","","","","","","","","","","","","","","","","","","","","","","","","","","","",""
"","localizer","","html-keyboard-response","222","368908","0.0-2.0-55.0-0.0","29","15966","female","379","","","","68","0","53","","Stimuli/Experimental_stims/localizer/faces/midas-hofstra-tidSLv-UaNs-unsplash.jpg","368499","1","faces","","0","0","1","400","60300","409","61222","","","","","","","","","","","","","","","","","","","","","","","","","","","","","","","","","","","","","","","","","","","","","","","","","","","","",""
"","iti_localizer","","html-keyboard-response","223","369220","0.0-2.0-55.0-1.0","29","15966","female","null","","","","null","","53","","","368908","1","","","","","","300","60700","312","61631","300","","","","","","","","","","","","","","","","","","","","","","","","","","","","","","","","","","","","","","","","","","","","","","","","","","","",""
"","localizer","","html-keyboard-response","224","369628","0.0-2.0-56.0-0.0","29","15966","female","NaN","","","","null","NaN","54","","Stimuli/Experimental_stims/localizer/faces/elijah-hiett-umfpFoKxIVg-unsplash.jpg","369220","1","faces","","0","1","0","400","61000","408","61943","","","","","","","","","","","","","","","","","","","","","","","","","","","","","","","","","","","","","","","","","","","","","","","","","","","","",""
"","iti_localizer","","html-keyboard-response","225","369938","0.0-2.0-56.0-1.0","29","15966","female","null","","","","null","","54","","","369628","1","","","","","","300","61400","310","62351","300","","","","","","","","","","","","","","","","","","","","","","","","","","","","","","","","","","","","","","","","","","","","","","","","","","","",""
"","localizer","","html-keyboard-response","226","370346","0.0-2.0-57.0-0.0","29","15966","female","NaN","","","","null","NaN","55","","Stimuli/Experimental_stims/localizer/faces/austin-wade-X6Uj51n5CE8-unsplash.jpg","369938","1","faces","","0","1","0","400","61700","408","62661","","","","","","","","","","","","","","","","","","","","","","","","","","","","","","","","","","","","","","","","","","","","","","","","","","","","",""
"","iti_localizer","","html-keyboard-response","227","370660","0.0-2.0-57.0-1.0","29","15966","female","null","","","","null","","55","","","370346","1","","","","","","300","62100","314","63069","300","","","","","","","","","","","","","","","","","","","","","","","","","","","","","","","","","","","","","","","","","","","","","","","","","","","",""
"","localizer","","html-keyboard-response","228","371068","0.0-2.0-58.0-0.0","29","15966","female","NaN","","","","null","NaN","56","","Stimuli/Experimental_stims/localizer/faces/mathias-huysmans-U4JDjYmjn1g-unsplash.jpg","370660","1","faces","","0","1","0","400","62400","408","63383","","","","","","","","","","","","","","","","","","","","","","","","","","","","","","","","","","","","","","","","","","","","","","","","","","","","",""
"","iti_localizer","","html-keyboard-response","229","371378","0.0-2.0-58.0-1.0","29","15966","female","null","","","","null","","56","","","371068","1","","","","","","300","62800","310","63791","300","","","","","","","","","","","","","","","","","","","","","","","","","","","","","","","","","","","","","","","","","","","","","","","","","","","",""
"","localizer","","html-keyboard-response","230","371788","0.0-2.0-59.0-0.0","29","15966","female","NaN","","","","null","NaN","57","","Stimuli/Experimental_stims/localizer/faces/ian-dooley-d1UPkiFd04A-unsplash.jpg","371378","1","faces","","0","1","0","400","63100","410","64101","","","","","","","","","","","","","","","","","","","","","","","","","","","","","","","","","","","","","","","","","","","","","","","","","","","","",""
"","iti_localizer","","html-keyboard-response","231","372099","0.0-2.0-59.0-1.0","29","15966","female","null","","","","null","","57","","","371788","1","","","","","","300","63500","311","64511","300","","","","","","","","","","","","","","","","","","","","","","","","","","","","","","","","","","","","","","","","","","","","","","","","","","","",""
"","localizer","","html-keyboard-response","232","372508","0.0-2.0-60.0-0.0","29","15966","female","NaN","","","","null","NaN","58","","Stimuli/Experimental_stims/localizer/faces/icons8-team-6LZuSzSwso0-unsplash.jpg","372099","1","faces","","0","1","0","400","63800","409","64822","","","","","","","","","","","","","","","","","","","","","","","","","","","","","","","","","","","","","","","","","","","","","","","","","","","","",""
"","iti_localizer","","html-keyboard-response","233","372820","0.0-2.0-60.0-1.0","29","15966","female","null","","","","null","","58","","","372508","1","","","","","","300","64200","312","65231","300","","","","","","","","","","","","","","","","","","","","","","","","","","","","","","","","","","","","","","","","","","","","","","","","","","","",""
"","localizer","","html-keyboard-response","234","373227","0.0-2.0-61.0-0.0","29","15966","female","NaN","","","","null","NaN","59","","Stimuli/Experimental_stims/localizer/faces/alexis-chloe-TYDkKEgc0Fg-unsplash.jpg","372820","1","faces","","0","1","0","400","64500","407","65543","","","","","","","","","","","","","","","","","","","","","","","","","","","","","","","","","","","","","","","","","","","","","","","","","","","","",""
"","iti_localizer","","html-keyboard-response","235","373540","0.0-2.0-61.0-1.0","29","15966","female","null","","","","null","","59","","","373227","1","","","","","","300","64900","313","65950","300","","","","","","","","","","","","","","","","","","","","","","","","","","","","","","","","","","","","","","","","","","","","","","","","","","","",""
"","localizer","","html-keyboard-response","236","373948","0.0-2.0-62.0-0.0","29","15966","female","NaN","","","","null","NaN","60","","Stimuli/Experimental_stims/localizer/faces/prince-akachi-LWkFHEGpleE-unsplash.jpg","373540","1","faces","","0","1","0","400","65200","408","66263","","","","","","","","","","","","","","","","","","","","","","","","","","","","","","","","","","","","","","","","","","","","","","","","","","","","",""
"","iti_localizer","","html-keyboard-response","237","374261","0.0-2.0-62.0-1.0","29","15966","female","null","","","","null","","60","","","373948","1","","","","","","300","65600","313","66671","300","","","","","","","","","","","","","","","","","","","","","","","","","","","","","","","","","","","","","","","","","","","","","","","","","","","",""
"","localizer","","html-keyboard-response","238","374669","0.0-2.0-63.0-0.0","29","15966","female","NaN","","","","null","NaN","61","","Stimuli/Experimental_stims/localizer/faces/katsiaryna-endruszkiewicz-BteCp6aq4GI-unsplash.jpg","374261","1","faces","","1","1","0","400","65900","408","66984","","","","","","","","","","","","","","","","","","","","","","","","","","","","","","","","","","","","","","","","","","","","","","","","","","","","",""
"","iti_localizer","","html-keyboard-response","239","374979","0.0-2.0-63.0-1.0","29","15966","female","null","","","","null","","61","","","374669","1","","","","","","300","66300","310","67392","300","","","","","","","","","","","","","","","","","","","","","","","","","","","","","","","","","","","","","","","","","","","","","","","","","","","",""
"","localizer","","html-keyboard-response","240","375386","0.0-2.0-64.0-0.0","29","15966","female","NaN","","","","null","NaN","62","","Stimuli/Experimental_stims/localizer/faces/hassan-khan-EGVccebWodM-unsplash.jpg","374979","1","faces","","0","1","0","400","66600","407","67702","","","","","","","","","","","","","","","","","","","","","","","","","","","","","","","","","","","","","","","","","","","","","","","","","","","","",""
"","iti_localizer","","html-keyboard-response","241","375698","0.0-2.0-64.0-1.0","29","15966","female","null","","","","null","","62","","","375386","1","","","","","","300","67000","312","68109","300","","","","","","","","","","","","","","","","","","","","","","","","","","","","","","","","","","","","","","","","","","","","","","","","","","","",""
"","localizer","","html-keyboard-response","242","376107","0.0-2.0-65.0-0.0","29","15966","female","NaN","","","","null","NaN","63","","Stimuli/Experimental_stims/localizer/faces/linkedin-sales-solutions-pAtA8xe_iVM-unsplash.jpg","375698","1","faces","","0","1","0","400","67300","409","68421","","","","","","","","","","","","","","","","","","","","","","","","","","","","","","","","","","","","","","","","","","","","","","","","","","","","",""
"","iti_localizer","","html-keyboard-response","243","376419","0.0-2.0-65.0-1.0","29","15966","female","null","","","","null","","63","","","376107","1","","","","","","300","67700","312","68830","300","","","","","","","","","","","","","","","","","","","","","","","","","","","","","","","","","","","","","","","","","","","","","","","","","","","",""
"","localizer","","html-keyboard-response","244","376827","0.0-2.0-66.0-0.0","29","15966","female","NaN","","","","null","NaN","64","","Stimuli/Experimental_stims/localizer/faces/philip-martin-5aGUyCW_PJw-unsplash.jpg","376419","1","faces","","0","1","0","400","68000","408","69142","","","","","","","","","","","","","","","","","","","","","","","","","","","","","","","","","","","","","","","","","","","","","","","","","","","","",""
"","iti_localizer","","html-keyboard-response","245","377138","0.0-2.0-66.0-1.0","29","15966","female","null","","","","null","","64","","","376827","1","","","","","","300","68400","311","69550","300","","","","","","","","","","","","","","","","","","","","","","","","","","","","","","","","","","","","","","","","","","","","","","","","","","","",""
"","localizer","","html-keyboard-response","246","377547","0.0-2.0-67.0-0.0","29","15966","female","NaN","","","","null","NaN","65","","Stimuli/Experimental_stims/localizer/faces/christina-wocintechchat-com-0Zx1bDv5BNY-unsplash.jpg","377138","1","faces","","0","1","0","400","68700","409","69861","","","","","","","","","","","","","","","","","","","","","","","","","","","","","","","","","","","","","","","","","","","","","","","","","","","","",""
"","iti_localizer","","html-keyboard-response","247","391555","0.0-2.0-67.0-1.0","29","15966","female","null","","","","null","","65","","","377547","1","","","","","","14000","69100","14008","70270","14000","","","","","","","","","","","","","","","","","","","","","","","","","","","","","","","","","","","","","","","","","","","","","","","","","","","",""
"","localizer","","html-keyboard-response","248","391963","0.0-2.0-68.0-0.0","29","15966","female","NaN","","","","null","NaN","66","","Stimuli/Experimental_stims/localizer/body_parts/bady-abbas-N-VEeMnm7gE-unsplash.jpg","391555","1","body_parts","","0","1","0","400","83100","408","84278","","","","","","","","","","","","","","","","","","","","","","","","","","","","","","","","","","","","","","","","","","","","","","","","","","","","",""
