"success","ttype","start_time","trial_type","trial_index","time_elapsed","internal_node_id","age","PID","gender","rt","responses","view_history","repeat_instructions","key_press","response","index","stimulus_index","path","missed_checkup","start_time_elapsed","run","task","isi","is_odd_ball","no_response","acc","duration","onset","duration_time_elapsed","onset_time_elapsed","trial_duration","left_chosen","chosen_stimulus","unchosen_stimulus","chosen_category","unchosen_category","chosen_rating","unchosen_rating","chosen_path","unchosen_path","pair_id","practice","scramble_screen_time","scramble_instructed_side","stim_type","iti","block","left_stimulus","right_stimulus","left_category","right_category","left_path","right_path","left_rating","right_rating","scramble_acc","stimulus_id","item_id","outcome","response_rt","deliberation_reward_tally","choice_type","gain_left","left_item_id","right_item_id","warning","higher_outcome_chosen","chosen_left","old_pair","pair_type","old_response","pair_acc","reward_type","outcome_response","outcome_rt","outcome_acc","category","choice","deliberated_stim","old_rating","new_rating","total_reward_tally"
"true","full_screen","d08162023hr1927","fullscreen","0","8105","0.0-0.0-0.0","33","21859","Female","","","","","","","","","","","","","","","","","","","","","","","","","","","","","","","","","","","","","","","","","","","","","","","","","","","","","","","","","","","","","","","","","","","","","","","","",""
"","get_id","","survey-text","1","36851","0.0-0.0-1.0","33","21859","Female","28733","{""Q0"":""33"",""Q1"":""Female""}","","","","","","","","","","","","","","","","","","","","","","","","","","","","","","","","","","","","","","","","","","","","","","","","","","","","","","","","","","","","","","","","","","","","","","",""
"","ratings_instructions","","instructions","2","47830","0.0-1.0-0.0-0.0","33","21859","Female","8530","","[{""page_index"":0,""viewing_time"":4380},{""page_index"":1,""viewing_time"":4149}]","","","","","","","","","","","","","","","","","","","","","","","","","","","","","","","","","","","","","","","","","","","","","","","","","","","","","","","","","","","","","","","","","","","","","",""
"","rating_comprehension_check","","survey-multi-choice","3","55287","0.0-1.0-0.0-1.0","33","21859","Female","7440","{""Q0"":""True"",""Q1"":""Mouse""}","","0","","","","","","","","","","","","","","","","","","","","","","","","","","","","","","","","","","","","","","","","","","","","","","","","","","","","","","","","","","","","","","","","","","","","",""
"","","","html-keyboard-response","4","59187","0.0-1.0-1.0","33","21859","Female","3883","","","","68","","","","","","","","","","","","","","","","","","","","","","","","","","","","","","","","","","","","","","","","","","","","","","","","","","","","","","","","","","","","","","","","","","","",""
"","rating","","html-slider-response","5","62358","0.0-1.0-2.0","33","21859","Female","3154","","","","","75","0","23","Stimuli/Experimental_stims/faces/rikonavt-HQjfrvdTfak-unsplash.jpg","","","","","","","","","","","","","","","","","","","","","","","","","","","","","","","","","","","","","","","","","","","","","","","","","","","","","","","","","","","","","","","",""
"","rating","","html-slider-response","6","64834","0.0-1.0-3.0","33","21859","Female","2462","","","","","38","1","17","Stimuli/Experimental_stims/faces/good-faces-xmSWVeGEnJw-unsplash.jpg","","","","","","","","","","","","","","","","","","","","","","","","","","","","","","","","","","","","","","","","","","","","","","","","","","","","","","","","","","","","","","","",""
"","rating","","html-slider-response","7","66754","0.0-1.0-4.0","33","21859","Female","1905","","","","","69","2","10","Stimuli/Experimental_stims/outdoor_scenes/shannon-kunkle-dM8INmkyDas-unsplash.jpg","","","","","","","","","","","","","","","","","","","","","","","","","","","","","","","","","","","","","","","","","","","","","","","","","","","","","","","","","","","","","","","",""
"","rating","","html-slider-response","8","69056","0.0-1.0-5.0","33","21859","Female","2287","","","","","70","3","37","Stimuli/Experimental_stims/objects/alexander-andrews-VLGWE_SumrA-unsplash.jpg","","","","","","","","","","","","","","","","","","","","","","","","","","","","","","","","","","","","","","","","","","","","","","","","","","","","","","","","","","","","","","","",""
"","rating","","html-slider-response","9","71619","0.0-1.0-6.0","33","21859","Female","2549","","","","","80","4","12","Stimuli/Experimental_stims/faces/aiony-haust-jmATI5Q_YgY-unsplash.jpg","","","","","","","","","","","","","","","","","","","","","","","","","","","","","","","","","","","","","","","","","","","","","","","","","","","","","","","","","","","","","","","",""
"","rating","","html-slider-response","10","73440","0.0-1.0-7.0","33","21859","Female","1809","","","","","75","5","13","Stimuli/Experimental_stims/faces/daniel-rigdon-dXmXKPP2L4E-unsplash.jpg","","","","","","","","","","","","","","","","","","","","","","","","","","","","","","","","","","","","","","","","","","","","","","","","","","","","","","","","","","","","","","","",""
"","rating","","html-slider-response","11","75098","0.0-1.0-8.0","33","21859","Female","1643","","","","","68","6","46","Stimuli/Experimental_stims/objects/mockup-graphics-PNsj6RiHAF4-unsplash.jpg","","","","","","","","","","","","","","","","","","","","","","","","","","","","","","","","","","","","","","","","","","","","","","","","","","","","","","","","","","","","","","","",""
"","rating","","html-slider-response","12","77634","0.0-1.0-9.0","33","21859","Female","2511","","","","","77","7","0","Stimuli/Experimental_stims/outdoor_scenes/aleksandra-boguslawska-MS7KD9Ti7FQ-unsplash.jpg","","","","","","","","","","","","","","","","","","","","","","","","","","","","","","","","","","","","","","","","","","","","","","","","","","","","","","","","","","","","","","","",""
"","rating","","html-slider-response","13","79463","0.0-1.0-10.0","33","21859","Female","1810","","","","","41","8","42","Stimuli/Experimental_stims/objects/jess-bailey-nOeVi8DsN8U-unsplash.jpg","","","","","","","","","","","","","","","","","","","","","","","","","","","","","","","","","","","","","","","","","","","","","","","","","","","","","","","","","","","","","","","",""
"","rating","","html-slider-response","14","81845","0.0-1.0-11.0","33","21859","Female","2363","","","","","66","9","29","Stimuli/Experimental_stims/body_parts/manuel-schinner-ZwjFuJ7ebpk-unsplash.jpg","","","","","","","","","","","","","","","","","","","","","","","","","","","","","","","","","","","","","","","","","","","","","","","","","","","","","","","","","","","","","","","",""
"","rating","","html-slider-response","15","83870","0.0-1.0-12.0","33","21859","Female","2008","","","","","73","10","45","Stimuli/Experimental_stims/objects/leohoho-rngTKHXumy0-unsplash.jpg","","","","","","","","","","","","","","","","","","","","","","","","","","","","","","","","","","","","","","","","","","","","","","","","","","","","","","","","","","","","","","","",""
"","rating","","html-slider-response","16","85747","0.0-1.0-13.0","33","21859","Female","1859","","","","","76","11","16","Stimuli/Experimental_stims/faces/freddy-kearney-o-ioeoATbIM-unsplash.jpg","","","","","","","","","","","","","","","","","","","","","","","","","","","","","","","","","","","","","","","","","","","","","","","","","","","","","","","","","","","","","","","",""
"","rating","","html-slider-response","17","87810","0.0-1.0-14.0","33","21859","Female","2045","","","","","81","12","35","Stimuli/Experimental_stims/body_parts/wc-so-KH4AAPjb-tI-unsplash.jpg","","","","","","","","","","","","","","","","","","","","","","","","","","","","","","","","","","","","","","","","","","","","","","","","","","","","","","","","","","","","","","","",""
"","rating","","html-slider-response","18","90066","0.0-1.0-15.0","33","21859","Female","2241","","","","","87","13","8","Stimuli/Experimental_stims/outdoor_scenes/samsommer-vddccTqwal8-unsplash.jpg","","","","","","","","","","","","","","","","","","","","","","","","","","","","","","","","","","","","","","","","","","","","","","","","","","","","","","","","","","","","","","","",""
"","rating","","html-slider-response","19","92271","0.0-1.0-16.0","33","21859","Female","2175","","","","","20","14","18","Stimuli/Experimental_stims/faces/jessica-radanavong-mrYkTuAesKE-unsplash.jpg","","","","","","","","","","","","","","","","","","","","","","","","","","","","","","","","","","","","","","","","","","","","","","","","","","","","","","","","","","","","","","","",""
"","rating","","html-slider-response","20","94079","0.0-1.0-17.0","33","21859","Female","1794","","","","","35","15","6","Stimuli/Experimental_stims/outdoor_scenes/meng-ji-8BH_M-53CyA-unsplash.jpg","","","","","","","","","","","","","","","","","","","","","","","","","","","","","","","","","","","","","","","","","","","","","","","","","","","","","","","","","","","","","","","",""
"","rating","","html-slider-response","21","96740","0.0-1.0-18.0","33","21859","Female","2639","","","","","66","16","2","Stimuli/Experimental_stims/outdoor_scenes/bruno-van-der-kraan-qez8mNJ3ilU-unsplash.jpg","","","","","","","","","","","","","","","","","","","","","","","","","","","","","","","","","","","","","","","","","","","","","","","","","","","","","","","","","","","","","","","",""
"","rating","","html-slider-response","22","99045","0.0-1.0-19.0","33","21859","Female","2283","","","","","24","17","33","Stimuli/Experimental_stims/body_parts/tucker-good-36skLT5jZcc-unsplash.jpg","","","","","","","","","","","","","","","","","","","","","","","","","","","","","","","","","","","","","","","","","","","","","","","","","","","","","","","","","","","","","","","",""
"","rating","","html-slider-response","23","101223","0.0-1.0-20.0","33","21859","Female","2160","","","","","72","18","25","Stimuli/Experimental_stims/body_parts/engin-akyurt-Q2rfH3GW39c-unsplash.jpg","","","","","","","","","","","","","","","","","","","","","","","","","","","","","","","","","","","","","","","","","","","","","","","","","","","","","","","","","","","","","","","",""
"","rating","","html-slider-response","24","104255","0.0-1.0-21.0","33","21859","Female","2973","","","","","87","19","4","Stimuli/Experimental_stims/outdoor_scenes/jarrett-kow-1ZOyYPOBn7I-unsplash.jpg","","","","","","","","","","","","","","","","","","","","","","","","","","","","","","","","","","","","","","","","","","","","","","","","","","","","","","","","","","","","","","","",""
"","rating","","html-slider-response","25","106454","0.0-1.0-22.0","33","21859","Female","2167","","","","","91","20","11","Stimuli/Experimental_stims/outdoor_scenes/stephen-leonardi-gyIRjKPXupE-unsplash.jpg","","","","","","","","","","","","","","","","","","","","","","","","","","","","","","","","","","","","","","","","","","","","","","","","","","","","","","","","","","","","","","","",""
"","rating","","html-slider-response","26","110218","0.0-1.0-23.0","33","21859","Female","3742","","","","","70","21","47","Stimuli/Experimental_stims/objects/ronaldo-arthur-vidal-Cdz_lvnl37k-unsplash.jpg","","","","","","","","","","","","","","","","","","","","","","","","","","","","","","","","","","","","","","","","","","","","","","","","","","","","","","","","","","","","","","","",""
"","rating","","html-slider-response","27","119498","0.0-1.0-24.0","33","21859","Female","9262","","","","","69","22","39","Stimuli/Experimental_stims/objects/charlesdeluvio-1-nx1QR5dTE-unsplash.jpg","","","","","","","","","","","","","","","","","","","","","","","","","","","","","","","","","","","","","","","","","","","","","","","","","","","","","","","","","","","","","","","",""
"","rating","","html-slider-response","28","122959","0.0-1.0-25.0","33","21859","Female","3441","","","","","80","23","3","Stimuli/Experimental_stims/outdoor_scenes/henry-be-NLF6hTe4PAg-unsplash.jpg","","","","","","","","","","","","","","","","","","","","","","","","","","","","","","","","","","","","","","","","","","","","","","","","","","","","","","","","","","","","","","","",""
"","rating","","html-slider-response","29","128048","0.0-1.0-26.0","33","21859","Female","5065","","","","","76","24","34","Stimuli/Experimental_stims/body_parts/wagner-santos-mBWMvIuVnso-unsplash.jpg","","","","","","","","","","","","","","","","","","","","","","","","","","","","","","","","","","","","","","","","","","","","","","","","","","","","","","","","","","","","","","","",""
"","rating","","html-slider-response","30","130493","0.0-1.0-27.0","33","21859","Female","2427","","","","","82","25","27","Stimuli/Experimental_stims/body_parts/heike-mintel-i_Gns0ELnLw-unsplash.jpg","","","","","","","","","","","","","","","","","","","","","","","","","","","","","","","","","","","","","","","","","","","","","","","","","","","","","","","","","","","","","","","",""
"","rating","","html-slider-response","31","134186","0.0-1.0-28.0","33","21859","Female","3673","","","","","67","26","43","Stimuli/Experimental_stims/objects/jonathan-greenaway-Y4hGgeiFn3s-unsplash.jpg","","","","","","","","","","","","","","","","","","","","","","","","","","","","","","","","","","","","","","","","","","","","","","","","","","","","","","","","","","","","","","","",""
"","rating","","html-slider-response","32","136622","0.0-1.0-29.0","33","21859","Female","2425","","","","","31","27","40","Stimuli/Experimental_stims/objects/fabian-blank-pElSkGRA2NU-unsplash.jpg","","","","","","","","","","","","","","","","","","","","","","","","","","","","","","","","","","","","","","","","","","","","","","","","","","","","","","","","","","","","","","","",""
"","rating","","html-slider-response","33","138207","0.0-1.0-30.0","33","21859","Female","1573","","","","","39","28","38","Stimuli/Experimental_stims/objects/art-lasovsky-8XddFc6NkBY-unsplash.jpg","","","","","","","","","","","","","","","","","","","","","","","","","","","","","","","","","","","","","","","","","","","","","","","","","","","","","","","","","","","","","","","",""
"","rating","","html-slider-response","34","140524","0.0-1.0-31.0","33","21859","Female","2301","","","","","77","29","9","Stimuli/Experimental_stims/outdoor_scenes/sergey-pesterev-y-b_FOmJXdg-unsplash.jpg","","","","","","","","","","","","","","","","","","","","","","","","","","","","","","","","","","","","","","","","","","","","","","","","","","","","","","","","","","","","","","","",""
"","rating","","html-slider-response","35","143249","0.0-1.0-32.0","33","21859","Female","2708","","","","","78","30","19","Stimuli/Experimental_stims/faces/joel-mott-LaK153ghdig-unsplash.jpg","","","","","","","","","","","","","","","","","","","","","","","","","","","","","","","","","","","","","","","","","","","","","","","","","","","","","","","","","","","","","","","",""
"","rating","","html-slider-response","36","147193","0.0-1.0-33.0","33","21859","Female","3923","","","","","75","31","24","Stimuli/Experimental_stims/body_parts/clay-banks-LjqARJaJotc-unsplash.jpg","","","","","","","","","","","","","","","","","","","","","","","","","","","","","","","","","","","","","","","","","","","","","","","","","","","","","","","","","","","","","","","",""
"","rating","","html-slider-response","37","149322","0.0-1.0-34.0","33","21859","Female","2109","","","","","28","32","14","Stimuli/Experimental_stims/faces/david-siglin-UuW4psOb388-unsplash.jpg","","","","","","","","","","","","","","","","","","","","","","","","","","","","","","","","","","","","","","","","","","","","","","","","","","","","","","","","","","","","","","","",""
"","rating","","html-slider-response","38","151422","0.0-1.0-35.0","33","21859","Female","2088","","","","","74","33","44","Stimuli/Experimental_stims/objects/kuiye-chen-NuOGFo4PudE-unsplash.jpg","","","","","","","","","","","","","","","","","","","","","","","","","","","","","","","","","","","","","","","","","","","","","","","","","","","","","","","","","","","","","","","",""
"","rating","","html-slider-response","39","154777","0.0-1.0-36.0","33","21859","Female","3345","","","","","75","34","15","Stimuli/Experimental_stims/faces/erik-lucatero-d2MSDujJl2g-unsplash.jpg","","","","","","","","","","","","","","","","","","","","","","","","","","","","","","","","","","","","","","","","","","","","","","","","","","","","","","","","","","","","","","","",""
"","rating","","html-slider-response","40","157021","0.0-1.0-37.0","33","21859","Female","2232","","","","","30","35","1","Stimuli/Experimental_stims/outdoor_scenes/ashim-d-silva-S2Q5mdOrrVc-unsplash.jpg","","","","","","","","","","","","","","","","","","","","","","","","","","","","","","","","","","","","","","","","","","","","","","","","","","","","","","","","","","","","","","","",""
"","rating","","html-slider-response","41","160804","0.0-1.0-38.0","33","21859","Female","3770","","","","","64","36","22","Stimuli/Experimental_stims/faces/ravi-patel-VMGAbeeJTKo-unsplash.jpg","","","","","","","","","","","","","","","","","","","","","","","","","","","","","","","","","","","","","","","","","","","","","","","","","","","","","","","","","","","","","","","",""
"","rating","","html-slider-response","42","163144","0.0-1.0-39.0","33","21859","Female","2323","","","","","73","37","26","Stimuli/Experimental_stims/body_parts/engin-akyurt-x_3gyC42btc-unsplash.jpg","","","","","","","","","","","","","","","","","","","","","","","","","","","","","","","","","","","","","","","","","","","","","","","","","","","","","","","","","","","","","","","",""
"","rating","","html-slider-response","43","164776","0.0-1.0-40.0","33","21859","Female","1611","","","","","79","38","31","Stimuli/Experimental_stims/body_parts/sincerely-media-VN6DbKajo5s-unsplash.jpg","","","","","","","","","","","","","","","","","","","","","","","","","","","","","","","","","","","","","","","","","","","","","","","","","","","","","","","","","","","","","","","",""
"","rating","","html-slider-response","44","167813","0.0-1.0-41.0","33","21859","Female","3019","","","","","80","39","36","Stimuli/Experimental_stims/objects/alexander-andrews-JYGnB9gTCls-unsplash.jpg","","","","","","","","","","","","","","","","","","","","","","","","","","","","","","","","","","","","","","","","","","","","","","","","","","","","","","","","","","","","","","","",""
"","rating","","html-slider-response","45","170902","0.0-1.0-42.0","33","21859","Female","3073","","","","","54","40","28","Stimuli/Experimental_stims/body_parts/ira-vishnevskaya-8DQAvdCby1I-unsplash.jpg","","","","","","","","","","","","","","","","","","","","","","","","","","","","","","","","","","","","","","","","","","","","","","","","","","","","","","","","","","","","","","","",""
"","rating","","html-slider-response","46","172587","0.0-1.0-43.0","33","21859","Female","1664","","","","","53","41","20","Stimuli/Experimental_stims/faces/justin-chen-J7Cf1Gch49E-unsplash.jpg","","","","","","","","","","","","","","","","","","","","","","","","","","","","","","","","","","","","","","","","","","","","","","","","","","","","","","","","","","","","","","","",""
"","rating","","html-slider-response","47","174705","0.0-1.0-44.0","33","21859","Female","2097","","","","","52","42","41","Stimuli/Experimental_stims/objects/insung-yoon-w2JtIQQXoRU-unsplash.jpg","","","","","","","","","","","","","","","","","","","","","","","","","","","","","","","","","","","","","","","","","","","","","","","","","","","","","","","","","","","","","","","",""
"","rating","","html-slider-response","48","176498","0.0-1.0-45.0","33","21859","Female","1779","","","","","54","43","7","Stimuli/Experimental_stims/outdoor_scenes/petr-vysohlid-9fqwGqGLUxc-unsplash.jpg","","","","","","","","","","","","","","","","","","","","","","","","","","","","","","","","","","","","","","","","","","","","","","","","","","","","","","","","","","","","","","","",""
"","rating","","html-slider-response","49","178300","0.0-1.0-46.0","33","21859","Female","1787","","","","","46","44","5","Stimuli/Experimental_stims/outdoor_scenes/jeff-king-bJHWJeiHfHc-unsplash.jpg","","","","","","","","","","","","","","","","","","","","","","","","","","","","","","","","","","","","","","","","","","","","","","","","","","","","","","","","","","","","","","","",""
"","rating","","html-slider-response","50","180174","0.0-1.0-47.0","33","21859","Female","1857","","","","","45","45","30","Stimuli/Experimental_stims/body_parts/mika-korhonen-Xodzxosar18-unsplash.jpg","","","","","","","","","","","","","","","","","","","","","","","","","","","","","","","","","","","","","","","","","","","","","","","","","","","","","","","","","","","","","","","",""
"","rating","","html-slider-response","51","185414","0.0-1.0-48.0","33","21859","Female","5227","","","","","47","46","32","Stimuli/Experimental_stims/body_parts/towfiqu-barbhuiya-3AsiVDsZnHg-unsplash.jpg","","","","","","","","","","","","","","","","","","","","","","","","","","","","","","","","","","","","","","","","","","","","","","","","","","","","","","","","","","","","","","","",""
"","rating","","html-slider-response","52","187758","0.0-1.0-49.0","33","21859","Female","2330","","","","","47","47","21","Stimuli/Experimental_stims/faces/leilani-angel-K84vnnzxmTQ-unsplash.jpg","","","","","","","","","","","","","","","","","","","","","","","","","","","","","","","","","","","","","","","","","","","","","","","","","","","","","","","","","","","","","","","",""
"","localizer_instructions","","instructions","53","201244","0.0-2.0-0.0-0.0","33","21859","Female","13307","","[{""page_index"":0,""viewing_time"":5509},{""page_index"":1,""viewing_time"":5341},{""page_index"":2,""viewing_time"":2457}]","","","","","","","","","","","","","","","","","","","","","","","","","","","","","","","","","","","","","","","","","","","","","","","","","","","","","","","","","","","","","","","","","","","","","",""
"","localizer_comprehension_check","","survey-multi-choice","54","209581","0.0-2.0-0.0-1.0","33","21859","Female","8315","{""Q0"":""True"",""Q1"":""D"",""Q2"":""K""}","","1","","","","","","","","","","","","","","","","","","","","","","","","","","","","","","","","","","","","","","","","","","","","","","","","","","","","","","","","","","","","","","","","","","","","",""
"","missed_instruction_checkup","","html-keyboard-response","55","213860","0.0-2.0-0.0-2.0-0.0","33","21859","Female","4265","","","","68","","","","","1","","","","","","","","","","","","","","","","","","","","","","","","","","","","","","","","","","","","","","","","","","","","","","","","","","","","","","","","","","","","","","",""
"","localizer_instructions","","instructions","56","219115","0.0-2.0-0.1-0.1","33","21859","Female","5245","","[{""page_index"":0,""viewing_time"":2060},{""page_index"":1,""viewing_time"":1258},{""page_index"":2,""viewing_time"":1927}]","","","","","","","","","","","","","","","","","","","","","","","","","","","","","","","","","","","","","","","","","","","","","","","","","","","","","","","","","","","","","","","","","","","","","",""
"","localizer_comprehension_check","","survey-multi-choice","57","226411","0.0-2.0-0.1-1.1","33","21859","Female","7285","{""Q0"":""True"",""Q1"":""K"",""Q2"":""D""}","","0","","","","","","","","","","","","","","","","","","","","","","","","","","","","","","","","","","","","","","","","","","","","","","","","","","","","","","","","","","","","","","","","","","","","",""
"","","","html-keyboard-response","58","231282","0.0-2.0-1.0","33","21859","Female","4858","","","","68","","","","","","","","","","","","","","","","","","","","","","","","","","","","","","","","","","","","","","","","","","","","","","","","","","","","","","","","","","","","","","","","","","","",""
"","localizer","","html-keyboard-response","59","231711","0.0-2.0-2.0-0.0","33","21859","Female","NaN","","","","null","NaN","0","","Stimuli/Practice_stims/Localizer/annie-spratt-g9KFpAfQ5bc-unsplash.jpg","","231282","0","NaN","","0","1","0","400","0","429","0","","","","","","","","","","","","","","","","","","","","","","","","","","","","","","","","","","","","","","","","","","","","","","","","","","","",""
"","iti_localizer","","html-keyboard-response","60","232044","0.0-2.0-2.0-1.0","33","21859","Female","null","","","","null","","0","","","","231711","0","","","","","","300","400","333","429","300","","","","","","","","","","","","","","","","","","","","","","","","","","","","","","","","","","","","","","","","","","","","","","","","","","",""
"","localizer","","html-keyboard-response","61","232476","0.0-2.0-2.1-0.1","33","21859","Female","NaN","","","","null","NaN","0","","Stimuli/Practice_stims/Localizer/annie-spratt-g9KFpAfQ5bc-unsplash.jpg","","232044","0","NaN","","0","1","0","400","700","432","762","","","","","","","","","","","","","","","","","","","","","","","","","","","","","","","","","","","","","","","","","","","","","","","","","","","",""
"","iti_localizer","","html-keyboard-response","62","232803","0.0-2.0-2.1-1.1","33","21859","Female","null","","","","null","","0","","","","232476","0","","","","","","300","1100","327","1194","300","","","","","","","","","","","","","","","","","","","","","","","","","","","","","","","","","","","","","","","","","","","","","","","","","","",""
"","localizer","","html-keyboard-response","63","233232","0.0-2.0-2.2-0.2","33","21859","Female","258","","","","68","0","0","","Stimuli/Practice_stims/Localizer/annie-spratt-g9KFpAfQ5bc-unsplash.jpg","","232803","0","NaN","","0","0","1","400","1400","429","1521","","","","","","","","","","","","","","","","","","","","","","","","","","","","","","","","","","","","","","","","","","","","","","","","","","","",""
"","iti_localizer","","html-keyboard-response","64","233633","0.0-2.0-2.2-1.2","33","21859","Female","null","","","","null","","0","","","","233232","0","","","","","","300","1800","401","1950","300","","","","","","","","","","","","","","","","","","","","","","","","","","","","","","","","","","","","","","","","","","","","","","","","","","",""
"","localizer","","html-keyboard-response","65","234067","0.0-2.0-3.0-0.0","33","21859","Female","23","","","","68","0","1","","Stimuli/Practice_stims/Localizer/becca-tapert-sY5RjMB1KkE-unsplash.jpg","","233633","0","NaN","","0","0","1","400","2100","434","2351","","","","","","","","","","","","","","","","","","","","","","","","","","","","","","","","","","","","","","","","","","","","","","","","","","","",""
"","iti_localizer","","html-keyboard-response","66","234381","0.0-2.0-3.0-1.0","33","21859","Female","null","","","","null","","1","","","","234067","0","","","","","","300","2500","314","2785","300","","","","","","","","","","","","","","","","","","","","","","","","","","","","","","","","","","","","","","","","","","","","","","","","","","",""
"","localizer","","html-keyboard-response","67","234826","0.0-2.0-4.0-0.0","33","21859","Female","117","","","","68","0","2","","Stimuli/Practice_stims/Localizer/charl-durand-bsfXvI25iNg-unsplash.jpg","","234381","0","NaN","","1","0","0","400","2800","445","3099","","","","","","","","","","","","","","","","","","","","","","","","","","","","","","","","","","","","","","","","","","","","","","","","","","","",""
"","iti_localizer","","html-keyboard-response","68","235217","0.0-2.0-4.0-1.0","33","21859","Female","null","","","","null","","2","","","","234826","0","","","","","","300","3200","391","3544","300","","","","","","","","","","","","","","","","","","","","","","","","","","","","","","","","","","","","","","","","","","","","","","","","","","",""
"","localizer","","html-keyboard-response","69","235636","0.0-2.0-5.0-0.0","33","21859","Female","68","","","","75","1","3","","Stimuli/Practice_stims/Localizer/nizar-albusaidy-B2r2SWAf5CE-unsplash.jpg","","235217","0","NaN","","0","0","0","400","3500","419","3935","","","","","","","","","","","","","","","","","","","","","","","","","","","","","","","","","","","","","","","","","","","","","","","","","","","",""
"","iti_localizer","","html-keyboard-response","70","235960","0.0-2.0-5.0-1.0","33","21859","Female","null","","","","null","","3","","","","235636","0","","","","","","300","3900","324","4354","300","","","","","","","","","","","","","","","","","","","","","","","","","","","","","","","","","","","","","","","","","","","","","","","","","","",""
"","localizer","","html-keyboard-response","71","236378","0.0-2.0-6.0-0.0","33","21859","Female","35","","","","75","1","4","","Stimuli/Practice_stims/Localizer/randy-fath-epf1tdtIIkM-unsplash.jpg","","235960","0","NaN","","1","0","1","400","4200","418","4678","","","","","","","","","","","","","","","","","","","","","","","","","","","","","","","","","","","","","","","","","","","","","","","","","","","",""
"","iti_localizer","","html-keyboard-response","72","236725","0.0-2.0-6.0-1.0","33","21859","Female","null","","","","null","","4","","","","236378","0","","","","","","300","4600","347","5096","300","","","","","","","","","","","","","","","","","","","","","","","","","","","","","","","","","","","","","","","","","","","","","","","","","","",""
"","localizer","","html-keyboard-response","73","237212","0.0-2.0-7.0-0.0","33","21859","Female","19","","","","75","1","5","","Stimuli/Practice_stims/Localizer/yassine-khalfalli-adsQ9d_Cx0c-unsplash.jpg","","236725","0","NaN","","0","0","0","400","4900","487","5443","","","","","","","","","","","","","","","","","","","","","","","","","","","","","","","","","","","","","","","","","","","","","","","","","","","",""
"","iti_localizer","","html-keyboard-response","74","237594","0.0-2.0-7.0-1.0","33","21859","Female","null","","","","null","","5","","","","237212","0","","","","","","300","5300","382","5930","300","","","","","","","","","","","","","","","","","","","","","","","","","","","","","","","","","","","","","","","","","","","","","","","","","","",""
"","practice_over","","html-keyboard-response","75","237715","0.0-2.0-7.0-2.0-0.0","33","21859","Female","112","","","","68","","","","","","","","","","","","","","","","","","","","","","","","","","","","","","","","","","","","","","","","","","","","","","","","","","","","","","","","","","","","","","","","","","","",""
"","start_run","","html-keyboard-response","76","241305","0.0-2.0-7.0-2.0-1.0","33","21859","Female","3580","","","","84","","","","","","","","","","","","","","","","","","","","","","","","","","","","","","","","","","","","","","","","","","","","","","","","","","","","","","","","","","","","","","","","","","","",""
"","localizer","","html-keyboard-response","77","242117","0.0-2.0-8.0-0.0","33","21859","Female","NaN","","","","null","NaN","6","","Stimuli/Experimental_stims/localizer/faces/allef-vinicius-C_1jjFJioWg-unsplash.jpg","","241305","1","faces","","0","1","0","400","0","812","0","","","","","","","","","","","","","","","","","","","","","","","","","","","","","","","","","","","","","","","","","","","","","","","","","","","",""
"","iti_localizer","","html-keyboard-response","78","242440","0.0-2.0-8.0-1.0","33","21859","Female","null","","","","null","","6","","","","242117","1","","","","","","300","400","323","812","300","","","","","","","","","","","","","","","","","","","","","","","","","","","","","","","","","","","","","","","","","","","","","","","","","","",""
"","localizer","","html-keyboard-response","79","242857","0.0-2.0-9.0-0.0","33","21859","Female","5","","","","68","0","7","","Stimuli/Experimental_stims/localizer/faces/ayo-ogunseinde-sibVwORYqs0-unsplash.jpg","","242440","1","faces","","1","0","0","400","700","417","1135","","","","","","","","","","","","","","","","","","","","","","","","","","","","","","","","","","","","","","","","","","","","","","","","","","","",""
"","iti_localizer","","html-keyboard-response","80","243266","0.0-2.0-9.0-1.0","33","21859","Female","null","","","","null","","7","","","","242857","1","","","","","","300","1100","409","1552","300","","","","","","","","","","","","","","","","","","","","","","","","","","","","","","","","","","","","","","","","","","","","","","","","","","",""
"","localizer","","html-keyboard-response","81","243766","0.0-2.0-10.0-0.0","33","21859","Female","62","","","","75","1","8","","Stimuli/Experimental_stims/localizer/faces/abstral-official-cyOKLSgkgCE-unsplash.jpg","","243266","1","faces","","0","0","0","400","1400","500","1961","","","","","","","","","","","","","","","","","","","","","","","","","","","","","","","","","","","","","","","","","","","","","","","","","","","",""
"","iti_localizer","","html-keyboard-response","82","244213","0.0-2.0-10.0-1.0","33","21859","Female","null","","","","null","","8","","","","243766","1","","","","","","300","1800","447","2461","300","","","","","","","","","","","","","","","","","","","","","","","","","","","","","","","","","","","","","","","","","","","","","","","","","","",""
"","localizer","","html-keyboard-response","83","244648","0.0-2.0-11.0-0.0","33","21859","Female","5","","","","68","0","9","","Stimuli/Experimental_stims/localizer/faces/hisu-lee-2qvxIr_DXGo-unsplash.jpg","","244213","1","faces","","0","0","1","400","2100","435","2908","","","","","","","","","","","","","","","","","","","","","","","","","","","","","","","","","","","","","","","","","","","","","","","","","","","",""
"","iti_localizer","","html-keyboard-response","84","244957","0.0-2.0-11.0-1.0","33","21859","Female","null","","","","null","","9","","","","244648","1","","","","","","300","2500","309","3343","300","","","","","","","","","","","","","","","","","","","","","","","","","","","","","","","","","","","","","","","","","","","","","","","","","","",""
"","localizer","","html-keyboard-response","85","245383","0.0-2.0-12.0-0.0","33","21859","Female","268","","","","68","0","10","","Stimuli/Experimental_stims/localizer/faces/austin-wade-X6Uj51n5CE8-unsplash.jpg","","244957","1","faces","","0","0","1","400","2800","426","3652","","","","","","","","","","","","","","","","","","","","","","","","","","","","","","","","","","","","","","","","","","","","","","","","","","","",""
"","iti_localizer","","html-keyboard-response","86","245727","0.0-2.0-12.0-1.0","33","21859","Female","null","","","","null","","10","","","","245383","1","","","","","","300","3200","344","4078","300","","","","","","","","","","","","","","","","","","","","","","","","","","","","","","","","","","","","","","","","","","","","","","","","","","",""
"","localizer","","html-keyboard-response","87","246170","0.0-2.0-13.0-0.0","33","21859","Female","86","","","","75","1","11","","Stimuli/Experimental_stims/localizer/faces/darshan-patel-QJEVpydulGs-unsplash.jpg","","245727","1","faces","","0","0","0","400","3500","443","4422","","","","","","","","","","","","","","","","","","","","","","","","","","","","","","","","","","","","","","","","","","","","","","","","","","","",""
"","iti_localizer","","html-keyboard-response","88","246489","0.0-2.0-13.0-1.0","33","21859","Female","null","","","","null","","11","","","","246170","1","","","","","","300","3900","319","4865","300","","","","","","","","","","","","","","","","","","","","","","","","","","","","","","","","","","","","","","","","","","","","","","","","","","",""
"","localizer","","html-keyboard-response","89","246901","0.0-2.0-14.0-0.0","33","21859","Female","17","","","","75","1","12","","Stimuli/Experimental_stims/localizer/faces/aleksandar-popovski-Jy4ELSGPHTc-unsplash.jpg","","246489","1","faces","","0","0","0","400","4200","412","5184","","","","","","","","","","","","","","","","","","","","","","","","","","","","","","","","","","","","","","","","","","","","","","","","","","","",""
"","iti_localizer","","html-keyboard-response","90","247212","0.0-2.0-14.0-1.0","33","21859","Female","null","","","","null","","12","","","","246901","1","","","","","","300","4600","311","5596","300","","","","","","","","","","","","","","","","","","","","","","","","","","","","","","","","","","","","","","","","","","","","","","","","","","",""
"","localizer","","html-keyboard-response","91","247629","0.0-2.0-15.0-0.0","33","21859","Female","1","","","","75","1","13","","Stimuli/Experimental_stims/localizer/faces/ethan-haddox-__ng3cRXmFE-unsplash.jpg","","247212","1","faces","","0","0","0","400","4900","417","5907","","","","","","","","","","","","","","","","","","","","","","","","","","","","","","","","","","","","","","","","","","","","","","","","","","","",""
"","iti_localizer","","html-keyboard-response","92","247950","0.0-2.0-15.0-1.0","33","21859","Female","null","","","","null","","13","","","","247629","1","","","","","","300","5300","321","6324","300","","","","","","","","","","","","","","","","","","","","","","","","","","","","","","","","","","","","","","","","","","","","","","","","","","",""
"","localizer","","html-keyboard-response","93","248468","0.0-2.0-16.0-0.0","33","21859","Female","171","","","","75","1","14","","Stimuli/Experimental_stims/localizer/faces/jake-nackos-IF9TK5Uy-KI-unsplash.jpg","","247950","1","faces","","0","0","0","400","5600","518","6645","","","","","","","","","","","","","","","","","","","","","","","","","","","","","","","","","","","","","","","","","","","","","","","","","","","",""
"","iti_localizer","","html-keyboard-response","94","248794","0.0-2.0-16.0-1.0","33","21859","Female","null","","","","null","","14","","","","248468","1","","","","","","300","6000","326","7163","300","","","","","","","","","","","","","","","","","","","","","","","","","","","","","","","","","","","","","","","","","","","","","","","","","","",""
"","localizer","","html-keyboard-response","95","249216","0.0-2.0-17.0-0.0","33","21859","Female","48","","","","68","0","15","","Stimuli/Experimental_stims/localizer/faces/mubariz-mehdizadeh-o-wlIFT4zE4-unsplash.jpg","","248794","1","faces","","0","0","1","400","6300","422","7489","","","","","","","","","","","","","","","","","","","","","","","","","","","","","","","","","","","","","","","","","","","","","","","","","","","",""
"","iti_localizer","","html-keyboard-response","96","249536","0.0-2.0-17.0-1.0","33","21859","Female","null","","","","null","","15","","","","249216","1","","","","","","300","6700","320","7911","300","","","","","","","","","","","","","","","","","","","","","","","","","","","","","","","","","","","","","","","","","","","","","","","","","","",""
"","localizer","","html-keyboard-response","97","249948","0.0-2.0-18.0-0.0","33","21859","Female","3","","","","68","0","16","","Stimuli/Experimental_stims/localizer/faces/stephanie-nakagawa-ADSKIn0ScDg-unsplash.jpg","","249536","1","faces","","0","0","1","400","7000","412","8231","","","","","","","","","","","","","","","","","","","","","","","","","","","","","","","","","","","","","","","","","","","","","","","","","","","",""
"","iti_localizer","","html-keyboard-response","98","250268","0.0-2.0-18.0-1.0","33","21859","Female","null","","","","null","","16","","","","249948","1","","","","","","300","7400","320","8643","300","","","","","","","","","","","","","","","","","","","","","","","","","","","","","","","","","","","","","","","","","","","","","","","","","","",""
"","localizer","","html-keyboard-response","99","250690","0.0-2.0-19.0-0.0","33","21859","Female","30","","","","75","1","17","","Stimuli/Experimental_stims/localizer/faces/foto-sushi-6anudmpILw4-unsplash.jpg","","250268","1","faces","","0","0","0","400","7700","422","8963","","","","","","","","","","","","","","","","","","","","","","","","","","","","","","","","","","","","","","","","","","","","","","","","","","","",""
"","iti_localizer","","html-keyboard-response","100","251006","0.0-2.0-19.0-1.0","33","21859","Female","null","","","","null","","17","","","","250690","1","","","","","","300","8100","316","9385","300","","","","","","","","","","","","","","","","","","","","","","","","","","","","","","","","","","","","","","","","","","","","","","","","","","",""
"","localizer","","html-keyboard-response","101","251431","0.0-2.0-20.0-0.0","33","21859","Female","199","","","","75","1","18","","Stimuli/Experimental_stims/localizer/faces/samuel-dixon--fQ5XNOcqFQ-unsplash.jpg","","251006","1","faces","","0","0","0","400","8400","425","9701","","","","","","","","","","","","","","","","","","","","","","","","","","","","","","","","","","","","","","","","","","","","","","","","","","","",""
"","iti_localizer","","html-keyboard-response","102","251759","0.0-2.0-20.0-1.0","33","21859","Female","null","","","","null","","18","","","","251431","1","","","","","","300","8800","328","10126","300","","","","","","","","","","","","","","","","","","","","","","","","","","","","","","","","","","","","","","","","","","","","","","","","","","",""
"","localizer","","html-keyboard-response","103","252170","0.0-2.0-21.0-0.0","33","21859","Female","2","","","","68","0","19","","Stimuli/Experimental_stims/localizer/faces/jeffery-erhunse-vp9mRauo68c-unsplash.jpg","","251759","1","faces","","0","0","1","400","9100","411","10454","","","","","","","","","","","","","","","","","","","","","","","","","","","","","","","","","","","","","","","","","","","","","","","","","","","",""
"","iti_localizer","","html-keyboard-response","104","252491","0.0-2.0-21.0-1.0","33","21859","Female","null","","","","null","","19","","","","252170","1","","","","","","300","9500","321","10865","300","","","","","","","","","","","","","","","","","","","","","","","","","","","","","","","","","","","","","","","","","","","","","","","","","","",""
"","localizer","","html-keyboard-response","105","253086","0.0-2.0-22.0-0.0","33","21859","Female","75","","","","75","1","20","","Stimuli/Experimental_stims/localizer/faces/ayo-ogunseinde-6W4F62sN_yI-unsplash.jpg","","252491","1","faces","","0","0","0","400","9800","595","11186","","","","","","","","","","","","","","","","","","","","","","","","","","","","","","","","","","","","","","","","","","","","","","","","","","","",""
"","iti_localizer","","html-keyboard-response","106","253644","0.0-2.0-22.0-1.0","33","21859","Female","null","","","","null","","20","","","","253086","1","","","","","","300","10200","558","11781","300","","","","","","","","","","","","","","","","","","","","","","","","","","","","","","","","","","","","","","","","","","","","","","","","","","",""
"","localizer","","html-keyboard-response","107","254163","0.0-2.0-23.0-0.0","33","21859","Female","316","","","","68","0","21","","Stimuli/Experimental_stims/localizer/faces/whereslugo-zl_fPgiwduo-unsplash.jpg","","253644","1","faces","","0","0","1","400","10500","519","12339","","","","","","","","","","","","","","","","","","","","","","","","","","","","","","","","","","","","","","","","","","","","","","","","","","","",""
"","iti_localizer","","html-keyboard-response","108","254476","0.0-2.0-23.0-1.0","33","21859","Female","null","","","","null","","21","","","","254163","1","","","","","","300","10900","313","12858","300","","","","","","","","","","","","","","","","","","","","","","","","","","","","","","","","","","","","","","","","","","","","","","","","","","",""
"","localizer","","html-keyboard-response","109","254887","0.0-2.0-24.0-0.0","33","21859","Female","134","","","","68","0","22","","Stimuli/Experimental_stims/localizer/faces/chanvre-quebec-mXu1SpzHq6w-unsplash.jpg","","254476","1","faces","","0","0","1","400","11200","411","13171","","","","","","","","","","","","","","","","","","","","","","","","","","","","","","","","","","","","","","","","","","","","","","","","","","","",""
"","iti_localizer","","html-keyboard-response","110","255217","0.0-2.0-24.0-1.0","33","21859","Female","null","","","","null","","22","","","","254887","1","","","","","","300","11600","330","13582","300","","","","","","","","","","","","","","","","","","","","","","","","","","","","","","","","","","","","","","","","","","","","","","","","","","",""
"","localizer","","html-keyboard-response","111","255691","0.0-2.0-25.0-0.0","33","21859","Female","99","","","","68","0","23","","Stimuli/Experimental_stims/localizer/faces/ian-dooley-d1UPkiFd04A-unsplash.jpg","","255217","1","faces","","0","0","1","400","11900","474","13912","","","","","","","","","","","","","","","","","","","","","","","","","","","","","","","","","","","","","","","","","","","","","","","","","","","",""
"","iti_localizer","","html-keyboard-response","112","256003","0.0-2.0-25.0-1.0","33","21859","Female","null","","","","null","","23","","","","255691","1","","","","","","300","12300","312","14386","300","","","","","","","","","","","","","","","","","","","","","","","","","","","","","","","","","","","","","","","","","","","","","","","","","","",""
"","localizer","","html-keyboard-response","113","256412","0.0-2.0-26.0-0.0","33","21859","Female","59","","","","68","0","24","","Stimuli/Experimental_stims/localizer/faces/matheus-ferrero-W7b3eDUb_2I-unsplash.jpg","","256003","1","faces","","1","0","0","400","12600","409","14698","","","","","","","","","","","","","","","","","","","","","","","","","","","","","","","","","","","","","","","","","","","","","","","","","","","",""
"","iti_localizer","","html-keyboard-response","114","256743","0.0-2.0-26.0-1.0","33","21859","Female","null","","","","null","","24","","","","256412","1","","","","","","300","13000","331","15107","300","","","","","","","","","","","","","","","","","","","","","","","","","","","","","","","","","","","","","","","","","","","","","","","","","","",""
"","localizer","","html-keyboard-response","115","257156","0.0-2.0-27.0-0.0","33","21859","Female","29","","","","75","1","25","","Stimuli/Experimental_stims/localizer/faces/jeffery-erhunse-BQMZ5ligqps-unsplash.jpg","","256743","1","faces","","0","0","0","400","13300","413","15438","","","","","","","","","","","","","","","","","","","","","","","","","","","","","","","","","","","","","","","","","","","","","","","","","","","",""
"","iti_localizer","","html-keyboard-response","116","271170","0.0-2.0-27.0-1.0","33","21859","Female","null","","","","null","","25","","","","257156","1","","","","","","14000","13700","14014","15851","14000","","","","","","","","","","","","","","","","","","","","","","","","","","","","","","","","","","","","","","","","","","","","","","","","","","",""
"","localizer","","html-keyboard-response","117","271582","0.0-2.0-28.0-0.0","33","21859","Female","NaN","","","","null","NaN","26","","Stimuli/Experimental_stims/localizer/body_parts/jeremy-bishop-mLd3hAaH2ns-unsplash.jpg","","271170","1","body_parts","","0","1","0","400","27700","412","29865","","","","","","","","","","","","","","","","","","","","","","","","","","","","","","","","","","","","","","","","","","","","","","","","","","","",""
"","iti_localizer","","html-keyboard-response","118","271895","0.0-2.0-28.0-1.0","33","21859","Female","null","","","","null","","26","","","","271582","1","","","","","","300","28100","313","30277","300","","","","","","","","","","","","","","","","","","","","","","","","","","","","","","","","","","","","","","","","","","","","","","","","","","",""
"","localizer","","html-keyboard-response","119","272309","0.0-2.0-29.0-0.0","33","21859","Female","NaN","","","","null","NaN","27","","Stimuli/Experimental_stims/localizer/body_parts/sincerely-media-3DZHTq_i7Qk-unsplash.jpg","","271895","1","body_parts","","0","1","0","400","28400","414","30590","","","","","","","","","","","","","","","","","","","","","","","","","","","","","","","","","","","","","","","","","","","","","","","","","","","",""
"","iti_localizer","","html-keyboard-response","120","272629","0.0-2.0-29.0-1.0","33","21859","Female","null","","","","null","","27","","","","272309","1","","","","","","300","28800","320","31004","300","","","","","","","","","","","","","","","","","","","","","","","","","","","","","","","","","","","","","","","","","","","","","","","","","","",""
"","localizer","","html-keyboard-response","121","273101","0.0-2.0-30.0-0.0","33","21859","Female","NaN","","","","null","NaN","28","","Stimuli/Experimental_stims/localizer/body_parts/nick-page-jAGdpOGvLAA-unsplash.jpg","","272629","1","body_parts","","0","1","0","400","29100","472","31324","","","","","","","","","","","","","","","","","","","","","","","","","","","","","","","","","","","","","","","","","","","","","","","","","","","",""
"","iti_localizer","","html-keyboard-response","122","273412","0.0-2.0-30.0-1.0","33","21859","Female","null","","","","null","","28","","","","273101","1","","","","","","300","29500","311","31796","300","","","","","","","","","","","","","","","","","","","","","","","","","","","","","","","","","","","","","","","","","","","","","","","","","","",""
"","localizer","","html-keyboard-response","123","273875","0.0-2.0-31.0-0.0","33","21859","Female","195","","","","68","0","29","","Stimuli/Experimental_stims/localizer/body_parts/priscilla-du-preez-e6fcNpur53A-unsplash.jpg","","273412","1","body_parts","","1","0","0","400","29800","463","32107","","","","","","","","","","","","","","","","","","","","","","","","","","","","","","","","","","","","","","","","","","","","","","","","","","","",""
"","iti_localizer","","html-keyboard-response","124","274183","0.0-2.0-31.0-1.0","33","21859","Female","null","","","","null","","29","","","","273875","1","","","","","","300","30200","308","32570","300","","","","","","","","","","","","","","","","","","","","","","","","","","","","","","","","","","","","","","","","","","","","","","","","","","",""
"","localizer","","html-keyboard-response","125","274594","0.0-2.0-32.0-0.0","33","21859","Female","27","","","","68","0","30","","Stimuli/Experimental_stims/localizer/body_parts/lilartsy-1KkhQ8uL28g-unsplash.jpg","","274183","1","body_parts","","0","0","1","400","30500","411","32878","","","","","","","","","","","","","","","","","","","","","","","","","","","","","","","","","","","","","","","","","","","","","","","","","","","",""
"","iti_localizer","","html-keyboard-response","126","274906","0.0-2.0-32.0-1.0","33","21859","Female","null","","","","null","","30","","","","274594","1","","","","","","300","30900","312","33289","300","","","","","","","","","","","","","","","","","","","","","","","","","","","","","","","","","","","","","","","","","","","","","","","","","","",""
"","localizer","","html-keyboard-response","127","275342","0.0-2.0-33.0-0.0","33","21859","Female","111","","","","68","0","31","","Stimuli/Experimental_stims/localizer/body_parts/sippakorn-yamkasikorn-32_sJlJa5gA-unsplash.jpg","","274906","1","body_parts","","0","0","1","400","31200","436","33601","","","","","","","","","","","","","","","","","","","","","","","","","","","","","","","","","","","","","","","","","","","","","","","","","","","",""
"","iti_localizer","","html-keyboard-response","128","275751","0.0-2.0-33.0-1.0","33","21859","Female","null","","","","null","","31","","","","275342","1","","","","","","300","31600","409","34037","300","","","","","","","","","","","","","","","","","","","","","","","","","","","","","","","","","","","","","","","","","","","","","","","","","","",""
"","localizer","","html-keyboard-response","129","276175","0.0-2.0-34.0-0.0","33","21859","Female","85","","","","68","0","32","","Stimuli/Experimental_stims/localizer/body_parts/meghan-thompson-U1b8OB0QpIo-unsplash.jpg","","275751","1","body_parts","","0","0","1","400","31900","424","34446","","","","","","","","","","","","","","","","","","","","","","","","","","","","","","","","","","","","","","","","","","","","","","","","","","","",""
"","iti_localizer","","html-keyboard-response","130","276488","0.0-2.0-34.0-1.0","33","21859","Female","null","","","","null","","32","","","","276175","1","","","","","","300","32300","313","34870","300","","","","","","","","","","","","","","","","","","","","","","","","","","","","","","","","","","","","","","","","","","","","","","","","","","",""
"","localizer","","html-keyboard-response","131","276920","0.0-2.0-35.0-0.0","33","21859","Female","130","","","","75","1","33","","Stimuli/Experimental_stims/localizer/body_parts/semen-zhuravlev-_XxH_mV8dnk-unsplash (1).jpg","","276488","1","body_parts","","0","0","0","400","32600","432","35183","","","","","","","","","","","","","","","","","","","","","","","","","","","","","","","","","","","","","","","","","","","","","","","","","","","",""
"","iti_localizer","","html-keyboard-response","132","277285","0.0-2.0-35.0-1.0","33","21859","Female","null","","","","null","","33","","","","276920","1","","","","","","300","33000","365","35615","300","","","","","","","","","","","","","","","","","","","","","","","","","","","","","","","","","","","","","","","","","","","","","","","","","","",""
"","localizer","","html-keyboard-response","133","277706","0.0-2.0-36.0-0.0","33","21859","Female","3","","","","68","0","34","","Stimuli/Experimental_stims/localizer/body_parts/betzy-arosemena-YHdgnygtVCQ-unsplash.jpg","","277285","1","body_parts","","0","0","1","400","33300","421","35980","","","","","","","","","","","","","","","","","","","","","","","","","","","","","","","","","","","","","","","","","","","","","","","","","","","",""
"","iti_localizer","","html-keyboard-response","134","278016","0.0-2.0-36.0-1.0","33","21859","Female","null","","","","null","","34","","","","277706","1","","","","","","300","33700","310","36401","300","","","","","","","","","","","","","","","","","","","","","","","","","","","","","","","","","","","","","","","","","","","","","","","","","","",""
"","localizer","","html-keyboard-response","135","278433","0.0-2.0-37.0-0.0","33","21859","Female","116","","","","75","1","35","","Stimuli/Experimental_stims/localizer/body_parts/davidcohen-qghuLqyh3nE-unsplash.jpg","","278016","1","body_parts","","0","0","0","400","34000","417","36711","","","","","","","","","","","","","","","","","","","","","","","","","","","","","","","","","","","","","","","","","","","","","","","","","","","",""
"","iti_localizer","","html-keyboard-response","136","278743","0.0-2.0-37.0-1.0","33","21859","Female","null","","","","null","","35","","","","278433","1","","","","","","300","34400","310","37128","300","","","","","","","","","","","","","","","","","","","","","","","","","","","","","","","","","","","","","","","","","","","","","","","","","","",""
"","localizer","","html-keyboard-response","137","279315","0.0-2.0-38.0-0.0","33","21859","Female","134","","","","75","1","36","","Stimuli/Experimental_stims/localizer/body_parts/niu-niu-5HzOtV-FSlw-unsplash.jpg","","278743","1","body_parts","","0","0","0","400","34700","572","37438","","","","","","","","","","","","","","","","","","","","","","","","","","","","","","","","","","","","","","","","","","","","","","","","","","","",""
"","iti_localizer","","html-keyboard-response","138","279687","0.0-2.0-38.0-1.0","33","21859","Female","null","","","","null","","36","","","","279315","1","","","","","","300","35100","372","38010","300","","","","","","","","","","","","","","","","","","","","","","","","","","","","","","","","","","","","","","","","","","","","","","","","","","",""
"","localizer","","html-keyboard-response","139","280108","0.0-2.0-39.0-0.0","33","21859","Female","57","","","","75","1","37","","Stimuli/Experimental_stims/localizer/body_parts/liv-bruce-M0oVPGsWk1E-unsplash.jpg","","279687","1","body_parts","","0","0","0","400","35400","421","38382","","","","","","","","","","","","","","","","","","","","","","","","","","","","","","","","","","","","","","","","","","","","","","","","","","","",""
"","iti_localizer","","html-keyboard-response","140","280418","0.0-2.0-39.0-1.0","33","21859","Female","null","","","","null","","37","","","","280108","1","","","","","","300","35800","310","38803","300","","","","","","","","","","","","","","","","","","","","","","","","","","","","","","","","","","","","","","","","","","","","","","","","","","",""
"","localizer","","html-keyboard-response","141","280834","0.0-2.0-40.0-0.0","33","21859","Female","107","","","","75","1","38","","Stimuli/Experimental_stims/localizer/body_parts/nick-page-WTNmgJtwzGI-unsplash.jpg","","280418","1","body_parts","","0","0","0","400","36100","416","39113","","","","","","","","","","","","","","","","","","","","","","","","","","","","","","","","","","","","","","","","","","","","","","","","","","","",""
"","iti_localizer","","html-keyboard-response","142","281155","0.0-2.0-40.0-1.0","33","21859","Female","null","","","","null","","38","","","","280834","1","","","","","","300","36500","321","39529","300","","","","","","","","","","","","","","","","","","","","","","","","","","","","","","","","","","","","","","","","","","","","","","","","","","",""
"","localizer","","html-keyboard-response","143","281566","0.0-2.0-41.0-0.0","33","21859","Female","3","","","","68","0","39","","Stimuli/Experimental_stims/localizer/body_parts/billie-5OXE3KjDEfI-unsplash.jpg","","281155","1","body_parts","","0","0","1","400","36800","411","39850","","","","","","","","","","","","","","","","","","","","","","","","","","","","","","","","","","","","","","","","","","","","","","","","","","","",""
"","iti_localizer","","html-keyboard-response","144","281882","0.0-2.0-41.0-1.0","33","21859","Female","null","","","","null","","39","","","","281566","1","","","","","","300","37200","316","40261","300","","","","","","","","","","","","","","","","","","","","","","","","","","","","","","","","","","","","","","","","","","","","","","","","","","",""
"","localizer","","html-keyboard-response","145","282336","0.0-2.0-42.0-0.0","33","21859","Female","82","","","","68","0","40","","Stimuli/Experimental_stims/localizer/body_parts/apostolos-vamvouras-g5wKHRu2QW0-unsplash.jpg","","281882","1","body_parts","","0","0","1","400","37500","454","40577","","","","","","","","","","","","","","","","","","","","","","","","","","","","","","","","","","","","","","","","","","","","","","","","","","","",""
"","iti_localizer","","html-keyboard-response","146","282671","0.0-2.0-42.0-1.0","33","21859","Female","null","","","","null","","40","","","","282336","1","","","","","","300","37900","335","41031","300","","","","","","","","","","","","","","","","","","","","","","","","","","","","","","","","","","","","","","","","","","","","","","","","","","",""
"","localizer","","html-keyboard-response","147","283081","0.0-2.0-43.0-0.0","33","21859","Female","152","","","","68","0","41","","Stimuli/Experimental_stims/localizer/body_parts/david-fanuel-qnV8X7OViNY-unsplash.jpg","","282671","1","body_parts","","0","0","1","400","38200","410","41366","","","","","","","","","","","","","","","","","","","","","","","","","","","","","","","","","","","","","","","","","","","","","","","","","","","",""
"","iti_localizer","","html-keyboard-response","148","283389","0.0-2.0-43.0-1.0","33","21859","Female","null","","","","null","","41","","","","283081","1","","","","","","300","38600","308","41776","300","","","","","","","","","","","","","","","","","","","","","","","","","","","","","","","","","","","","","","","","","","","","","","","","","","",""
"","localizer","","html-keyboard-response","149","283798","0.0-2.0-44.0-0.0","33","21859","Female","139","","","","68","0","42","","Stimuli/Experimental_stims/localizer/body_parts/nattalia-nunez-MB9sdDfZMSg-unsplash.jpg","","283389","1","body_parts","","0","0","1","400","38900","409","42084","","","","","","","","","","","","","","","","","","","","","","","","","","","","","","","","","","","","","","","","","","","","","","","","","","","",""
"","iti_localizer","","html-keyboard-response","150","284144","0.0-2.0-44.0-1.0","33","21859","Female","null","","","","null","","42","","","","283798","1","","","","","","300","39300","346","42493","300","","","","","","","","","","","","","","","","","","","","","","","","","","","","","","","","","","","","","","","","","","","","","","","","","","",""
"","localizer","","html-keyboard-response","151","284608","0.0-2.0-45.0-0.0","33","21859","Female","297","","","","68","0","43","","Stimuli/Experimental_stims/localizer/body_parts/carlos-henrique-NAOJKwZswbs-unsplash.jpg","","284144","1","body_parts","","0","0","1","400","39600","464","42839","","","","","","","","","","","","","","","","","","","","","","","","","","","","","","","","","","","","","","","","","","","","","","","","","","","",""
"","iti_localizer","","html-keyboard-response","152","284919","0.0-2.0-45.0-1.0","33","21859","Female","null","","","","null","","43","","","","284608","1","","","","","","300","40000","311","43303","300","","","","","","","","","","","","","","","","","","","","","","","","","","","","","","","","","","","","","","","","","","","","","","","","","","",""
"","localizer","","html-keyboard-response","153","285331","0.0-2.0-46.0-0.0","33","21859","Female","156","","","","75","1","44","","Stimuli/Experimental_stims/localizer/body_parts/jeremy-yap-TfJEi17kA0w-unsplash.jpg","","284919","1","body_parts","","1","0","1","400","40300","412","43614","","","","","","","","","","","","","","","","","","","","","","","","","","","","","","","","","","","","","","","","","","","","","","","","","","","",""
"","iti_localizer","","html-keyboard-response","154","285652","0.0-2.0-46.0-1.0","33","21859","Female","null","","","","null","","44","","","","285331","1","","","","","","300","40700","321","44026","300","","","","","","","","","","","","","","","","","","","","","","","","","","","","","","","","","","","","","","","","","","","","","","","","","","",""
"","localizer","","html-keyboard-response","155","286122","0.0-2.0-47.0-0.0","33","21859","Female","1","","","","75","1","45","","Stimuli/Experimental_stims/localizer/body_parts/danie-franco-jyyNiSEcCl4-unsplash.jpg","","285652","1","body_parts","","0","0","0","400","41000","470","44347","","","","","","","","","","","","","","","","","","","","","","","","","","","","","","","","","","","","","","","","","","","","","","","","","","","",""
"","iti_localizer","","html-keyboard-response","156","300360","0.0-2.0-47.0-1.0","33","21859","Female","null","","","","null","","45","","","","286122","1","","","","","","14000","41400","14238","44817","14000","","","","","","","","","","","","","","","","","","","","","","","","","","","","","","","","","","","","","","","","","","","","","","","","","","",""
"","localizer","","html-keyboard-response","157","300771","0.0-2.0-48.0-0.0","33","21859","Female","NaN","","","","null","NaN","46","","Stimuli/Experimental_stims/localizer/objects/chris-briggs-x9TCnxNBofE-unsplash.jpg","","300360","1","objects","","0","1","0","400","55400","411","59055","","","","","","","","","","","","","","","","","","","","","","","","","","","","","","","","","","","","","","","","","","","","","","","","","","","",""
"","iti_localizer","","html-keyboard-response","158","301095","0.0-2.0-48.0-1.0","33","21859","Female","null","","","","null","","46","","","","300771","1","","","","","","300","55800","324","59466","300","","","","","","","","","","","","","","","","","","","","","","","","","","","","","","","","","","","","","","","","","","","","","","","","","","",""
"","localizer","","html-keyboard-response","159","301531","0.0-2.0-49.0-0.0","33","21859","Female","320","","","","68","0","47","","Stimuli/Experimental_stims/localizer/objects/quino-al-8gWEAAXJjtI-unsplash.jpg","","301095","1","objects","","0","0","1","400","56100","436","59790","","","","","","","","","","","","","","","","","","","","","","","","","","","","","","","","","","","","","","","","","","","","","","","","","","","",""
"","iti_localizer","","html-keyboard-response","160","301844","0.0-2.0-49.0-1.0","33","21859","Female","null","","","","null","","47","","","","301531","1","","","","","","300","56500","313","60226","300","","","","","","","","","","","","","","","","","","","","","","","","","","","","","","","","","","","","","","","","","","","","","","","","","","",""
"","localizer","","html-keyboard-response","161","302262","0.0-2.0-50.0-0.0","33","21859","Female","65","","","","68","0","48","","Stimuli/Experimental_stims/localizer/objects/recha-oktaviani-t__61ap00Mc-unsplash.jpg","","301844","1","objects","","0","0","1","400","56800","418","60539","","","","","","","","","","","","","","","","","","","","","","","","","","","","","","","","","","","","","","","","","","","","","","","","","","","",""
"","iti_localizer","","html-keyboard-response","162","302645","0.0-2.0-50.0-1.0","33","21859","Female","null","","","","null","","48","","","","302262","1","","","","","","300","57200","383","60957","300","","","","","","","","","","","","","","","","","","","","","","","","","","","","","","","","","","","","","","","","","","","","","","","","","","",""
"","localizer","","html-keyboard-response","163","303210","0.0-2.0-51.0-0.0","33","21859","Female","86","","","","75","1","49","","Stimuli/Experimental_stims/localizer/objects/kelly-jean-cKjbI0Y00X0-unsplash.jpg","","302645","1","objects","","1","0","1","400","57500","565","61340","","","","","","","","","","","","","","","","","","","","","","","","","","","","","","","","","","","","","","","","","","","","","","","","","","","",""
"","iti_localizer","","html-keyboard-response","164","303519","0.0-2.0-51.0-1.0","33","21859","Female","null","","","","null","","49","","","","303210","1","","","","","","300","57900","309","61905","300","","","","","","","","","","","","","","","","","","","","","","","","","","","","","","","","","","","","","","","","","","","","","","","","","","",""
"","localizer","","html-keyboard-response","165","303928","0.0-2.0-52.0-0.0","33","21859","Female","83","","","","75","1","50","","Stimuli/Experimental_stims/localizer/objects/mockup-graphics-Pj2PY-E-LfM-unsplash.jpg","","303519","1","objects","","0","0","0","400","58200","409","62214","","","","","","","","","","","","","","","","","","","","","","","","","","","","","","","","","","","","","","","","","","","","","","","","","","","",""
"","iti_localizer","","html-keyboard-response","166","304238","0.0-2.0-52.0-1.0","33","21859","Female","null","","","","null","","50","","","","303928","1","","","","","","300","58600","310","62623","300","","","","","","","","","","","","","","","","","","","","","","","","","","","","","","","","","","","","","","","","","","","","","","","","","","",""
"","localizer","","html-keyboard-response","167","304650","0.0-2.0-53.0-0.0","33","21859","Female","13","","","","68","0","51","","Stimuli/Experimental_stims/localizer/objects/andrew-petrov-TVJqDat4MAw-unsplash.jpg","","304238","1","objects","","0","0","1","400","58900","412","62933","","","","","","","","","","","","","","","","","","","","","","","","","","","","","","","","","","","","","","","","","","","","","","","","","","","",""
"","iti_localizer","","html-keyboard-response","168","304962","0.0-2.0-53.0-1.0","33","21859","Female","null","","","","null","","51","","","","304650","1","","","","","","300","59300","312","63345","300","","","","","","","","","","","","","","","","","","","","","","","","","","","","","","","","","","","","","","","","","","","","","","","","","","",""
"","localizer","","html-keyboard-response","169","305383","0.0-2.0-54.0-0.0","33","21859","Female","58","","","","75","1","52","","Stimuli/Experimental_stims/localizer/objects/ignat-dolomanov-kFBDVnmskPA-unsplash.jpg","","304962","1","objects","","0","0","0","400","59600","421","63657","","","","","","","","","","","","","","","","","","","","","","","","","","","","","","","","","","","","","","","","","","","","","","","","","","","",""
"","iti_localizer","","html-keyboard-response","170","305706","0.0-2.0-54.0-1.0","33","21859","Female","null","","","","null","","52","","","","305383","1","","","","","","300","60000","323","64078","300","","","","","","","","","","","","","","","","","","","","","","","","","","","","","","","","","","","","","","","","","","","","","","","","","","",""
"","localizer","","html-keyboard-response","171","306179","0.0-2.0-55.0-0.0","33","21859","Female","93","","","","75","1","53","","Stimuli/Experimental_stims/localizer/objects/ana-9GmAaEMMKho-unsplash.jpg","","305706","1","objects","","0","0","0","400","60300","473","64401","","","","","","","","","","","","","","","","","","","","","","","","","","","","","","","","","","","","","","","","","","","","","","","","","","","",""
"","iti_localizer","","html-keyboard-response","172","306529","0.0-2.0-55.0-1.0","33","21859","Female","null","","","","null","","53","","","","306179","1","","","","","","300","60700","350","64874","300","","","","","","","","","","","","","","","","","","","","","","","","","","","","","","","","","","","","","","","","","","","","","","","","","","",""
"","localizer","","html-keyboard-response","173","306964","0.0-2.0-56.0-0.0","33","21859","Female","33","","","","68","0","54","","Stimuli/Experimental_stims/localizer/objects/yossy-made-yulian-WaEqwDSIeTY-unsplash.jpg","","306529","1","objects","","0","0","1","400","61000","435","65224","","","","","","","","","","","","","","","","","","","","","","","","","","","","","","","","","","","","","","","","","","","","","","","","","","","",""
"","iti_localizer","","html-keyboard-response","174","307275","0.0-2.0-56.0-1.0","33","21859","Female","null","","","","null","","54","","","","306964","1","","","","","","300","61400","311","65659","300","","","","","","","","","","","","","","","","","","","","","","","","","","","","","","","","","","","","","","","","","","","","","","","","","","",""
"","localizer","","html-keyboard-response","175","307681","0.0-2.0-57.0-0.0","33","21859","Female","24","","","","68","0","55","","Stimuli/Experimental_stims/localizer/objects/mockup-graphics-U6ZMEefFGx8-unsplash.jpg","","307275","1","objects","","0","0","1","400","61700","406","65970","","","","","","","","","","","","","","","","","","","","","","","","","","","","","","","","","","","","","","","","","","","","","","","","","","","",""
"","iti_localizer","","html-keyboard-response","176","307988","0.0-2.0-57.0-1.0","33","21859","Female","null","","","","null","","55","","","","307681","1","","","","","","300","62100","307","66376","300","","","","","","","","","","","","","","","","","","","","","","","","","","","","","","","","","","","","","","","","","","","","","","","","","","",""
"","localizer","","html-keyboard-response","177","308513","0.0-2.0-58.0-0.0","33","21859","Female","50","","","","68","0","56","","Stimuli/Experimental_stims/localizer/objects/raimond-klavins-ZdvDPXVvcKs-unsplash.jpg","","307988","1","objects","","0","0","1","400","62400","525","66683","","","","","","","","","","","","","","","","","","","","","","","","","","","","","","","","","","","","","","","","","","","","","","","","","","","",""
"","iti_localizer","","html-keyboard-response","178","309090","0.0-2.0-58.0-1.0","33","21859","Female","null","","","","null","","56","","","","308513","1","","","","","","300","62800","577","67208","300","","","","","","","","","","","","","","","","","","","","","","","","","","","","","","","","","","","","","","","","","","","","","","","","","","",""
"","localizer","","html-keyboard-response","179","309499","0.0-2.0-59.0-0.0","33","21859","Female","19","","","","68","0","57","","Stimuli/Experimental_stims/localizer/objects/sam-moghadam-khamseh-L_7MQsHl_aU-unsplash.jpg","","309090","1","objects","","0","0","1","400","63100","409","67785","","","","","","","","","","","","","","","","","","","","","","","","","","","","","","","","","","","","","","","","","","","","","","","","","","","",""
"","iti_localizer","","html-keyboard-response","180","309813","0.0-2.0-59.0-1.0","33","21859","Female","null","","","","null","","57","","","","309499","1","","","","","","300","63500","314","68194","300","","","","","","","","","","","","","","","","","","","","","","","","","","","","","","","","","","","","","","","","","","","","","","","","","","",""
"","localizer","","html-keyboard-response","181","310242","0.0-2.0-60.0-0.0","33","21859","Female","15","","","","68","0","58","","Stimuli/Experimental_stims/localizer/objects/engin-akyurt-bbbKzTmY2Gg-unsplash.jpg","","309813","1","objects","","0","0","1","400","63800","429","68508","","","","","","","","","","","","","","","","","","","","","","","","","","","","","","","","","","","","","","","","","","","","","","","","","","","",""
"","iti_localizer","","html-keyboard-response","182","310557","0.0-2.0-60.0-1.0","33","21859","Female","null","","","","null","","58","","","","310242","1","","","","","","300","64200","315","68937","300","","","","","","","","","","","","","","","","","","","","","","","","","","","","","","","","","","","","","","","","","","","","","","","","","","",""
"","localizer","","html-keyboard-response","183","310968","0.0-2.0-61.0-0.0","33","21859","Female","28","","","","68","0","59","","Stimuli/Experimental_stims/localizer/objects/eugene-chystiakov-3neSwyntbQ8-unsplash.jpg","","310557","1","objects","","1","0","0","400","64500","411","69252","","","","","","","","","","","","","","","","","","","","","","","","","","","","","","","","","","","","","","","","","","","","","","","","","","","",""
"","iti_localizer","","html-keyboard-response","184","311280","0.0-2.0-61.0-1.0","33","21859","Female","null","","","","null","","59","","","","310968","1","","","","","","300","64900","312","69663","300","","","","","","","","","","","","","","","","","","","","","","","","","","","","","","","","","","","","","","","","","","","","","","","","","","",""
"","localizer","","html-keyboard-response","185","311692","0.0-2.0-62.0-0.0","33","21859","Female","14","","","","68","0","60","","Stimuli/Experimental_stims/localizer/objects/mae-mu-yl2d0CKW130-unsplash.jpg","","311280","1","objects","","0","0","1","400","65200","412","69975","","","","","","","","","","","","","","","","","","","","","","","","","","","","","","","","","","","","","","","","","","","","","","","","","","","",""
"","iti_localizer","","html-keyboard-response","186","312001","0.0-2.0-62.0-1.0","33","21859","Female","null","","","","null","","60","","","","311692","1","","","","","","300","65600","309","70387","300","","","","","","","","","","","","","","","","","","","","","","","","","","","","","","","","","","","","","","","","","","","","","","","","","","",""
"","localizer","","html-keyboard-response","187","312425","0.0-2.0-63.0-0.0","33","21859","Female","84","","","","68","0","61","","Stimuli/Experimental_stims/localizer/objects/sam-moghadam-khamseh-kvmdsTrGOBM-unsplash.jpg","","312001","1","objects","","0","0","1","400","65900","424","70696","","","","","","","","","","","","","","","","","","","","","","","","","","","","","","","","","","","","","","","","","","","","","","","","","","","",""
"","iti_localizer","","html-keyboard-response","188","312849","0.0-2.0-63.0-1.0","33","21859","Female","null","","","","null","","61","","","","312425","1","","","","","","300","66300","424","71120","300","","","","","","","","","","","","","","","","","","","","","","","","","","","","","","","","","","","","","","","","","","","","","","","","","","",""
"","localizer","","html-keyboard-response","189","313383","0.0-2.0-64.0-0.0","33","21859","Female","45","","","","68","0","62","","Stimuli/Experimental_stims/localizer/objects/nordwood-themes-E9tFH39iRPE-unsplash.jpg","","312849","1","objects","","0","0","1","400","66600","534","71544","","","","","","","","","","","","","","","","","","","","","","","","","","","","","","","","","","","","","","","","","","","","","","","","","","","",""
"","iti_localizer","","html-keyboard-response","190","313702","0.0-2.0-64.0-1.0","33","21859","Female","null","","","","null","","62","","","","313383","1","","","","","","300","67000","319","72078","300","","","","","","","","","","","","","","","","","","","","","","","","","","","","","","","","","","","","","","","","","","","","","","","","","","",""
"","localizer","","html-keyboard-response","191","314113","0.0-2.0-65.0-0.0","33","21859","Female","46","","","","75","1","63","","Stimuli/Experimental_stims/localizer/objects/mockup-graphics-aUkYaG12Dgs-unsplash.jpg","","313702","1","objects","","0","0","0","400","67300","411","72397","","","","","","","","","","","","","","","","","","","","","","","","","","","","","","","","","","","","","","","","","","","","","","","","","","","",""
"","iti_localizer","","html-keyboard-response","192","314432","0.0-2.0-65.0-1.0","33","21859","Female","null","","","","null","","63","","","","314113","1","","","","","","300","67700","319","72808","300","","","","","","","","","","","","","","","","","","","","","","","","","","","","","","","","","","","","","","","","","","","","","","","","","","",""
"","localizer","","html-keyboard-response","193","314857","0.0-2.0-66.0-0.0","33","21859","Female","66","","","","75","1","64","","Stimuli/Experimental_stims/localizer/objects/maria-lupan-Rlakka_pZMU-unsplash.jpg","","314432","1","objects","","0","0","0","400","68000","425","73127","","","","","","","","","","","","","","","","","","","","","","","","","","","","","","","","","","","","","","","","","","","","","","","","","","","",""
"","iti_localizer","","html-keyboard-response","194","315232","0.0-2.0-66.0-1.0","33","21859","Female","null","","","","null","","64","","","","314857","1","","","","","","300","68400","375","73552","300","","","","","","","","","","","","","","","","","","","","","","","","","","","","","","","","","","","","","","","","","","","","","","","","","","",""
"","localizer","","html-keyboard-response","195","315643","0.0-2.0-67.0-0.0","33","21859","Female","12","","","","75","1","65","","Stimuli/Experimental_stims/localizer/objects/quaritsch-photography-lZ8onQ1wuY8-unsplash.jpg","","315232","1","objects","","0","0","0","400","68700","411","73927","","","","","","","","","","","","","","","","","","","","","","","","","","","","","","","","","","","","","","","","","","","","","","","","","","","",""
"","iti_localizer","","html-keyboard-response","196","329683","0.0-2.0-67.0-1.0","33","21859","Female","null","","","","null","","65","","","","315643","1","","","","","","14000","69100","14040","74338","14000","","","","","","","","","","","","","","","","","","","","","","","","","","","","","","","","","","","","","","","","","","","","","","","","","","",""
"","localizer","","html-keyboard-response","197","330165","0.0-2.0-68.0-0.0","33","21859","Female","NaN","","","","null","NaN","66","","Stimuli/Experimental_stims/localizer/faces/brooke-cagle-Nm70URdtf3c-unsplash (1).jpg","","329683","1","faces","","0","1","0","400","83100","482","88378","","","","","","","","","","","","","","","","","","","","","","","","","","","","","","","","","","","","","","","","","","","","","","","","","","","",""
"","iti_localizer","","html-keyboard-response","198","330489","0.0-2.0-68.0-1.0","33","21859","Female","null","","","","null","","66","","","","330165","1","","","","","","300","83500","324","88860","300","","","","","","","","","","","","","","","","","","","","","","","","","","","","","","","","","","","","","","","","","","","","","","","","","","",""
"","localizer","","html-keyboard-response","199","330901","0.0-2.0-69.0-0.0","33","21859","Female","272","","","","68","0","67","","Stimuli/Experimental_stims/localizer/faces/joseph-gonzalez-iFgRcqHznqg-unsplash.jpg","","330489","1","faces","","0","0","1","400","83800","412","89184","","","","","","","","","","","","","","","","","","","","","","","","","","","","","","","","","","","","","","","","","","","","","","","","","","","",""
"","iti_localizer","","html-keyboard-response","200","331223","0.0-2.0-69.0-1.0","33","21859","Female","null","","","","null","","67","","","","330901","1","","","","","","300","84200","322","89596","300","","","","","","","","","","","","","","","","","","","","","","","","","","","","","","","","","","","","","","","","","","","","","","","","","","",""
"","localizer","","html-keyboard-response","201","331643","0.0-2.0-70.0-0.0","33","21859","Female","108","","","","75","1","68","","Stimuli/Experimental_stims/localizer/faces/pavel-anoshin-d0peGya6R5Y-unsplash.jpg","","331223","1","faces","","0","0","0","400","84500","420","89918","","","","","","","","","","","","","","","","","","","","","","","","","","","","","","","","","","","","","","","","","","","","","","","","","","","",""
"","iti_localizer","","html-keyboard-response","202","331967","0.0-2.0-70.0-1.0","33","21859","Female","null","","","","null","","68","","","","331643","1","","","","","","300","84900","324","90338","300","","","","","","","","","","","","","","","","","","","","","","","","","","","","","","","","","","","","","","","","","","","","","","","","","","",""
"","localizer","","html-keyboard-response","203","332386","0.0-2.0-71.0-0.0","33","21859","Female","92","","","","75","1","69","","Stimuli/Experimental_stims/localizer/faces/alexis-chloe-TYDkKEgc0Fg-unsplash.jpg","","331967","1","faces","","0","0","0","400","85200","419","90662","","","","","","","","","","","","","","","","","","","","","","","","","","","","","","","","","","","","","","","","","","","","","","","","","","","",""
"","iti_localizer","","html-keyboard-response","204","332760","0.0-2.0-71.0-1.0","33","21859","Female","null","","","","null","","69","","","","332386","1","","","","","","300","85600","374","91081","300","","","","","","","","","","","","","","","","","","","","","","","","","","","","","","","","","","","","","","","","","","","","","","","","","","",""
"","localizer","","html-keyboard-response","205","333170","0.0-2.0-72.0-0.0","33","21859","Female","4","","","","68","0","70","","Stimuli/Experimental_stims/localizer/faces/aiony-haust-K0DxxljcRv0-unsplash.jpg","","332760","1","faces","","1","0","0","400","85900","410","91455","","","","","","","","","","","","","","","","","","","","","","","","","","","","","","","","","","","","","","","","","","","","","","","","","","","",""
"","iti_localizer","","html-keyboard-response","206","333581","0.0-2.0-72.0-1.0","33","21859","Female","null","","","","null","","70","","","","333170","1","","","","","","300","86300","411","91865","300","","","","","","","","","","","","","","","","","","","","","","","","","","","","","","","","","","","","","","","","","","","","","","","","","","",""
"","localizer","","html-keyboard-response","207","334000","0.0-2.0-73.0-0.0","33","21859","Female","4","","","","68","0","71","","Stimuli/Experimental_stims/localizer/faces/olena-sergienko-0TSd6uCKTKc-unsplash.jpg","","333581","1","faces","","0","0","1","400","86600","419","92276","","","","","","","","","","","","","","","","","","","","","","","","","","","","","","","","","","","","","","","","","","","","","","","","","","","",""
"","iti_localizer","","html-keyboard-response","208","334310","0.0-2.0-73.0-1.0","33","21859","Female","null","","","","null","","71","","","","334000","1","","","","","","300","87000","310","92695","300","","","","","","","","","","","","","","","","","","","","","","","","","","","","","","","","","","","","","","","","","","","","","","","","","","",""
"","localizer","","html-keyboard-response","209","334740","0.0-2.0-74.0-0.0","33","21859","Female","154","","","","68","0","72","","Stimuli/Experimental_stims/localizer/faces/aatik-tasneem-7omHUGhhmZ0-unsplash.jpg","","334310","1","faces","","0","0","1","400","87300","430","93005","","","","","","","","","","","","","","","","","","","","","","","","","","","","","","","","","","","","","","","","","","","","","","","","","","","",""
"","iti_localizer","","html-keyboard-response","210","335072","0.0-2.0-74.0-1.0","33","21859","Female","null","","","","null","","72","","","","334740","1","","","","","","300","87700","332","93435","300","","","","","","","","","","","","","","","","","","","","","","","","","","","","","","","","","","","","","","","","","","","","","","","","","","",""
"","localizer","","html-keyboard-response","211","335487","0.0-2.0-75.0-0.0","33","21859","Female","13","","","","68","0","73","","Stimuli/Experimental_stims/localizer/faces/tyler-nix-ZGa9d1a_4tA-unsplash.jpg","","335072","1","faces","","0","0","1","400","88000","415","93767","","","","","","","","","","","","","","","","","","","","","","","","","","","","","","","","","","","","","","","","","","","","","","","","","","","",""
"","iti_localizer","","html-keyboard-response","212","335873","0.0-2.0-75.0-1.0","33","21859","Female","null","","","","null","","73","","","","335487","1","","","","","","300","88400","386","94182","300","","","","","","","","","","","","","","","","","","","","","","","","","","","","","","","","","","","","","","","","","","","","","","","","","","",""
"","localizer","","html-keyboard-response","213","336283","0.0-2.0-76.0-0.0","33","21859","Female","32","","","","75","1","74","","Stimuli/Experimental_stims/localizer/faces/imansyah-muhamad-putera-n4KewLKFOZw-unsplash.jpg","","335873","1","faces","","0","0","0","400","88700","410","94568","","","","","","","","","","","","","","","","","","","","","","","","","","","","","","","","","","","","","","","","","","","","","","","","","","","",""
"","iti_localizer","","html-keyboard-response","214","336602","0.0-2.0-76.0-1.0","33","21859","Female","null","","","","null","","74","","","","336283","1","","","","","","300","89100","319","94978","300","","","","","","","","","","","","","","","","","","","","","","","","","","","","","","","","","","","","","","","","","","","","","","","","","","",""
"","localizer","","html-keyboard-response","215","337028","0.0-2.0-77.0-0.0","33","21859","Female","77","","","","75","1","75","","Stimuli/Experimental_stims/localizer/faces/philip-martin-5aGUyCW_PJw-unsplash.jpg","","336602","1","faces","","0","0","0","400","89400","426","95297","","","","","","","","","","","","","","","","","","","","","","","","","","","","","","","","","","","","","","","","","","","","","","","","","","","",""
"","iti_localizer","","html-keyboard-response","216","337342","0.0-2.0-77.0-1.0","33","21859","Female","null","","","","null","","75","","","","337028","1","","","","","","300","89800","314","95723","300","","","","","","","","","","","","","","","","","","","","","","","","","","","","","","","","","","","","","","","","","","","","","","","","","","",""
"","localizer","","html-keyboard-response","217","337783","0.0-2.0-78.0-0.0","33","21859","Female","279","","","","75","1","76","","Stimuli/Experimental_stims/localizer/faces/vince-fleming-j3lf-Jn6deo-unsplash.jpg","","337342","1","faces","","0","0","0","400","90100","441","96037","","","","","","","","","","","","","","","","","","","","","","","","","","","","","","","","","","","","","","","","","","","","","","","","","","","",""
"","iti_localizer","","html-keyboard-response","218","338105","0.0-2.0-78.0-1.0","33","21859","Female","null","","","","null","","76","","","","337783","1","","","","","","300","90500","322","96478","300","","","","","","","","","","","","","","","","","","","","","","","","","","","","","","","","","","","","","","","","","","","","","","","","","","",""
"","localizer","","html-keyboard-response","219","338626","0.0-2.0-79.0-0.0","33","21859","Female","81","","","","75","1","77","","Stimuli/Experimental_stims/localizer/faces/hassan-khan-EGVccebWodM-unsplash.jpg","","338105","1","faces","","0","0","0","400","90800","521","96800","","","","","","","","","","","","","","","","","","","","","","","","","","","","","","","","","","","","","","","","","","","","","","","","","","","",""
"","iti_localizer","","html-keyboard-response","220","338956","0.0-2.0-79.0-1.0","33","21859","Female","null","","","","null","","77","","","","338626","1","","","","","","300","91200","330","97321","300","","","","","","","","","","","","","","","","","","","","","","","","","","","","","","","","","","","","","","","","","","","","","","","","","","",""
"","localizer","","html-keyboard-response","221","339382","0.0-2.0-80.0-0.0","33","21859","Female","18","","","","75","1","78","","Stimuli/Experimental_stims/localizer/faces/toa-heftiba-O3ymvT7Wf9U-unsplash.jpg","","338956","1","faces","","0","0","0","400","91500","426","97651","","","","","","","","","","","","","","","","","","","","","","","","","","","","","","","","","","","","","","","","","","","","","","","","","","","",""
"","iti_localizer","","html-keyboard-response","222","339720","0.0-2.0-80.0-1.0","33","21859","Female","null","","","","null","","78","","","","339382","1","","","","","","300","91900","338","98077","300","","","","","","","","","","","","","","","","","","","","","","","","","","","","","","","","","","","","","","","","","","","","","","","","","","",""
"","localizer","","html-keyboard-response","223","340196","0.0-2.0-81.0-0.0","33","21859","Female","95","","","","68","0","79","","Stimuli/Experimental_stims/localizer/faces/jurica-koletic-7YVZYZeITc8-unsplash.jpg","","339720","1","faces","","0","0","1","400","92200","476","98415","","","","","","","","","","","","","","","","","","","","","","","","","","","","","","","","","","","","","","","","","","","","","","","","","","","",""
"","iti_localizer","","html-keyboard-response","224","340508","0.0-2.0-81.0-1.0","33","21859","Female","null","","","","null","","79","","","","340196","1","","","","","","300","92600","312","98891","300","","","","","","","","","","","","","","","","","","","","","","","","","","","","","","","","","","","","","","","","","","","","","","","","","","",""
"","localizer","","html-keyboard-response","225","340952","0.0-2.0-82.0-0.0","33","21859","Female","145","","","","68","0","80","","Stimuli/Experimental_stims/localizer/faces/rui-silvestre-hAMJpesMeDE-unsplash.jpg","","340508","1","faces","","0","0","1","400","92900","444","99203","","","","","","","","","","","","","","","","","","","","","","","","","","","","","","","","","","","","","","","","","","","","","","","","","","","",""
"","iti_localizer","","html-keyboard-response","226","341360","0.0-2.0-82.0-1.0","33","21859","Female","null","","","","null","","80","","","","340952","1","","","","","","300","93300","408","99647","300","","","","","","","","","","","","","","","","","","","","","","","","","","","","","","","","","","","","","","","","","","","","","","","","","","",""
"","localizer","","html-keyboard-response","227","341771","0.0-2.0-83.0-0.0","33","21859","Female","251","","","","75","1","81","","Stimuli/Experimental_stims/localizer/faces/ben-scott-tWb7IsL9CnY-unsplash.jpg","","341360","1","faces","","1","0","1","400","93600","411","100055","","","","","","","","","","","","","","","","","","","","","","","","","","","","","","","","","","","","","","","","","","","","","","","","","","","",""
"","iti_localizer","","html-keyboard-response","228","342080","0.0-2.0-83.0-1.0","33","21859","Female","null","","","","null","","81","","","","341771","1","","","","","","300","94000","309","100466","300","","","","","","","","","","","","","","","","","","","","","","","","","","","","","","","","","","","","","","","","","","","","","","","","","","",""
"","localizer","","html-keyboard-response","229","342511","0.0-2.0-84.0-0.0","33","21859","Female","137","","","","75","1","82","","Stimuli/Experimental_stims/localizer/faces/mathias-huysmans-U4JDjYmjn1g-unsplash.jpg","","342080","1","faces","","0","0","0","400","94300","431","100775","","","","","","","","","","","","","","","","","","","","","","","","","","","","","","","","","","","","","","","","","","","","","","","","","","","",""
"","iti_localizer","","html-keyboard-response","230","342862","0.0-2.0-84.0-1.0","33","21859","Female","null","","","","null","","82","","","","342511","1","","","","","","300","94700","351","101206","300","","","","","","","","","","","","","","","","","","","","","","","","","","","","","","","","","","","","","","","","","","","","","","","","","","",""
"","localizer","","html-keyboard-response","231","343297","0.0-2.0-85.0-0.0","33","21859","Female","95","","","","75","1","83","","Stimuli/Experimental_stims/localizer/faces/james-marty-h1BuNJZzpC8-unsplash.jpg","","342862","1","faces","","0","0","0","400","95000","435","101557","","","","","","","","","","","","","","","","","","","","","","","","","","","","","","","","","","","","","","","","","","","","","","","","","","","",""
"","iti_localizer","","html-keyboard-response","232","343774","0.0-2.0-85.0-1.0","33","21859","Female","null","","","","null","","83","","","","343297","1","","","","","","300","95400","477","101992","300","","","","","","","","","","","","","","","","","","","","","","","","","","","","","","","","","","","","","","","","","","","","","","","","","","",""
"","localizer","","html-keyboard-response","233","344251","0.0-2.0-86.0-0.0","33","21859","Female","25","","","","75","1","84","","Stimuli/Experimental_stims/localizer/faces/drew-hays-agGIKYs4mYs-unsplash.jpg","","343774","1","faces","","0","0","0","400","95700","477","102469","","","","","","","","","","","","","","","","","","","","","","","","","","","","","","","","","","","","","","","","","","","","","","","","","","","",""
"","iti_localizer","","html-keyboard-response","234","344597","0.0-2.0-86.0-1.0","33","21859","Female","null","","","","null","","84","","","","344251","1","","","","","","300","96100","346","102946","300","","","","","","","","","","","","","","","","","","","","","","","","","","","","","","","","","","","","","","","","","","","","","","","","","","",""
"","localizer","","html-keyboard-response","235","345015","0.0-2.0-87.0-0.0","33","21859","Female","4","","","","75","1","85","","Stimuli/Experimental_stims/localizer/faces/jakob-owens-lkMJcGDZLVs-unsplash.jpg","","344597","1","faces","","0","0","0","400","96400","418","103292","","","","","","","","","","","","","","","","","","","","","","","","","","","","","","","","","","","","","","","","","","","","","","","","","","","",""
"","iti_localizer","","html-keyboard-response","236","359094","0.0-2.0-87.0-1.0","33","21859","Female","null","","","","null","","85","","","","345015","1","","","","","","14000","96800","14079","103710","14000","","","","","","","","","","","","","","","","","","","","","","","","","","","","","","","","","","","","","","","","","","","","","","","","","","",""
"","localizer","","html-keyboard-response","237","359525","0.0-2.0-88.0-0.0","33","21859","Female","NaN","","","","null","NaN","86","","Stimuli/Experimental_stims/localizer/body_parts/marcel-fagin-OUYg0Q3ec-Y-unsplash.jpg","","359094","1","body_parts","","0","1","0","400","110800","431","117789","","","","","","","","","","","","","","","","","","","","","","","","","","","","","","","","","","","","","","","","","","","","","","","","","","","",""
"","iti_localizer","","html-keyboard-response","238","359842","0.0-2.0-88.0-1.0","33","21859","Female","null","","","","null","","86","","","","359525","1","","","","","","300","111200","317","118220","300","","","","","","","","","","","","","","","","","","","","","","","","","","","","","","","","","","","","","","","","","","","","","","","","","","",""
"","localizer","","html-keyboard-response","239","360309","0.0-2.0-89.0-0.0","33","21859","Female","NaN","","","","null","NaN","87","","Stimuli/Experimental_stims/localizer/body_parts/helen-ast-l2iY5Sh0mTg-unsplash.jpg","","359842","1","body_parts","","0","1","0","400","111500","467","118537","","","","","","","","","","","","","","","","","","","","","","","","","","","","","","","","","","","","","","","","","","","","","","","","","","","",""
"","iti_localizer","","html-keyboard-response","240","360629","0.0-2.0-89.0-1.0","33","21859","Female","null","","","","null","","87","","","","360309","1","","","","","","300","111900","320","119004","300","","","","","","","","","","","","","","","","","","","","","","","","","","","","","","","","","","","","","","","","","","","","","","","","","","",""
"","localizer","","html-keyboard-response","241","361116","0.0-2.0-90.0-0.0","33","21859","Female","112","","","","68","0","88","","Stimuli/Experimental_stims/localizer/body_parts/luisa-denu-o5EU_lUB1rg-unsplash.jpg","","360629","1","body_parts","","0","0","1","400","112200","487","119324","","","","","","","","","","","","","","","","","","","","","","","","","","","","","","","","","","","","","","","","","","","","","","","","","","","",""
"","iti_localizer","","html-keyboard-response","242","361441","0.0-2.0-90.0-1.0","33","21859","Female","null","","","","null","","88","","","","361116","1","","","","","","300","112600","325","119811","300","","","","","","","","","","","","","","","","","","","","","","","","","","","","","","","","","","","","","","","","","","","","","","","","","","",""
"","localizer","","html-keyboard-response","243","361973","0.0-2.0-91.0-0.0","33","21859","Female","63","","","","68","0","89","","Stimuli/Experimental_stims/localizer/body_parts/megan-menegay-UojxG_BJxnI-unsplash.jpg","","361441","1","body_parts","","0","0","1","400","112900","532","120136","","","","","","","","","","","","","","","","","","","","","","","","","","","","","","","","","","","","","","","","","","","","","","","","","","","",""
"","iti_localizer","","html-keyboard-response","244","362283","0.0-2.0-91.0-1.0","33","21859","Female","null","","","","null","","89","","","","361973","1","","","","","","300","113300","310","120668","300","","","","","","","","","","","","","","","","","","","","","","","","","","","","","","","","","","","","","","","","","","","","","","","","","","",""
"","localizer","","html-keyboard-response","245","362748","0.0-2.0-92.0-0.0","33","21859","Female","26","","","","68","0","90","","Stimuli/Experimental_stims/localizer/body_parts/sincerely-media-9Zf6yh7RYbQ-unsplash.jpg","","362283","1","body_parts","","0","0","1","400","113600","465","120978","","","","","","","","","","","","","","","","","","","","","","","","","","","","","","","","","","","","","","","","","","","","","","","","","","","",""
"","iti_localizer","","html-keyboard-response","246","363113","0.0-2.0-92.0-1.0","33","21859","Female","null","","","","null","","90","","","","362748","1","","","","","","300","114000","365","121443","300","","","","","","","","","","","","","","","","","","","","","","","","","","","","","","","","","","","","","","","","","","","","","","","","","","",""
"","localizer","","html-keyboard-response","247","363540","0.0-2.0-93.0-0.0","33","21859","Female","15","","","","68","0","91","","Stimuli/Experimental_stims/localizer/body_parts/sandra-seitamaa-YCc_YAAhY3I-unsplash.jpg","","363113","1","body_parts","","1","0","0","400","114300","427","121808","","","","","","","","","","","","","","","","","","","","","","","","","","","","","","","","","","","","","","","","","","","","","","","","","","","",""
"","iti_localizer","","html-keyboard-response","248","363849","0.0-2.0-93.0-1.0","33","21859","Female","null","","","","null","","91","","","","363540","1","","","","","","300","114700","309","122235","300","","","","","","","","","","","","","","","","","","","","","","","","","","","","","","","","","","","","","","","","","","","","","","","","","","",""
