"success","ttype","start_time","trial_type","trial_index","time_elapsed","internal_node_id","age","PID","gender","rt","responses","view_history","repeat_instructions","key_press","response","index","stimulus_index","path","start_time_elapsed","run","task","isi","is_odd_ball","no_response","acc","duration","onset","duration_time_elapsed","onset_time_elapsed","trial_duration","left_chosen","chosen_stimulus","unchosen_stimulus","chosen_category","unchosen_category","chosen_rating","unchosen_rating","chosen_path","unchosen_path","pair_id","practice","scramble_screen_time","scramble_instructed_side","stim_type","iti","block","left_stimulus","right_stimulus","left_category","right_category","left_path","right_path","left_rating","right_rating","scramble_acc","stimulus_id","item_id","outcome","response_rt","deliberation_reward_tally","choice_type","gain_left","left_item_id","right_item_id","higher_outcome_chosen","warning","chosen_left","old_pair","pair_type","old_response","pair_acc","reward_type","outcome_response","outcome_rt","outcome_acc","category","choice","deliberated_stim","old_rating","new_rating","total_reward_tally"
"true","full_screen","d08172023hr1801","fullscreen","0","9306","0.0-0.0-0.0","27","56536","female","","","","","","","","","","","","","","","","","","","","","","","","","","","","","","","","","","","","","","","","","","","","","","","","","","","","","","","","","","","","","","","","","","","","","","","",""
"","get_id","","survey-text","1","16292","0.0-0.0-1.0","27","56536","female","6980","{""Q0"":""27"",""Q1"":""female""}","","","","","","","","","","","","","","","","","","","","","","","","","","","","","","","","","","","","","","","","","","","","","","","","","","","","","","","","","","","","","","","","","","","","","",""
"","ratings_instructions","","instructions","2","27574","0.0-1.0-0.0-0.0","27","56536","female","10744","","[{""page_index"":0,""viewing_time"":8774},{""page_index"":1,""viewing_time"":1970}]","","","","","","","","","","","","","","","","","","","","","","","","","","","","","","","","","","","","","","","","","","","","","","","","","","","","","","","","","","","","","","","","","","","","",""
"","rating_comprehension_check","","survey-multi-choice","3","33237","0.0-1.0-0.0-1.0","27","56536","female","5658","{""Q0"":""True"",""Q1"":""Mouse""}","","0","","","","","","","","","","","","","","","","","","","","","","","","","","","","","","","","","","","","","","","","","","","","","","","","","","","","","","","","","","","","","","","","","","","",""
"","","","html-keyboard-response","4","36018","0.0-1.0-1.0","27","56536","female","2776","","","","68","","","","","","","","","","","","","","","","","","","","","","","","","","","","","","","","","","","","","","","","","","","","","","","","","","","","","","","","","","","","","","","","","","",""
"","rating","","html-slider-response","5","40164","0.0-1.0-2.0","27","56536","female","4140","","","","","68","0","38","Stimuli/Experimental_stims/objects/art-lasovsky-8XddFc6NkBY-unsplash.jpg","","","","","","","","","","","","","","","","","","","","","","","","","","","","","","","","","","","","","","","","","","","","","","","","","","","","","","","","","","","","","","",""
"","rating","","html-slider-response","6","43717","0.0-1.0-3.0","27","56536","female","3549","","","","","28","1","24","Stimuli/Experimental_stims/body_parts/clay-banks-LjqARJaJotc-unsplash.jpg","","","","","","","","","","","","","","","","","","","","","","","","","","","","","","","","","","","","","","","","","","","","","","","","","","","","","","","","","","","","","","",""
"","rating","","html-slider-response","7","46928","0.0-1.0-4.0","27","56536","female","3205","","","","","42","2","13","Stimuli/Experimental_stims/faces/daniel-rigdon-dXmXKPP2L4E-unsplash.jpg","","","","","","","","","","","","","","","","","","","","","","","","","","","","","","","","","","","","","","","","","","","","","","","","","","","","","","","","","","","","","","",""
"","rating","","html-slider-response","8","50112","0.0-1.0-5.0","27","56536","female","3179","","","","","25","3","2","Stimuli/Experimental_stims/outdoor_scenes/bruno-van-der-kraan-qez8mNJ3ilU-unsplash.jpg","","","","","","","","","","","","","","","","","","","","","","","","","","","","","","","","","","","","","","","","","","","","","","","","","","","","","","","","","","","","","","",""
"","rating","","html-slider-response","9","54466","0.0-1.0-6.0","27","56536","female","4350","","","","","54","4","36","Stimuli/Experimental_stims/objects/alexander-andrews-JYGnB9gTCls-unsplash.jpg","","","","","","","","","","","","","","","","","","","","","","","","","","","","","","","","","","","","","","","","","","","","","","","","","","","","","","","","","","","","","","",""
"","rating","","html-slider-response","10","58167","0.0-1.0-7.0","27","56536","female","3697","","","","","74","5","7","Stimuli/Experimental_stims/outdoor_scenes/petr-vysohlid-9fqwGqGLUxc-unsplash.jpg","","","","","","","","","","","","","","","","","","","","","","","","","","","","","","","","","","","","","","","","","","","","","","","","","","","","","","","","","","","","","","",""
"","rating","","html-slider-response","11","62293","0.0-1.0-8.0","27","56536","female","4121","","","","","75","6","28","Stimuli/Experimental_stims/body_parts/ira-vishnevskaya-8DQAvdCby1I-unsplash.jpg","","","","","","","","","","","","","","","","","","","","","","","","","","","","","","","","","","","","","","","","","","","","","","","","","","","","","","","","","","","","","","",""
"","rating","","html-slider-response","12","66109","0.0-1.0-9.0","27","56536","female","3812","","","","","46","7","14","Stimuli/Experimental_stims/faces/david-siglin-UuW4psOb388-unsplash.jpg","","","","","","","","","","","","","","","","","","","","","","","","","","","","","","","","","","","","","","","","","","","","","","","","","","","","","","","","","","","","","","",""
"","rating","","html-slider-response","13","69288","0.0-1.0-10.0","27","56536","female","3174","","","","","62","8","23","Stimuli/Experimental_stims/faces/rikonavt-HQjfrvdTfak-unsplash.jpg","","","","","","","","","","","","","","","","","","","","","","","","","","","","","","","","","","","","","","","","","","","","","","","","","","","","","","","","","","","","","","",""
"","rating","","html-slider-response","14","72856","0.0-1.0-11.0","27","56536","female","3564","","","","","44","9","39","Stimuli/Experimental_stims/objects/charlesdeluvio-1-nx1QR5dTE-unsplash.jpg","","","","","","","","","","","","","","","","","","","","","","","","","","","","","","","","","","","","","","","","","","","","","","","","","","","","","","","","","","","","","","",""
"","rating","","html-slider-response","15","75805","0.0-1.0-12.0","27","56536","female","2944","","","","","82","10","11","Stimuli/Experimental_stims/outdoor_scenes/stephen-leonardi-gyIRjKPXupE-unsplash.jpg","","","","","","","","","","","","","","","","","","","","","","","","","","","","","","","","","","","","","","","","","","","","","","","","","","","","","","","","","","","","","","",""
"","rating","","html-slider-response","16","78820","0.0-1.0-13.0","27","56536","female","3012","","","","","57","11","16","Stimuli/Experimental_stims/faces/freddy-kearney-o-ioeoATbIM-unsplash.jpg","","","","","","","","","","","","","","","","","","","","","","","","","","","","","","","","","","","","","","","","","","","","","","","","","","","","","","","","","","","","","","",""
"","rating","","html-slider-response","17","81869","0.0-1.0-14.0","27","56536","female","3043","","","","","94","12","46","Stimuli/Experimental_stims/objects/mockup-graphics-PNsj6RiHAF4-unsplash.jpg","","","","","","","","","","","","","","","","","","","","","","","","","","","","","","","","","","","","","","","","","","","","","","","","","","","","","","","","","","","","","","",""
"","rating","","html-slider-response","18","85385","0.0-1.0-15.0","27","56536","female","3512","","","","","42","13","20","Stimuli/Experimental_stims/faces/justin-chen-J7Cf1Gch49E-unsplash.jpg","","","","","","","","","","","","","","","","","","","","","","","","","","","","","","","","","","","","","","","","","","","","","","","","","","","","","","","","","","","","","","",""
"","rating","","html-slider-response","19","88554","0.0-1.0-16.0","27","56536","female","3165","","","","","39","14","18","Stimuli/Experimental_stims/faces/jessica-radanavong-mrYkTuAesKE-unsplash.jpg","","","","","","","","","","","","","","","","","","","","","","","","","","","","","","","","","","","","","","","","","","","","","","","","","","","","","","","","","","","","","","",""
"","rating","","html-slider-response","20","92001","0.0-1.0-17.0","27","56536","female","3443","","","","","17","15","42","Stimuli/Experimental_stims/objects/jess-bailey-nOeVi8DsN8U-unsplash.jpg","","","","","","","","","","","","","","","","","","","","","","","","","","","","","","","","","","","","","","","","","","","","","","","","","","","","","","","","","","","","","","",""
"","rating","","html-slider-response","21","94848","0.0-1.0-18.0","27","56536","female","2843","","","","","67","16","5","Stimuli/Experimental_stims/outdoor_scenes/jeff-king-bJHWJeiHfHc-unsplash.jpg","","","","","","","","","","","","","","","","","","","","","","","","","","","","","","","","","","","","","","","","","","","","","","","","","","","","","","","","","","","","","","",""
"","rating","","html-slider-response","22","98219","0.0-1.0-19.0","27","56536","female","3367","","","","","40","17","25","Stimuli/Experimental_stims/body_parts/engin-akyurt-Q2rfH3GW39c-unsplash.jpg","","","","","","","","","","","","","","","","","","","","","","","","","","","","","","","","","","","","","","","","","","","","","","","","","","","","","","","","","","","","","","",""
"","rating","","html-slider-response","23","101388","0.0-1.0-20.0","27","56536","female","3167","","","","","100","18","29","Stimuli/Experimental_stims/body_parts/manuel-schinner-ZwjFuJ7ebpk-unsplash.jpg","","","","","","","","","","","","","","","","","","","","","","","","","","","","","","","","","","","","","","","","","","","","","","","","","","","","","","","","","","","","","","",""
"","rating","","html-slider-response","24","104876","0.0-1.0-21.0","27","56536","female","3482","","","","","56","19","47","Stimuli/Experimental_stims/objects/ronaldo-arthur-vidal-Cdz_lvnl37k-unsplash.jpg","","","","","","","","","","","","","","","","","","","","","","","","","","","","","","","","","","","","","","","","","","","","","","","","","","","","","","","","","","","","","","",""
"","rating","","html-slider-response","25","108852","0.0-1.0-22.0","27","56536","female","3972","","","","","8","20","4","Stimuli/Experimental_stims/outdoor_scenes/jarrett-kow-1ZOyYPOBn7I-unsplash.jpg","","","","","","","","","","","","","","","","","","","","","","","","","","","","","","","","","","","","","","","","","","","","","","","","","","","","","","","","","","","","","","",""
"","rating","","html-slider-response","26","113084","0.0-1.0-23.0","27","56536","female","4228","","","","","61","21","31","Stimuli/Experimental_stims/body_parts/sincerely-media-VN6DbKajo5s-unsplash.jpg","","","","","","","","","","","","","","","","","","","","","","","","","","","","","","","","","","","","","","","","","","","","","","","","","","","","","","","","","","","","","","",""
"","rating","","html-slider-response","27","117503","0.0-1.0-24.0","27","56536","female","4414","","","","","27","22","44","Stimuli/Experimental_stims/objects/kuiye-chen-NuOGFo4PudE-unsplash.jpg","","","","","","","","","","","","","","","","","","","","","","","","","","","","","","","","","","","","","","","","","","","","","","","","","","","","","","","","","","","","","","",""
"","rating","","html-slider-response","28","120987","0.0-1.0-25.0","27","56536","female","3479","","","","","39","23","37","Stimuli/Experimental_stims/objects/alexander-andrews-VLGWE_SumrA-unsplash.jpg","","","","","","","","","","","","","","","","","","","","","","","","","","","","","","","","","","","","","","","","","","","","","","","","","","","","","","","","","","","","","","",""
"","rating","","html-slider-response","29","125410","0.0-1.0-26.0","27","56536","female","4419","","","","","61","24","10","Stimuli/Experimental_stims/outdoor_scenes/shannon-kunkle-dM8INmkyDas-unsplash.jpg","","","","","","","","","","","","","","","","","","","","","","","","","","","","","","","","","","","","","","","","","","","","","","","","","","","","","","","","","","","","","","",""
"","rating","","html-slider-response","30","128781","0.0-1.0-27.0","27","56536","female","3366","","","","","75","25","40","Stimuli/Experimental_stims/objects/fabian-blank-pElSkGRA2NU-unsplash.jpg","","","","","","","","","","","","","","","","","","","","","","","","","","","","","","","","","","","","","","","","","","","","","","","","","","","","","","","","","","","","","","",""
"","rating","","html-slider-response","31","133612","0.0-1.0-28.0","27","56536","female","4827","","","","","60","26","9","Stimuli/Experimental_stims/outdoor_scenes/sergey-pesterev-y-b_FOmJXdg-unsplash.jpg","","","","","","","","","","","","","","","","","","","","","","","","","","","","","","","","","","","","","","","","","","","","","","","","","","","","","","","","","","","","","","",""
"","rating","","html-slider-response","32","137443","0.0-1.0-29.0","27","56536","female","3826","","","","","31","27","41","Stimuli/Experimental_stims/objects/insung-yoon-w2JtIQQXoRU-unsplash.jpg","","","","","","","","","","","","","","","","","","","","","","","","","","","","","","","","","","","","","","","","","","","","","","","","","","","","","","","","","","","","","","",""
"","rating","","html-slider-response","33","140706","0.0-1.0-30.0","27","56536","female","3258","","","","","24","28","8","Stimuli/Experimental_stims/outdoor_scenes/samsommer-vddccTqwal8-unsplash.jpg","","","","","","","","","","","","","","","","","","","","","","","","","","","","","","","","","","","","","","","","","","","","","","","","","","","","","","","","","","","","","","",""
"","rating","","html-slider-response","34","143415","0.0-1.0-31.0","27","56536","female","2705","","","","","64","29","3","Stimuli/Experimental_stims/outdoor_scenes/henry-be-NLF6hTe4PAg-unsplash.jpg","","","","","","","","","","","","","","","","","","","","","","","","","","","","","","","","","","","","","","","","","","","","","","","","","","","","","","","","","","","","","","",""
"","rating","","html-slider-response","35","148800","0.0-1.0-32.0","27","56536","female","5381","","","","","94","30","27","Stimuli/Experimental_stims/body_parts/heike-mintel-i_Gns0ELnLw-unsplash.jpg","","","","","","","","","","","","","","","","","","","","","","","","","","","","","","","","","","","","","","","","","","","","","","","","","","","","","","","","","","","","","","",""
"","rating","","html-slider-response","36","151655","0.0-1.0-33.0","27","56536","female","2851","","","","","64","31","19","Stimuli/Experimental_stims/faces/joel-mott-LaK153ghdig-unsplash.jpg","","","","","","","","","","","","","","","","","","","","","","","","","","","","","","","","","","","","","","","","","","","","","","","","","","","","","","","","","","","","","","",""
"","rating","","html-slider-response","37","155958","0.0-1.0-34.0","27","56536","female","4297","","","","","81","32","45","Stimuli/Experimental_stims/objects/leohoho-rngTKHXumy0-unsplash.jpg","","","","","","","","","","","","","","","","","","","","","","","","","","","","","","","","","","","","","","","","","","","","","","","","","","","","","","","","","","","","","","",""
"","rating","","html-slider-response","38","160091","0.0-1.0-35.0","27","56536","female","4126","","","","","66","33","30","Stimuli/Experimental_stims/body_parts/mika-korhonen-Xodzxosar18-unsplash.jpg","","","","","","","","","","","","","","","","","","","","","","","","","","","","","","","","","","","","","","","","","","","","","","","","","","","","","","","","","","","","","","",""
"","rating","","html-slider-response","39","163958","0.0-1.0-36.0","27","56536","female","3863","","","","","29","34","21","Stimuli/Experimental_stims/faces/leilani-angel-K84vnnzxmTQ-unsplash.jpg","","","","","","","","","","","","","","","","","","","","","","","","","","","","","","","","","","","","","","","","","","","","","","","","","","","","","","","","","","","","","","",""
"","rating","","html-slider-response","40","168721","0.0-1.0-37.0","27","56536","female","4759","","","","","15","35","34","Stimuli/Experimental_stims/body_parts/wagner-santos-mBWMvIuVnso-unsplash.jpg","","","","","","","","","","","","","","","","","","","","","","","","","","","","","","","","","","","","","","","","","","","","","","","","","","","","","","","","","","","","","","",""
"","rating","","html-slider-response","41","172170","0.0-1.0-38.0","27","56536","female","3443","","","","","8","36","35","Stimuli/Experimental_stims/body_parts/wc-so-KH4AAPjb-tI-unsplash.jpg","","","","","","","","","","","","","","","","","","","","","","","","","","","","","","","","","","","","","","","","","","","","","","","","","","","","","","","","","","","","","","",""
"","rating","","html-slider-response","42","175754","0.0-1.0-39.0","27","56536","female","3579","","","","","54","37","15","Stimuli/Experimental_stims/faces/erik-lucatero-d2MSDujJl2g-unsplash.jpg","","","","","","","","","","","","","","","","","","","","","","","","","","","","","","","","","","","","","","","","","","","","","","","","","","","","","","","","","","","","","","",""
"","rating","","html-slider-response","43","179292","0.0-1.0-40.0","27","56536","female","3535","","","","","43","38","1","Stimuli/Experimental_stims/outdoor_scenes/ashim-d-silva-S2Q5mdOrrVc-unsplash.jpg","","","","","","","","","","","","","","","","","","","","","","","","","","","","","","","","","","","","","","","","","","","","","","","","","","","","","","","","","","","","","","",""
"","rating","","html-slider-response","44","183039","0.0-1.0-41.0","27","56536","female","3743","","","","","59","39","22","Stimuli/Experimental_stims/faces/ravi-patel-VMGAbeeJTKo-unsplash.jpg","","","","","","","","","","","","","","","","","","","","","","","","","","","","","","","","","","","","","","","","","","","","","","","","","","","","","","","","","","","","","","",""
"","rating","","html-slider-response","45","186449","0.0-1.0-42.0","27","56536","female","3405","","","","","30","40","26","Stimuli/Experimental_stims/body_parts/engin-akyurt-x_3gyC42btc-unsplash.jpg","","","","","","","","","","","","","","","","","","","","","","","","","","","","","","","","","","","","","","","","","","","","","","","","","","","","","","","","","","","","","","",""
"","rating","","html-slider-response","46","190187","0.0-1.0-43.0","27","56536","female","3734","","","","","19","41","0","Stimuli/Experimental_stims/outdoor_scenes/aleksandra-boguslawska-MS7KD9Ti7FQ-unsplash.jpg","","","","","","","","","","","","","","","","","","","","","","","","","","","","","","","","","","","","","","","","","","","","","","","","","","","","","","","","","","","","","","",""
"","rating","","html-slider-response","47","200090","0.0-1.0-44.0","27","56536","female","9899","","","","","33","42","43","Stimuli/Experimental_stims/objects/jonathan-greenaway-Y4hGgeiFn3s-unsplash.jpg","","","","","","","","","","","","","","","","","","","","","","","","","","","","","","","","","","","","","","","","","","","","","","","","","","","","","","","","","","","","","","",""
"","rating","","html-slider-response","48","203307","0.0-1.0-45.0","27","56536","female","3212","","","","","19","43","32","Stimuli/Experimental_stims/body_parts/towfiqu-barbhuiya-3AsiVDsZnHg-unsplash.jpg","","","","","","","","","","","","","","","","","","","","","","","","","","","","","","","","","","","","","","","","","","","","","","","","","","","","","","","","","","","","","","",""
"","rating","","html-slider-response","49","206715","0.0-1.0-46.0","27","56536","female","3405","","","","","56","44","17","Stimuli/Experimental_stims/faces/good-faces-xmSWVeGEnJw-unsplash.jpg","","","","","","","","","","","","","","","","","","","","","","","","","","","","","","","","","","","","","","","","","","","","","","","","","","","","","","","","","","","","","","",""
"","rating","","html-slider-response","50","209669","0.0-1.0-47.0","27","56536","female","2950","","","","","72","45","6","Stimuli/Experimental_stims/outdoor_scenes/meng-ji-8BH_M-53CyA-unsplash.jpg","","","","","","","","","","","","","","","","","","","","","","","","","","","","","","","","","","","","","","","","","","","","","","","","","","","","","","","","","","","","","","",""
"","rating","","html-slider-response","51","212924","0.0-1.0-48.0","27","56536","female","3251","","","","","84","46","33","Stimuli/Experimental_stims/body_parts/tucker-good-36skLT5jZcc-unsplash.jpg","","","","","","","","","","","","","","","","","","","","","","","","","","","","","","","","","","","","","","","","","","","","","","","","","","","","","","","","","","","","","","",""
"","rating","","html-slider-response","52","216017","0.0-1.0-49.0","27","56536","female","3089","","","","","56","47","12","Stimuli/Experimental_stims/faces/aiony-haust-jmATI5Q_YgY-unsplash.jpg","","","","","","","","","","","","","","","","","","","","","","","","","","","","","","","","","","","","","","","","","","","","","","","","","","","","","","","","","","","","","","",""
"","localizer_instructions","","instructions","53","244484","0.0-2.0-0.0-0.0","27","56536","female","28434","","[{""page_index"":0,""viewing_time"":16108},{""page_index"":1,""viewing_time"":10610},{""page_index"":2,""viewing_time"":1715}]","","","","","","","","","","","","","","","","","","","","","","","","","","","","","","","","","","","","","","","","","","","","","","","","","","","","","","","","","","","","","","","","","","","","",""
"","localizer_comprehension_check","","survey-multi-choice","54","253578","0.0-2.0-0.0-1.0","27","56536","female","9089","{""Q0"":""True"",""Q1"":""K"",""Q2"":""D""}","","0","","","","","","","","","","","","","","","","","","","","","","","","","","","","","","","","","","","","","","","","","","","","","","","","","","","","","","","","","","","","","","","","","","","",""
"","","","html-keyboard-response","55","256657","0.0-2.0-1.0","27","56536","female","3074","","","","68","","","","","","","","","","","","","","","","","","","","","","","","","","","","","","","","","","","","","","","","","","","","","","","","","","","","","","","","","","","","","","","","","","",""
"","localizer","","html-keyboard-response","56","257063","0.0-2.0-2.0-0.0","27","56536","female","NaN","","","","null","NaN","0","","Stimuli/Practice_stims/Localizer/annie-spratt-g9KFpAfQ5bc-unsplash.jpg","256657","0","NaN","","0","1","0","400","0","406","0","","","","","","","","","","","","","","","","","","","","","","","","","","","","","","","","","","","","","","","","","","","","","","","","","","","",""
"","iti_localizer","","html-keyboard-response","57","257368","0.0-2.0-2.0-1.0","27","56536","female","null","","","","null","","0","","","257063","0","","","","","","300","400","305","406","300","","","","","","","","","","","","","","","","","","","","","","","","","","","","","","","","","","","","","","","","","","","","","","","","","","",""
"","localizer","","html-keyboard-response","58","257775","0.0-2.0-2.1-0.1","27","56536","female","NaN","","","","null","NaN","0","","Stimuli/Practice_stims/Localizer/annie-spratt-g9KFpAfQ5bc-unsplash.jpg","257368","0","NaN","","0","1","0","400","700","407","711","","","","","","","","","","","","","","","","","","","","","","","","","","","","","","","","","","","","","","","","","","","","","","","","","","","",""
"","iti_localizer","","html-keyboard-response","59","258079","0.0-2.0-2.1-1.1","27","56536","female","null","","","","null","","0","","","257775","0","","","","","","300","1100","304","1118","300","","","","","","","","","","","","","","","","","","","","","","","","","","","","","","","","","","","","","","","","","","","","","","","","","","",""
"","localizer","","html-keyboard-response","60","258485","0.0-2.0-2.2-0.2","27","56536","female","348","","","","68","0","0","","Stimuli/Practice_stims/Localizer/annie-spratt-g9KFpAfQ5bc-unsplash.jpg","258079","0","NaN","","0","0","1","400","1400","406","1422","","","","","","","","","","","","","","","","","","","","","","","","","","","","","","","","","","","","","","","","","","","","","","","","","","","",""
"","iti_localizer","","html-keyboard-response","61","258791","0.0-2.0-2.2-1.2","27","56536","female","null","","","","null","","0","","","258485","0","","","","","","300","1800","306","1828","300","","","","","","","","","","","","","","","","","","","","","","","","","","","","","","","","","","","","","","","","","","","","","","","","","","",""
"","localizer","","html-keyboard-response","62","259196","0.0-2.0-3.0-0.0","27","56536","female","169","","","","68","0","1","","Stimuli/Practice_stims/Localizer/becca-tapert-sY5RjMB1KkE-unsplash.jpg","258791","0","NaN","","0","0","1","400","2100","405","2134","","","","","","","","","","","","","","","","","","","","","","","","","","","","","","","","","","","","","","","","","","","","","","","","","","","",""
"","iti_localizer","","html-keyboard-response","63","259500","0.0-2.0-3.0-1.0","27","56536","female","null","","","","null","","1","","","259196","0","","","","","","300","2500","304","2539","300","","","","","","","","","","","","","","","","","","","","","","","","","","","","","","","","","","","","","","","","","","","","","","","","","","",""
"","localizer","","html-keyboard-response","64","259907","0.0-2.0-4.0-0.0","27","56536","female","NaN","","","","null","NaN","2","","Stimuli/Practice_stims/Localizer/charl-durand-bsfXvI25iNg-unsplash.jpg","259500","0","NaN","","1","1","0","400","2800","407","2843","","","","","","","","","","","","","","","","","","","","","","","","","","","","","","","","","","","","","","","","","","","","","","","","","","","",""
"","iti_localizer","","html-keyboard-response","65","260212","0.0-2.0-4.0-1.0","27","56536","female","null","","","","null","","2","","","259907","0","","","","","","300","3200","305","3250","300","","","","","","","","","","","","","","","","","","","","","","","","","","","","","","","","","","","","","","","","","","","","","","","","","","",""
"","localizer","","html-keyboard-response","66","260615","0.0-2.0-4.1-0.1","27","56536","female","386","","","","75","1","2","","Stimuli/Practice_stims/Localizer/charl-durand-bsfXvI25iNg-unsplash.jpg","260212","0","NaN","","1","0","1","400","3500","403","3555","","","","","","","","","","","","","","","","","","","","","","","","","","","","","","","","","","","","","","","","","","","","","","","","","","","",""
"","iti_localizer","","html-keyboard-response","67","260920","0.0-2.0-4.1-1.1","27","56536","female","null","","","","null","","2","","","260615","0","","","","","","300","3900","305","3958","300","","","","","","","","","","","","","","","","","","","","","","","","","","","","","","","","","","","","","","","","","","","","","","","","","","",""
"","localizer","","html-keyboard-response","68","261325","0.0-2.0-5.0-0.0","27","56536","female","NaN","","","","null","NaN","3","","Stimuli/Practice_stims/Localizer/nizar-albusaidy-B2r2SWAf5CE-unsplash.jpg","260920","0","NaN","","0","1","0","400","4200","405","4263","","","","","","","","","","","","","","","","","","","","","","","","","","","","","","","","","","","","","","","","","","","","","","","","","","","",""
"","iti_localizer","","html-keyboard-response","69","261629","0.0-2.0-5.0-1.0","27","56536","female","null","","","","null","","3","","","261325","0","","","","","","300","4600","304","4668","300","","","","","","","","","","","","","","","","","","","","","","","","","","","","","","","","","","","","","","","","","","","","","","","","","","",""
"","localizer","","html-keyboard-response","70","262033","0.0-2.0-5.1-0.1","27","56536","female","NaN","","","","null","NaN","3","","Stimuli/Practice_stims/Localizer/nizar-albusaidy-B2r2SWAf5CE-unsplash.jpg","261629","0","NaN","","0","1","0","400","4900","404","4972","","","","","","","","","","","","","","","","","","","","","","","","","","","","","","","","","","","","","","","","","","","","","","","","","","","",""
"","iti_localizer","","html-keyboard-response","71","262339","0.0-2.0-5.1-1.1","27","56536","female","null","","","","null","","3","","","262033","0","","","","","","300","5300","306","5376","300","","","","","","","","","","","","","","","","","","","","","","","","","","","","","","","","","","","","","","","","","","","","","","","","","","",""
"","localizer","","html-keyboard-response","72","262744","0.0-2.0-5.2-0.2","27","56536","female","362","","","","68","0","3","","Stimuli/Practice_stims/Localizer/nizar-albusaidy-B2r2SWAf5CE-unsplash.jpg","262339","0","NaN","","0","0","1","400","5600","405","5682","","","","","","","","","","","","","","","","","","","","","","","","","","","","","","","","","","","","","","","","","","","","","","","","","","","",""
"","iti_localizer","","html-keyboard-response","73","263056","0.0-2.0-5.2-1.2","27","56536","female","null","","","","null","","3","","","262744","0","","","","","","300","6000","312","6087","300","","","","","","","","","","","","","","","","","","","","","","","","","","","","","","","","","","","","","","","","","","","","","","","","","","",""
"","localizer","","html-keyboard-response","74","263461","0.0-2.0-6.0-0.0","27","56536","female","NaN","","","","null","NaN","4","","Stimuli/Practice_stims/Localizer/randy-fath-epf1tdtIIkM-unsplash.jpg","263056","0","NaN","","1","1","0","400","6300","405","6399","","","","","","","","","","","","","","","","","","","","","","","","","","","","","","","","","","","","","","","","","","","","","","","","","","","",""
"","iti_localizer","","html-keyboard-response","75","263765","0.0-2.0-6.0-1.0","27","56536","female","null","","","","null","","4","","","263461","0","","","","","","300","6700","304","6804","300","","","","","","","","","","","","","","","","","","","","","","","","","","","","","","","","","","","","","","","","","","","","","","","","","","",""
"","localizer","","html-keyboard-response","76","264171","0.0-2.0-6.1-0.1","27","56536","female","338","","","","75","1","4","","Stimuli/Practice_stims/Localizer/randy-fath-epf1tdtIIkM-unsplash.jpg","263765","0","NaN","","1","0","1","400","7000","406","7108","","","","","","","","","","","","","","","","","","","","","","","","","","","","","","","","","","","","","","","","","","","","","","","","","","","",""
"","iti_localizer","","html-keyboard-response","77","264475","0.0-2.0-6.1-1.1","27","56536","female","null","","","","null","","4","","","264171","0","","","","","","300","7400","304","7514","300","","","","","","","","","","","","","","","","","","","","","","","","","","","","","","","","","","","","","","","","","","","","","","","","","","",""
"","localizer","","html-keyboard-response","78","264879","0.0-2.0-7.0-0.0","27","56536","female","NaN","","","","null","NaN","5","","Stimuli/Practice_stims/Localizer/yassine-khalfalli-adsQ9d_Cx0c-unsplash.jpg","264475","0","NaN","","0","1","0","400","7700","404","7818","","","","","","","","","","","","","","","","","","","","","","","","","","","","","","","","","","","","","","","","","","","","","","","","","","","",""
"","iti_localizer","","html-keyboard-response","79","265183","0.0-2.0-7.0-1.0","27","56536","female","null","","","","null","","5","","","264879","0","","","","","","300","8100","304","8222","300","","","","","","","","","","","","","","","","","","","","","","","","","","","","","","","","","","","","","","","","","","","","","","","","","","",""
"","localizer","","html-keyboard-response","80","265589","0.0-2.0-7.1-0.1","27","56536","female","313","","","","68","0","5","","Stimuli/Practice_stims/Localizer/yassine-khalfalli-adsQ9d_Cx0c-unsplash.jpg","265183","0","NaN","","0","0","1","400","8400","406","8526","","","","","","","","","","","","","","","","","","","","","","","","","","","","","","","","","","","","","","","","","","","","","","","","","","","",""
"","iti_localizer","","html-keyboard-response","81","265893","0.0-2.0-7.1-1.1","27","56536","female","null","","","","null","","5","","","265589","0","","","","","","300","8800","304","8932","300","","","","","","","","","","","","","","","","","","","","","","","","","","","","","","","","","","","","","","","","","","","","","","","","","","",""
"","practice_over","","html-keyboard-response","82","268115","0.0-2.0-7.1-2.1-0.1","27","56536","female","2219","","","","68","","","","","","","","","","","","","","","","","","","","","","","","","","","","","","","","","","","","","","","","","","","","","","","","","","","","","","","","","","","","","","","","","","",""
"","start_run","","html-keyboard-response","83","269827","0.0-2.0-7.1-2.1-1.1","27","56536","female","1708","","","","84","","","","","","","","","","","","","","","","","","","","","","","","","","","","","","","","","","","","","","","","","","","","","","","","","","","","","","","","","","","","","","","","","","",""
"","localizer","","html-keyboard-response","84","270232","0.0-2.0-8.0-0.0","27","56536","female","NaN","","","","null","NaN","6","","Stimuli/Experimental_stims/localizer/faces/christina-wocintechchat-com-0Zx1bDv5BNY-unsplash.jpg","269827","1","faces","","0","1","0","400","0","405","0","","","","","","","","","","","","","","","","","","","","","","","","","","","","","","","","","","","","","","","","","","","","","","","","","","","",""
"","iti_localizer","","html-keyboard-response","85","270537","0.0-2.0-8.0-1.0","27","56536","female","null","","","","null","","6","","","270232","1","","","","","","300","400","305","405","300","","","","","","","","","","","","","","","","","","","","","","","","","","","","","","","","","","","","","","","","","","","","","","","","","","",""
"","localizer","","html-keyboard-response","86","270947","0.0-2.0-9.0-0.0","27","56536","female","NaN","","","","null","NaN","7","","Stimuli/Experimental_stims/localizer/faces/jeffery-erhunse-BQMZ5ligqps-unsplash.jpg","270537","1","faces","","0","1","0","400","700","410","710","","","","","","","","","","","","","","","","","","","","","","","","","","","","","","","","","","","","","","","","","","","","","","","","","","","",""
"","iti_localizer","","html-keyboard-response","87","271252","0.0-2.0-9.0-1.0","27","56536","female","null","","","","null","","7","","","270947","1","","","","","","300","1100","305","1120","300","","","","","","","","","","","","","","","","","","","","","","","","","","","","","","","","","","","","","","","","","","","","","","","","","","",""
"","localizer","","html-keyboard-response","88","271656","0.0-2.0-10.0-0.0","27","56536","female","22","","","","68","0","8","","Stimuli/Experimental_stims/localizer/faces/matheus-ferrero-W7b3eDUb_2I-unsplash.jpg","271252","1","faces","","0","0","1","400","1400","404","1425","","","","","","","","","","","","","","","","","","","","","","","","","","","","","","","","","","","","","","","","","","","","","","","","","","","",""
"","iti_localizer","","html-keyboard-response","89","271961","0.0-2.0-10.0-1.0","27","56536","female","null","","","","null","","8","","","271656","1","","","","","","300","1800","305","1829","300","","","","","","","","","","","","","","","","","","","","","","","","","","","","","","","","","","","","","","","","","","","","","","","","","","",""
"","localizer","","html-keyboard-response","90","272366","0.0-2.0-11.0-0.0","27","56536","female","NaN","","","","null","NaN","9","","Stimuli/Experimental_stims/localizer/faces/jurica-koletic-7YVZYZeITc8-unsplash.jpg","271961","1","faces","","1","1","0","400","2100","405","2134","","","","","","","","","","","","","","","","","","","","","","","","","","","","","","","","","","","","","","","","","","","","","","","","","","","",""
"","iti_localizer","","html-keyboard-response","91","272671","0.0-2.0-11.0-1.0","27","56536","female","null","","","","null","","9","","","272366","1","","","","","","300","2500","305","2539","300","","","","","","","","","","","","","","","","","","","","","","","","","","","","","","","","","","","","","","","","","","","","","","","","","","",""
"","localizer","","html-keyboard-response","92","273076","0.0-2.0-12.0-0.0","27","56536","female","NaN","","","","null","NaN","10","","Stimuli/Experimental_stims/localizer/faces/drew-hays-agGIKYs4mYs-unsplash.jpg","272671","1","faces","","0","1","0","400","2800","405","2844","","","","","","","","","","","","","","","","","","","","","","","","","","","","","","","","","","","","","","","","","","","","","","","","","","","",""
"","iti_localizer","","html-keyboard-response","93","273380","0.0-2.0-12.0-1.0","27","56536","female","null","","","","null","","10","","","273076","1","","","","","","300","3200","304","3249","300","","","","","","","","","","","","","","","","","","","","","","","","","","","","","","","","","","","","","","","","","","","","","","","","","","",""
"","localizer","","html-keyboard-response","94","273786","0.0-2.0-13.0-0.0","27","56536","female","NaN","","","","null","NaN","11","","Stimuli/Experimental_stims/localizer/faces/rui-silvestre-hAMJpesMeDE-unsplash.jpg","273380","1","faces","","0","1","0","400","3500","406","3553","","","","","","","","","","","","","","","","","","","","","","","","","","","","","","","","","","","","","","","","","","","","","","","","","","","",""
"","iti_localizer","","html-keyboard-response","95","274090","0.0-2.0-13.0-1.0","27","56536","female","null","","","","null","","11","","","273786","1","","","","","","300","3900","304","3959","300","","","","","","","","","","","","","","","","","","","","","","","","","","","","","","","","","","","","","","","","","","","","","","","","","","",""
"","localizer","","html-keyboard-response","96","274494","0.0-2.0-14.0-0.0","27","56536","female","397","","","","68","0","12","","Stimuli/Experimental_stims/localizer/faces/sean-kong--1B_y4wGs-s-unsplash.jpg","274090","1","faces","","0","0","1","400","4200","404","4263","","","","","","","","","","","","","","","","","","","","","","","","","","","","","","","","","","","","","","","","","","","","","","","","","","","",""
"","iti_localizer","","html-keyboard-response","97","274801","0.0-2.0-14.0-1.0","27","56536","female","null","","","","null","","12","","","274494","1","","","","","","300","4600","307","4667","300","","","","","","","","","","","","","","","","","","","","","","","","","","","","","","","","","","","","","","","","","","","","","","","","","","",""
"","localizer","","html-keyboard-response","98","275206","0.0-2.0-15.0-0.0","27","56536","female","364","","","","68","0","13","","Stimuli/Experimental_stims/localizer/faces/vince-fleming-j3lf-Jn6deo-unsplash.jpg","274801","1","faces","","0","0","1","400","4900","405","4974","","","","","","","","","","","","","","","","","","","","","","","","","","","","","","","","","","","","","","","","","","","","","","","","","","","",""
"","iti_localizer","","html-keyboard-response","99","275510","0.0-2.0-15.0-1.0","27","56536","female","null","","","","null","","13","","","275206","1","","","","","","300","5300","304","5379","300","","","","","","","","","","","","","","","","","","","","","","","","","","","","","","","","","","","","","","","","","","","","","","","","","","",""
"","localizer","","html-keyboard-response","100","275915","0.0-2.0-16.0-0.0","27","56536","female","400","","","","68","0","14","","Stimuli/Experimental_stims/localizer/faces/tyler-nix-ZGa9d1a_4tA-unsplash.jpg","275510","1","faces","","0","0","1","400","5600","405","5683","","","","","","","","","","","","","","","","","","","","","","","","","","","","","","","","","","","","","","","","","","","","","","","","","","","",""
"","iti_localizer","","html-keyboard-response","101","276220","0.0-2.0-16.0-1.0","27","56536","female","null","","","","null","","14","","","275915","1","","","","","","300","6000","305","6088","300","","","","","","","","","","","","","","","","","","","","","","","","","","","","","","","","","","","","","","","","","","","","","","","","","","",""
"","localizer","","html-keyboard-response","102","276624","0.0-2.0-17.0-0.0","27","56536","female","363","","","","68","0","15","","Stimuli/Experimental_stims/localizer/faces/abstral-official-cyOKLSgkgCE-unsplash.jpg","276220","1","faces","","0","0","1","400","6300","404","6393","","","","","","","","","","","","","","","","","","","","","","","","","","","","","","","","","","","","","","","","","","","","","","","","","","","",""
"","iti_localizer","","html-keyboard-response","103","276927","0.0-2.0-17.0-1.0","27","56536","female","null","","","","null","","15","","","276624","1","","","","","","300","6700","303","6797","300","","","","","","","","","","","","","","","","","","","","","","","","","","","","","","","","","","","","","","","","","","","","","","","","","","",""
"","localizer","","html-keyboard-response","104","277332","0.0-2.0-18.0-0.0","27","56536","female","346","","","","68","0","16","","Stimuli/Experimental_stims/localizer/faces/ethan-haddox-__ng3cRXmFE-unsplash.jpg","276927","1","faces","","0","0","1","400","7000","405","7100","","","","","","","","","","","","","","","","","","","","","","","","","","","","","","","","","","","","","","","","","","","","","","","","","","","",""
"","iti_localizer","","html-keyboard-response","105","277636","0.0-2.0-18.0-1.0","27","56536","female","null","","","","null","","16","","","277332","1","","","","","","300","7400","304","7505","300","","","","","","","","","","","","","","","","","","","","","","","","","","","","","","","","","","","","","","","","","","","","","","","","","","",""
"","localizer","","html-keyboard-response","106","278041","0.0-2.0-19.0-0.0","27","56536","female","321","","","","68","0","17","","Stimuli/Experimental_stims/localizer/faces/foto-sushi-6anudmpILw4-unsplash.jpg","277636","1","faces","","0","0","1","400","7700","405","7809","","","","","","","","","","","","","","","","","","","","","","","","","","","","","","","","","","","","","","","","","","","","","","","","","","","",""
"","iti_localizer","","html-keyboard-response","107","278345","0.0-2.0-19.0-1.0","27","56536","female","null","","","","null","","17","","","278041","1","","","","","","300","8100","304","8214","300","","","","","","","","","","","","","","","","","","","","","","","","","","","","","","","","","","","","","","","","","","","","","","","","","","",""
"","localizer","","html-keyboard-response","108","278752","0.0-2.0-20.0-0.0","27","56536","female","383","","","","68","0","18","","Stimuli/Experimental_stims/localizer/faces/christian-ferrer-8vT-DgHZDG4-unsplash.jpg","278345","1","faces","","0","0","1","400","8400","407","8518","","","","","","","","","","","","","","","","","","","","","","","","","","","","","","","","","","","","","","","","","","","","","","","","","","","",""
"","iti_localizer","","html-keyboard-response","109","279057","0.0-2.0-20.0-1.0","27","56536","female","null","","","","null","","18","","","278752","1","","","","","","300","8800","305","8925","300","","","","","","","","","","","","","","","","","","","","","","","","","","","","","","","","","","","","","","","","","","","","","","","","","","",""
"","localizer","","html-keyboard-response","110","279461","0.0-2.0-21.0-0.0","27","56536","female","382","","","","68","0","19","","Stimuli/Experimental_stims/localizer/faces/stephanie-nakagawa-ADSKIn0ScDg-unsplash.jpg","279057","1","faces","","0","0","1","400","9100","404","9230","","","","","","","","","","","","","","","","","","","","","","","","","","","","","","","","","","","","","","","","","","","","","","","","","","","",""
"","iti_localizer","","html-keyboard-response","111","279767","0.0-2.0-21.0-1.0","27","56536","female","null","","","","null","","19","","","279461","1","","","","","","300","9500","306","9634","300","","","","","","","","","","","","","","","","","","","","","","","","","","","","","","","","","","","","","","","","","","","","","","","","","","",""
"","localizer","","html-keyboard-response","112","280172","0.0-2.0-22.0-0.0","27","56536","female","334","","","","75","1","20","","Stimuli/Experimental_stims/localizer/faces/toa-heftiba-2O1EUSTRBrY-unsplash.jpg","279767","1","faces","","1","0","1","400","9800","405","9940","","","","","","","","","","","","","","","","","","","","","","","","","","","","","","","","","","","","","","","","","","","","","","","","","","","",""
"","iti_localizer","","html-keyboard-response","113","280475","0.0-2.0-22.0-1.0","27","56536","female","null","","","","null","","20","","","280172","1","","","","","","300","10200","303","10345","300","","","","","","","","","","","","","","","","","","","","","","","","","","","","","","","","","","","","","","","","","","","","","","","","","","",""
"","localizer","","html-keyboard-response","114","280881","0.0-2.0-23.0-0.0","27","56536","female","NaN","","","","null","NaN","21","","Stimuli/Experimental_stims/localizer/faces/darshan-patel-QJEVpydulGs-unsplash.jpg","280475","1","faces","","0","1","0","400","10500","406","10648","","","","","","","","","","","","","","","","","","","","","","","","","","","","","","","","","","","","","","","","","","","","","","","","","","","",""
"","iti_localizer","","html-keyboard-response","115","281185","0.0-2.0-23.0-1.0","27","56536","female","null","","","","null","","21","","","280881","1","","","","","","300","10900","304","11054","300","","","","","","","","","","","","","","","","","","","","","","","","","","","","","","","","","","","","","","","","","","","","","","","","","","",""
"","localizer","","html-keyboard-response","116","281590","0.0-2.0-24.0-0.0","27","56536","female","NaN","","","","null","NaN","22","","Stimuli/Experimental_stims/localizer/faces/mubariz-mehdizadeh-o-wlIFT4zE4-unsplash.jpg","281185","1","faces","","0","1","0","400","11200","405","11358","","","","","","","","","","","","","","","","","","","","","","","","","","","","","","","","","","","","","","","","","","","","","","","","","","","",""
"","iti_localizer","","html-keyboard-response","117","281893","0.0-2.0-24.0-1.0","27","56536","female","null","","","","null","","22","","","281590","1","","","","","","300","11600","303","11763","300","","","","","","","","","","","","","","","","","","","","","","","","","","","","","","","","","","","","","","","","","","","","","","","","","","",""
"","localizer","","html-keyboard-response","118","282299","0.0-2.0-25.0-0.0","27","56536","female","383","","","","68","0","23","","Stimuli/Experimental_stims/localizer/faces/midas-hofstra-tidSLv-UaNs-unsplash.jpg","281893","1","faces","","0","0","1","400","11900","406","12066","","","","","","","","","","","","","","","","","","","","","","","","","","","","","","","","","","","","","","","","","","","","","","","","","","","",""
"","iti_localizer","","html-keyboard-response","119","282603","0.0-2.0-25.0-1.0","27","56536","female","null","","","","null","","23","","","282299","1","","","","","","300","12300","304","12472","300","","","","","","","","","","","","","","","","","","","","","","","","","","","","","","","","","","","","","","","","","","","","","","","","","","",""
"","localizer","","html-keyboard-response","120","283007","0.0-2.0-26.0-0.0","27","56536","female","353","","","","68","0","24","","Stimuli/Experimental_stims/localizer/faces/toa-heftiba-O3ymvT7Wf9U-unsplash.jpg","282603","1","faces","","0","0","1","400","12600","404","12776","","","","","","","","","","","","","","","","","","","","","","","","","","","","","","","","","","","","","","","","","","","","","","","","","","","",""
"","iti_localizer","","html-keyboard-response","121","283313","0.0-2.0-26.0-1.0","27","56536","female","null","","","","null","","24","","","283007","1","","","","","","300","13000","306","13180","300","","","","","","","","","","","","","","","","","","","","","","","","","","","","","","","","","","","","","","","","","","","","","","","","","","",""
"","localizer","","html-keyboard-response","122","283718","0.0-2.0-27.0-0.0","27","56536","female","NaN","","","","null","NaN","25","","Stimuli/Experimental_stims/localizer/faces/katsiaryna-endruszkiewicz-BteCp6aq4GI-unsplash.jpg","283313","1","faces","","0","1","0","400","13300","405","13486","","","","","","","","","","","","","","","","","","","","","","","","","","","","","","","","","","","","","","","","","","","","","","","","","","","",""
"","iti_localizer","","html-keyboard-response","123","297732","0.0-2.0-27.0-1.0","27","56536","female","null","","","","null","","25","","","283718","1","","","","","","14000","13700","14014","13891","14000","","","","","","","","","","","","","","","","","","","","","","","","","","","","","","","","","","","","","","","","","","","","","","","","","","",""
"","localizer","","html-keyboard-response","124","298136","0.0-2.0-28.0-0.0","27","56536","female","NaN","","","","null","NaN","26","","Stimuli/Experimental_stims/localizer/outdoor_scenes/jaanus-jagomagi-FddgewYQF2M-unsplash.jpg","297732","1","outdoor_scenes","","0","1","0","400","27700","404","27905","","","","","","","","","","","","","","","","","","","","","","","","","","","","","","","","","","","","","","","","","","","","","","","","","","","",""
"","iti_localizer","","html-keyboard-response","125","298439","0.0-2.0-28.0-1.0","27","56536","female","null","","","","null","","26","","","298136","1","","","","","","300","28100","303","28309","300","","","","","","","","","","","","","","","","","","","","","","","","","","","","","","","","","","","","","","","","","","","","","","","","","","",""
"","localizer","","html-keyboard-response","126","298845","0.0-2.0-29.0-0.0","27","56536","female","13","","","","68","0","27","","Stimuli/Experimental_stims/localizer/outdoor_scenes/v2osk-1Z2niiBPg5A-unsplash.jpg","298439","1","outdoor_scenes","","1","0","0","400","28400","406","28612","","","","","","","","","","","","","","","","","","","","","","","","","","","","","","","","","","","","","","","","","","","","","","","","","","","",""
"","iti_localizer","","html-keyboard-response","127","299148","0.0-2.0-29.0-1.0","27","56536","female","null","","","","null","","27","","","298845","1","","","","","","300","28800","303","29018","300","","","","","","","","","","","","","","","","","","","","","","","","","","","","","","","","","","","","","","","","","","","","","","","","","","",""
"","localizer","","html-keyboard-response","128","299553","0.0-2.0-30.0-0.0","27","56536","female","210","","","","68","0","28","","Stimuli/Experimental_stims/localizer/outdoor_scenes/wai-siew-mTFyV8oNDzU-unsplash.jpg","299148","1","outdoor_scenes","","0","0","1","400","29100","405","29321","","","","","","","","","","","","","","","","","","","","","","","","","","","","","","","","","","","","","","","","","","","","","","","","","","","",""
"","iti_localizer","","html-keyboard-response","129","299859","0.0-2.0-30.0-1.0","27","56536","female","null","","","","null","","28","","","299553","1","","","","","","300","29500","306","29726","300","","","","","","","","","","","","","","","","","","","","","","","","","","","","","","","","","","","","","","","","","","","","","","","","","","",""
"","localizer","","html-keyboard-response","130","300264","0.0-2.0-31.0-0.0","27","56536","female","361","","","","68","0","29","","Stimuli/Experimental_stims/localizer/outdoor_scenes/jay-cai-F_laX9E8CUo-unsplash.jpg","299859","1","outdoor_scenes","","0","0","1","400","29800","405","30032","","","","","","","","","","","","","","","","","","","","","","","","","","","","","","","","","","","","","","","","","","","","","","","","","","","",""
"","iti_localizer","","html-keyboard-response","131","300568","0.0-2.0-31.0-1.0","27","56536","female","null","","","","null","","29","","","300264","1","","","","","","300","30200","304","30437","300","","","","","","","","","","","","","","","","","","","","","","","","","","","","","","","","","","","","","","","","","","","","","","","","","","",""
"","localizer","","html-keyboard-response","132","300973","0.0-2.0-32.0-0.0","27","56536","female","385","","","","68","0","30","","Stimuli/Experimental_stims/localizer/outdoor_scenes/jeremy-cai-ucYWe5mzTMU-unsplash.jpg","300568","1","outdoor_scenes","","0","0","1","400","30500","405","30741","","","","","","","","","","","","","","","","","","","","","","","","","","","","","","","","","","","","","","","","","","","","","","","","","","","",""
"","iti_localizer","","html-keyboard-response","133","301277","0.0-2.0-32.0-1.0","27","56536","female","null","","","","null","","30","","","300973","1","","","","","","300","30900","304","31146","300","","","","","","","","","","","","","","","","","","","","","","","","","","","","","","","","","","","","","","","","","","","","","","","","","","",""
"","localizer","","html-keyboard-response","134","301682","0.0-2.0-33.0-0.0","27","56536","female","379","","","","68","0","31","","Stimuli/Experimental_stims/localizer/outdoor_scenes/erol-ahmed-d3pTF3r_hwY-unsplash.jpg","301277","1","outdoor_scenes","","0","0","1","400","31200","405","31450","","","","","","","","","","","","","","","","","","","","","","","","","","","","","","","","","","","","","","","","","","","","","","","","","","","",""
"","iti_localizer","","html-keyboard-response","135","301987","0.0-2.0-33.0-1.0","27","56536","female","null","","","","null","","31","","","301682","1","","","","","","300","31600","305","31855","300","","","","","","","","","","","","","","","","","","","","","","","","","","","","","","","","","","","","","","","","","","","","","","","","","","",""
"","localizer","","html-keyboard-response","136","302393","0.0-2.0-34.0-0.0","27","56536","female","NaN","","","","null","NaN","32","","Stimuli/Experimental_stims/localizer/outdoor_scenes/quino-al-vmZ2DehWQ3Q-unsplash.jpg","301987","1","outdoor_scenes","","0","1","0","400","31900","406","32160","","","","","","","","","","","","","","","","","","","","","","","","","","","","","","","","","","","","","","","","","","","","","","","","","","","",""
"","iti_localizer","","html-keyboard-response","137","302698","0.0-2.0-34.0-1.0","27","56536","female","null","","","","null","","32","","","302393","1","","","","","","300","32300","305","32566","300","","","","","","","","","","","","","","","","","","","","","","","","","","","","","","","","","","","","","","","","","","","","","","","","","","",""
"","localizer","","html-keyboard-response","138","303103","0.0-2.0-35.0-0.0","27","56536","female","374","","","","68","0","33","","Stimuli/Experimental_stims/localizer/outdoor_scenes/kenneth-thewissen-D76DklsG-5U-unsplash.jpg","302698","1","outdoor_scenes","","0","0","1","400","32600","405","32871","","","","","","","","","","","","","","","","","","","","","","","","","","","","","","","","","","","","","","","","","","","","","","","","","","","",""
"","iti_localizer","","html-keyboard-response","139","303409","0.0-2.0-35.0-1.0","27","56536","female","null","","","","null","","33","","","303103","1","","","","","","300","33000","306","33276","300","","","","","","","","","","","","","","","","","","","","","","","","","","","","","","","","","","","","","","","","","","","","","","","","","","",""
"","localizer","","html-keyboard-response","140","303815","0.0-2.0-36.0-0.0","27","56536","female","394","","","","68","0","34","","Stimuli/Experimental_stims/localizer/outdoor_scenes/johny-goerend-U_diPCXCBxU-unsplash.jpg","303409","1","outdoor_scenes","","0","0","1","400","33300","406","33582","","","","","","","","","","","","","","","","","","","","","","","","","","","","","","","","","","","","","","","","","","","","","","","","","","","",""
"","iti_localizer","","html-keyboard-response","141","304119","0.0-2.0-36.0-1.0","27","56536","female","null","","","","null","","34","","","303815","1","","","","","","300","33700","304","33988","300","","","","","","","","","","","","","","","","","","","","","","","","","","","","","","","","","","","","","","","","","","","","","","","","","","",""
"","localizer","","html-keyboard-response","142","304526","0.0-2.0-37.0-0.0","27","56536","female","337","","","","68","0","35","","Stimuli/Experimental_stims/localizer/outdoor_scenes/ken-cheung-KonWFWUaAuk-unsplash.jpg","304119","1","outdoor_scenes","","0","0","1","400","34000","407","34292","","","","","","","","","","","","","","","","","","","","","","","","","","","","","","","","","","","","","","","","","","","","","","","","","","","",""
"","iti_localizer","","html-keyboard-response","143","304830","0.0-2.0-37.0-1.0","27","56536","female","null","","","","null","","35","","","304526","1","","","","","","300","34400","304","34699","300","","","","","","","","","","","","","","","","","","","","","","","","","","","","","","","","","","","","","","","","","","","","","","","","","","",""
"","localizer","","html-keyboard-response","144","305234","0.0-2.0-38.0-0.0","27","56536","female","NaN","","","","null","NaN","36","","Stimuli/Experimental_stims/localizer/outdoor_scenes/alessio-furlan-Vw3a0HgE7AM-unsplash.jpg","304830","1","outdoor_scenes","","0","1","0","400","34700","404","35003","","","","","","","","","","","","","","","","","","","","","","","","","","","","","","","","","","","","","","","","","","","","","","","","","","","",""
"","iti_localizer","","html-keyboard-response","145","305540","0.0-2.0-38.0-1.0","27","56536","female","null","","","","null","","36","","","305234","1","","","","","","300","35100","306","35407","300","","","","","","","","","","","","","","","","","","","","","","","","","","","","","","","","","","","","","","","","","","","","","","","","","","",""
"","localizer","","html-keyboard-response","146","305945","0.0-2.0-39.0-0.0","27","56536","female","389","","","","68","0","37","","Stimuli/Experimental_stims/localizer/outdoor_scenes/ricardo-gomez-angel-dTSaC-S-7fs-unsplash.jpg","305540","1","outdoor_scenes","","0","0","1","400","35400","405","35713","","","","","","","","","","","","","","","","","","","","","","","","","","","","","","","","","","","","","","","","","","","","","","","","","","","",""
"","iti_localizer","","html-keyboard-response","147","306250","0.0-2.0-39.0-1.0","27","56536","female","null","","","","null","","37","","","305945","1","","","","","","300","35800","305","36118","300","","","","","","","","","","","","","","","","","","","","","","","","","","","","","","","","","","","","","","","","","","","","","","","","","","",""
"","localizer","","html-keyboard-response","148","306655","0.0-2.0-40.0-0.0","27","56536","female","349","","","","68","0","38","","Stimuli/Experimental_stims/localizer/outdoor_scenes/samuel-ferrara-IEHPDNk2-8w-unsplash.jpg","306250","1","outdoor_scenes","","0","0","1","400","36100","405","36423","","","","","","","","","","","","","","","","","","","","","","","","","","","","","","","","","","","","","","","","","","","","","","","","","","","",""
"","iti_localizer","","html-keyboard-response","149","306960","0.0-2.0-40.0-1.0","27","56536","female","null","","","","null","","38","","","306655","1","","","","","","300","36500","305","36828","300","","","","","","","","","","","","","","","","","","","","","","","","","","","","","","","","","","","","","","","","","","","","","","","","","","",""
"","localizer","","html-keyboard-response","150","307363","0.0-2.0-41.0-0.0","27","56536","female","319","","","","68","0","39","","Stimuli/Experimental_stims/localizer/outdoor_scenes/pietro-de-grandi-T7K4aEPoGGk-unsplash.jpg","306960","1","outdoor_scenes","","0","0","1","400","36800","403","37133","","","","","","","","","","","","","","","","","","","","","","","","","","","","","","","","","","","","","","","","","","","","","","","","","","","",""
"","iti_localizer","","html-keyboard-response","151","307668","0.0-2.0-41.0-1.0","27","56536","female","null","","","","null","","39","","","307363","1","","","","","","300","37200","305","37536","300","","","","","","","","","","","","","","","","","","","","","","","","","","","","","","","","","","","","","","","","","","","","","","","","","","",""
"","localizer","","html-keyboard-response","152","308073","0.0-2.0-42.0-0.0","27","56536","female","308","","","","68","0","40","","Stimuli/Experimental_stims/localizer/outdoor_scenes/tomasz-filipek-CUWC-6MRcNg-unsplash.jpg","307668","1","outdoor_scenes","","0","0","1","400","37500","405","37841","","","","","","","","","","","","","","","","","","","","","","","","","","","","","","","","","","","","","","","","","","","","","","","","","","","",""
"","iti_localizer","","html-keyboard-response","153","308378","0.0-2.0-42.0-1.0","27","56536","female","null","","","","null","","40","","","308073","1","","","","","","300","37900","305","38246","300","","","","","","","","","","","","","","","","","","","","","","","","","","","","","","","","","","","","","","","","","","","","","","","","","","",""
"","localizer","","html-keyboard-response","154","308782","0.0-2.0-43.0-0.0","27","56536","female","337","","","","68","0","41","","Stimuli/Experimental_stims/localizer/outdoor_scenes/cayetano-gil-rguHxZmOF5U-unsplash.jpg","308378","1","outdoor_scenes","","0","0","1","400","38200","404","38551","","","","","","","","","","","","","","","","","","","","","","","","","","","","","","","","","","","","","","","","","","","","","","","","","","","",""
"","iti_localizer","","html-keyboard-response","155","309087","0.0-2.0-43.0-1.0","27","56536","female","null","","","","null","","41","","","308782","1","","","","","","300","38600","305","38955","300","","","","","","","","","","","","","","","","","","","","","","","","","","","","","","","","","","","","","","","","","","","","","","","","","","",""
"","localizer","","html-keyboard-response","156","309492","0.0-2.0-44.0-0.0","27","56536","female","352","","","","68","0","42","","Stimuli/Experimental_stims/localizer/outdoor_scenes/nikola-majksner-hXNGeAFOgT4-unsplash.jpg","309087","1","outdoor_scenes","","0","0","1","400","38900","405","39260","","","","","","","","","","","","","","","","","","","","","","","","","","","","","","","","","","","","","","","","","","","","","","","","","","","",""
"","iti_localizer","","html-keyboard-response","157","309798","0.0-2.0-44.0-1.0","27","56536","female","null","","","","null","","42","","","309492","1","","","","","","300","39300","306","39665","300","","","","","","","","","","","","","","","","","","","","","","","","","","","","","","","","","","","","","","","","","","","","","","","","","","",""
"","localizer","","html-keyboard-response","158","310202","0.0-2.0-45.0-0.0","27","56536","female","382","","","","75","1","43","","Stimuli/Experimental_stims/localizer/outdoor_scenes/wil-stewart-pHANr-CpbYM-unsplash.jpg","309798","1","outdoor_scenes","","1","0","1","400","39600","404","39971","","","","","","","","","","","","","","","","","","","","","","","","","","","","","","","","","","","","","","","","","","","","","","","","","","","",""
"","iti_localizer","","html-keyboard-response","159","310507","0.0-2.0-45.0-1.0","27","56536","female","null","","","","null","","43","","","310202","1","","","","","","300","40000","305","40375","300","","","","","","","","","","","","","","","","","","","","","","","","","","","","","","","","","","","","","","","","","","","","","","","","","","",""
"","localizer","","html-keyboard-response","160","310912","0.0-2.0-46.0-0.0","27","56536","female","356","","","","68","0","44","","Stimuli/Experimental_stims/localizer/outdoor_scenes/chang-qing-2YQoKbyGvDc-unsplash.jpg","310507","1","outdoor_scenes","","0","0","1","400","40300","405","40680","","","","","","","","","","","","","","","","","","","","","","","","","","","","","","","","","","","","","","","","","","","","","","","","","","","",""
"","iti_localizer","","html-keyboard-response","161","311221","0.0-2.0-46.0-1.0","27","56536","female","null","","","","null","","44","","","310912","1","","","","","","300","40700","309","41085","300","","","","","","","","","","","","","","","","","","","","","","","","","","","","","","","","","","","","","","","","","","","","","","","","","","",""
"","localizer","","html-keyboard-response","162","311627","0.0-2.0-47.0-0.0","27","56536","female","347","","","","68","0","45","","Stimuli/Experimental_stims/localizer/outdoor_scenes/solotravelgoals-7kLufxYoqWk-unsplash.jpg","311221","1","outdoor_scenes","","0","0","1","400","41000","406","41394","","","","","","","","","","","","","","","","","","","","","","","","","","","","","","","","","","","","","","","","","","","","","","","","","","","",""
"","iti_localizer","","html-keyboard-response","163","325632","0.0-2.0-47.0-1.0","27","56536","female","null","","","","null","","45","","","311627","1","","","","","","14000","41400","14005","41800","14000","","","","","","","","","","","","","","","","","","","","","","","","","","","","","","","","","","","","","","","","","","","","","","","","","","",""
"","localizer","","html-keyboard-response","164","326038","0.0-2.0-48.0-0.0","27","56536","female","NaN","","","","null","NaN","46","","Stimuli/Experimental_stims/localizer/body_parts/jeremy-bishop-mLd3hAaH2ns-unsplash.jpg","325632","1","body_parts","","0","1","0","400","55400","406","55805","","","","","","","","","","","","","","","","","","","","","","","","","","","","","","","","","","","","","","","","","","","","","","","","","","","",""
"","iti_localizer","","html-keyboard-response","165","326342","0.0-2.0-48.0-1.0","27","56536","female","null","","","","null","","46","","","326038","1","","","","","","300","55800","304","56211","300","","","","","","","","","","","","","","","","","","","","","","","","","","","","","","","","","","","","","","","","","","","","","","","","","","",""
"","localizer","","html-keyboard-response","166","326748","0.0-2.0-49.0-0.0","27","56536","female","291","","","","68","0","47","","Stimuli/Experimental_stims/localizer/body_parts/lilartsy-1KkhQ8uL28g-unsplash.jpg","326342","1","body_parts","","0","0","1","400","56100","406","56515","","","","","","","","","","","","","","","","","","","","","","","","","","","","","","","","","","","","","","","","","","","","","","","","","","","",""
"","iti_localizer","","html-keyboard-response","167","327052","0.0-2.0-49.0-1.0","27","56536","female","null","","","","null","","47","","","326748","1","","","","","","300","56500","304","56921","300","","","","","","","","","","","","","","","","","","","","","","","","","","","","","","","","","","","","","","","","","","","","","","","","","","",""
"","localizer","","html-keyboard-response","168","327456","0.0-2.0-50.0-0.0","27","56536","female","351","","","","68","0","48","","Stimuli/Experimental_stims/localizer/body_parts/toa-heftiba-qxvWnfHb3-M-unsplash.jpg","327052","1","body_parts","","0","0","1","400","56800","404","57225","","","","","","","","","","","","","","","","","","","","","","","","","","","","","","","","","","","","","","","","","","","","","","","","","","","",""
"","iti_localizer","","html-keyboard-response","169","327760","0.0-2.0-50.0-1.0","27","56536","female","null","","","","null","","48","","","327456","1","","","","","","300","57200","304","57629","300","","","","","","","","","","","","","","","","","","","","","","","","","","","","","","","","","","","","","","","","","","","","","","","","","","",""
"","localizer","","html-keyboard-response","170","328166","0.0-2.0-51.0-0.0","27","56536","female","NaN","","","","null","NaN","49","","Stimuli/Experimental_stims/localizer/body_parts/callum-skelton-3KLMq7y46nA-unsplash.jpg","327760","1","body_parts","","1","1","0","400","57500","406","57933","","","","","","","","","","","","","","","","","","","","","","","","","","","","","","","","","","","","","","","","","","","","","","","","","","","",""
"","iti_localizer","","html-keyboard-response","171","328471","0.0-2.0-51.0-1.0","27","56536","female","null","","","","null","","49","","","328166","1","","","","","","300","57900","305","58339","300","","","","","","","","","","","","","","","","","","","","","","","","","","","","","","","","","","","","","","","","","","","","","","","","","","",""
"","localizer","","html-keyboard-response","172","328875","0.0-2.0-52.0-0.0","27","56536","female","306","","","","68","0","50","","Stimuli/Experimental_stims/localizer/body_parts/ant-rozetsky-bXQd8JXx0vs-unsplash.jpg","328471","1","body_parts","","0","0","1","400","58200","404","58644","","","","","","","","","","","","","","","","","","","","","","","","","","","","","","","","","","","","","","","","","","","","","","","","","","","",""
"","iti_localizer","","html-keyboard-response","173","329179","0.0-2.0-52.0-1.0","27","56536","female","null","","","","null","","50","","","328875","1","","","","","","300","58600","304","59048","300","","","","","","","","","","","","","","","","","","","","","","","","","","","","","","","","","","","","","","","","","","","","","","","","","","",""
"","localizer","","html-keyboard-response","174","329585","0.0-2.0-53.0-0.0","27","56536","female","376","","","","68","0","51","","Stimuli/Experimental_stims/localizer/body_parts/boyd-christiansen-uVj7kewrZ-o-unsplash.jpg","329179","1","body_parts","","0","0","1","400","58900","406","59352","","","","","","","","","","","","","","","","","","","","","","","","","","","","","","","","","","","","","","","","","","","","","","","","","","","",""
"","iti_localizer","","html-keyboard-response","175","329890","0.0-2.0-53.0-1.0","27","56536","female","null","","","","null","","51","","","329585","1","","","","","","300","59300","305","59758","300","","","","","","","","","","","","","","","","","","","","","","","","","","","","","","","","","","","","","","","","","","","","","","","","","","",""
"","localizer","","html-keyboard-response","176","330295","0.0-2.0-54.0-0.0","27","56536","female","336","","","","68","0","52","","Stimuli/Experimental_stims/localizer/body_parts/helen-ast-l2iY5Sh0mTg-unsplash.jpg","329890","1","body_parts","","0","0","1","400","59600","405","60063","","","","","","","","","","","","","","","","","","","","","","","","","","","","","","","","","","","","","","","","","","","","","","","","","","","",""
"","iti_localizer","","html-keyboard-response","177","330601","0.0-2.0-54.0-1.0","27","56536","female","null","","","","null","","52","","","330295","1","","","","","","300","60000","306","60468","300","","","","","","","","","","","","","","","","","","","","","","","","","","","","","","","","","","","","","","","","","","","","","","","","","","",""
"","localizer","","html-keyboard-response","178","331005","0.0-2.0-55.0-0.0","27","56536","female","NaN","","","","null","NaN","53","","Stimuli/Experimental_stims/localizer/body_parts/pure-julia-E9Q4bqYHtIM-unsplash.jpg","330601","1","body_parts","","0","1","0","400","60300","404","60774","","","","","","","","","","","","","","","","","","","","","","","","","","","","","","","","","","","","","","","","","","","","","","","","","","","",""
"","iti_localizer","","html-keyboard-response","179","331310","0.0-2.0-55.0-1.0","27","56536","female","null","","","","null","","53","","","331005","1","","","","","","300","60700","305","61178","300","","","","","","","","","","","","","","","","","","","","","","","","","","","","","","","","","","","","","","","","","","","","","","","","","","",""
"","localizer","","html-keyboard-response","180","331715","0.0-2.0-56.0-0.0","27","56536","female","395","","","","68","0","54","","Stimuli/Experimental_stims/localizer/body_parts/sina-rezakhani-d1gQi0Jl05U-unsplash (1).jpg","331310","1","body_parts","","0","0","1","400","61000","405","61483","","","","","","","","","","","","","","","","","","","","","","","","","","","","","","","","","","","","","","","","","","","","","","","","","","","",""
"","iti_localizer","","html-keyboard-response","181","332019","0.0-2.0-56.0-1.0","27","56536","female","null","","","","null","","54","","","331715","1","","","","","","300","61400","304","61888","300","","","","","","","","","","","","","","","","","","","","","","","","","","","","","","","","","","","","","","","","","","","","","","","","","","",""
"","localizer","","html-keyboard-response","182","332425","0.0-2.0-57.0-0.0","27","56536","female","NaN","","","","null","NaN","55","","Stimuli/Experimental_stims/localizer/body_parts/megan-menegay-UojxG_BJxnI-unsplash.jpg","332019","1","body_parts","","0","1","0","400","61700","406","62192","","","","","","","","","","","","","","","","","","","","","","","","","","","","","","","","","","","","","","","","","","","","","","","","","","","",""
"","iti_localizer","","html-keyboard-response","183","332729","0.0-2.0-57.0-1.0","27","56536","female","null","","","","null","","55","","","332425","1","","","","","","300","62100","304","62598","300","","","","","","","","","","","","","","","","","","","","","","","","","","","","","","","","","","","","","","","","","","","","","","","","","","",""
"","localizer","","html-keyboard-response","184","333134","0.0-2.0-58.0-0.0","27","56536","female","323","","","","68","0","56","","Stimuli/Experimental_stims/localizer/body_parts/sincerely-media-7TBFwUQA6Xk-unsplash.jpg","332729","1","body_parts","","0","0","1","400","62400","405","62902","","","","","","","","","","","","","","","","","","","","","","","","","","","","","","","","","","","","","","","","","","","","","","","","","","","",""
"","iti_localizer","","html-keyboard-response","185","333438","0.0-2.0-58.0-1.0","27","56536","female","null","","","","null","","56","","","333134","1","","","","","","300","62800","304","63307","300","","","","","","","","","","","","","","","","","","","","","","","","","","","","","","","","","","","","","","","","","","","","","","","","","","",""
"","localizer","","html-keyboard-response","186","333843","0.0-2.0-59.0-0.0","27","56536","female","296","","","","68","0","57","","Stimuli/Experimental_stims/localizer/body_parts/sincerely-media-pdynOoM7xmA-unsplash.jpg","333438","1","body_parts","","0","0","1","400","63100","405","63611","","","","","","","","","","","","","","","","","","","","","","","","","","","","","","","","","","","","","","","","","","","","","","","","","","","",""
"","iti_localizer","","html-keyboard-response","187","334148","0.0-2.0-59.0-1.0","27","56536","female","null","","","","null","","57","","","333843","1","","","","","","300","63500","305","64016","300","","","","","","","","","","","","","","","","","","","","","","","","","","","","","","","","","","","","","","","","","","","","","","","","","","",""
"","localizer","","html-keyboard-response","188","334553","0.0-2.0-60.0-0.0","27","56536","female","329","","","","68","0","58","","Stimuli/Experimental_stims/localizer/body_parts/adrien-king-XzBluXxBoyQ-unsplash.jpg","334148","1","body_parts","","0","0","1","400","63800","405","64321","","","","","","","","","","","","","","","","","","","","","","","","","","","","","","","","","","","","","","","","","","","","","","","","","","","",""
"","iti_localizer","","html-keyboard-response","189","334858","0.0-2.0-60.0-1.0","27","56536","female","null","","","","null","","58","","","334553","1","","","","","","300","64200","305","64726","300","","","","","","","","","","","","","","","","","","","","","","","","","","","","","","","","","","","","","","","","","","","","","","","","","","",""
"","localizer","","html-keyboard-response","190","335265","0.0-2.0-61.0-0.0","27","56536","female","395","","","","75","1","59","","Stimuli/Experimental_stims/localizer/body_parts/nattalia-nunez-MB9sdDfZMSg-unsplash.jpg","334858","1","body_parts","","1","0","1","400","64500","407","65031","","","","","","","","","","","","","","","","","","","","","","","","","","","","","","","","","","","","","","","","","","","","","","","","","","","",""
"","iti_localizer","","html-keyboard-response","191","335570","0.0-2.0-61.0-1.0","27","56536","female","null","","","","null","","59","","","335265","1","","","","","","300","64900","305","65438","300","","","","","","","","","","","","","","","","","","","","","","","","","","","","","","","","","","","","","","","","","","","","","","","","","","",""
"","localizer","","html-keyboard-response","192","335975","0.0-2.0-62.0-0.0","27","56536","female","397","","","","75","1","60","","Stimuli/Experimental_stims/localizer/body_parts/louis-hansel-FjKTMRTQYAs-unsplash.jpg","335570","1","body_parts","","0","0","0","400","65200","405","65743","","","","","","","","","","","","","","","","","","","","","","","","","","","","","","","","","","","","","","","","","","","","","","","","","","","",""
"","iti_localizer","","html-keyboard-response","193","336280","0.0-2.0-62.0-1.0","27","56536","female","null","","","","null","","60","","","335975","1","","","","","","300","65600","305","66148","300","","","","","","","","","","","","","","","","","","","","","","","","","","","","","","","","","","","","","","","","","","","","","","","","","","",""
"","localizer","","html-keyboard-response","194","336685","0.0-2.0-63.0-0.0","27","56536","female","NaN","","","","null","NaN","61","","Stimuli/Experimental_stims/localizer/body_parts/jonathan-borba-hTwH8QFkPMs-unsplash.jpg","336280","1","body_parts","","0","1","0","400","65900","405","66453","","","","","","","","","","","","","","","","","","","","","","","","","","","","","","","","","","","","","","","","","","","","","","","","","","","",""
"","iti_localizer","","html-keyboard-response","195","336989","0.0-2.0-63.0-1.0","27","56536","female","null","","","","null","","61","","","336685","1","","","","","","300","66300","304","66858","300","","","","","","","","","","","","","","","","","","","","","","","","","","","","","","","","","","","","","","","","","","","","","","","","","","",""
"","localizer","","html-keyboard-response","196","337395","0.0-2.0-64.0-0.0","27","56536","female","NaN","","","","null","NaN","62","","Stimuli/Experimental_stims/localizer/body_parts/hu-chen-tCbTGNwrFNM-unsplash.jpg","336989","1","body_parts","","0","1","0","400","66600","406","67162","","","","","","","","","","","","","","","","","","","","","","","","","","","","","","","","","","","","","","","","","","","","","","","","","","","",""
"","iti_localizer","","html-keyboard-response","197","337700","0.0-2.0-64.0-1.0","27","56536","female","null","","","","null","","62","","","337395","1","","","","","","300","67000","305","67568","300","","","","","","","","","","","","","","","","","","","","","","","","","","","","","","","","","","","","","","","","","","","","","","","","","","",""
"","localizer","","html-keyboard-response","198","338105","0.0-2.0-65.0-0.0","27","56536","female","369","","","","68","0","63","","Stimuli/Experimental_stims/localizer/body_parts/danie-franco-jyyNiSEcCl4-unsplash.jpg","337700","1","body_parts","","0","0","1","400","67300","405","67873","","","","","","","","","","","","","","","","","","","","","","","","","","","","","","","","","","","","","","","","","","","","","","","","","","","",""
"","iti_localizer","","html-keyboard-response","199","338408","0.0-2.0-65.0-1.0","27","56536","female","null","","","","null","","63","","","338105","1","","","","","","300","67700","303","68278","300","","","","","","","","","","","","","","","","","","","","","","","","","","","","","","","","","","","","","","","","","","","","","","","","","","",""
"","localizer","","html-keyboard-response","200","338814","0.0-2.0-66.0-0.0","27","56536","female","NaN","","","","null","NaN","64","","Stimuli/Experimental_stims/localizer/body_parts/natalie-grainger-8uB5kFKWWkk-unsplash.jpg","338408","1","body_parts","","0","1","0","400","68000","406","68581","","","","","","","","","","","","","","","","","","","","","","","","","","","","","","","","","","","","","","","","","","","","","","","","","","","",""
"","iti_localizer","","html-keyboard-response","201","339118","0.0-2.0-66.0-1.0","27","56536","female","null","","","","null","","64","","","338814","1","","","","","","300","68400","304","68987","300","","","","","","","","","","","","","","","","","","","","","","","","","","","","","","","","","","","","","","","","","","","","","","","","","","",""
"","localizer","","html-keyboard-response","202","339522","0.0-2.0-67.0-0.0","27","56536","female","397","","","","68","0","65","","Stimuli/Experimental_stims/localizer/body_parts/apostolos-vamvouras-g5wKHRu2QW0-unsplash.jpg","339118","1","body_parts","","0","0","1","400","68700","404","69291","","","","","","","","","","","","","","","","","","","","","","","","","","","","","","","","","","","","","","","","","","","","","","","","","","","",""
"","iti_localizer","","html-keyboard-response","203","353526","0.0-2.0-67.0-1.0","27","56536","female","null","","","","null","","65","","","339522","1","","","","","","14000","69100","14004","69695","14000","","","","","","","","","","","","","","","","","","","","","","","","","","","","","","","","","","","","","","","","","","","","","","","","","","",""
"","localizer","","html-keyboard-response","204","353931","0.0-2.0-68.0-0.0","27","56536","female","NaN","","","","null","NaN","66","","Stimuli/Experimental_stims/localizer/objects/quaritsch-photography-lZ8onQ1wuY8-unsplash.jpg","353526","1","objects","","1","1","0","400","83100","405","83699","","","","","","","","","","","","","","","","","","","","","","","","","","","","","","","","","","","","","","","","","","","","","","","","","","","",""
"","iti_localizer","","html-keyboard-response","205","354236","0.0-2.0-68.0-1.0","27","56536","female","null","","","","null","","66","","","353931","1","","","","","","300","83500","305","84104","300","","","","","","","","","","","","","","","","","","","","","","","","","","","","","","","","","","","","","","","","","","","","","","","","","","",""
"","localizer","","html-keyboard-response","206","354642","0.0-2.0-69.0-0.0","27","56536","female","337","","","","68","0","67","","Stimuli/Experimental_stims/localizer/objects/ana-9GmAaEMMKho-unsplash.jpg","354236","1","objects","","0","0","1","400","83800","406","84409","","","","","","","","","","","","","","","","","","","","","","","","","","","","","","","","","","","","","","","","","","","","","","","","","","","",""
"","iti_localizer","","html-keyboard-response","207","354947","0.0-2.0-69.0-1.0","27","56536","female","null","","","","null","","67","","","354642","1","","","","","","300","84200","305","84815","300","","","","","","","","","","","","","","","","","","","","","","","","","","","","","","","","","","","","","","","","","","","","","","","","","","",""
"","localizer","","html-keyboard-response","208","355351","0.0-2.0-70.0-0.0","27","56536","female","340","","","","68","0","68","","Stimuli/Experimental_stims/localizer/objects/nordwood-themes-nDd3dIkkOLo-unsplash.jpg","354947","1","objects","","0","0","1","400","84500","404","85120","","","","","","","","","","","","","","","","","","","","","","","","","","","","","","","","","","","","","","","","","","","","","","","","","","","",""
"","iti_localizer","","html-keyboard-response","209","355656","0.0-2.0-70.0-1.0","27","56536","female","null","","","","null","","68","","","355351","1","","","","","","300","84900","305","85524","300","","","","","","","","","","","","","","","","","","","","","","","","","","","","","","","","","","","","","","","","","","","","","","","","","","",""
"","localizer","","html-keyboard-response","210","356061","0.0-2.0-71.0-0.0","27","56536","female","NaN","","","","null","NaN","69","","Stimuli/Experimental_stims/localizer/objects/kelly-jean-cKjbI0Y00X0-unsplash.jpg","355656","1","objects","","0","1","0","400","85200","405","85829","","","","","","","","","","","","","","","","","","","","","","","","","","","","","","","","","","","","","","","","","","","","","","","","","","","",""
"","iti_localizer","","html-keyboard-response","211","356365","0.0-2.0-71.0-1.0","27","56536","female","null","","","","null","","69","","","356061","1","","","","","","300","85600","304","86234","300","","","","","","","","","","","","","","","","","","","","","","","","","","","","","","","","","","","","","","","","","","","","","","","","","","",""
"","localizer","","html-keyboard-response","212","356769","0.0-2.0-72.0-0.0","27","56536","female","336","","","","68","0","70","","Stimuli/Experimental_stims/localizer/objects/florian-klauer-nptLmg6jqDo-unsplash.jpg","356365","1","objects","","0","0","1","400","85900","404","86538","","","","","","","","","","","","","","","","","","","","","","","","","","","","","","","","","","","","","","","","","","","","","","","","","","","",""
"","iti_localizer","","html-keyboard-response","213","357075","0.0-2.0-72.0-1.0","27","56536","female","null","","","","null","","70","","","356769","1","","","","","","300","86300","306","86942","300","","","","","","","","","","","","","","","","","","","","","","","","","","","","","","","","","","","","","","","","","","","","","","","","","","",""
"","localizer","","html-keyboard-response","214","357479","0.0-2.0-73.0-0.0","27","56536","female","321","","","","68","0","71","","Stimuli/Experimental_stims/localizer/objects/nicolas-hippert-SVgX47QIUlc-unsplash.jpg","357075","1","objects","","0","0","1","400","86600","404","87248","","","","","","","","","","","","","","","","","","","","","","","","","","","","","","","","","","","","","","","","","","","","","","","","","","","",""
"","iti_localizer","","html-keyboard-response","215","357783","0.0-2.0-73.0-1.0","27","56536","female","null","","","","null","","71","","","357479","1","","","","","","300","87000","304","87652","300","","","","","","","","","","","","","","","","","","","","","","","","","","","","","","","","","","","","","","","","","","","","","","","","","","",""
"","localizer","","html-keyboard-response","216","358188","0.0-2.0-74.0-0.0","27","56536","female","NaN","","","","null","NaN","72","","Stimuli/Experimental_stims/localizer/objects/florian-klauer-mk7D-4UCfmg-unsplash.jpg","357783","1","objects","","0","1","0","400","87300","405","87956","","","","","","","","","","","","","","","","","","","","","","","","","","","","","","","","","","","","","","","","","","","","","","","","","","","",""
"","iti_localizer","","html-keyboard-response","217","358493","0.0-2.0-74.0-1.0","27","56536","female","null","","","","null","","72","","","358188","1","","","","","","300","87700","305","88361","300","","","","","","","","","","","","","","","","","","","","","","","","","","","","","","","","","","","","","","","","","","","","","","","","","","",""
"","localizer","","html-keyboard-response","218","358897","0.0-2.0-75.0-0.0","27","56536","female","388","","","","68","0","73","","Stimuli/Experimental_stims/localizer/objects/alex-lvrs-2zDw14yCYqk-unsplash.jpg","358493","1","objects","","0","0","1","400","88000","404","88666","","","","","","","","","","","","","","","","","","","","","","","","","","","","","","","","","","","","","","","","","","","","","","","","","","","",""
"","iti_localizer","","html-keyboard-response","219","359200","0.0-2.0-75.0-1.0","27","56536","female","null","","","","null","","73","","","358897","1","","","","","","300","88400","303","89070","300","","","","","","","","","","","","","","","","","","","","","","","","","","","","","","","","","","","","","","","","","","","","","","","","","","",""
"","localizer","","html-keyboard-response","220","359607","0.0-2.0-76.0-0.0","27","56536","female","342","","","","68","0","74","","Stimuli/Experimental_stims/localizer/objects/hipster-mum-XookgCxFw6Q-unsplash.jpg","359200","1","objects","","0","0","1","400","88700","407","89373","","","","","","","","","","","","","","","","","","","","","","","","","","","","","","","","","","","","","","","","","","","","","","","","","","","",""
"","iti_localizer","","html-keyboard-response","221","359913","0.0-2.0-76.0-1.0","27","56536","female","null","","","","null","","74","","","359607","1","","","","","","300","89100","306","89780","300","","","","","","","","","","","","","","","","","","","","","","","","","","","","","","","","","","","","","","","","","","","","","","","","","","",""
"","localizer","","html-keyboard-response","222","360317","0.0-2.0-77.0-0.0","27","56536","female","392","","","","68","0","75","","Stimuli/Experimental_stims/localizer/objects/ian-talmacs-ugqU0a4P18U-unsplash.jpg","359913","1","objects","","0","0","1","400","89400","404","90086","","","","","","","","","","","","","","","","","","","","","","","","","","","","","","","","","","","","","","","","","","","","","","","","","","","",""
"","iti_localizer","","html-keyboard-response","223","360622","0.0-2.0-77.0-1.0","27","56536","female","null","","","","null","","75","","","360317","1","","","","","","300","89800","305","90490","300","","","","","","","","","","","","","","","","","","","","","","","","","","","","","","","","","","","","","","","","","","","","","","","","","","",""
"","localizer","","html-keyboard-response","224","361027","0.0-2.0-78.0-0.0","27","56536","female","346","","","","68","0","76","","Stimuli/Experimental_stims/localizer/objects/chris-briggs-FobzAZJGM9M-unsplash.jpg","360622","1","objects","","0","0","1","400","90100","405","90795","","","","","","","","","","","","","","","","","","","","","","","","","","","","","","","","","","","","","","","","","","","","","","","","","","","",""
"","iti_localizer","","html-keyboard-response","225","361331","0.0-2.0-78.0-1.0","27","56536","female","null","","","","null","","76","","","361027","1","","","","","","300","90500","304","91200","300","","","","","","","","","","","","","","","","","","","","","","","","","","","","","","","","","","","","","","","","","","","","","","","","","","",""
"","localizer","","html-keyboard-response","226","361738","0.0-2.0-79.0-0.0","27","56536","female","311","","","","68","0","77","","Stimuli/Experimental_stims/localizer/objects/recha-oktaviani-t__61ap00Mc-unsplash.jpg","361331","1","objects","","0","0","1","400","90800","407","91504","","","","","","","","","","","","","","","","","","","","","","","","","","","","","","","","","","","","","","","","","","","","","","","","","","","",""
"","iti_localizer","","html-keyboard-response","227","362043","0.0-2.0-79.0-1.0","27","56536","female","null","","","","null","","77","","","361738","1","","","","","","300","91200","305","91911","300","","","","","","","","","","","","","","","","","","","","","","","","","","","","","","","","","","","","","","","","","","","","","","","","","","",""
"","localizer","","html-keyboard-response","228","362447","0.0-2.0-80.0-0.0","27","56536","female","294","","","","68","0","78","","Stimuli/Experimental_stims/localizer/objects/jonny-caspari-wsvCC6UyKjs-unsplash.jpg","362043","1","objects","","0","0","1","400","91500","404","92216","","","","","","","","","","","","","","","","","","","","","","","","","","","","","","","","","","","","","","","","","","","","","","","","","","","",""
"","iti_localizer","","html-keyboard-response","229","362751","0.0-2.0-80.0-1.0","27","56536","female","null","","","","null","","78","","","362447","1","","","","","","300","91900","304","92620","300","","","","","","","","","","","","","","","","","","","","","","","","","","","","","","","","","","","","","","","","","","","","","","","","","","",""
"","localizer","","html-keyboard-response","230","363156","0.0-2.0-81.0-0.0","27","56536","female","335","","","","68","0","79","","Stimuli/Experimental_stims/localizer/objects/markus-spiske-ANrVtttbNss-unsplash.jpg","362751","1","objects","","0","0","1","400","92200","405","92924","","","","","","","","","","","","","","","","","","","","","","","","","","","","","","","","","","","","","","","","","","","","","","","","","","","",""
"","iti_localizer","","html-keyboard-response","231","363461","0.0-2.0-81.0-1.0","27","56536","female","null","","","","null","","79","","","363156","1","","","","","","300","92600","305","93329","300","","","","","","","","","","","","","","","","","","","","","","","","","","","","","","","","","","","","","","","","","","","","","","","","","","",""
"","localizer","","html-keyboard-response","232","363866","0.0-2.0-82.0-0.0","27","56536","female","NaN","","","","null","NaN","80","","Stimuli/Experimental_stims/localizer/objects/ignat-dolomanov-kFBDVnmskPA-unsplash.jpg","363461","1","objects","","0","1","0","400","92900","405","93634","","","","","","","","","","","","","","","","","","","","","","","","","","","","","","","","","","","","","","","","","","","","","","","","","","","",""
"","iti_localizer","","html-keyboard-response","233","364172","0.0-2.0-82.0-1.0","27","56536","female","null","","","","null","","80","","","363866","1","","","","","","300","93300","306","94039","300","","","","","","","","","","","","","","","","","","","","","","","","","","","","","","","","","","","","","","","","","","","","","","","","","","",""
"","localizer","","html-keyboard-response","234","364577","0.0-2.0-83.0-0.0","27","56536","female","361","","","","68","0","81","","Stimuli/Experimental_stims/localizer/objects/mockup-graphics-Pj2PY-E-LfM-unsplash.jpg","364172","1","objects","","0","0","1","400","93600","405","94345","","","","","","","","","","","","","","","","","","","","","","","","","","","","","","","","","","","","","","","","","","","","","","","","","","","",""
"","iti_localizer","","html-keyboard-response","235","364882","0.0-2.0-83.0-1.0","27","56536","female","null","","","","null","","81","","","364577","1","","","","","","300","94000","305","94750","300","","","","","","","","","","","","","","","","","","","","","","","","","","","","","","","","","","","","","","","","","","","","","","","","","","",""
"","localizer","","html-keyboard-response","236","365287","0.0-2.0-84.0-0.0","27","56536","female","344","","","","68","0","82","","Stimuli/Experimental_stims/localizer/objects/lance-reis-v0FYj9iioQg-unsplash.jpg","364882","1","objects","","0","0","1","400","94300","405","95055","","","","","","","","","","","","","","","","","","","","","","","","","","","","","","","","","","","","","","","","","","","","","","","","","","","",""
"","iti_localizer","","html-keyboard-response","237","365592","0.0-2.0-84.0-1.0","27","56536","female","null","","","","null","","82","","","365287","1","","","","","","300","94700","305","95460","300","","","","","","","","","","","","","","","","","","","","","","","","","","","","","","","","","","","","","","","","","","","","","","","","","","",""
"","localizer","","html-keyboard-response","238","366009","0.0-2.0-85.0-0.0","27","56536","female","332","","","","68","0","83","","Stimuli/Experimental_stims/localizer/objects/mockup-graphics-U6ZMEefFGx8-unsplash.jpg","365592","1","objects","","0","0","1","400","95000","417","95765","","","","","","","","","","","","","","","","","","","","","","","","","","","","","","","","","","","","","","","","","","","","","","","","","","","",""
"","iti_localizer","","html-keyboard-response","239","366319","0.0-2.0-85.0-1.0","27","56536","female","null","","","","null","","83","","","366009","1","","","","","","300","95400","310","96182","300","","","","","","","","","","","","","","","","","","","","","","","","","","","","","","","","","","","","","","","","","","","","","","","","","","",""
"","localizer","","html-keyboard-response","240","366724","0.0-2.0-86.0-0.0","27","56536","female","354","","","","75","1","84","","Stimuli/Experimental_stims/localizer/objects/engin-akyurt-bbbKzTmY2Gg-unsplash.jpg","366319","1","objects","","1","0","1","400","95700","405","96492","","","","","","","","","","","","","","","","","","","","","","","","","","","","","","","","","","","","","","","","","","","","","","","","","","","",""
"","iti_localizer","","html-keyboard-response","241","367028","0.0-2.0-86.0-1.0","27","56536","female","null","","","","null","","84","","","366724","1","","","","","","300","96100","304","96897","300","","","","","","","","","","","","","","","","","","","","","","","","","","","","","","","","","","","","","","","","","","","","","","","","","","",""
"","localizer","","html-keyboard-response","242","367434","0.0-2.0-87.0-0.0","27","56536","female","NaN","","","","null","NaN","85","","Stimuli/Experimental_stims/localizer/objects/eugene-chystiakov-3neSwyntbQ8-unsplash.jpg","367028","1","objects","","0","1","0","400","96400","406","97201","","","","","","","","","","","","","","","","","","","","","","","","","","","","","","","","","","","","","","","","","","","","","","","","","","","",""
"","iti_localizer","","html-keyboard-response","243","381439","0.0-2.0-87.0-1.0","27","56536","female","null","","","","null","","85","","","367434","1","","","","","","14000","96800","14005","97607","14000","","","","","","","","","","","","","","","","","","","","","","","","","","","","","","","","","","","","","","","","","","","","","","","","","","",""
"","localizer","","html-keyboard-response","244","381855","0.0-2.0-88.0-0.0","27","56536","female","291","","","","68","0","86","","Stimuli/Experimental_stims/localizer/body_parts/bady-abbas-N-VEeMnm7gE-unsplash.jpg","381439","1","body_parts","","0","0","1","400","110800","416","111612","","","","","","","","","","","","","","","","","","","","","","","","","","","","","","","","","","","","","","","","","","","","","","","","","","","",""
"","iti_localizer","","html-keyboard-response","245","382159","0.0-2.0-88.0-1.0","27","56536","female","null","","","","null","","86","","","381855","1","","","","","","300","111200","304","112028","300","","","","","","","","","","","","","","","","","","","","","","","","","","","","","","","","","","","","","","","","","","","","","","","","","","",""
"","localizer","","html-keyboard-response","246","382565","0.0-2.0-89.0-0.0","27","56536","female","205","","","","68","0","87","","Stimuli/Experimental_stims/localizer/body_parts/sincerely-media-QyzlAZjm0r0-unsplash.jpg","382159","1","body_parts","","1","0","0","400","111500","406","112332","","","","","","","","","","","","","","","","","","","","","","","","","","","","","","","","","","","","","","","","","","","","","","","","","","","",""
"","iti_localizer","","html-keyboard-response","247","382870","0.0-2.0-89.0-1.0","27","56536","female","null","","","","null","","87","","","382565","1","","","","","","300","111900","305","112738","300","","","","","","","","","","","","","","","","","","","","","","","","","","","","","","","","","","","","","","","","","","","","","","","","","","",""
"","localizer","","html-keyboard-response","248","383273","0.0-2.0-90.0-0.0","27","56536","female","338","","","","68","0","88","","Stimuli/Experimental_stims/localizer/body_parts/jeremy-yap-TfJEi17kA0w-unsplash.jpg","382870","1","body_parts","","0","0","1","400","112200","403","113043","","","","","","","","","","","","","","","","","","","","","","","","","","","","","","","","","","","","","","","","","","","","","","","","","","","",""
"","iti_localizer","","html-keyboard-response","249","383578","0.0-2.0-90.0-1.0","27","56536","female","null","","","","null","","88","","","383273","1","","","","","","300","112600","305","113446","300","","","","","","","","","","","","","","","","","","","","","","","","","","","","","","","","","","","","","","","","","","","","","","","","","","",""
