"success","ttype","start_time","trial_type","trial_index","time_elapsed","internal_node_id","age","PID","gender","rt","responses","view_history","repeat_instructions","key_press","response","index","stimulus_index","path","missed_checkup","start_time_elapsed","run","task","isi","is_odd_ball","no_response","acc","duration","onset","duration_time_elapsed","onset_time_elapsed","trial_duration","left_chosen","chosen_stimulus","unchosen_stimulus","chosen_category","unchosen_category","chosen_rating","unchosen_rating","chosen_path","unchosen_path","pair_id","practice","scramble_screen_time","scramble_instructed_side","stim_type","iti","block","left_stimulus","right_stimulus","left_category","right_category","left_path","right_path","left_rating","right_rating","scramble_acc","scramble_no_response","warning","stimulus_id","item_id","outcome","response_rt","deliberation_reward_tally","choice_type","gain_left","left_item_id","right_item_id","higher_outcome_chosen","chosen_left","old_pair","pair_type","old_response","pair_acc","reward_type","outcome_response","outcome_rt","outcome_acc","category","choice","deliberated_stim","old_rating","new_rating","total_reward_tally"
"true","full_screen","d08172023hr1656","fullscreen","0","52744","0.0-0.0-0.0","26","66833","Male","","","","","","","","","","","","","","","","","","","","","","","","","","","","","","","","","","","","","","","","","","","","","","","","","","","","","","","","","","","","","","","","","","","","","","","","","",""
"","get_id","","survey-text","1","59386","0.0-0.0-1.0","26","66833","Male","6625","{""Q0"":""26"",""Q1"":""Male""}","","","","","","","","","","","","","","","","","","","","","","","","","","","","","","","","","","","","","","","","","","","","","","","","","","","","","","","","","","","","","","","","","","","","","","","",""
"","ratings_instructions","","instructions","2","72478","0.0-1.0-0.0-0.0","26","66833","Male","10661","","[{""page_index"":0,""viewing_time"":8228},{""page_index"":1,""viewing_time"":2431}]","","","","","","","","","","","","","","","","","","","","","","","","","","","","","","","","","","","","","","","","","","","","","","","","","","","","","","","","","","","","","","","","","","","","","","",""
"","rating_comprehension_check","","survey-multi-choice","3","78442","0.0-1.0-0.0-1.0","26","66833","Male","5955","{""Q0"":""True"",""Q1"":""Mouse""}","","0","","","","","","","","","","","","","","","","","","","","","","","","","","","","","","","","","","","","","","","","","","","","","","","","","","","","","","","","","","","","","","","","","","","","","",""
"","","","html-keyboard-response","4","82461","0.0-1.0-1.0","26","66833","Male","4011","","","","68","","","","","","","","","","","","","","","","","","","","","","","","","","","","","","","","","","","","","","","","","","","","","","","","","","","","","","","","","","","","","","","","","","","","",""
"","rating","","html-slider-response","5","87969","0.0-1.0-2.0","26","66833","Male","5462","","","","","92","0","28","Stimuli/Experimental_stims/body_parts/ira-vishnevskaya-8DQAvdCby1I-unsplash.jpg","","","","","","","","","","","","","","","","","","","","","","","","","","","","","","","","","","","","","","","","","","","","","","","","","","","","","","","","","","","","","","","","",""
"","rating","","html-slider-response","6","92587","0.0-1.0-3.0","26","66833","Male","4597","","","","","82","1","4","Stimuli/Experimental_stims/outdoor_scenes/jarrett-kow-1ZOyYPOBn7I-unsplash.jpg","","","","","","","","","","","","","","","","","","","","","","","","","","","","","","","","","","","","","","","","","","","","","","","","","","","","","","","","","","","","","","","","",""
"","rating","","html-slider-response","7","97565","0.0-1.0-4.0","26","66833","Male","4964","","","","","77","2","35","Stimuli/Experimental_stims/body_parts/wc-so-KH4AAPjb-tI-unsplash.jpg","","","","","","","","","","","","","","","","","","","","","","","","","","","","","","","","","","","","","","","","","","","","","","","","","","","","","","","","","","","","","","","","",""
"","rating","","html-slider-response","8","103432","0.0-1.0-5.0","26","66833","Male","5848","","","","","87","3","47","Stimuli/Experimental_stims/objects/ronaldo-arthur-vidal-Cdz_lvnl37k-unsplash.jpg","","","","","","","","","","","","","","","","","","","","","","","","","","","","","","","","","","","","","","","","","","","","","","","","","","","","","","","","","","","","","","","","",""
"","rating","","html-slider-response","9","108099","0.0-1.0-6.0","26","66833","Male","4637","","","","","84","4","9","Stimuli/Experimental_stims/outdoor_scenes/sergey-pesterev-y-b_FOmJXdg-unsplash.jpg","","","","","","","","","","","","","","","","","","","","","","","","","","","","","","","","","","","","","","","","","","","","","","","","","","","","","","","","","","","","","","","","",""
"","rating","","html-slider-response","10","112272","0.0-1.0-7.0","26","66833","Male","4139","","","","","85","5","31","Stimuli/Experimental_stims/body_parts/sincerely-media-VN6DbKajo5s-unsplash.jpg","","","","","","","","","","","","","","","","","","","","","","","","","","","","","","","","","","","","","","","","","","","","","","","","","","","","","","","","","","","","","","","","",""
"","rating","","html-slider-response","11","135556","0.0-1.0-8.0","26","66833","Male","23262","","","","","86","6","5","Stimuli/Experimental_stims/outdoor_scenes/jeff-king-bJHWJeiHfHc-unsplash.jpg","","","","","","","","","","","","","","","","","","","","","","","","","","","","","","","","","","","","","","","","","","","","","","","","","","","","","","","","","","","","","","","","",""
"","rating","","html-slider-response","12","147047","0.0-1.0-9.0","26","66833","Male","11462","","","","","88","7","27","Stimuli/Experimental_stims/body_parts/heike-mintel-i_Gns0ELnLw-unsplash.jpg","","","","","","","","","","","","","","","","","","","","","","","","","","","","","","","","","","","","","","","","","","","","","","","","","","","","","","","","","","","","","","","","",""
"","rating","","html-slider-response","13","155522","0.0-1.0-10.0","26","66833","Male","8456","","","","","90","8","37","Stimuli/Experimental_stims/objects/alexander-andrews-VLGWE_SumrA-unsplash.jpg","","","","","","","","","","","","","","","","","","","","","","","","","","","","","","","","","","","","","","","","","","","","","","","","","","","","","","","","","","","","","","","","",""
"","rating","","html-slider-response","14","163378","0.0-1.0-11.0","26","66833","Male","7836","","","","","88","9","19","Stimuli/Experimental_stims/faces/joel-mott-LaK153ghdig-unsplash.jpg","","","","","","","","","","","","","","","","","","","","","","","","","","","","","","","","","","","","","","","","","","","","","","","","","","","","","","","","","","","","","","","","",""
"","rating","","html-slider-response","15","167578","0.0-1.0-12.0","26","66833","Male","4181","","","","","82","10","34","Stimuli/Experimental_stims/body_parts/wagner-santos-mBWMvIuVnso-unsplash.jpg","","","","","","","","","","","","","","","","","","","","","","","","","","","","","","","","","","","","","","","","","","","","","","","","","","","","","","","","","","","","","","","","",""
"","rating","","html-slider-response","16","188464","0.0-1.0-13.0","26","66833","Male","20864","","","","","85","11","22","Stimuli/Experimental_stims/faces/ravi-patel-VMGAbeeJTKo-unsplash.jpg","","","","","","","","","","","","","","","","","","","","","","","","","","","","","","","","","","","","","","","","","","","","","","","","","","","","","","","","","","","","","","","","",""
"","rating","","html-slider-response","17","194357","0.0-1.0-14.0","26","66833","Male","5878","","","","","89","12","1","Stimuli/Experimental_stims/outdoor_scenes/ashim-d-silva-S2Q5mdOrrVc-unsplash.jpg","","","","","","","","","","","","","","","","","","","","","","","","","","","","","","","","","","","","","","","","","","","","","","","","","","","","","","","","","","","","","","","","",""
"","rating","","html-slider-response","18","200911","0.0-1.0-15.0","26","66833","Male","6536","","","","","87","13","15","Stimuli/Experimental_stims/faces/erik-lucatero-d2MSDujJl2g-unsplash.jpg","","","","","","","","","","","","","","","","","","","","","","","","","","","","","","","","","","","","","","","","","","","","","","","","","","","","","","","","","","","","","","","","",""
"","rating","","html-slider-response","19","205640","0.0-1.0-16.0","26","66833","Male","4712","","","","","82","14","17","Stimuli/Experimental_stims/faces/good-faces-xmSWVeGEnJw-unsplash.jpg","","","","","","","","","","","","","","","","","","","","","","","","","","","","","","","","","","","","","","","","","","","","","","","","","","","","","","","","","","","","","","","","",""
"","rating","","html-slider-response","20","208733","0.0-1.0-17.0","26","66833","Male","3076","","","","","85","15","12","Stimuli/Experimental_stims/faces/aiony-haust-jmATI5Q_YgY-unsplash.jpg","","","","","","","","","","","","","","","","","","","","","","","","","","","","","","","","","","","","","","","","","","","","","","","","","","","","","","","","","","","","","","","","",""
"","rating","","html-slider-response","21","224102","0.0-1.0-18.0","26","66833","Male","15354","","","","","83","16","0","Stimuli/Experimental_stims/outdoor_scenes/aleksandra-boguslawska-MS7KD9Ti7FQ-unsplash.jpg","","","","","","","","","","","","","","","","","","","","","","","","","","","","","","","","","","","","","","","","","","","","","","","","","","","","","","","","","","","","","","","","",""
"","rating","","html-slider-response","22","237388","0.0-1.0-19.0","26","66833","Male","13270","","","","","86","17","41","Stimuli/Experimental_stims/objects/insung-yoon-w2JtIQQXoRU-unsplash.jpg","","","","","","","","","","","","","","","","","","","","","","","","","","","","","","","","","","","","","","","","","","","","","","","","","","","","","","","","","","","","","","","","",""
"","rating","","html-slider-response","23","242228","0.0-1.0-20.0","26","66833","Male","4811","","","","","82","18","18","Stimuli/Experimental_stims/faces/jessica-radanavong-mrYkTuAesKE-unsplash.jpg","","","","","","","","","","","","","","","","","","","","","","","","","","","","","","","","","","","","","","","","","","","","","","","","","","","","","","","","","","","","","","","","",""
"","rating","","html-slider-response","24","245483","0.0-1.0-21.0","26","66833","Male","3234","","","","","78","19","11","Stimuli/Experimental_stims/outdoor_scenes/stephen-leonardi-gyIRjKPXupE-unsplash.jpg","","","","","","","","","","","","","","","","","","","","","","","","","","","","","","","","","","","","","","","","","","","","","","","","","","","","","","","","","","","","","","","","",""
"","rating","","html-slider-response","25","248890","0.0-1.0-22.0","26","66833","Male","3393","","","","","81","20","20","Stimuli/Experimental_stims/faces/justin-chen-J7Cf1Gch49E-unsplash.jpg","","","","","","","","","","","","","","","","","","","","","","","","","","","","","","","","","","","","","","","","","","","","","","","","","","","","","","","","","","","","","","","","",""
"","rating","","html-slider-response","26","252689","0.0-1.0-23.0","26","66833","Male","3784","","","","","92","21","23","Stimuli/Experimental_stims/faces/rikonavt-HQjfrvdTfak-unsplash.jpg","","","","","","","","","","","","","","","","","","","","","","","","","","","","","","","","","","","","","","","","","","","","","","","","","","","","","","","","","","","","","","","","",""
"","rating","","html-slider-response","27","257451","0.0-1.0-24.0","26","66833","Male","4720","","","","","87","22","25","Stimuli/Experimental_stims/body_parts/engin-akyurt-Q2rfH3GW39c-unsplash.jpg","","","","","","","","","","","","","","","","","","","","","","","","","","","","","","","","","","","","","","","","","","","","","","","","","","","","","","","","","","","","","","","","",""
"","rating","","html-slider-response","28","261020","0.0-1.0-25.0","26","66833","Male","3552","","","","","90","23","33","Stimuli/Experimental_stims/body_parts/tucker-good-36skLT5jZcc-unsplash.jpg","","","","","","","","","","","","","","","","","","","","","","","","","","","","","","","","","","","","","","","","","","","","","","","","","","","","","","","","","","","","","","","","",""
"","rating","","html-slider-response","29","266526","0.0-1.0-26.0","26","66833","Male","5470","","","","","86","24","32","Stimuli/Experimental_stims/body_parts/towfiqu-barbhuiya-3AsiVDsZnHg-unsplash.jpg","","","","","","","","","","","","","","","","","","","","","","","","","","","","","","","","","","","","","","","","","","","","","","","","","","","","","","","","","","","","","","","","",""
"","rating","","html-slider-response","30","270152","0.0-1.0-27.0","26","66833","Male","3560","","","","","87","25","30","Stimuli/Experimental_stims/body_parts/mika-korhonen-Xodzxosar18-unsplash.jpg","","","","","","","","","","","","","","","","","","","","","","","","","","","","","","","","","","","","","","","","","","","","","","","","","","","","","","","","","","","","","","","","",""
"","rating","","html-slider-response","31","274090","0.0-1.0-28.0","26","66833","Male","3923","","","","","60","26","16","Stimuli/Experimental_stims/faces/freddy-kearney-o-ioeoATbIM-unsplash.jpg","","","","","","","","","","","","","","","","","","","","","","","","","","","","","","","","","","","","","","","","","","","","","","","","","","","","","","","","","","","","","","","","",""
"","rating","","html-slider-response","32","277496","0.0-1.0-29.0","26","66833","Male","3396","","","","","81","27","14","Stimuli/Experimental_stims/faces/david-siglin-UuW4psOb388-unsplash.jpg","","","","","","","","","","","","","","","","","","","","","","","","","","","","","","","","","","","","","","","","","","","","","","","","","","","","","","","","","","","","","","","","",""
"","rating","","html-slider-response","33","298924","0.0-1.0-30.0","26","66833","Male","21414","","","","","88","28","36","Stimuli/Experimental_stims/objects/alexander-andrews-JYGnB9gTCls-unsplash.jpg","","","","","","","","","","","","","","","","","","","","","","","","","","","","","","","","","","","","","","","","","","","","","","","","","","","","","","","","","","","","","","","","",""
"","rating","","html-slider-response","34","304082","0.0-1.0-31.0","26","66833","Male","5135","","","","","88","29","3","Stimuli/Experimental_stims/outdoor_scenes/henry-be-NLF6hTe4PAg-unsplash.jpg","","","","","","","","","","","","","","","","","","","","","","","","","","","","","","","","","","","","","","","","","","","","","","","","","","","","","","","","","","","","","","","","",""
"","rating","","html-slider-response","35","312084","0.0-1.0-32.0","26","66833","Male","7965","","","","","90","30","29","Stimuli/Experimental_stims/body_parts/manuel-schinner-ZwjFuJ7ebpk-unsplash.jpg","","","","","","","","","","","","","","","","","","","","","","","","","","","","","","","","","","","","","","","","","","","","","","","","","","","","","","","","","","","","","","","","",""
"","rating","","html-slider-response","36","317744","0.0-1.0-33.0","26","66833","Male","5625","","","","","86","31","43","Stimuli/Experimental_stims/objects/jonathan-greenaway-Y4hGgeiFn3s-unsplash.jpg","","","","","","","","","","","","","","","","","","","","","","","","","","","","","","","","","","","","","","","","","","","","","","","","","","","","","","","","","","","","","","","","",""
"","rating","","html-slider-response","37","324442","0.0-1.0-34.0","26","66833","Male","6676","","","","","87","32","40","Stimuli/Experimental_stims/objects/fabian-blank-pElSkGRA2NU-unsplash.jpg","","","","","","","","","","","","","","","","","","","","","","","","","","","","","","","","","","","","","","","","","","","","","","","","","","","","","","","","","","","","","","","","",""
"","rating","","html-slider-response","38","328528","0.0-1.0-35.0","26","66833","Male","4070","","","","","85","33","2","Stimuli/Experimental_stims/outdoor_scenes/bruno-van-der-kraan-qez8mNJ3ilU-unsplash.jpg","","","","","","","","","","","","","","","","","","","","","","","","","","","","","","","","","","","","","","","","","","","","","","","","","","","","","","","","","","","","","","","","",""
"","rating","","html-slider-response","39","334488","0.0-1.0-36.0","26","66833","Male","5940","","","","","86","34","26","Stimuli/Experimental_stims/body_parts/engin-akyurt-x_3gyC42btc-unsplash.jpg","","","","","","","","","","","","","","","","","","","","","","","","","","","","","","","","","","","","","","","","","","","","","","","","","","","","","","","","","","","","","","","","",""
"","rating","","html-slider-response","40","337842","0.0-1.0-37.0","26","66833","Male","3337","","","","","80","35","45","Stimuli/Experimental_stims/objects/leohoho-rngTKHXumy0-unsplash.jpg","","","","","","","","","","","","","","","","","","","","","","","","","","","","","","","","","","","","","","","","","","","","","","","","","","","","","","","","","","","","","","","","",""
"","rating","","html-slider-response","41","341171","0.0-1.0-38.0","26","66833","Male","3317","","","","","86","36","6","Stimuli/Experimental_stims/outdoor_scenes/meng-ji-8BH_M-53CyA-unsplash.jpg","","","","","","","","","","","","","","","","","","","","","","","","","","","","","","","","","","","","","","","","","","","","","","","","","","","","","","","","","","","","","","","","",""
"","rating","","html-slider-response","42","344972","0.0-1.0-39.0","26","66833","Male","3758","","","","","87","37","13","Stimuli/Experimental_stims/faces/daniel-rigdon-dXmXKPP2L4E-unsplash.jpg","","","","","","","","","","","","","","","","","","","","","","","","","","","","","","","","","","","","","","","","","","","","","","","","","","","","","","","","","","","","","","","","",""
"","rating","","html-slider-response","43","348558","0.0-1.0-40.0","26","66833","Male","3560","","","","","84","38","44","Stimuli/Experimental_stims/objects/kuiye-chen-NuOGFo4PudE-unsplash.jpg","","","","","","","","","","","","","","","","","","","","","","","","","","","","","","","","","","","","","","","","","","","","","","","","","","","","","","","","","","","","","","","","",""
"","rating","","html-slider-response","44","351155","0.0-1.0-41.0","26","66833","Male","2586","","","","","91","39","42","Stimuli/Experimental_stims/objects/jess-bailey-nOeVi8DsN8U-unsplash.jpg","","","","","","","","","","","","","","","","","","","","","","","","","","","","","","","","","","","","","","","","","","","","","","","","","","","","","","","","","","","","","","","","",""
"","rating","","html-slider-response","45","354438","0.0-1.0-42.0","26","66833","Male","3258","","","","","83","40","24","Stimuli/Experimental_stims/body_parts/clay-banks-LjqARJaJotc-unsplash.jpg","","","","","","","","","","","","","","","","","","","","","","","","","","","","","","","","","","","","","","","","","","","","","","","","","","","","","","","","","","","","","","","","",""
"","rating","","html-slider-response","46","357061","0.0-1.0-43.0","26","66833","Male","2612","","","","","88","41","21","Stimuli/Experimental_stims/faces/leilani-angel-K84vnnzxmTQ-unsplash.jpg","","","","","","","","","","","","","","","","","","","","","","","","","","","","","","","","","","","","","","","","","","","","","","","","","","","","","","","","","","","","","","","","",""
"","rating","","html-slider-response","47","360385","0.0-1.0-44.0","26","66833","Male","3309","","","","","81","42","7","Stimuli/Experimental_stims/outdoor_scenes/petr-vysohlid-9fqwGqGLUxc-unsplash.jpg","","","","","","","","","","","","","","","","","","","","","","","","","","","","","","","","","","","","","","","","","","","","","","","","","","","","","","","","","","","","","","","","",""
"","rating","","html-slider-response","48","365206","0.0-1.0-45.0","26","66833","Male","4803","","","","","87","43","46","Stimuli/Experimental_stims/objects/mockup-graphics-PNsj6RiHAF4-unsplash.jpg","","","","","","","","","","","","","","","","","","","","","","","","","","","","","","","","","","","","","","","","","","","","","","","","","","","","","","","","","","","","","","","","",""
"","rating","","html-slider-response","49","367920","0.0-1.0-46.0","26","66833","Male","2702","","","","","86","44","38","Stimuli/Experimental_stims/objects/art-lasovsky-8XddFc6NkBY-unsplash.jpg","","","","","","","","","","","","","","","","","","","","","","","","","","","","","","","","","","","","","","","","","","","","","","","","","","","","","","","","","","","","","","","","",""
"","rating","","html-slider-response","50","370459","0.0-1.0-47.0","26","66833","Male","2524","","","","","77","45","8","Stimuli/Experimental_stims/outdoor_scenes/samsommer-vddccTqwal8-unsplash.jpg","","","","","","","","","","","","","","","","","","","","","","","","","","","","","","","","","","","","","","","","","","","","","","","","","","","","","","","","","","","","","","","","",""
"","rating","","html-slider-response","51","373128","0.0-1.0-48.0","26","66833","Male","2657","","","","","85","46","10","Stimuli/Experimental_stims/outdoor_scenes/shannon-kunkle-dM8INmkyDas-unsplash.jpg","","","","","","","","","","","","","","","","","","","","","","","","","","","","","","","","","","","","","","","","","","","","","","","","","","","","","","","","","","","","","","","","",""
"","rating","","html-slider-response","52","375724","0.0-1.0-49.0","26","66833","Male","2579","","","","","89","47","39","Stimuli/Experimental_stims/objects/charlesdeluvio-1-nx1QR5dTE-unsplash.jpg","","","","","","","","","","","","","","","","","","","","","","","","","","","","","","","","","","","","","","","","","","","","","","","","","","","","","","","","","","","","","","","","",""
"","localizer_instructions","","instructions","53","495804","0.0-2.0-0.0-0.0","26","66833","Male","119979","","[{""page_index"":0,""viewing_time"":72048},{""page_index"":1,""viewing_time"":44175},{""page_index"":2,""viewing_time"":3755}]","","","","","","","","","","","","","","","","","","","","","","","","","","","","","","","","","","","","","","","","","","","","","","","","","","","","","","","","","","","","","","","","","","","","","","",""
"","localizer_comprehension_check","","survey-multi-choice","54","572886","0.0-2.0-0.0-1.0","26","66833","Male","77054","{""Q0"":""True"",""Q1"":""D"",""Q2"":""K""}","","1","","","","","","","","","","","","","","","","","","","","","","","","","","","","","","","","","","","","","","","","","","","","","","","","","","","","","","","","","","","","","","","","","","","","","",""
"","missed_instruction_checkup","","html-keyboard-response","55","578144","0.0-2.0-0.0-2.0-0.0","26","66833","Male","5239","","","","68","","","","","1","","","","","","","","","","","","","","","","","","","","","","","","","","","","","","","","","","","","","","","","","","","","","","","","","","","","","","","","","","","","","","","",""
"","localizer_instructions","","instructions","56","601536","0.0-2.0-0.1-0.1","26","66833","Male","23366","","[{""page_index"":0,""viewing_time"":4626},{""page_index"":1,""viewing_time"":7036},{""page_index"":0,""viewing_time"":5318},{""page_index"":1,""viewing_time"":5244},{""page_index"":2,""viewing_time"":1141}]","","","","","","","","","","","","","","","","","","","","","","","","","","","","","","","","","","","","","","","","","","","","","","","","","","","","","","","","","","","","","","","","","","","","","","",""
"","localizer_comprehension_check","","survey-multi-choice","57","912494","0.0-2.0-0.1-1.1","26","66833","Male","310933","{""Q0"":""True"",""Q1"":""K"",""Q2"":""K""}","","1","","","","","","","","","","","","","","","","","","","","","","","","","","","","","","","","","","","","","","","","","","","","","","","","","","","","","","","","","","","","","","","","","","","","","",""
"","missed_instruction_checkup","","html-keyboard-response","58","916505","0.0-2.0-0.1-2.1-0.1","26","66833","Male","3999","","","","68","","","","","1","","","","","","","","","","","","","","","","","","","","","","","","","","","","","","","","","","","","","","","","","","","","","","","","","","","","","","","","","","","","","","","",""
"","localizer_instructions","","instructions","59","921597","0.0-2.0-0.2-0.2","26","66833","Male","5084","","[{""page_index"":0,""viewing_time"":2551},{""page_index"":1,""viewing_time"":928},{""page_index"":2,""viewing_time"":1604}]","","","","","","","","","","","","","","","","","","","","","","","","","","","","","","","","","","","","","","","","","","","","","","","","","","","","","","","","","","","","","","","","","","","","","","",""
"","localizer_comprehension_check","","survey-multi-choice","60","956478","0.0-2.0-0.2-1.2","26","66833","Male","34861","{""Q0"":""True"",""Q1"":""D"",""Q2"":""D""}","","1","","","","","","","","","","","","","","","","","","","","","","","","","","","","","","","","","","","","","","","","","","","","","","","","","","","","","","","","","","","","","","","","","","","","","",""
"","missed_instruction_checkup","","html-keyboard-response","61","958747","0.0-2.0-0.2-2.2-0.2","26","66833","Male","2255","","","","68","","","","","1","","","","","","","","","","","","","","","","","","","","","","","","","","","","","","","","","","","","","","","","","","","","","","","","","","","","","","","","","","","","","","","",""
"","localizer_instructions","","instructions","62","963252","0.0-2.0-0.3-0.3","26","66833","Male","4493","","[{""page_index"":0,""viewing_time"":2070},{""page_index"":1,""viewing_time"":728},{""page_index"":2,""viewing_time"":1695}]","","","","","","","","","","","","","","","","","","","","","","","","","","","","","","","","","","","","","","","","","","","","","","","","","","","","","","","","","","","","","","","","","","","","","","",""
"","localizer_comprehension_check","","survey-multi-choice","63","987500","0.0-2.0-0.3-1.3","26","66833","Male","24232","{""Q0"":""True"",""Q1"":""K"",""Q2"":""D""}","","0","","","","","","","","","","","","","","","","","","","","","","","","","","","","","","","","","","","","","","","","","","","","","","","","","","","","","","","","","","","","","","","","","","","","","",""
"","","","html-keyboard-response","64","1011392","0.0-2.0-1.0","26","66833","Male","23881","","","","68","","","","","","","","","","","","","","","","","","","","","","","","","","","","","","","","","","","","","","","","","","","","","","","","","","","","","","","","","","","","","","","","","","","","",""
"","localizer","","html-keyboard-response","65","1011975","0.0-2.0-2.0-0.0","26","66833","Male","NaN","","","","null","NaN","0","","Stimuli/Practice_stims/Localizer/annie-spratt-g9KFpAfQ5bc-unsplash.jpg","","1011392","0","NaN","","0","1","0","400","0","583","0","","","","","","","","","","","","","","","","","","","","","","","","","","","","","","","","","","","","","","","","","","","","","","","","","","","","",""
"","iti_localizer","","html-keyboard-response","66","1012290","0.0-2.0-2.0-1.0","26","66833","Male","null","","","","null","","0","","","","1011975","0","","","","","","300","400","315","583","300","","","","","","","","","","","","","","","","","","","","","","","","","","","","","","","","","","","","","","","","","","","","","","","","","","","",""
"","localizer","","html-keyboard-response","67","1012747","0.0-2.0-2.1-0.1","26","66833","Male","NaN","","","","null","NaN","0","","Stimuli/Practice_stims/Localizer/annie-spratt-g9KFpAfQ5bc-unsplash.jpg","","1012290","0","NaN","","0","1","0","400","700","457","898","","","","","","","","","","","","","","","","","","","","","","","","","","","","","","","","","","","","","","","","","","","","","","","","","","","","",""
"","iti_localizer","","html-keyboard-response","68","1013070","0.0-2.0-2.1-1.1","26","66833","Male","null","","","","null","","0","","","","1012747","0","","","","","","300","1100","323","1355","300","","","","","","","","","","","","","","","","","","","","","","","","","","","","","","","","","","","","","","","","","","","","","","","","","","","",""
"","localizer","","html-keyboard-response","69","1013491","0.0-2.0-2.2-0.2","26","66833","Male","407","","","","68","0","0","","Stimuli/Practice_stims/Localizer/annie-spratt-g9KFpAfQ5bc-unsplash.jpg","","1013070","0","NaN","","0","0","1","400","1400","421","1678","","","","","","","","","","","","","","","","","","","","","","","","","","","","","","","","","","","","","","","","","","","","","","","","","","","","",""
"","iti_localizer","","html-keyboard-response","70","1013813","0.0-2.0-2.2-1.2","26","66833","Male","null","","","","null","","0","","","","1013491","0","","","","","","300","1800","322","2099","300","","","","","","","","","","","","","","","","","","","","","","","","","","","","","","","","","","","","","","","","","","","","","","","","","","","",""
"","localizer","","html-keyboard-response","71","1014229","0.0-2.0-3.0-0.0","26","66833","Male","246","","","","68","0","1","","Stimuli/Practice_stims/Localizer/becca-tapert-sY5RjMB1KkE-unsplash.jpg","","1013813","0","NaN","","0","0","1","400","2100","416","2421","","","","","","","","","","","","","","","","","","","","","","","","","","","","","","","","","","","","","","","","","","","","","","","","","","","","",""
"","iti_localizer","","html-keyboard-response","72","1014677","0.0-2.0-3.0-1.0","26","66833","Male","null","","","","null","","1","","","","1014229","0","","","","","","300","2500","448","2837","300","","","","","","","","","","","","","","","","","","","","","","","","","","","","","","","","","","","","","","","","","","","","","","","","","","","",""
"","localizer","","html-keyboard-response","73","1015102","0.0-2.0-4.0-0.0","26","66833","Male","139","","","","68","0","2","","Stimuli/Practice_stims/Localizer/charl-durand-bsfXvI25iNg-unsplash.jpg","","1014677","0","NaN","","1","0","0","400","2800","425","3285","","","","","","","","","","","","","","","","","","","","","","","","","","","","","","","","","","","","","","","","","","","","","","","","","","","","",""
"","iti_localizer","","html-keyboard-response","74","1015419","0.0-2.0-4.0-1.0","26","66833","Male","null","","","","null","","2","","","","1015102","0","","","","","","300","3200","317","3710","300","","","","","","","","","","","","","","","","","","","","","","","","","","","","","","","","","","","","","","","","","","","","","","","","","","","",""
"","localizer","","html-keyboard-response","75","1015852","0.0-2.0-5.0-0.0","26","66833","Male","149","","","","75","1","3","","Stimuli/Practice_stims/Localizer/nizar-albusaidy-B2r2SWAf5CE-unsplash.jpg","","1015419","0","NaN","","0","0","0","400","3500","433","4027","","","","","","","","","","","","","","","","","","","","","","","","","","","","","","","","","","","","","","","","","","","","","","","","","","","","",""
"","iti_localizer","","html-keyboard-response","76","1016166","0.0-2.0-5.0-1.0","26","66833","Male","null","","","","null","","3","","","","1015852","0","","","","","","300","3900","314","4460","300","","","","","","","","","","","","","","","","","","","","","","","","","","","","","","","","","","","","","","","","","","","","","","","","","","","",""
"","localizer","","html-keyboard-response","77","1016606","0.0-2.0-6.0-0.0","26","66833","Male","42","","","","68","0","4","","Stimuli/Practice_stims/Localizer/randy-fath-epf1tdtIIkM-unsplash.jpg","","1016166","0","NaN","","1","0","0","400","4200","440","4774","","","","","","","","","","","","","","","","","","","","","","","","","","","","","","","","","","","","","","","","","","","","","","","","","","","","",""
"","iti_localizer","","html-keyboard-response","78","1016941","0.0-2.0-6.0-1.0","26","66833","Male","null","","","","null","","4","","","","1016606","0","","","","","","300","4600","335","5214","300","","","","","","","","","","","","","","","","","","","","","","","","","","","","","","","","","","","","","","","","","","","","","","","","","","","",""
"","localizer","","html-keyboard-response","79","1017398","0.0-2.0-7.0-0.0","26","66833","Male","NaN","","","","null","NaN","5","","Stimuli/Practice_stims/Localizer/yassine-khalfalli-adsQ9d_Cx0c-unsplash.jpg","","1016941","0","NaN","","0","1","0","400","4900","457","5549","","","","","","","","","","","","","","","","","","","","","","","","","","","","","","","","","","","","","","","","","","","","","","","","","","","","",""
"","iti_localizer","","html-keyboard-response","80","1017743","0.0-2.0-7.0-1.0","26","66833","Male","null","","","","null","","5","","","","1017398","0","","","","","","300","5300","345","6006","300","","","","","","","","","","","","","","","","","","","","","","","","","","","","","","","","","","","","","","","","","","","","","","","","","","","",""
"","localizer","","html-keyboard-response","81","1018154","0.0-2.0-7.1-0.1","26","66833","Male","43","","","","68","0","5","","Stimuli/Practice_stims/Localizer/yassine-khalfalli-adsQ9d_Cx0c-unsplash.jpg","","1017743","0","NaN","","0","0","1","400","5600","411","6351","","","","","","","","","","","","","","","","","","","","","","","","","","","","","","","","","","","","","","","","","","","","","","","","","","","","",""
"","iti_localizer","","html-keyboard-response","82","1018465","0.0-2.0-7.1-1.1","26","66833","Male","null","","","","null","","5","","","","1018154","0","","","","","","300","6000","311","6762","300","","","","","","","","","","","","","","","","","","","","","","","","","","","","","","","","","","","","","","","","","","","","","","","","","","","",""
"","practice_over","","html-keyboard-response","83","1018488","0.0-2.0-7.1-2.1-0.1","26","66833","Male","17","","","","68","","","","","","","","","","","","","","","","","","","","","","","","","","","","","","","","","","","","","","","","","","","","","","","","","","","","","","","","","","","","","","","","","","","","",""
"","start_run","","html-keyboard-response","84","1025713","0.0-2.0-7.1-2.1-1.1","26","66833","Male","7205","","","","84","","","","","","","","","","","","","","","","","","","","","","","","","","","","","","","","","","","","","","","","","","","","","","","","","","","","","","","","","","","","","","","","","","","","",""
"","localizer","","html-keyboard-response","85","1026141","0.0-2.0-8.0-0.0","26","66833","Male","208","","","","68","0","6","","Stimuli/Experimental_stims/localizer/body_parts/igordoon-primus-CdyHqfrbGIs-unsplash.jpg","","1025713","1","body_parts","","0","0","1","400","0","428","0","","","","","","","","","","","","","","","","","","","","","","","","","","","","","","","","","","","","","","","","","","","","","","","","","","","","",""
"","iti_localizer","","html-keyboard-response","86","1026476","0.0-2.0-8.0-1.0","26","66833","Male","null","","","","null","","6","","","","1026141","1","","","","","","300","400","335","428","300","","","","","","","","","","","","","","","","","","","","","","","","","","","","","","","","","","","","","","","","","","","","","","","","","","","",""
"","localizer","","html-keyboard-response","87","1026909","0.0-2.0-9.0-0.0","26","66833","Male","NaN","","","","null","NaN","7","","Stimuli/Experimental_stims/localizer/body_parts/jonathan-borba-hTwH8QFkPMs-unsplash.jpg","","1026476","1","body_parts","","0","1","0","400","700","433","763","","","","","","","","","","","","","","","","","","","","","","","","","","","","","","","","","","","","","","","","","","","","","","","","","","","","",""
"","iti_localizer","","html-keyboard-response","88","1027224","0.0-2.0-9.0-1.0","26","66833","Male","null","","","","null","","7","","","","1026909","1","","","","","","300","1100","315","1196","300","","","","","","","","","","","","","","","","","","","","","","","","","","","","","","","","","","","","","","","","","","","","","","","","","","","",""
"","localizer","","html-keyboard-response","89","1027666","0.0-2.0-10.0-0.0","26","66833","Male","NaN","","","","null","NaN","8","","Stimuli/Experimental_stims/localizer/body_parts/marcel-fagin-OUYg0Q3ec-Y-unsplash.jpg","","1027224","1","body_parts","","1","1","0","400","1400","442","1511","","","","","","","","","","","","","","","","","","","","","","","","","","","","","","","","","","","","","","","","","","","","","","","","","","","","",""
"","iti_localizer","","html-keyboard-response","90","1027994","0.0-2.0-10.0-1.0","26","66833","Male","null","","","","null","","8","","","","1027666","1","","","","","","300","1800","328","1953","300","","","","","","","","","","","","","","","","","","","","","","","","","","","","","","","","","","","","","","","","","","","","","","","","","","","",""
"","localizer","","html-keyboard-response","91","1028415","0.0-2.0-11.0-0.0","26","66833","Male","0","","","","75","1","9","","Stimuli/Experimental_stims/localizer/body_parts/anelya-okapova-V69kmOyZ3SU-unsplash.jpg","","1027994","1","body_parts","","0","0","0","400","2100","421","2281","","","","","","","","","","","","","","","","","","","","","","","","","","","","","","","","","","","","","","","","","","","","","","","","","","","","",""
"","iti_localizer","","html-keyboard-response","92","1028725","0.0-2.0-11.0-1.0","26","66833","Male","null","","","","null","","9","","","","1028415","1","","","","","","300","2500","310","2702","300","","","","","","","","","","","","","","","","","","","","","","","","","","","","","","","","","","","","","","","","","","","","","","","","","","","",""
"","localizer","","html-keyboard-response","93","1029142","0.0-2.0-12.0-0.0","26","66833","Male","104","","","","68","0","10","","Stimuli/Experimental_stims/localizer/body_parts/jan-romero-DL4DDQb8yjc-unsplash.jpg","","1028725","1","body_parts","","0","0","1","400","2800","417","3012","","","","","","","","","","","","","","","","","","","","","","","","","","","","","","","","","","","","","","","","","","","","","","","","","","","","",""
"","iti_localizer","","html-keyboard-response","94","1029454","0.0-2.0-12.0-1.0","26","66833","Male","null","","","","null","","10","","","","1029142","1","","","","","","300","3200","312","3429","300","","","","","","","","","","","","","","","","","","","","","","","","","","","","","","","","","","","","","","","","","","","","","","","","","","","",""
"","localizer","","html-keyboard-response","95","1029898","0.0-2.0-13.0-0.0","26","66833","Male","NaN","","","","null","NaN","11","","Stimuli/Experimental_stims/localizer/body_parts/pure-julia-9lVaya31sMk-unsplash.jpg","","1029454","1","body_parts","","0","1","0","400","3500","444","3741","","","","","","","","","","","","","","","","","","","","","","","","","","","","","","","","","","","","","","","","","","","","","","","","","","","","",""
"","iti_localizer","","html-keyboard-response","96","1030214","0.0-2.0-13.0-1.0","26","66833","Male","null","","","","null","","11","","","","1029898","1","","","","","","300","3900","316","4185","300","","","","","","","","","","","","","","","","","","","","","","","","","","","","","","","","","","","","","","","","","","","","","","","","","","","",""
"","localizer","","html-keyboard-response","97","1030628","0.0-2.0-14.0-0.0","26","66833","Male","NaN","","","","null","NaN","12","","Stimuli/Experimental_stims/localizer/body_parts/jasper-garratt-Ng_Kl7K6V8Y-unsplash.jpg","","1030214","1","body_parts","","0","1","0","400","4200","414","4501","","","","","","","","","","","","","","","","","","","","","","","","","","","","","","","","","","","","","","","","","","","","","","","","","","","","",""
"","iti_localizer","","html-keyboard-response","98","1030948","0.0-2.0-14.0-1.0","26","66833","Male","null","","","","null","","12","","","","1030628","1","","","","","","300","4600","320","4915","300","","","","","","","","","","","","","","","","","","","","","","","","","","","","","","","","","","","","","","","","","","","","","","","","","","","",""
"","localizer","","html-keyboard-response","99","1031377","0.0-2.0-15.0-0.0","26","66833","Male","NaN","","","","null","NaN","13","","Stimuli/Experimental_stims/localizer/body_parts/i-am_nah--S4OsO0c6Ts-unsplash.jpg","","1030948","1","body_parts","","0","1","0","400","4900","429","5235","","","","","","","","","","","","","","","","","","","","","","","","","","","","","","","","","","","","","","","","","","","","","","","","","","","","",""
"","iti_localizer","","html-keyboard-response","100","1031770","0.0-2.0-15.0-1.0","26","66833","Male","null","","","","null","","13","","","","1031377","1","","","","","","300","5300","393","5664","300","","","","","","","","","","","","","","","","","","","","","","","","","","","","","","","","","","","","","","","","","","","","","","","","","","","",""
"","localizer","","html-keyboard-response","101","1032192","0.0-2.0-16.0-0.0","26","66833","Male","NaN","","","","null","NaN","14","","Stimuli/Experimental_stims/localizer/body_parts/femme-spirit-RGYBDUHYbyM-unsplash.jpg","","1031770","1","body_parts","","0","1","0","400","5600","422","6057","","","","","","","","","","","","","","","","","","","","","","","","","","","","","","","","","","","","","","","","","","","","","","","","","","","","",""
"","iti_localizer","","html-keyboard-response","102","1032508","0.0-2.0-16.0-1.0","26","66833","Male","null","","","","null","","14","","","","1032192","1","","","","","","300","6000","316","6479","300","","","","","","","","","","","","","","","","","","","","","","","","","","","","","","","","","","","","","","","","","","","","","","","","","","","",""
"","localizer","","html-keyboard-response","103","1032927","0.0-2.0-17.0-0.0","26","66833","Male","49","","","","68","0","15","","Stimuli/Experimental_stims/localizer/body_parts/liv-bruce-M0oVPGsWk1E-unsplash.jpg","","1032508","1","body_parts","","0","0","1","400","6300","419","6795","","","","","","","","","","","","","","","","","","","","","","","","","","","","","","","","","","","","","","","","","","","","","","","","","","","","",""
"","iti_localizer","","html-keyboard-response","104","1033240","0.0-2.0-17.0-1.0","26","66833","Male","null","","","","null","","15","","","","1032927","1","","","","","","300","6700","313","7214","300","","","","","","","","","","","","","","","","","","","","","","","","","","","","","","","","","","","","","","","","","","","","","","","","","","","",""
"","localizer","","html-keyboard-response","105","1033684","0.0-2.0-18.0-0.0","26","66833","Male","NaN","","","","null","NaN","16","","Stimuli/Experimental_stims/localizer/body_parts/bady-abbas-N-VEeMnm7gE-unsplash.jpg","","1033240","1","body_parts","","0","1","0","400","7000","444","7527","","","","","","","","","","","","","","","","","","","","","","","","","","","","","","","","","","","","","","","","","","","","","","","","","","","","",""
"","iti_localizer","","html-keyboard-response","106","1034033","0.0-2.0-18.0-1.0","26","66833","Male","null","","","","null","","16","","","","1033684","1","","","","","","300","7400","349","7971","300","","","","","","","","","","","","","","","","","","","","","","","","","","","","","","","","","","","","","","","","","","","","","","","","","","","",""
"","localizer","","html-keyboard-response","107","1034467","0.0-2.0-19.0-0.0","26","66833","Male","NaN","","","","null","NaN","17","","Stimuli/Experimental_stims/localizer/body_parts/lucaxx-freire-CacZwMexYdk-unsplash.jpg","","1034033","1","body_parts","","0","1","0","400","7700","434","8320","","","","","","","","","","","","","","","","","","","","","","","","","","","","","","","","","","","","","","","","","","","","","","","","","","","","",""
"","iti_localizer","","html-keyboard-response","108","1034803","0.0-2.0-19.0-1.0","26","66833","Male","null","","","","null","","17","","","","1034467","1","","","","","","300","8100","336","8754","300","","","","","","","","","","","","","","","","","","","","","","","","","","","","","","","","","","","","","","","","","","","","","","","","","","","",""
"","localizer","","html-keyboard-response","109","1035218","0.0-2.0-20.0-0.0","26","66833","Male","NaN","","","","null","NaN","18","","Stimuli/Experimental_stims/localizer/body_parts/hu-chen-tCbTGNwrFNM-unsplash.jpg","","1034803","1","body_parts","","0","1","0","400","8400","415","9090","","","","","","","","","","","","","","","","","","","","","","","","","","","","","","","","","","","","","","","","","","","","","","","","","","","","",""
"","iti_localizer","","html-keyboard-response","110","1035533","0.0-2.0-20.0-1.0","26","66833","Male","null","","","","null","","18","","","","1035218","1","","","","","","300","8800","315","9505","300","","","","","","","","","","","","","","","","","","","","","","","","","","","","","","","","","","","","","","","","","","","","","","","","","","","",""
"","localizer","","html-keyboard-response","111","1035962","0.0-2.0-21.0-0.0","26","66833","Male","NaN","","","","null","NaN","19","","Stimuli/Experimental_stims/localizer/body_parts/megan-menegay-UojxG_BJxnI-unsplash.jpg","","1035533","1","body_parts","","0","1","0","400","9100","429","9820","","","","","","","","","","","","","","","","","","","","","","","","","","","","","","","","","","","","","","","","","","","","","","","","","","","","",""
"","iti_localizer","","html-keyboard-response","112","1036278","0.0-2.0-21.0-1.0","26","66833","Male","null","","","","null","","19","","","","1035962","1","","","","","","300","9500","316","10249","300","","","","","","","","","","","","","","","","","","","","","","","","","","","","","","","","","","","","","","","","","","","","","","","","","","","",""
"","localizer","","html-keyboard-response","113","1036910","0.0-2.0-22.0-0.0","26","66833","Male","NaN","","","","null","NaN","20","","Stimuli/Experimental_stims/localizer/body_parts/toan-nguyen-VIeLuUFzesg-unsplash.jpg","","1036278","1","body_parts","","1","1","0","400","9800","632","10565","","","","","","","","","","","","","","","","","","","","","","","","","","","","","","","","","","","","","","","","","","","","","","","","","","","","",""
"","iti_localizer","","html-keyboard-response","114","1037224","0.0-2.0-22.0-1.0","26","66833","Male","null","","","","null","","20","","","","1036910","1","","","","","","300","10200","314","11197","300","","","","","","","","","","","","","","","","","","","","","","","","","","","","","","","","","","","","","","","","","","","","","","","","","","","",""
"","localizer","","html-keyboard-response","115","1037691","0.0-2.0-23.0-0.0","26","66833","Male","NaN","","","","null","NaN","21","","Stimuli/Experimental_stims/localizer/body_parts/sippakorn-yamkasikorn-32_sJlJa5gA-unsplash.jpg","","1037224","1","body_parts","","0","1","0","400","10500","467","11511","","","","","","","","","","","","","","","","","","","","","","","","","","","","","","","","","","","","","","","","","","","","","","","","","","","","",""
"","iti_localizer","","html-keyboard-response","116","1038003","0.0-2.0-23.0-1.0","26","66833","Male","null","","","","null","","21","","","","1037691","1","","","","","","300","10900","312","11978","300","","","","","","","","","","","","","","","","","","","","","","","","","","","","","","","","","","","","","","","","","","","","","","","","","","","",""
"","localizer","","html-keyboard-response","117","1038419","0.0-2.0-24.0-0.0","26","66833","Male","NaN","","","","null","NaN","22","","Stimuli/Experimental_stims/localizer/body_parts/louis-hansel-FjKTMRTQYAs-unsplash.jpg","","1038003","1","body_parts","","0","1","0","400","11200","416","12290","","","","","","","","","","","","","","","","","","","","","","","","","","","","","","","","","","","","","","","","","","","","","","","","","","","","",""
"","iti_localizer","","html-keyboard-response","118","1038736","0.0-2.0-24.0-1.0","26","66833","Male","null","","","","null","","22","","","","1038419","1","","","","","","300","11600","317","12706","300","","","","","","","","","","","","","","","","","","","","","","","","","","","","","","","","","","","","","","","","","","","","","","","","","","","",""
"","localizer","","html-keyboard-response","119","1039243","0.0-2.0-25.0-0.0","26","66833","Male","NaN","","","","null","NaN","23","","Stimuli/Experimental_stims/localizer/body_parts/sydney-herron-b2W04fGuS70-unsplash.jpg","","1038736","1","body_parts","","0","1","0","400","11900","507","13023","","","","","","","","","","","","","","","","","","","","","","","","","","","","","","","","","","","","","","","","","","","","","","","","","","","","",""
"","iti_localizer","","html-keyboard-response","120","1039665","0.0-2.0-25.0-1.0","26","66833","Male","null","","","","null","","23","","","","1039243","1","","","","","","300","12300","422","13530","300","","","","","","","","","","","","","","","","","","","","","","","","","","","","","","","","","","","","","","","","","","","","","","","","","","","",""
"","localizer","","html-keyboard-response","121","1040080","0.0-2.0-26.0-0.0","26","66833","Male","406","","","","68","0","24","","Stimuli/Experimental_stims/localizer/body_parts/danie-franco-jyyNiSEcCl4-unsplash.jpg","","1039665","1","body_parts","","0","0","1","400","12600","415","13952","","","","","","","","","","","","","","","","","","","","","","","","","","","","","","","","","","","","","","","","","","","","","","","","","","","","",""
"","iti_localizer","","html-keyboard-response","122","1040396","0.0-2.0-26.0-1.0","26","66833","Male","null","","","","null","","24","","","","1040080","1","","","","","","300","13000","316","14367","300","","","","","","","","","","","","","","","","","","","","","","","","","","","","","","","","","","","","","","","","","","","","","","","","","","","",""
"","localizer","","html-keyboard-response","123","1040882","0.0-2.0-27.0-0.0","26","66833","Male","NaN","","","","null","NaN","25","","Stimuli/Experimental_stims/localizer/body_parts/ramesh-iyer-CRhznMXoJlc-unsplash.jpg","","1040396","1","body_parts","","0","1","0","400","13300","486","14683","","","","","","","","","","","","","","","","","","","","","","","","","","","","","","","","","","","","","","","","","","","","","","","","","","","","",""
"","iti_localizer","","html-keyboard-response","124","1054929","0.0-2.0-27.0-1.0","26","66833","Male","null","","","","null","","25","","","","1040882","1","","","","","","14000","13700","14047","15169","14000","","","","","","","","","","","","","","","","","","","","","","","","","","","","","","","","","","","","","","","","","","","","","","","","","","","",""
"","localizer","","html-keyboard-response","125","1055348","0.0-2.0-28.0-0.0","26","66833","Male","NaN","","","","null","NaN","26","","Stimuli/Experimental_stims/localizer/objects/adriano-pucciarelli-BE7yaZnZX6o-unsplash.jpg","","1054929","1","objects","","0","1","0","400","27700","419","29216","","","","","","","","","","","","","","","","","","","","","","","","","","","","","","","","","","","","","","","","","","","","","","","","","","","","",""
"","iti_localizer","","html-keyboard-response","126","1055886","0.0-2.0-28.0-1.0","26","66833","Male","null","","","","null","","26","","","","1055348","1","","","","","","300","28100","538","29635","300","","","","","","","","","","","","","","","","","","","","","","","","","","","","","","","","","","","","","","","","","","","","","","","","","","","",""
"","localizer","","html-keyboard-response","127","1056299","0.0-2.0-29.0-0.0","26","66833","Male","NaN","","","","null","NaN","27","","Stimuli/Experimental_stims/localizer/objects/petr-sidorov-3jm5TGqtULU-unsplash.jpg","","1055886","1","objects","","0","1","0","400","28400","413","30173","","","","","","","","","","","","","","","","","","","","","","","","","","","","","","","","","","","","","","","","","","","","","","","","","","","","",""
"","iti_localizer","","html-keyboard-response","128","1056652","0.0-2.0-29.0-1.0","26","66833","Male","null","","","","null","","27","","","","1056299","1","","","","","","300","28800","353","30586","300","","","","","","","","","","","","","","","","","","","","","","","","","","","","","","","","","","","","","","","","","","","","","","","","","","","",""
"","localizer","","html-keyboard-response","129","1057089","0.0-2.0-30.0-0.0","26","66833","Male","NaN","","","","null","NaN","28","","Stimuli/Experimental_stims/localizer/objects/carlos-felipe-ramirez-mesa-HW7bfB3ERSQ-unsplash.jpg","","1056652","1","objects","","0","1","0","400","29100","437","30939","","","","","","","","","","","","","","","","","","","","","","","","","","","","","","","","","","","","","","","","","","","","","","","","","","","","",""
"","iti_localizer","","html-keyboard-response","130","1057405","0.0-2.0-30.0-1.0","26","66833","Male","null","","","","null","","28","","","","1057089","1","","","","","","300","29500","316","31376","300","","","","","","","","","","","","","","","","","","","","","","","","","","","","","","","","","","","","","","","","","","","","","","","","","","","",""
"","localizer","","html-keyboard-response","131","1057920","0.0-2.0-31.0-0.0","26","66833","Male","120","","","","68","0","29","","Stimuli/Experimental_stims/localizer/objects/raimond-klavins-ZdvDPXVvcKs-unsplash.jpg","","1057405","1","objects","","1","0","0","400","29800","515","31692","","","","","","","","","","","","","","","","","","","","","","","","","","","","","","","","","","","","","","","","","","","","","","","","","","","","",""
"","iti_localizer","","html-keyboard-response","132","1058235","0.0-2.0-31.0-1.0","26","66833","Male","null","","","","null","","29","","","","1057920","1","","","","","","300","30200","315","32207","300","","","","","","","","","","","","","","","","","","","","","","","","","","","","","","","","","","","","","","","","","","","","","","","","","","","",""
"","localizer","","html-keyboard-response","133","1058651","0.0-2.0-32.0-0.0","26","66833","Male","406","","","","75","1","30","","Stimuli/Experimental_stims/localizer/objects/adriano-pucciarelli-Jl3S1yM8gi8-unsplash.jpg","","1058235","1","objects","","0","0","0","400","30500","416","32522","","","","","","","","","","","","","","","","","","","","","","","","","","","","","","","","","","","","","","","","","","","","","","","","","","","","",""
"","iti_localizer","","html-keyboard-response","134","1058963","0.0-2.0-32.0-1.0","26","66833","Male","null","","","","null","","30","","","","1058651","1","","","","","","300","30900","312","32938","300","","","","","","","","","","","","","","","","","","","","","","","","","","","","","","","","","","","","","","","","","","","","","","","","","","","",""
"","localizer","","html-keyboard-response","135","1059378","0.0-2.0-33.0-0.0","26","66833","Male","308","","","","68","0","31","","Stimuli/Experimental_stims/localizer/objects/engin-akyurt-bbbKzTmY2Gg-unsplash.jpg","","1058963","1","objects","","0","0","1","400","31200","415","33250","","","","","","","","","","","","","","","","","","","","","","","","","","","","","","","","","","","","","","","","","","","","","","","","","","","","",""
"","iti_localizer","","html-keyboard-response","136","1059695","0.0-2.0-33.0-1.0","26","66833","Male","null","","","","null","","31","","","","1059378","1","","","","","","300","31600","317","33665","300","","","","","","","","","","","","","","","","","","","","","","","","","","","","","","","","","","","","","","","","","","","","","","","","","","","",""
"","localizer","","html-keyboard-response","137","1060139","0.0-2.0-34.0-0.0","26","66833","Male","110","","","","68","0","32","","Stimuli/Experimental_stims/localizer/objects/sam-moghadam-khamseh-kvmdsTrGOBM-unsplash.jpg","","1059695","1","objects","","0","0","1","400","31900","444","33982","","","","","","","","","","","","","","","","","","","","","","","","","","","","","","","","","","","","","","","","","","","","","","","","","","","","",""
"","iti_localizer","","html-keyboard-response","138","1060460","0.0-2.0-34.0-1.0","26","66833","Male","null","","","","null","","32","","","","1060139","1","","","","","","300","32300","321","34426","300","","","","","","","","","","","","","","","","","","","","","","","","","","","","","","","","","","","","","","","","","","","","","","","","","","","",""
"","localizer","","html-keyboard-response","139","1060875","0.0-2.0-35.0-0.0","26","66833","Male","NaN","","","","null","NaN","33","","Stimuli/Experimental_stims/localizer/objects/jiangxulei1990-eIzzzwtkBjU-unsplash.jpg","","1060460","1","objects","","0","1","0","400","32600","415","34747","","","","","","","","","","","","","","","","","","","","","","","","","","","","","","","","","","","","","","","","","","","","","","","","","","","","",""
"","iti_localizer","","html-keyboard-response","140","1061191","0.0-2.0-35.0-1.0","26","66833","Male","null","","","","null","","33","","","","1060875","1","","","","","","300","33000","316","35162","300","","","","","","","","","","","","","","","","","","","","","","","","","","","","","","","","","","","","","","","","","","","","","","","","","","","",""
"","localizer","","html-keyboard-response","141","1061616","0.0-2.0-36.0-0.0","26","66833","Male","NaN","","","","null","NaN","34","","Stimuli/Experimental_stims/localizer/objects/florian-klauer-nptLmg6jqDo-unsplash.jpg","","1061191","1","objects","","0","1","0","400","33300","425","35478","","","","","","","","","","","","","","","","","","","","","","","","","","","","","","","","","","","","","","","","","","","","","","","","","","","","",""
"","iti_localizer","","html-keyboard-response","142","1061932","0.0-2.0-36.0-1.0","26","66833","Male","null","","","","null","","34","","","","1061616","1","","","","","","300","33700","316","35903","300","","","","","","","","","","","","","","","","","","","","","","","","","","","","","","","","","","","","","","","","","","","","","","","","","","","",""
"","localizer","","html-keyboard-response","143","1062342","0.0-2.0-37.0-0.0","26","66833","Male","NaN","","","","null","NaN","35","","Stimuli/Experimental_stims/localizer/objects/ignat-dolomanov-kFBDVnmskPA-unsplash.jpg","","1061932","1","objects","","0","1","0","400","34000","410","36219","","","","","","","","","","","","","","","","","","","","","","","","","","","","","","","","","","","","","","","","","","","","","","","","","","","","",""
"","iti_localizer","","html-keyboard-response","144","1062671","0.0-2.0-37.0-1.0","26","66833","Male","null","","","","null","","35","","","","1062342","1","","","","","","300","34400","329","36629","300","","","","","","","","","","","","","","","","","","","","","","","","","","","","","","","","","","","","","","","","","","","","","","","","","","","",""
"","localizer","","html-keyboard-response","145","1063090","0.0-2.0-38.0-0.0","26","66833","Male","NaN","","","","null","NaN","36","","Stimuli/Experimental_stims/localizer/objects/andrew-petrov-TVJqDat4MAw-unsplash.jpg","","1062671","1","objects","","0","1","0","400","34700","419","36958","","","","","","","","","","","","","","","","","","","","","","","","","","","","","","","","","","","","","","","","","","","","","","","","","","","","",""
"","iti_localizer","","html-keyboard-response","146","1063415","0.0-2.0-38.0-1.0","26","66833","Male","null","","","","null","","36","","","","1063090","1","","","","","","300","35100","325","37377","300","","","","","","","","","","","","","","","","","","","","","","","","","","","","","","","","","","","","","","","","","","","","","","","","","","","",""
"","localizer","","html-keyboard-response","147","1063858","0.0-2.0-39.0-0.0","26","66833","Male","NaN","","","","null","NaN","37","","Stimuli/Experimental_stims/localizer/objects/sam-moghadam-khamseh-L_7MQsHl_aU-unsplash.jpg","","1063415","1","objects","","0","1","0","400","35400","443","37702","","","","","","","","","","","","","","","","","","","","","","","","","","","","","","","","","","","","","","","","","","","","","","","","","","","","",""
"","iti_localizer","","html-keyboard-response","148","1064179","0.0-2.0-39.0-1.0","26","66833","Male","null","","","","null","","37","","","","1063858","1","","","","","","300","35800","321","38145","300","","","","","","","","","","","","","","","","","","","","","","","","","","","","","","","","","","","","","","","","","","","","","","","","","","","",""
"","localizer","","html-keyboard-response","149","1064630","0.0-2.0-40.0-0.0","26","66833","Male","NaN","","","","null","NaN","38","","Stimuli/Experimental_stims/localizer/objects/ana-9GmAaEMMKho-unsplash.jpg","","1064179","1","objects","","0","1","0","400","36100","451","38466","","","","","","","","","","","","","","","","","","","","","","","","","","","","","","","","","","","","","","","","","","","","","","","","","","","","",""
"","iti_localizer","","html-keyboard-response","150","1064944","0.0-2.0-40.0-1.0","26","66833","Male","null","","","","null","","38","","","","1064630","1","","","","","","300","36500","314","38917","300","","","","","","","","","","","","","","","","","","","","","","","","","","","","","","","","","","","","","","","","","","","","","","","","","","","",""
"","localizer","","html-keyboard-response","151","1065353","0.0-2.0-41.0-0.0","26","66833","Male","NaN","","","","null","NaN","39","","Stimuli/Experimental_stims/localizer/objects/mockup-graphics-U6ZMEefFGx8-unsplash.jpg","","1064944","1","objects","","0","1","0","400","36800","409","39231","","","","","","","","","","","","","","","","","","","","","","","","","","","","","","","","","","","","","","","","","","","","","","","","","","","","",""
"","iti_localizer","","html-keyboard-response","152","1065679","0.0-2.0-41.0-1.0","26","66833","Male","null","","","","null","","39","","","","1065353","1","","","","","","300","37200","326","39640","300","","","","","","","","","","","","","","","","","","","","","","","","","","","","","","","","","","","","","","","","","","","","","","","","","","","",""
"","localizer","","html-keyboard-response","153","1066113","0.0-2.0-42.0-0.0","26","66833","Male","NaN","","","","null","NaN","40","","Stimuli/Experimental_stims/localizer/objects/kelly-jean-cKjbI0Y00X0-unsplash.jpg","","1065679","1","objects","","0","1","0","400","37500","434","39966","","","","","","","","","","","","","","","","","","","","","","","","","","","","","","","","","","","","","","","","","","","","","","","","","","","","",""
"","iti_localizer","","html-keyboard-response","154","1066424","0.0-2.0-42.0-1.0","26","66833","Male","null","","","","null","","40","","","","1066113","1","","","","","","300","37900","311","40400","300","","","","","","","","","","","","","","","","","","","","","","","","","","","","","","","","","","","","","","","","","","","","","","","","","","","",""
"","localizer","","html-keyboard-response","155","1066881","0.0-2.0-43.0-0.0","26","66833","Male","NaN","","","","null","NaN","41","","Stimuli/Experimental_stims/localizer/objects/eugene-chystiakov-3neSwyntbQ8-unsplash.jpg","","1066424","1","objects","","0","1","0","400","38200","457","40711","","","","","","","","","","","","","","","","","","","","","","","","","","","","","","","","","","","","","","","","","","","","","","","","","","","","",""
"","iti_localizer","","html-keyboard-response","156","1067195","0.0-2.0-43.0-1.0","26","66833","Male","null","","","","null","","41","","","","1066881","1","","","","","","300","38600","314","41168","300","","","","","","","","","","","","","","","","","","","","","","","","","","","","","","","","","","","","","","","","","","","","","","","","","","","",""
"","localizer","","html-keyboard-response","157","1067661","0.0-2.0-44.0-0.0","26","66833","Male","NaN","","","","null","NaN","42","","Stimuli/Experimental_stims/localizer/objects/lance-reis-v0FYj9iioQg-unsplash.jpg","","1067195","1","objects","","0","1","0","400","38900","466","41482","","","","","","","","","","","","","","","","","","","","","","","","","","","","","","","","","","","","","","","","","","","","","","","","","","","","",""
"","iti_localizer","","html-keyboard-response","158","1067980","0.0-2.0-44.0-1.0","26","66833","Male","null","","","","null","","42","","","","1067661","1","","","","","","300","39300","319","41948","300","","","","","","","","","","","","","","","","","","","","","","","","","","","","","","","","","","","","","","","","","","","","","","","","","","","",""
"","localizer","","html-keyboard-response","159","1068392","0.0-2.0-45.0-0.0","26","66833","Male","NaN","","","","null","NaN","43","","Stimuli/Experimental_stims/localizer/objects/annie-spratt-fbAnIjhrOL4-unsplash.jpg","","1067980","1","objects","","0","1","0","400","39600","412","42267","","","","","","","","","","","","","","","","","","","","","","","","","","","","","","","","","","","","","","","","","","","","","","","","","","","","",""
"","iti_localizer","","html-keyboard-response","160","1068700","0.0-2.0-45.0-1.0","26","66833","Male","null","","","","null","","43","","","","1068392","1","","","","","","300","40000","308","42679","300","","","","","","","","","","","","","","","","","","","","","","","","","","","","","","","","","","","","","","","","","","","","","","","","","","","",""
"","localizer","","html-keyboard-response","161","1069119","0.0-2.0-46.0-0.0","26","66833","Male","NaN","","","","null","NaN","44","","Stimuli/Experimental_stims/localizer/objects/mockup-graphics-Pj2PY-E-LfM-unsplash.jpg","","1068700","1","objects","","1","1","0","400","40300","419","42987","","","","","","","","","","","","","","","","","","","","","","","","","","","","","","","","","","","","","","","","","","","","","","","","","","","","",""
"","iti_localizer","","html-keyboard-response","162","1069427","0.0-2.0-46.0-1.0","26","66833","Male","null","","","","null","","44","","","","1069119","1","","","","","","300","40700","308","43406","300","","","","","","","","","","","","","","","","","","","","","","","","","","","","","","","","","","","","","","","","","","","","","","","","","","","",""
"","localizer","","html-keyboard-response","163","1069840","0.0-2.0-47.0-0.0","26","66833","Male","NaN","","","","null","NaN","45","","Stimuli/Experimental_stims/localizer/objects/dario-mendez-hnJ2VNZzbns-unsplash.jpg","","1069427","1","objects","","0","1","0","400","41000","413","43714","","","","","","","","","","","","","","","","","","","","","","","","","","","","","","","","","","","","","","","","","","","","","","","","","","","","",""
"","iti_localizer","","html-keyboard-response","164","1083863","0.0-2.0-47.0-1.0","26","66833","Male","null","","","","null","","45","","","","1069840","1","","","","","","14000","41400","14023","44127","14000","","","","","","","","","","","","","","","","","","","","","","","","","","","","","","","","","","","","","","","","","","","","","","","","","","","",""
"","localizer","","html-keyboard-response","165","1084280","0.0-2.0-48.0-0.0","26","66833","Male","NaN","","","","null","NaN","46","","Stimuli/Experimental_stims/localizer/faces/christian-ferrer-8vT-DgHZDG4-unsplash.jpg","","1083863","1","faces","","1","1","0","400","55400","417","58150","","","","","","","","","","","","","","","","","","","","","","","","","","","","","","","","","","","","","","","","","","","","","","","","","","","","",""
"","iti_localizer","","html-keyboard-response","166","1084792","0.0-2.0-48.0-1.0","26","66833","Male","null","","","","null","","46","","","","1084280","1","","","","","","300","55800","512","58567","300","","","","","","","","","","","","","","","","","","","","","","","","","","","","","","","","","","","","","","","","","","","","","","","","","","","",""
"","localizer","","html-keyboard-response","167","1085203","0.0-2.0-49.0-0.0","26","66833","Male","62","","","","75","1","47","","Stimuli/Experimental_stims/localizer/faces/mathias-huysmans-U4JDjYmjn1g-unsplash.jpg","","1084792","1","faces","","0","0","0","400","56100","411","59079","","","","","","","","","","","","","","","","","","","","","","","","","","","","","","","","","","","","","","","","","","","","","","","","","","","","",""
"","iti_localizer","","html-keyboard-response","168","1085513","0.0-2.0-49.0-1.0","26","66833","Male","null","","","","null","","47","","","","1085203","1","","","","","","300","56500","310","59490","300","","","","","","","","","","","","","","","","","","","","","","","","","","","","","","","","","","","","","","","","","","","","","","","","","","","",""
"","localizer","","html-keyboard-response","169","1085931","0.0-2.0-50.0-0.0","26","66833","Male","NaN","","","","null","NaN","48","","Stimuli/Experimental_stims/localizer/faces/filipe-almeida-mnEWC72eWDM-unsplash.jpg","","1085513","1","faces","","0","1","0","400","56800","418","59800","","","","","","","","","","","","","","","","","","","","","","","","","","","","","","","","","","","","","","","","","","","","","","","","","","","","",""
"","iti_localizer","","html-keyboard-response","170","1086249","0.0-2.0-50.0-1.0","26","66833","Male","null","","","","null","","48","","","","1085931","1","","","","","","300","57200","318","60218","300","","","","","","","","","","","","","","","","","","","","","","","","","","","","","","","","","","","","","","","","","","","","","","","","","","","",""
"","localizer","","html-keyboard-response","171","1086687","0.0-2.0-51.0-0.0","26","66833","Male","NaN","","","","null","NaN","49","","Stimuli/Experimental_stims/localizer/faces/midas-hofstra-tidSLv-UaNs-unsplash.jpg","","1086249","1","faces","","0","1","0","400","57500","438","60536","","","","","","","","","","","","","","","","","","","","","","","","","","","","","","","","","","","","","","","","","","","","","","","","","","","","",""
"","iti_localizer","","html-keyboard-response","172","1087004","0.0-2.0-51.0-1.0","26","66833","Male","null","","","","null","","49","","","","1086687","1","","","","","","300","57900","317","60974","300","","","","","","","","","","","","","","","","","","","","","","","","","","","","","","","","","","","","","","","","","","","","","","","","","","","",""
"","localizer","","html-keyboard-response","173","1087416","0.0-2.0-52.0-0.0","26","66833","Male","NaN","","","","null","NaN","50","","Stimuli/Experimental_stims/localizer/faces/darshan-patel-QJEVpydulGs-unsplash.jpg","","1087004","1","faces","","0","1","0","400","58200","412","61291","","","","","","","","","","","","","","","","","","","","","","","","","","","","","","","","","","","","","","","","","","","","","","","","","","","","",""
"","iti_localizer","","html-keyboard-response","174","1087731","0.0-2.0-52.0-1.0","26","66833","Male","null","","","","null","","50","","","","1087416","1","","","","","","300","58600","315","61703","300","","","","","","","","","","","","","","","","","","","","","","","","","","","","","","","","","","","","","","","","","","","","","","","","","","","",""
"","localizer","","html-keyboard-response","175","1088142","0.0-2.0-53.0-0.0","26","66833","Male","NaN","","","","null","NaN","51","","Stimuli/Experimental_stims/localizer/faces/ivan-dodig-R21SyyJDFgc-unsplash.jpg","","1087731","1","faces","","0","1","0","400","58900","411","62018","","","","","","","","","","","","","","","","","","","","","","","","","","","","","","","","","","","","","","","","","","","","","","","","","","","","",""
"","iti_localizer","","html-keyboard-response","176","1088515","0.0-2.0-53.0-1.0","26","66833","Male","null","","","","null","","51","","","","1088142","1","","","","","","300","59300","373","62429","300","","","","","","","","","","","","","","","","","","","","","","","","","","","","","","","","","","","","","","","","","","","","","","","","","","","",""
"","localizer","","html-keyboard-response","177","1088935","0.0-2.0-54.0-0.0","26","66833","Male","80","","","","68","0","52","","Stimuli/Experimental_stims/localizer/faces/austin-wade-X6Uj51n5CE8-unsplash.jpg","","1088515","1","faces","","0","0","1","400","59600","420","62802","","","","","","","","","","","","","","","","","","","","","","","","","","","","","","","","","","","","","","","","","","","","","","","","","","","","",""
"","iti_localizer","","html-keyboard-response","178","1089242","0.0-2.0-54.0-1.0","26","66833","Male","null","","","","null","","52","","","","1088935","1","","","","","","300","60000","307","63222","300","","","","","","","","","","","","","","","","","","","","","","","","","","","","","","","","","","","","","","","","","","","","","","","","","","","",""
"","localizer","","html-keyboard-response","179","1089651","0.0-2.0-55.0-0.0","26","66833","Male","NaN","","","","null","NaN","53","","Stimuli/Experimental_stims/localizer/faces/linkedin-sales-solutions-pAtA8xe_iVM-unsplash.jpg","","1089242","1","faces","","0","1","0","400","60300","409","63529","","","","","","","","","","","","","","","","","","","","","","","","","","","","","","","","","","","","","","","","","","","","","","","","","","","","",""
"","iti_localizer","","html-keyboard-response","180","1089965","0.0-2.0-55.0-1.0","26","66833","Male","null","","","","null","","53","","","","1089651","1","","","","","","300","60700","314","63938","300","","","","","","","","","","","","","","","","","","","","","","","","","","","","","","","","","","","","","","","","","","","","","","","","","","","",""
"","localizer","","html-keyboard-response","181","1090372","0.0-2.0-56.0-0.0","26","66833","Male","393","","","","68","0","54","","Stimuli/Experimental_stims/localizer/faces/pavel-anoshin-d0peGya6R5Y-unsplash.jpg","","1089965","1","faces","","0","0","1","400","61000","407","64252","","","","","","","","","","","","","","","","","","","","","","","","","","","","","","","","","","","","","","","","","","","","","","","","","","","","",""
"","iti_localizer","","html-keyboard-response","182","1090683","0.0-2.0-56.0-1.0","26","66833","Male","null","","","","null","","54","","","","1090372","1","","","","","","300","61400","311","64659","300","","","","","","","","","","","","","","","","","","","","","","","","","","","","","","","","","","","","","","","","","","","","","","","","","","","",""
"","localizer","","html-keyboard-response","183","1091104","0.0-2.0-57.0-0.0","26","66833","Male","NaN","","","","null","NaN","55","","Stimuli/Experimental_stims/localizer/faces/jeffery-erhunse-vp9mRauo68c-unsplash.jpg","","1090683","1","faces","","0","1","0","400","61700","421","64970","","","","","","","","","","","","","","","","","","","","","","","","","","","","","","","","","","","","","","","","","","","","","","","","","","","","",""
"","iti_localizer","","html-keyboard-response","184","1091419","0.0-2.0-57.0-1.0","26","66833","Male","null","","","","null","","55","","","","1091104","1","","","","","","300","62100","315","65391","300","","","","","","","","","","","","","","","","","","","","","","","","","","","","","","","","","","","","","","","","","","","","","","","","","","","",""
"","localizer","","html-keyboard-response","185","1091874","0.0-2.0-58.0-0.0","26","66833","Male","NaN","","","","null","NaN","56","","Stimuli/Experimental_stims/localizer/faces/aatik-tasneem-7omHUGhhmZ0-unsplash.jpg","","1091419","1","faces","","0","1","0","400","62400","455","65706","","","","","","","","","","","","","","","","","","","","","","","","","","","","","","","","","","","","","","","","","","","","","","","","","","","","",""
"","iti_localizer","","html-keyboard-response","186","1092189","0.0-2.0-58.0-1.0","26","66833","Male","null","","","","null","","56","","","","1091874","1","","","","","","300","62800","315","66161","300","","","","","","","","","","","","","","","","","","","","","","","","","","","","","","","","","","","","","","","","","","","","","","","","","","","",""
"","localizer","","html-keyboard-response","187","1092605","0.0-2.0-59.0-0.0","26","66833","Male","NaN","","","","null","NaN","57","","Stimuli/Experimental_stims/localizer/faces/abstral-official-cyOKLSgkgCE-unsplash.jpg","","1092189","1","faces","","0","1","0","400","63100","416","66476","","","","","","","","","","","","","","","","","","","","","","","","","","","","","","","","","","","","","","","","","","","","","","","","","","","","",""
"","iti_localizer","","html-keyboard-response","188","1092939","0.0-2.0-59.0-1.0","26","66833","Male","null","","","","null","","57","","","","1092605","1","","","","","","300","63500","334","66892","300","","","","","","","","","","","","","","","","","","","","","","","","","","","","","","","","","","","","","","","","","","","","","","","","","","","",""
"","localizer","","html-keyboard-response","189","1093351","0.0-2.0-60.0-0.0","26","66833","Male","NaN","","","","null","NaN","58","","Stimuli/Experimental_stims/localizer/faces/brooke-cagle-Nm70URdtf3c-unsplash (1).jpg","","1092939","1","faces","","0","1","0","400","63800","412","67226","","","","","","","","","","","","","","","","","","","","","","","","","","","","","","","","","","","","","","","","","","","","","","","","","","","","",""
"","iti_localizer","","html-keyboard-response","190","1093664","0.0-2.0-60.0-1.0","26","66833","Male","null","","","","null","","58","","","","1093351","1","","","","","","300","64200","313","67638","300","","","","","","","","","","","","","","","","","","","","","","","","","","","","","","","","","","","","","","","","","","","","","","","","","","","",""
"","localizer","","html-keyboard-response","191","1094073","0.0-2.0-61.0-0.0","26","66833","Male","NaN","","","","null","NaN","59","","Stimuli/Experimental_stims/localizer/faces/icons8-team-6LZuSzSwso0-unsplash.jpg","","1093664","1","faces","","0","1","0","400","64500","409","67951","","","","","","","","","","","","","","","","","","","","","","","","","","","","","","","","","","","","","","","","","","","","","","","","","","","","",""
"","iti_localizer","","html-keyboard-response","192","1094386","0.0-2.0-61.0-1.0","26","66833","Male","null","","","","null","","59","","","","1094073","1","","","","","","300","64900","313","68360","300","","","","","","","","","","","","","","","","","","","","","","","","","","","","","","","","","","","","","","","","","","","","","","","","","","","",""
"","localizer","","html-keyboard-response","193","1095037","0.0-2.0-62.0-0.0","26","66833","Male","NaN","","","","null","NaN","60","","Stimuli/Experimental_stims/localizer/faces/christina-wocintechchat-com-0Zx1bDv5BNY-unsplash.jpg","","1094386","1","faces","","0","1","0","400","65200","651","68673","","","","","","","","","","","","","","","","","","","","","","","","","","","","","","","","","","","","","","","","","","","","","","","","","","","","",""
"","iti_localizer","","html-keyboard-response","194","1095352","0.0-2.0-62.0-1.0","26","66833","Male","null","","","","null","","60","","","","1095037","1","","","","","","300","65600","315","69324","300","","","","","","","","","","","","","","","","","","","","","","","","","","","","","","","","","","","","","","","","","","","","","","","","","","","",""
"","localizer","","html-keyboard-response","195","1095786","0.0-2.0-63.0-0.0","26","66833","Male","NaN","","","","null","NaN","61","","Stimuli/Experimental_stims/localizer/faces/juan-encalada-WC7KIHo13Fc-unsplash.jpg","","1095352","1","faces","","0","1","0","400","65900","434","69639","","","","","","","","","","","","","","","","","","","","","","","","","","","","","","","","","","","","","","","","","","","","","","","","","","","","",""
"","iti_localizer","","html-keyboard-response","196","1096101","0.0-2.0-63.0-1.0","26","66833","Male","null","","","","null","","61","","","","1095786","1","","","","","","300","66300","315","70073","300","","","","","","","","","","","","","","","","","","","","","","","","","","","","","","","","","","","","","","","","","","","","","","","","","","","",""
"","localizer","","html-keyboard-response","197","1096532","0.0-2.0-64.0-0.0","26","66833","Male","NaN","","","","null","NaN","62","","Stimuli/Experimental_stims/localizer/faces/nick-karvounis-JyO_szjGvUw-unsplash.jpg","","1096101","1","faces","","0","1","0","400","66600","431","70388","","","","","","","","","","","","","","","","","","","","","","","","","","","","","","","","","","","","","","","","","","","","","","","","","","","","",""
"","iti_localizer","","html-keyboard-response","198","1096848","0.0-2.0-64.0-1.0","26","66833","Male","null","","","","null","","62","","","","1096532","1","","","","","","300","67000","316","70819","300","","","","","","","","","","","","","","","","","","","","","","","","","","","","","","","","","","","","","","","","","","","","","","","","","","","",""
"","localizer","","html-keyboard-response","199","1097262","0.0-2.0-65.0-0.0","26","66833","Male","NaN","","","","null","NaN","63","","Stimuli/Experimental_stims/localizer/faces/carlos-vaz-KP4bxnxAilU-unsplash.jpg","","1096848","1","faces","","0","1","0","400","67300","414","71135","","","","","","","","","","","","","","","","","","","","","","","","","","","","","","","","","","","","","","","","","","","","","","","","","","","","",""
"","iti_localizer","","html-keyboard-response","200","1097579","0.0-2.0-65.0-1.0","26","66833","Male","null","","","","null","","63","","","","1097262","1","","","","","","300","67700","317","71549","300","","","","","","","","","","","","","","","","","","","","","","","","","","","","","","","","","","","","","","","","","","","","","","","","","","","",""
"","localizer","","html-keyboard-response","201","1097999","0.0-2.0-66.0-0.0","26","66833","Male","NaN","","","","null","NaN","64","","Stimuli/Experimental_stims/localizer/faces/tyler-nix-ZGa9d1a_4tA-unsplash.jpg","","1097579","1","faces","","1","1","0","400","68000","420","71866","","","","","","","","","","","","","","","","","","","","","","","","","","","","","","","","","","","","","","","","","","","","","","","","","","","","",""
"","iti_localizer","","html-keyboard-response","202","1098309","0.0-2.0-66.0-1.0","26","66833","Male","null","","","","null","","64","","","","1097999","1","","","","","","300","68400","310","72286","300","","","","","","","","","","","","","","","","","","","","","","","","","","","","","","","","","","","","","","","","","","","","","","","","","","","",""
"","localizer","","html-keyboard-response","203","1098803","0.0-2.0-67.0-0.0","26","66833","Male","25","","","","75","1","65","","Stimuli/Experimental_stims/localizer/faces/samuel-dixon--fQ5XNOcqFQ-unsplash.jpg","","1098309","1","faces","","0","0","0","400","68700","494","72596","","","","","","","","","","","","","","","","","","","","","","","","","","","","","","","","","","","","","","","","","","","","","","","","","","","","",""
"","iti_localizer","","html-keyboard-response","204","1112855","0.0-2.0-67.0-1.0","26","66833","Male","null","","","","null","","65","","","","1098803","1","","","","","","14000","69100","14052","73090","14000","","","","","","","","","","","","","","","","","","","","","","","","","","","","","","","","","","","","","","","","","","","","","","","","","","","",""
"","localizer","","html-keyboard-response","205","1113277","0.0-2.0-68.0-0.0","26","66833","Male","NaN","","","","null","NaN","66","","Stimuli/Experimental_stims/localizer/body_parts/nihal-karkala-LlOfbQD-IJ0-unsplash.jpg","","1112855","1","body_parts","","1","1","0","400","83100","422","87142","","","","","","","","","","","","","","","","","","","","","","","","","","","","","","","","","","","","","","","","","","","","","","","","","","","","",""
"","iti_localizer","","html-keyboard-response","206","1113655","0.0-2.0-68.0-1.0","26","66833","Male","null","","","","null","","66","","","","1113277","1","","","","","","300","83500","378","87564","300","","","","","","","","","","","","","","","","","","","","","","","","","","","","","","","","","","","","","","","","","","","","","","","","","","","",""
"","localizer","","html-keyboard-response","207","1114074","0.0-2.0-69.0-0.0","26","66833","Male","134","","","","68","0","67","","Stimuli/Experimental_stims/localizer/body_parts/nick-page-WTNmgJtwzGI-unsplash.jpg","","1113655","1","body_parts","","0","0","1","400","83800","419","87942","","","","","","","","","","","","","","","","","","","","","","","","","","","","","","","","","","","","","","","","","","","","","","","","","","","","",""
"","iti_localizer","","html-keyboard-response","208","1114391","0.0-2.0-69.0-1.0","26","66833","Male","null","","","","null","","67","","","","1114074","1","","","","","","300","84200","317","88361","300","","","","","","","","","","","","","","","","","","","","","","","","","","","","","","","","","","","","","","","","","","","","","","","","","","","",""
"","localizer","","html-keyboard-response","209","1114880","0.0-2.0-70.0-0.0","26","66833","Male","25","","","","68","0","68","","Stimuli/Experimental_stims/localizer/body_parts/sina-rezakhani-d1gQi0Jl05U-unsplash (1).jpg","","1114391","1","body_parts","","0","0","1","400","84500","489","88678","","","","","","","","","","","","","","","","","","","","","","","","","","","","","","","","","","","","","","","","","","","","","","","","","","","","",""
"","iti_localizer","","html-keyboard-response","210","1115186","0.0-2.0-70.0-1.0","26","66833","Male","null","","","","null","","68","","","","1114880","1","","","","","","300","84900","306","89167","300","","","","","","","","","","","","","","","","","","","","","","","","","","","","","","","","","","","","","","","","","","","","","","","","","","","",""
"","localizer","","html-keyboard-response","211","1115667","0.0-2.0-71.0-0.0","26","66833","Male","NaN","","","","null","NaN","69","","Stimuli/Experimental_stims/localizer/body_parts/meghan-thompson-U1b8OB0QpIo-unsplash.jpg","","1115186","1","body_parts","","0","1","0","400","85200","481","89473","","","","","","","","","","","","","","","","","","","","","","","","","","","","","","","","","","","","","","","","","","","","","","","","","","","","",""
"","iti_localizer","","html-keyboard-response","212","1116018","0.0-2.0-71.0-1.0","26","66833","Male","null","","","","null","","69","","","","1115667","1","","","","","","300","85600","351","89954","300","","","","","","","","","","","","","","","","","","","","","","","","","","","","","","","","","","","","","","","","","","","","","","","","","","","",""
"","localizer","","html-keyboard-response","213","1116437","0.0-2.0-72.0-0.0","26","66833","Male","NaN","","","","null","NaN","70","","Stimuli/Experimental_stims/localizer/body_parts/davidcohen-qghuLqyh3nE-unsplash.jpg","","1116018","1","body_parts","","0","1","0","400","85900","419","90305","","","","","","","","","","","","","","","","","","","","","","","","","","","","","","","","","","","","","","","","","","","","","","","","","","","","",""
"","iti_localizer","","html-keyboard-response","214","1116764","0.0-2.0-72.0-1.0","26","66833","Male","null","","","","null","","70","","","","1116437","1","","","","","","300","86300","327","90724","300","","","","","","","","","","","","","","","","","","","","","","","","","","","","","","","","","","","","","","","","","","","","","","","","","","","",""
"","localizer","","html-keyboard-response","215","1117194","0.0-2.0-73.0-0.0","26","66833","Male","NaN","","","","null","NaN","71","","Stimuli/Experimental_stims/localizer/body_parts/sincerely-media-QyzlAZjm0r0-unsplash.jpg","","1116764","1","body_parts","","0","1","0","400","86600","430","91051","","","","","","","","","","","","","","","","","","","","","","","","","","","","","","","","","","","","","","","","","","","","","","","","","","","","",""
"","iti_localizer","","html-keyboard-response","216","1117503","0.0-2.0-73.0-1.0","26","66833","Male","null","","","","null","","71","","","","1117194","1","","","","","","300","87000","309","91481","300","","","","","","","","","","","","","","","","","","","","","","","","","","","","","","","","","","","","","","","","","","","","","","","","","","","",""
"","localizer","","html-keyboard-response","217","1117954","0.0-2.0-74.0-0.0","26","66833","Male","NaN","","","","null","NaN","72","","Stimuli/Experimental_stims/localizer/body_parts/juja-han-Z8-6EI2tYtw-unsplash.jpg","","1117503","1","body_parts","","0","1","0","400","87300","451","91790","","","","","","","","","","","","","","","","","","","","","","","","","","","","","","","","","","","","","","","","","","","","","","","","","","","","",""
"","iti_localizer","","html-keyboard-response","218","1118262","0.0-2.0-74.0-1.0","26","66833","Male","null","","","","null","","72","","","","1117954","1","","","","","","300","87700","308","92241","300","","","","","","","","","","","","","","","","","","","","","","","","","","","","","","","","","","","","","","","","","","","","","","","","","","","",""
"","localizer","","html-keyboard-response","219","1118675","0.0-2.0-75.0-0.0","26","66833","Male","NaN","","","","null","NaN","73","","Stimuli/Experimental_stims/localizer/body_parts/natalie-grainger-8uB5kFKWWkk-unsplash.jpg","","1118262","1","body_parts","","0","1","0","400","88000","413","92549","","","","","","","","","","","","","","","","","","","","","","","","","","","","","","","","","","","","","","","","","","","","","","","","","","","","",""
"","iti_localizer","","html-keyboard-response","220","1118990","0.0-2.0-75.0-1.0","26","66833","Male","null","","","","null","","73","","","","1118675","1","","","","","","300","88400","315","92962","300","","","","","","","","","","","","","","","","","","","","","","","","","","","","","","","","","","","","","","","","","","","","","","","","","","","",""
"","localizer","","html-keyboard-response","221","1119427","0.0-2.0-76.0-0.0","26","66833","Male","NaN","","","","null","NaN","74","","Stimuli/Experimental_stims/localizer/body_parts/debby-hudson--B_757qSA4k-unsplash.jpg","","1118990","1","body_parts","","0","1","0","400","88700","437","93277","","","","","","","","","","","","","","","","","","","","","","","","","","","","","","","","","","","","","","","","","","","","","","","","","","","","",""
"","iti_localizer","","html-keyboard-response","222","1119754","0.0-2.0-76.0-1.0","26","66833","Male","null","","","","null","","74","","","","1119427","1","","","","","","300","89100","327","93714","300","","","","","","","","","","","","","","","","","","","","","","","","","","","","","","","","","","","","","","","","","","","","","","","","","","","",""
"","localizer","","html-keyboard-response","223","1120186","0.0-2.0-77.0-0.0","26","66833","Male","NaN","","","","null","NaN","75","","Stimuli/Experimental_stims/localizer/body_parts/pure-julia-E9Q4bqYHtIM-unsplash.jpg","","1119754","1","body_parts","","0","1","0","400","89400","432","94041","","","","","","","","","","","","","","","","","","","","","","","","","","","","","","","","","","","","","","","","","","","","","","","","","","","","",""
"","iti_localizer","","html-keyboard-response","224","1120514","0.0-2.0-77.0-1.0","26","66833","Male","null","","","","null","","75","","","","1120186","1","","","","","","300","89800","328","94473","300","","","","","","","","","","","","","","","","","","","","","","","","","","","","","","","","","","","","","","","","","","","","","","","","","","","",""
"","localizer","","html-keyboard-response","225","1120935","0.0-2.0-78.0-0.0","26","66833","Male","NaN","","","","null","NaN","76","","Stimuli/Experimental_stims/localizer/body_parts/charles-etoroma-1fo0biloDOc-unsplash.jpg","","1120514","1","body_parts","","0","1","0","400","90100","421","94801","","","","","","","","","","","","","","","","","","","","","","","","","","","","","","","","","","","","","","","","","","","","","","","","","","","","",""
"","iti_localizer","","html-keyboard-response","226","1121247","0.0-2.0-78.0-1.0","26","66833","Male","null","","","","null","","76","","","","1120935","1","","","","","","300","90500","312","95222","300","","","","","","","","","","","","","","","","","","","","","","","","","","","","","","","","","","","","","","","","","","","","","","","","","","","",""
"","localizer","","html-keyboard-response","227","1121762","0.0-2.0-79.0-0.0","26","66833","Male","NaN","","","","null","NaN","77","","Stimuli/Experimental_stims/localizer/body_parts/david-fanuel-qnV8X7OViNY-unsplash.jpg","","1121247","1","body_parts","","0","1","0","400","90800","515","95534","","","","","","","","","","","","","","","","","","","","","","","","","","","","","","","","","","","","","","","","","","","","","","","","","","","","",""
"","iti_localizer","","html-keyboard-response","228","1122079","0.0-2.0-79.0-1.0","26","66833","Male","null","","","","null","","77","","","","1121762","1","","","","","","300","91200","317","96049","300","","","","","","","","","","","","","","","","","","","","","","","","","","","","","","","","","","","","","","","","","","","","","","","","","","","",""
"","localizer","","html-keyboard-response","229","1122494","0.0-2.0-80.0-0.0","26","66833","Male","NaN","","","","null","NaN","78","","Stimuli/Experimental_stims/localizer/body_parts/diana-polekhina-SwWjCbIIoFE-unsplash.jpg","","1122079","1","body_parts","","0","1","0","400","91500","415","96366","","","","","","","","","","","","","","","","","","","","","","","","","","","","","","","","","","","","","","","","","","","","","","","","","","","","",""
"","iti_localizer","","html-keyboard-response","230","1122870","0.0-2.0-80.0-1.0","26","66833","Male","null","","","","null","","78","","","","1122494","1","","","","","","300","91900","376","96781","300","","","","","","","","","","","","","","","","","","","","","","","","","","","","","","","","","","","","","","","","","","","","","","","","","","","",""
"","localizer","","html-keyboard-response","231","1123307","0.0-2.0-81.0-0.0","26","66833","Male","NaN","","","","null","NaN","79","","Stimuli/Experimental_stims/localizer/body_parts/ant-rozetsky-bXQd8JXx0vs-unsplash.jpg","","1122870","1","body_parts","","0","1","0","400","92200","437","97157","","","","","","","","","","","","","","","","","","","","","","","","","","","","","","","","","","","","","","","","","","","","","","","","","","","","",""
"","iti_localizer","","html-keyboard-response","232","1123617","0.0-2.0-81.0-1.0","26","66833","Male","null","","","","null","","79","","","","1123307","1","","","","","","300","92600","310","97594","300","","","","","","","","","","","","","","","","","","","","","","","","","","","","","","","","","","","","","","","","","","","","","","","","","","","",""
"","localizer","","html-keyboard-response","233","1124075","0.0-2.0-82.0-0.0","26","66833","Male","NaN","","","","null","NaN","80","","Stimuli/Experimental_stims/localizer/body_parts/callum-skelton-3KLMq7y46nA-unsplash.jpg","","1123617","1","body_parts","","0","1","0","400","92900","458","97904","","","","","","","","","","","","","","","","","","","","","","","","","","","","","","","","","","","","","","","","","","","","","","","","","","","","",""
"","iti_localizer","","html-keyboard-response","234","1124393","0.0-2.0-82.0-1.0","26","66833","Male","null","","","","null","","80","","","","1124075","1","","","","","","300","93300","318","98362","300","","","","","","","","","","","","","","","","","","","","","","","","","","","","","","","","","","","","","","","","","","","","","","","","","","","",""
"","localizer","","html-keyboard-response","235","1124872","0.0-2.0-83.0-0.0","26","66833","Male","NaN","","","","null","NaN","81","","Stimuli/Experimental_stims/localizer/body_parts/freestocks-qw9LFf5T790-unsplash.jpg","","1124393","1","body_parts","","0","1","0","400","93600","479","98680","","","","","","","","","","","","","","","","","","","","","","","","","","","","","","","","","","","","","","","","","","","","","","","","","","","","",""
"","iti_localizer","","html-keyboard-response","236","1125197","0.0-2.0-83.0-1.0","26","66833","Male","null","","","","null","","81","","","","1124872","1","","","","","","300","94000","325","99159","300","","","","","","","","","","","","","","","","","","","","","","","","","","","","","","","","","","","","","","","","","","","","","","","","","","","",""
"","localizer","","html-keyboard-response","237","1125681","0.0-2.0-84.0-0.0","26","66833","Male","NaN","","","","null","NaN","82","","Stimuli/Experimental_stims/localizer/body_parts/carlos-henrique-NAOJKwZswbs-unsplash.jpg","","1125197","1","body_parts","","0","1","0","400","94300","484","99484","","","","","","","","","","","","","","","","","","","","","","","","","","","","","","","","","","","","","","","","","","","","","","","","","","","","",""
"","iti_localizer","","html-keyboard-response","238","1125993","0.0-2.0-84.0-1.0","26","66833","Male","null","","","","null","","82","","","","1125681","1","","","","","","300","94700","312","99968","300","","","","","","","","","","","","","","","","","","","","","","","","","","","","","","","","","","","","","","","","","","","","","","","","","","","",""
"","localizer","","html-keyboard-response","239","1126412","0.0-2.0-85.0-0.0","26","66833","Male","NaN","","","","null","NaN","83","","Stimuli/Experimental_stims/localizer/body_parts/boyd-christiansen-uVj7kewrZ-o-unsplash.jpg","","1125993","1","body_parts","","1","1","0","400","95000","419","100280","","","","","","","","","","","","","","","","","","","","","","","","","","","","","","","","","","","","","","","","","","","","","","","","","","","","",""
"","iti_localizer","","html-keyboard-response","240","1126725","0.0-2.0-85.0-1.0","26","66833","Male","null","","","","null","","83","","","","1126412","1","","","","","","300","95400","313","100699","300","","","","","","","","","","","","","","","","","","","","","","","","","","","","","","","","","","","","","","","","","","","","","","","","","","","",""
"","localizer","","html-keyboard-response","241","1127143","0.0-2.0-86.0-0.0","26","66833","Male","21","","","","75","1","84","","Stimuli/Experimental_stims/localizer/body_parts/nick-page-jAGdpOGvLAA-unsplash.jpg","","1126725","1","body_parts","","0","0","0","400","95700","418","101012","","","","","","","","","","","","","","","","","","","","","","","","","","","","","","","","","","","","","","","","","","","","","","","","","","","","",""
"","iti_localizer","","html-keyboard-response","242","1127461","0.0-2.0-86.0-1.0","26","66833","Male","null","","","","null","","84","","","","1127143","1","","","","","","300","96100","318","101430","300","","","","","","","","","","","","","","","","","","","","","","","","","","","","","","","","","","","","","","","","","","","","","","","","","","","",""
"","localizer","","html-keyboard-response","243","1127871","0.0-2.0-87.0-0.0","26","66833","Male","68","","","","68","0","85","","Stimuli/Experimental_stims/localizer/body_parts/lilartsy-1KkhQ8uL28g-unsplash.jpg","","1127461","1","body_parts","","0","0","1","400","96400","410","101748","","","","","","","","","","","","","","","","","","","","","","","","","","","","","","","","","","","","","","","","","","","","","","","","","","","","",""
"","iti_localizer","","html-keyboard-response","244","1141921","0.0-2.0-87.0-1.0","26","66833","Male","null","","","","null","","85","","","","1127871","1","","","","","","14000","96800","14050","102158","14000","","","","","","","","","","","","","","","","","","","","","","","","","","","","","","","","","","","","","","","","","","","","","","","","","","","",""
"","localizer","","html-keyboard-response","245","1142335","0.0-2.0-88.0-0.0","26","66833","Male","NaN","","","","null","NaN","86","","Stimuli/Experimental_stims/localizer/objects/yossy-made-yulian-WaEqwDSIeTY-unsplash.jpg","","1141921","1","objects","","1","1","0","400","110800","414","116208","","","","","","","","","","","","","","","","","","","","","","","","","","","","","","","","","","","","","","","","","","","","","","","","","","","","",""
