"success","ttype","start_time","trial_type","trial_index","time_elapsed","internal_node_id","age","PID","gender","rt","responses","view_history","repeat_instructions","key_press","response","index","stimulus_index","path"
"true","full_screen","d08172023hr1514","fullscreen","0","15665","0.0-0.0-0.0","26","49645","Male","","","","","","","","",""
"","get_id","","survey-text","1","21586","0.0-0.0-1.0","26","49645","Male","5915","{""Q0"":""26"",""Q1"":""Male""}","","","","","","",""
"","ratings_instructions","","instructions","2","35994","0.0-1.0-0.0-0.0","26","49645","Male","14014","","[{""page_index"":0,""viewing_time"":11411},{""page_index"":1,""viewing_time"":2603}]","","","","","",""
"","rating_comprehension_check","","survey-multi-choice","3","42198","0.0-1.0-0.0-1.0","26","49645","Male","6200","{""Q0"":""True"",""Q1"":""Mouse""}","","0","","","","",""
"","","","html-keyboard-response","4","45678","0.0-1.0-1.0","26","49645","Male","3474","","","","68","","","",""
"","rating","","html-slider-response","5","49019","0.0-1.0-2.0","26","49645","Male","3336","","","","","38","0","28","Stimuli/Experimental_stims/body_parts/ira-vishnevskaya-8DQAvdCby1I-unsplash.jpg"
"","rating","","html-slider-response","6","51517","0.0-1.0-3.0","26","49645","Male","2492","","","","","74","1","4","Stimuli/Experimental_stims/outdoor_scenes/jarrett-kow-1ZOyYPOBn7I-unsplash.jpg"
"","rating","","html-slider-response","7","54338","0.0-1.0-4.0","26","49645","Male","2816","","","","","31","2","35","Stimuli/Experimental_stims/body_parts/wc-so-KH4AAPjb-tI-unsplash.jpg"
"","rating","","html-slider-response","8","56993","0.0-1.0-5.0","26","49645","Male","2650","","","","","45","3","47","Stimuli/Experimental_stims/objects/ronaldo-arthur-vidal-Cdz_lvnl37k-unsplash.jpg"
"","rating","","html-slider-response","9","59389","0.0-1.0-6.0","26","49645","Male","2390","","","","","84","4","9","Stimuli/Experimental_stims/outdoor_scenes/sergey-pesterev-y-b_FOmJXdg-unsplash.jpg"
"","rating","","html-slider-response","10","61834","0.0-1.0-7.0","26","49645","Male","2440","","","","","18","5","31","Stimuli/Experimental_stims/body_parts/sincerely-media-VN6DbKajo5s-unsplash.jpg"
"","rating","","html-slider-response","11","64228","0.0-1.0-8.0","26","49645","Male","2389","","","","","82","6","5","Stimuli/Experimental_stims/outdoor_scenes/jeff-king-bJHWJeiHfHc-unsplash.jpg"
"","rating","","html-slider-response","12","66520","0.0-1.0-9.0","26","49645","Male","2288","","","","","38","7","27","Stimuli/Experimental_stims/body_parts/heike-mintel-i_Gns0ELnLw-unsplash.jpg"
"","rating","","html-slider-response","13","68539","0.0-1.0-10.0","26","49645","Male","2014","","","","","59","8","37","Stimuli/Experimental_stims/objects/alexander-andrews-VLGWE_SumrA-unsplash.jpg"
"","rating","","html-slider-response","14","70581","0.0-1.0-11.0","26","49645","Male","2037","","","","","60","9","19","Stimuli/Experimental_stims/faces/joel-mott-LaK153ghdig-unsplash.jpg"
"","rating","","html-slider-response","15","72867","0.0-1.0-12.0","26","49645","Male","2281","","","","","26","10","34","Stimuli/Experimental_stims/body_parts/wagner-santos-mBWMvIuVnso-unsplash.jpg"
"","rating","","html-slider-response","16","78736","0.0-1.0-13.0","26","49645","Male","5866","","","","","44","11","22","Stimuli/Experimental_stims/faces/ravi-patel-VMGAbeeJTKo-unsplash.jpg"
"","rating","","html-slider-response","17","82162","0.0-1.0-14.0","26","49645","Male","3421","","","","","86","12","1","Stimuli/Experimental_stims/outdoor_scenes/ashim-d-silva-S2Q5mdOrrVc-unsplash.jpg"
"","rating","","html-slider-response","18","87276","0.0-1.0-15.0","26","49645","Male","5109","","","","","58","13","15","Stimuli/Experimental_stims/faces/erik-lucatero-d2MSDujJl2g-unsplash.jpg"
"","rating","","html-slider-response","19","89399","0.0-1.0-16.0","26","49645","Male","2119","","","","","39","14","17","Stimuli/Experimental_stims/faces/good-faces-xmSWVeGEnJw-unsplash.jpg"
"","rating","","html-slider-response","20","91691","0.0-1.0-17.0","26","49645","Male","2287","","","","","57","15","12","Stimuli/Experimental_stims/faces/aiony-haust-jmATI5Q_YgY-unsplash.jpg"
"","rating","","html-slider-response","21","93907","0.0-1.0-18.0","26","49645","Male","2212","","","","","87","16","0","Stimuli/Experimental_stims/outdoor_scenes/aleksandra-boguslawska-MS7KD9Ti7FQ-unsplash.jpg"
"","rating","","html-slider-response","22","97684","0.0-1.0-19.0","26","49645","Male","3772","","","","","26","17","41","Stimuli/Experimental_stims/objects/insung-yoon-w2JtIQQXoRU-unsplash.jpg"
"","rating","","html-slider-response","23","100368","0.0-1.0-20.0","26","49645","Male","2679","","","","","47","18","18","Stimuli/Experimental_stims/faces/jessica-radanavong-mrYkTuAesKE-unsplash.jpg"
"","rating","","html-slider-response","24","102532","0.0-1.0-21.0","26","49645","Male","2159","","","","","92","19","11","Stimuli/Experimental_stims/outdoor_scenes/stephen-leonardi-gyIRjKPXupE-unsplash.jpg"
"","rating","","html-slider-response","25","104583","0.0-1.0-22.0","26","49645","Male","2046","","","","","41","20","20","Stimuli/Experimental_stims/faces/justin-chen-J7Cf1Gch49E-unsplash.jpg"
"","rating","","html-slider-response","26","106541","0.0-1.0-23.0","26","49645","Male","1953","","","","","43","21","23","Stimuli/Experimental_stims/faces/rikonavt-HQjfrvdTfak-unsplash.jpg"
"","rating","","html-slider-response","27","108750","0.0-1.0-24.0","26","49645","Male","2205","","","","","29","22","25","Stimuli/Experimental_stims/body_parts/engin-akyurt-Q2rfH3GW39c-unsplash.jpg"
"","rating","","html-slider-response","28","111746","0.0-1.0-25.0","26","49645","Male","2991","","","","","27","23","33","Stimuli/Experimental_stims/body_parts/tucker-good-36skLT5jZcc-unsplash.jpg"
"","rating","","html-slider-response","29","114912","0.0-1.0-26.0","26","49645","Male","3161","","","","","18","24","32","Stimuli/Experimental_stims/body_parts/towfiqu-barbhuiya-3AsiVDsZnHg-unsplash.jpg"
"","rating","","html-slider-response","30","117701","0.0-1.0-27.0","26","49645","Male","2784","","","","","28","25","30","Stimuli/Experimental_stims/body_parts/mika-korhonen-Xodzxosar18-unsplash.jpg"
"","rating","","html-slider-response","31","120011","0.0-1.0-28.0","26","49645","Male","2305","","","","","58","26","16","Stimuli/Experimental_stims/faces/freddy-kearney-o-ioeoATbIM-unsplash.jpg"
"","rating","","html-slider-response","32","122283","0.0-1.0-29.0","26","49645","Male","2268","","","","","40","27","14","Stimuli/Experimental_stims/faces/david-siglin-UuW4psOb388-unsplash.jpg"
"","rating","","html-slider-response","33","124436","0.0-1.0-30.0","26","49645","Male","2148","","","","","29","28","36","Stimuli/Experimental_stims/objects/alexander-andrews-JYGnB9gTCls-unsplash.jpg"
"","rating","","html-slider-response","34","126456","0.0-1.0-31.0","26","49645","Male","2015","","","","","84","29","3","Stimuli/Experimental_stims/outdoor_scenes/henry-be-NLF6hTe4PAg-unsplash.jpg"
"","rating","","html-slider-response","35","129133","0.0-1.0-32.0","26","49645","Male","2672","","","","","52","30","29","Stimuli/Experimental_stims/body_parts/manuel-schinner-ZwjFuJ7ebpk-unsplash.jpg"
"","rating","","html-slider-response","36","132944","0.0-1.0-33.0","26","49645","Male","3806","","","","","17","31","43","Stimuli/Experimental_stims/objects/jonathan-greenaway-Y4hGgeiFn3s-unsplash.jpg"
"","rating","","html-slider-response","37","135441","0.0-1.0-34.0","26","49645","Male","2493","","","","","22","32","40","Stimuli/Experimental_stims/objects/fabian-blank-pElSkGRA2NU-unsplash.jpg"
"","rating","","html-slider-response","38","138321","0.0-1.0-35.0","26","49645","Male","2876","","","","","64","33","2","Stimuli/Experimental_stims/outdoor_scenes/bruno-van-der-kraan-qez8mNJ3ilU-unsplash.jpg"
"","rating","","html-slider-response","39","140751","0.0-1.0-36.0","26","49645","Male","2425","","","","","20","34","26","Stimuli/Experimental_stims/body_parts/engin-akyurt-x_3gyC42btc-unsplash.jpg"
"","rating","","html-slider-response","40","144314","0.0-1.0-37.0","26","49645","Male","3558","","","","","58","35","45","Stimuli/Experimental_stims/objects/leohoho-rngTKHXumy0-unsplash.jpg"
"","rating","","html-slider-response","41","147777","0.0-1.0-38.0","26","49645","Male","3458","","","","","88","36","6","Stimuli/Experimental_stims/outdoor_scenes/meng-ji-8BH_M-53CyA-unsplash.jpg"
"","rating","","html-slider-response","42","150295","0.0-1.0-39.0","26","49645","Male","2513","","","","","56","37","13","Stimuli/Experimental_stims/faces/daniel-rigdon-dXmXKPP2L4E-unsplash.jpg"
"","rating","","html-slider-response","43","152478","0.0-1.0-40.0","26","49645","Male","2178","","","","","14","38","44","Stimuli/Experimental_stims/objects/kuiye-chen-NuOGFo4PudE-unsplash.jpg"
"","rating","","html-slider-response","44","154639","0.0-1.0-41.0","26","49645","Male","2156","","","","","23","39","42","Stimuli/Experimental_stims/objects/jess-bailey-nOeVi8DsN8U-unsplash.jpg"
"","rating","","html-slider-response","45","157857","0.0-1.0-42.0","26","49645","Male","3214","","","","","24","40","24","Stimuli/Experimental_stims/body_parts/clay-banks-LjqARJaJotc-unsplash.jpg"
"","rating","","html-slider-response","46","160045","0.0-1.0-43.0","26","49645","Male","2183","","","","","44","41","21","Stimuli/Experimental_stims/faces/leilani-angel-K84vnnzxmTQ-unsplash.jpg"
"","rating","","html-slider-response","47","162414","0.0-1.0-44.0","26","49645","Male","2363","","","","","66","42","7","Stimuli/Experimental_stims/outdoor_scenes/petr-vysohlid-9fqwGqGLUxc-unsplash.jpg"
"","rating","","html-slider-response","48","164569","0.0-1.0-45.0","26","49645","Male","2151","","","","","30","43","46","Stimuli/Experimental_stims/objects/mockup-graphics-PNsj6RiHAF4-unsplash.jpg"
"","rating","","html-slider-response","49","168173","0.0-1.0-46.0","26","49645","Male","3599","","","","","54","44","38","Stimuli/Experimental_stims/objects/art-lasovsky-8XddFc6NkBY-unsplash.jpg"
"","rating","","html-slider-response","50","171586","0.0-1.0-47.0","26","49645","Male","3409","","","","","93","45","8","Stimuli/Experimental_stims/outdoor_scenes/samsommer-vddccTqwal8-unsplash.jpg"
"","rating","","html-slider-response","51","173919","0.0-1.0-48.0","26","49645","Male","2328","","","","","88","46","10","Stimuli/Experimental_stims/outdoor_scenes/shannon-kunkle-dM8INmkyDas-unsplash.jpg"
"","rating","","html-slider-response","52","175964","0.0-1.0-49.0","26","49645","Male","2040","","","","","11","47","39","Stimuli/Experimental_stims/objects/charlesdeluvio-1-nx1QR5dTE-unsplash.jpg"
