"success","ttype","start_time","trial_type","trial_index","time_elapsed","internal_node_id","age","PID","gender","rt","responses","view_history","repeat_instructions","key_press","response","index","stimulus_index","path","start_time_elapsed","run","task","isi","is_odd_ball","no_response","acc","duration","onset","duration_time_elapsed","onset_time_elapsed","trial_duration","left_chosen","chosen_stimulus","unchosen_stimulus","chosen_category","unchosen_category","chosen_rating","unchosen_rating","chosen_path","unchosen_path","pair_id","practice","scramble_screen_time","scramble_instructed_side","stim_type","iti","block","left_stimulus","right_stimulus","left_category","right_category","left_path","right_path","left_rating","right_rating","scramble_acc","missed_checkup","stimulus_id","item_id","outcome","response_rt","deliberation_reward_tally","choice_type","gain_left","left_item_id","right_item_id","higher_outcome_chosen","warning","chosen_left","old_pair","pair_type","old_response","pair_acc","reward_type","outcome_response","outcome_rt","outcome_acc","category","choice","deliberated_stim","old_rating","new_rating","total_reward_tally"
"true","full_screen","d08172023hr1500","fullscreen","0","132694","0.0-0.0-0.0","34","22705","male","","","","","","","","","","","","","","","","","","","","","","","","","","","","","","","","","","","","","","","","","","","","","","","","","","","","","","","","","","","","","","","","","","","","","","","","",""
"","get_id","","survey-text","1","155484","0.0-0.0-1.0","34","22705","male","22784","{""Q0"":""34"",""Q1"":""male""}","","","","","","","","","","","","","","","","","","","","","","","","","","","","","","","","","","","","","","","","","","","","","","","","","","","","","","","","","","","","","","","","","","","","","","",""
"","ratings_instructions","","instructions","2","179941","0.0-1.0-0.0-0.0","34","22705","male","21864","","[{""page_index"":0,""viewing_time"":18479},{""page_index"":1,""viewing_time"":3384}]","","","","","","","","","","","","","","","","","","","","","","","","","","","","","","","","","","","","","","","","","","","","","","","","","","","","","","","","","","","","","","","","","","","","","",""
"","rating_comprehension_check","","survey-multi-choice","3","192684","0.0-1.0-0.0-1.0","34","22705","male","12737","{""Q0"":""True"",""Q1"":""Mouse""}","","0","","","","","","","","","","","","","","","","","","","","","","","","","","","","","","","","","","","","","","","","","","","","","","","","","","","","","","","","","","","","","","","","","","","","",""
"","","","html-keyboard-response","4","202963","0.0-1.0-1.0","34","22705","male","10272","","","","68","","","","","","","","","","","","","","","","","","","","","","","","","","","","","","","","","","","","","","","","","","","","","","","","","","","","","","","","","","","","","","","","","","","",""
"","rating","","html-slider-response","5","207284","0.0-1.0-2.0","34","22705","male","4315","","","","","84","0","28","Stimuli/Experimental_stims/body_parts/ira-vishnevskaya-8DQAvdCby1I-unsplash.jpg","","","","","","","","","","","","","","","","","","","","","","","","","","","","","","","","","","","","","","","","","","","","","","","","","","","","","","","","","","","","","","","",""
"","rating","","html-slider-response","6","213211","0.0-1.0-3.0","34","22705","male","5922","","","","","75","1","4","Stimuli/Experimental_stims/outdoor_scenes/jarrett-kow-1ZOyYPOBn7I-unsplash.jpg","","","","","","","","","","","","","","","","","","","","","","","","","","","","","","","","","","","","","","","","","","","","","","","","","","","","","","","","","","","","","","","",""
"","rating","","html-slider-response","7","215315","0.0-1.0-4.0","34","22705","male","2098","","","","","79","2","35","Stimuli/Experimental_stims/body_parts/wc-so-KH4AAPjb-tI-unsplash.jpg","","","","","","","","","","","","","","","","","","","","","","","","","","","","","","","","","","","","","","","","","","","","","","","","","","","","","","","","","","","","","","","",""
"","rating","","html-slider-response","8","217835","0.0-1.0-5.0","34","22705","male","2515","","","","","79","3","47","Stimuli/Experimental_stims/objects/ronaldo-arthur-vidal-Cdz_lvnl37k-unsplash.jpg","","","","","","","","","","","","","","","","","","","","","","","","","","","","","","","","","","","","","","","","","","","","","","","","","","","","","","","","","","","","","","","",""
"","rating","","html-slider-response","9","220275","0.0-1.0-6.0","34","22705","male","2435","","","","","84","4","9","Stimuli/Experimental_stims/outdoor_scenes/sergey-pesterev-y-b_FOmJXdg-unsplash.jpg","","","","","","","","","","","","","","","","","","","","","","","","","","","","","","","","","","","","","","","","","","","","","","","","","","","","","","","","","","","","","","","",""
"","rating","","html-slider-response","10","222027","0.0-1.0-7.0","34","22705","male","1747","","","","","71","5","31","Stimuli/Experimental_stims/body_parts/sincerely-media-VN6DbKajo5s-unsplash.jpg","","","","","","","","","","","","","","","","","","","","","","","","","","","","","","","","","","","","","","","","","","","","","","","","","","","","","","","","","","","","","","","",""
"","rating","","html-slider-response","11","223979","0.0-1.0-8.0","34","22705","male","1947","","","","","86","6","5","Stimuli/Experimental_stims/outdoor_scenes/jeff-king-bJHWJeiHfHc-unsplash.jpg","","","","","","","","","","","","","","","","","","","","","","","","","","","","","","","","","","","","","","","","","","","","","","","","","","","","","","","","","","","","","","","",""
"","rating","","html-slider-response","12","226595","0.0-1.0-9.0","34","22705","male","2611","","","","","77","7","27","Stimuli/Experimental_stims/body_parts/heike-mintel-i_Gns0ELnLw-unsplash.jpg","","","","","","","","","","","","","","","","","","","","","","","","","","","","","","","","","","","","","","","","","","","","","","","","","","","","","","","","","","","","","","","",""
"","rating","","html-slider-response","13","228795","0.0-1.0-10.0","34","22705","male","2195","","","","","91","8","37","Stimuli/Experimental_stims/objects/alexander-andrews-VLGWE_SumrA-unsplash.jpg","","","","","","","","","","","","","","","","","","","","","","","","","","","","","","","","","","","","","","","","","","","","","","","","","","","","","","","","","","","","","","","",""
"","rating","","html-slider-response","14","230915","0.0-1.0-11.0","34","22705","male","2115","","","","","93","9","19","Stimuli/Experimental_stims/faces/joel-mott-LaK153ghdig-unsplash.jpg","","","","","","","","","","","","","","","","","","","","","","","","","","","","","","","","","","","","","","","","","","","","","","","","","","","","","","","","","","","","","","","",""
"","rating","","html-slider-response","15","233331","0.0-1.0-12.0","34","22705","male","2411","","","","","78","10","34","Stimuli/Experimental_stims/body_parts/wagner-santos-mBWMvIuVnso-unsplash.jpg","","","","","","","","","","","","","","","","","","","","","","","","","","","","","","","","","","","","","","","","","","","","","","","","","","","","","","","","","","","","","","","",""
"","rating","","html-slider-response","16","235523","0.0-1.0-13.0","34","22705","male","2187","","","","","83","11","22","Stimuli/Experimental_stims/faces/ravi-patel-VMGAbeeJTKo-unsplash.jpg","","","","","","","","","","","","","","","","","","","","","","","","","","","","","","","","","","","","","","","","","","","","","","","","","","","","","","","","","","","","","","","",""
"","rating","","html-slider-response","17","237386","0.0-1.0-14.0","34","22705","male","1859","","","","","67","12","1","Stimuli/Experimental_stims/outdoor_scenes/ashim-d-silva-S2Q5mdOrrVc-unsplash.jpg","","","","","","","","","","","","","","","","","","","","","","","","","","","","","","","","","","","","","","","","","","","","","","","","","","","","","","","","","","","","","","","",""
"","rating","","html-slider-response","18","239387","0.0-1.0-15.0","34","22705","male","1995","","","","","90","13","15","Stimuli/Experimental_stims/faces/erik-lucatero-d2MSDujJl2g-unsplash.jpg","","","","","","","","","","","","","","","","","","","","","","","","","","","","","","","","","","","","","","","","","","","","","","","","","","","","","","","","","","","","","","","",""
"","rating","","html-slider-response","19","242059","0.0-1.0-16.0","34","22705","male","2667","","","","","70","14","17","Stimuli/Experimental_stims/faces/good-faces-xmSWVeGEnJw-unsplash.jpg","","","","","","","","","","","","","","","","","","","","","","","","","","","","","","","","","","","","","","","","","","","","","","","","","","","","","","","","","","","","","","","",""
"","rating","","html-slider-response","20","243819","0.0-1.0-17.0","34","22705","male","1755","","","","","72","15","12","Stimuli/Experimental_stims/faces/aiony-haust-jmATI5Q_YgY-unsplash.jpg","","","","","","","","","","","","","","","","","","","","","","","","","","","","","","","","","","","","","","","","","","","","","","","","","","","","","","","","","","","","","","","",""
"","rating","","html-slider-response","21","245770","0.0-1.0-18.0","34","22705","male","1947","","","","","73","16","0","Stimuli/Experimental_stims/outdoor_scenes/aleksandra-boguslawska-MS7KD9Ti7FQ-unsplash.jpg","","","","","","","","","","","","","","","","","","","","","","","","","","","","","","","","","","","","","","","","","","","","","","","","","","","","","","","","","","","","","","","",""
"","rating","","html-slider-response","22","247595","0.0-1.0-19.0","34","22705","male","1819","","","","","83","17","41","Stimuli/Experimental_stims/objects/insung-yoon-w2JtIQQXoRU-unsplash.jpg","","","","","","","","","","","","","","","","","","","","","","","","","","","","","","","","","","","","","","","","","","","","","","","","","","","","","","","","","","","","","","","",""
"","rating","","html-slider-response","23","249594","0.0-1.0-20.0","34","22705","male","1995","","","","","74","18","18","Stimuli/Experimental_stims/faces/jessica-radanavong-mrYkTuAesKE-unsplash.jpg","","","","","","","","","","","","","","","","","","","","","","","","","","","","","","","","","","","","","","","","","","","","","","","","","","","","","","","","","","","","","","","",""
"","rating","","html-slider-response","24","252715","0.0-1.0-21.0","34","22705","male","3116","","","","","66","19","11","Stimuli/Experimental_stims/outdoor_scenes/stephen-leonardi-gyIRjKPXupE-unsplash.jpg","","","","","","","","","","","","","","","","","","","","","","","","","","","","","","","","","","","","","","","","","","","","","","","","","","","","","","","","","","","","","","","",""
"","rating","","html-slider-response","25","255035","0.0-1.0-22.0","34","22705","male","2315","","","","","73","20","20","Stimuli/Experimental_stims/faces/justin-chen-J7Cf1Gch49E-unsplash.jpg","","","","","","","","","","","","","","","","","","","","","","","","","","","","","","","","","","","","","","","","","","","","","","","","","","","","","","","","","","","","","","","",""
"","rating","","html-slider-response","26","257299","0.0-1.0-23.0","34","22705","male","2259","","","","","59","21","23","Stimuli/Experimental_stims/faces/rikonavt-HQjfrvdTfak-unsplash.jpg","","","","","","","","","","","","","","","","","","","","","","","","","","","","","","","","","","","","","","","","","","","","","","","","","","","","","","","","","","","","","","","",""
"","rating","","html-slider-response","27","260083","0.0-1.0-24.0","34","22705","male","2779","","","","","34","22","25","Stimuli/Experimental_stims/body_parts/engin-akyurt-Q2rfH3GW39c-unsplash.jpg","","","","","","","","","","","","","","","","","","","","","","","","","","","","","","","","","","","","","","","","","","","","","","","","","","","","","","","","","","","","","","","",""
"","rating","","html-slider-response","28","262851","0.0-1.0-25.0","34","22705","male","2763","","","","","39","23","33","Stimuli/Experimental_stims/body_parts/tucker-good-36skLT5jZcc-unsplash.jpg","","","","","","","","","","","","","","","","","","","","","","","","","","","","","","","","","","","","","","","","","","","","","","","","","","","","","","","","","","","","","","","",""
"","rating","","html-slider-response","29","265195","0.0-1.0-26.0","34","22705","male","2339","","","","","64","24","32","Stimuli/Experimental_stims/body_parts/towfiqu-barbhuiya-3AsiVDsZnHg-unsplash.jpg","","","","","","","","","","","","","","","","","","","","","","","","","","","","","","","","","","","","","","","","","","","","","","","","","","","","","","","","","","","","","","","",""
"","rating","","html-slider-response","30","267675","0.0-1.0-27.0","34","22705","male","2475","","","","","63","25","30","Stimuli/Experimental_stims/body_parts/mika-korhonen-Xodzxosar18-unsplash.jpg","","","","","","","","","","","","","","","","","","","","","","","","","","","","","","","","","","","","","","","","","","","","","","","","","","","","","","","","","","","","","","","",""
"","rating","","html-slider-response","31","270259","0.0-1.0-28.0","34","22705","male","2579","","","","","45","26","16","Stimuli/Experimental_stims/faces/freddy-kearney-o-ioeoATbIM-unsplash.jpg","","","","","","","","","","","","","","","","","","","","","","","","","","","","","","","","","","","","","","","","","","","","","","","","","","","","","","","","","","","","","","","",""
"","rating","","html-slider-response","32","272627","0.0-1.0-29.0","34","22705","male","2363","","","","","41","27","14","Stimuli/Experimental_stims/faces/david-siglin-UuW4psOb388-unsplash.jpg","","","","","","","","","","","","","","","","","","","","","","","","","","","","","","","","","","","","","","","","","","","","","","","","","","","","","","","","","","","","","","","",""
"","rating","","html-slider-response","33","275947","0.0-1.0-30.0","34","22705","male","3315","","","","","71","28","36","Stimuli/Experimental_stims/objects/alexander-andrews-JYGnB9gTCls-unsplash.jpg","","","","","","","","","","","","","","","","","","","","","","","","","","","","","","","","","","","","","","","","","","","","","","","","","","","","","","","","","","","","","","","",""
"","rating","","html-slider-response","34","278171","0.0-1.0-31.0","34","22705","male","2219","","","","","78","29","3","Stimuli/Experimental_stims/outdoor_scenes/henry-be-NLF6hTe4PAg-unsplash.jpg","","","","","","","","","","","","","","","","","","","","","","","","","","","","","","","","","","","","","","","","","","","","","","","","","","","","","","","","","","","","","","","",""
"","rating","","html-slider-response","35","280403","0.0-1.0-32.0","34","22705","male","2227","","","","","64","30","29","Stimuli/Experimental_stims/body_parts/manuel-schinner-ZwjFuJ7ebpk-unsplash.jpg","","","","","","","","","","","","","","","","","","","","","","","","","","","","","","","","","","","","","","","","","","","","","","","","","","","","","","","","","","","","","","","",""
"","rating","","html-slider-response","36","282707","0.0-1.0-33.0","34","22705","male","2299","","","","","65","31","43","Stimuli/Experimental_stims/objects/jonathan-greenaway-Y4hGgeiFn3s-unsplash.jpg","","","","","","","","","","","","","","","","","","","","","","","","","","","","","","","","","","","","","","","","","","","","","","","","","","","","","","","","","","","","","","","",""
"","rating","","html-slider-response","37","284978","0.0-1.0-34.0","34","22705","male","2267","","","","","66","32","40","Stimuli/Experimental_stims/objects/fabian-blank-pElSkGRA2NU-unsplash.jpg","","","","","","","","","","","","","","","","","","","","","","","","","","","","","","","","","","","","","","","","","","","","","","","","","","","","","","","","","","","","","","","",""
"","rating","","html-slider-response","38","287091","0.0-1.0-35.0","34","22705","male","2107","","","","","82","33","2","Stimuli/Experimental_stims/outdoor_scenes/bruno-van-der-kraan-qez8mNJ3ilU-unsplash.jpg","","","","","","","","","","","","","","","","","","","","","","","","","","","","","","","","","","","","","","","","","","","","","","","","","","","","","","","","","","","","","","","",""
"","rating","","html-slider-response","39","289955","0.0-1.0-36.0","34","22705","male","2859","","","","","61","34","26","Stimuli/Experimental_stims/body_parts/engin-akyurt-x_3gyC42btc-unsplash.jpg","","","","","","","","","","","","","","","","","","","","","","","","","","","","","","","","","","","","","","","","","","","","","","","","","","","","","","","","","","","","","","","",""
"","rating","","html-slider-response","40","292283","0.0-1.0-37.0","34","22705","male","2323","","","","","66","35","45","Stimuli/Experimental_stims/objects/leohoho-rngTKHXumy0-unsplash.jpg","","","","","","","","","","","","","","","","","","","","","","","","","","","","","","","","","","","","","","","","","","","","","","","","","","","","","","","","","","","","","","","",""
"","rating","","html-slider-response","41","294723","0.0-1.0-38.0","34","22705","male","2435","","","","","74","36","6","Stimuli/Experimental_stims/outdoor_scenes/meng-ji-8BH_M-53CyA-unsplash.jpg","","","","","","","","","","","","","","","","","","","","","","","","","","","","","","","","","","","","","","","","","","","","","","","","","","","","","","","","","","","","","","","",""
"","rating","","html-slider-response","42","296874","0.0-1.0-39.0","34","22705","male","2147","","","","","68","37","13","Stimuli/Experimental_stims/faces/daniel-rigdon-dXmXKPP2L4E-unsplash.jpg","","","","","","","","","","","","","","","","","","","","","","","","","","","","","","","","","","","","","","","","","","","","","","","","","","","","","","","","","","","","","","","",""
"","rating","","html-slider-response","43","300203","0.0-1.0-40.0","34","22705","male","3324","","","","","75","38","44","Stimuli/Experimental_stims/objects/kuiye-chen-NuOGFo4PudE-unsplash.jpg","","","","","","","","","","","","","","","","","","","","","","","","","","","","","","","","","","","","","","","","","","","","","","","","","","","","","","","","","","","","","","","",""
"","rating","","html-slider-response","44","302235","0.0-1.0-41.0","34","22705","male","2027","","","","","71","39","42","Stimuli/Experimental_stims/objects/jess-bailey-nOeVi8DsN8U-unsplash.jpg","","","","","","","","","","","","","","","","","","","","","","","","","","","","","","","","","","","","","","","","","","","","","","","","","","","","","","","","","","","","","","","",""
"","rating","","html-slider-response","45","304323","0.0-1.0-42.0","34","22705","male","2083","","","","","70","40","24","Stimuli/Experimental_stims/body_parts/clay-banks-LjqARJaJotc-unsplash.jpg","","","","","","","","","","","","","","","","","","","","","","","","","","","","","","","","","","","","","","","","","","","","","","","","","","","","","","","","","","","","","","","",""
"","rating","","html-slider-response","46","306754","0.0-1.0-43.0","34","22705","male","2427","","","","","68","41","21","Stimuli/Experimental_stims/faces/leilani-angel-K84vnnzxmTQ-unsplash.jpg","","","","","","","","","","","","","","","","","","","","","","","","","","","","","","","","","","","","","","","","","","","","","","","","","","","","","","","","","","","","","","","",""
"","rating","","html-slider-response","47","309346","0.0-1.0-44.0","34","22705","male","2586","","","","","70","42","7","Stimuli/Experimental_stims/outdoor_scenes/petr-vysohlid-9fqwGqGLUxc-unsplash.jpg","","","","","","","","","","","","","","","","","","","","","","","","","","","","","","","","","","","","","","","","","","","","","","","","","","","","","","","","","","","","","","","",""
"","rating","","html-slider-response","48","311954","0.0-1.0-45.0","34","22705","male","2602","","","","","71","43","46","Stimuli/Experimental_stims/objects/mockup-graphics-PNsj6RiHAF4-unsplash.jpg","","","","","","","","","","","","","","","","","","","","","","","","","","","","","","","","","","","","","","","","","","","","","","","","","","","","","","","","","","","","","","","",""
"","rating","","html-slider-response","49","314610","0.0-1.0-46.0","34","22705","male","2651","","","","","77","44","38","Stimuli/Experimental_stims/objects/art-lasovsky-8XddFc6NkBY-unsplash.jpg","","","","","","","","","","","","","","","","","","","","","","","","","","","","","","","","","","","","","","","","","","","","","","","","","","","","","","","","","","","","","","","",""
"","rating","","html-slider-response","50","316770","0.0-1.0-47.0","34","22705","male","2155","","","","","72","45","8","Stimuli/Experimental_stims/outdoor_scenes/samsommer-vddccTqwal8-unsplash.jpg","","","","","","","","","","","","","","","","","","","","","","","","","","","","","","","","","","","","","","","","","","","","","","","","","","","","","","","","","","","","","","","",""
"","rating","","html-slider-response","51","319274","0.0-1.0-48.0","34","22705","male","2499","","","","","75","46","10","Stimuli/Experimental_stims/outdoor_scenes/shannon-kunkle-dM8INmkyDas-unsplash.jpg","","","","","","","","","","","","","","","","","","","","","","","","","","","","","","","","","","","","","","","","","","","","","","","","","","","","","","","","","","","","","","","",""
"","rating","","html-slider-response","52","321394","0.0-1.0-49.0","34","22705","male","2114","","","","","76","47","39","Stimuli/Experimental_stims/objects/charlesdeluvio-1-nx1QR5dTE-unsplash.jpg","","","","","","","","","","","","","","","","","","","","","","","","","","","","","","","","","","","","","","","","","","","","","","","","","","","","","","","","","","","","","","","",""
"","localizer_instructions","","instructions","53","360625","0.0-2.0-0.0-0.0","34","22705","male","39191","","[{""page_index"":0,""viewing_time"":30303},{""page_index"":1,""viewing_time"":7168},{""page_index"":2,""viewing_time"":1720}]","","","","","","","","","","","","","","","","","","","","","","","","","","","","","","","","","","","","","","","","","","","","","","","","","","","","","","","","","","","","","","","","","","","","","",""
"","localizer_comprehension_check","","survey-multi-choice","54","375313","0.0-2.0-0.0-1.0","34","22705","male","14683","{""Q0"":""True"",""Q1"":""K"",""Q2"":""D""}","","0","","","","","","","","","","","","","","","","","","","","","","","","","","","","","","","","","","","","","","","","","","","","","","","","","","","","","","","","","","","","","","","","","","","","",""
"","","","html-keyboard-response","55","381295","0.0-2.0-1.0","34","22705","male","5976","","","","68","","","","","","","","","","","","","","","","","","","","","","","","","","","","","","","","","","","","","","","","","","","","","","","","","","","","","","","","","","","","","","","","","","","",""
"","localizer","","html-keyboard-response","56","381700","0.0-2.0-2.0-0.0","34","22705","male","NaN","","","","null","NaN","0","","Stimuli/Practice_stims/Localizer/annie-spratt-g9KFpAfQ5bc-unsplash.jpg","381295","0","NaN","","0","1","0","400","0","405","0","","","","","","","","","","","","","","","","","","","","","","","","","","","","","","","","","","","","","","","","","","","","","","","","","","","","",""
"","iti_localizer","","html-keyboard-response","57","382006","0.0-2.0-2.0-1.0","34","22705","male","null","","","","null","","0","","","381700","0","","","","","","300","400","306","405","300","","","","","","","","","","","","","","","","","","","","","","","","","","","","","","","","","","","","","","","","","","","","","","","","","","","",""
"","localizer","","html-keyboard-response","58","382412","0.0-2.0-2.1-0.1","34","22705","male","NaN","","","","null","NaN","0","","Stimuli/Practice_stims/Localizer/annie-spratt-g9KFpAfQ5bc-unsplash.jpg","382006","0","NaN","","0","1","0","400","700","406","711","","","","","","","","","","","","","","","","","","","","","","","","","","","","","","","","","","","","","","","","","","","","","","","","","","","","",""
"","iti_localizer","","html-keyboard-response","59","382717","0.0-2.0-2.1-1.1","34","22705","male","null","","","","null","","0","","","382412","0","","","","","","300","1100","305","1117","300","","","","","","","","","","","","","","","","","","","","","","","","","","","","","","","","","","","","","","","","","","","","","","","","","","","",""
"","localizer","","html-keyboard-response","60","383122","0.0-2.0-2.2-0.2","34","22705","male","13","","","","75","1","0","","Stimuli/Practice_stims/Localizer/annie-spratt-g9KFpAfQ5bc-unsplash.jpg","382717","0","NaN","","0","0","0","400","1400","405","1422","","","","","","","","","","","","","","","","","","","","","","","","","","","","","","","","","","","","","","","","","","","","","","","","","","","","",""
"","iti_localizer","","html-keyboard-response","61","383427","0.0-2.0-2.2-1.2","34","22705","male","null","","","","null","","0","","","383122","0","","","","","","300","1800","305","1827","300","","","","","","","","","","","","","","","","","","","","","","","","","","","","","","","","","","","","","","","","","","","","","","","","","","","",""
"","localizer","","html-keyboard-response","62","383831","0.0-2.0-3.0-0.0","34","22705","male","104","","","","68","0","1","","Stimuli/Practice_stims/Localizer/becca-tapert-sY5RjMB1KkE-unsplash.jpg","383427","0","NaN","","0","0","1","400","2100","404","2132","","","","","","","","","","","","","","","","","","","","","","","","","","","","","","","","","","","","","","","","","","","","","","","","","","","","",""
"","iti_localizer","","html-keyboard-response","63","384137","0.0-2.0-3.0-1.0","34","22705","male","null","","","","null","","1","","","383831","0","","","","","","300","2500","306","2536","300","","","","","","","","","","","","","","","","","","","","","","","","","","","","","","","","","","","","","","","","","","","","","","","","","","","",""
"","localizer","","html-keyboard-response","64","384542","0.0-2.0-4.0-0.0","34","22705","male","34","","","","68","0","2","","Stimuli/Practice_stims/Localizer/charl-durand-bsfXvI25iNg-unsplash.jpg","384137","0","NaN","","1","0","0","400","2800","405","2842","","","","","","","","","","","","","","","","","","","","","","","","","","","","","","","","","","","","","","","","","","","","","","","","","","","","",""
"","iti_localizer","","html-keyboard-response","65","384848","0.0-2.0-4.0-1.0","34","22705","male","null","","","","null","","2","","","384542","0","","","","","","300","3200","306","3247","300","","","","","","","","","","","","","","","","","","","","","","","","","","","","","","","","","","","","","","","","","","","","","","","","","","","",""
"","localizer","","html-keyboard-response","66","385252","0.0-2.0-5.0-0.0","34","22705","male","75","","","","75","1","3","","Stimuli/Practice_stims/Localizer/nizar-albusaidy-B2r2SWAf5CE-unsplash.jpg","384848","0","NaN","","0","0","0","400","3500","404","3553","","","","","","","","","","","","","","","","","","","","","","","","","","","","","","","","","","","","","","","","","","","","","","","","","","","","",""
"","iti_localizer","","html-keyboard-response","67","385558","0.0-2.0-5.0-1.0","34","22705","male","null","","","","null","","3","","","385252","0","","","","","","300","3900","306","3957","300","","","","","","","","","","","","","","","","","","","","","","","","","","","","","","","","","","","","","","","","","","","","","","","","","","","",""
"","localizer","","html-keyboard-response","68","385963","0.0-2.0-6.0-0.0","34","22705","male","37","","","","75","1","4","","Stimuli/Practice_stims/Localizer/randy-fath-epf1tdtIIkM-unsplash.jpg","385558","0","NaN","","1","0","1","400","4200","405","4263","","","","","","","","","","","","","","","","","","","","","","","","","","","","","","","","","","","","","","","","","","","","","","","","","","","","",""
"","iti_localizer","","html-keyboard-response","69","386268","0.0-2.0-6.0-1.0","34","22705","male","null","","","","null","","4","","","385963","0","","","","","","300","4600","305","4668","300","","","","","","","","","","","","","","","","","","","","","","","","","","","","","","","","","","","","","","","","","","","","","","","","","","","",""
"","localizer","","html-keyboard-response","70","386672","0.0-2.0-7.0-0.0","34","22705","male","1","","","","75","1","5","","Stimuli/Practice_stims/Localizer/yassine-khalfalli-adsQ9d_Cx0c-unsplash.jpg","386268","0","NaN","","0","0","0","400","4900","404","4973","","","","","","","","","","","","","","","","","","","","","","","","","","","","","","","","","","","","","","","","","","","","","","","","","","","","",""
"","iti_localizer","","html-keyboard-response","71","386978","0.0-2.0-7.0-1.0","34","22705","male","null","","","","null","","5","","","386672","0","","","","","","300","5300","306","5377","300","","","","","","","","","","","","","","","","","","","","","","","","","","","","","","","","","","","","","","","","","","","","","","","","","","","",""
"","practice_over","","html-keyboard-response","72","392735","0.0-2.0-7.0-2.0-0.0","34","22705","male","5753","","","","68","","","","","","","","","","","","","","","","","","","","","","","","","","","","","","","","","","","","","","","","","","","","","","","","","","","","","","","","","","","","","","","","","","","",""
"","start_run","","html-keyboard-response","73","394927","0.0-2.0-7.0-2.0-1.0","34","22705","male","2187","","","","84","","","","","","","","","","","","","","","","","","","","","","","","","","","","","","","","","","","","","","","","","","","","","","","","","","","","","","","","","","","","","","","","","","","",""
"","localizer","","html-keyboard-response","74","395332","0.0-2.0-8.0-0.0","34","22705","male","NaN","","","","null","NaN","6","","Stimuli/Experimental_stims/localizer/body_parts/igordoon-primus-CdyHqfrbGIs-unsplash.jpg","394927","1","body_parts","","0","1","0","400","0","405","0","","","","","","","","","","","","","","","","","","","","","","","","","","","","","","","","","","","","","","","","","","","","","","","","","","","","",""
"","iti_localizer","","html-keyboard-response","75","395637","0.0-2.0-8.0-1.0","34","22705","male","null","","","","null","","6","","","395332","1","","","","","","300","400","305","405","300","","","","","","","","","","","","","","","","","","","","","","","","","","","","","","","","","","","","","","","","","","","","","","","","","","","",""
"","localizer","","html-keyboard-response","76","396042","0.0-2.0-9.0-0.0","34","22705","male","53","","","","68","0","7","","Stimuli/Experimental_stims/localizer/body_parts/jonathan-borba-hTwH8QFkPMs-unsplash.jpg","395637","1","body_parts","","0","0","1","400","700","405","710","","","","","","","","","","","","","","","","","","","","","","","","","","","","","","","","","","","","","","","","","","","","","","","","","","","","",""
"","iti_localizer","","html-keyboard-response","77","396347","0.0-2.0-9.0-1.0","34","22705","male","null","","","","null","","7","","","396042","1","","","","","","300","1100","305","1115","300","","","","","","","","","","","","","","","","","","","","","","","","","","","","","","","","","","","","","","","","","","","","","","","","","","","",""
"","localizer","","html-keyboard-response","78","396752","0.0-2.0-10.0-0.0","34","22705","male","1","","","","68","0","8","","Stimuli/Experimental_stims/localizer/body_parts/marcel-fagin-OUYg0Q3ec-Y-unsplash.jpg","396347","1","body_parts","","1","0","0","400","1400","405","1420","","","","","","","","","","","","","","","","","","","","","","","","","","","","","","","","","","","","","","","","","","","","","","","","","","","","",""
"","iti_localizer","","html-keyboard-response","79","397057","0.0-2.0-10.0-1.0","34","22705","male","null","","","","null","","8","","","396752","1","","","","","","300","1800","305","1825","300","","","","","","","","","","","","","","","","","","","","","","","","","","","","","","","","","","","","","","","","","","","","","","","","","","","",""
"","localizer","","html-keyboard-response","80","397462","0.0-2.0-11.0-0.0","34","22705","male","26","","","","68","0","9","","Stimuli/Experimental_stims/localizer/body_parts/anelya-okapova-V69kmOyZ3SU-unsplash.jpg","397057","1","body_parts","","0","0","1","400","2100","405","2130","","","","","","","","","","","","","","","","","","","","","","","","","","","","","","","","","","","","","","","","","","","","","","","","","","","","",""
"","iti_localizer","","html-keyboard-response","81","397767","0.0-2.0-11.0-1.0","34","22705","male","null","","","","null","","9","","","397462","1","","","","","","300","2500","305","2535","300","","","","","","","","","","","","","","","","","","","","","","","","","","","","","","","","","","","","","","","","","","","","","","","","","","","",""
"","localizer","","html-keyboard-response","82","398171","0.0-2.0-12.0-0.0","34","22705","male","67","","","","68","0","10","","Stimuli/Experimental_stims/localizer/body_parts/jan-romero-DL4DDQb8yjc-unsplash.jpg","397767","1","body_parts","","0","0","1","400","2800","404","2840","","","","","","","","","","","","","","","","","","","","","","","","","","","","","","","","","","","","","","","","","","","","","","","","","","","","",""
"","iti_localizer","","html-keyboard-response","83","398476","0.0-2.0-12.0-1.0","34","22705","male","null","","","","null","","10","","","398171","1","","","","","","300","3200","305","3244","300","","","","","","","","","","","","","","","","","","","","","","","","","","","","","","","","","","","","","","","","","","","","","","","","","","","",""
"","localizer","","html-keyboard-response","84","398882","0.0-2.0-13.0-0.0","34","22705","male","62","","","","68","0","11","","Stimuli/Experimental_stims/localizer/body_parts/pure-julia-9lVaya31sMk-unsplash.jpg","398476","1","body_parts","","0","0","1","400","3500","406","3549","","","","","","","","","","","","","","","","","","","","","","","","","","","","","","","","","","","","","","","","","","","","","","","","","","","","",""
"","iti_localizer","","html-keyboard-response","85","399186","0.0-2.0-13.0-1.0","34","22705","male","null","","","","null","","11","","","398882","1","","","","","","300","3900","304","3955","300","","","","","","","","","","","","","","","","","","","","","","","","","","","","","","","","","","","","","","","","","","","","","","","","","","","",""
"","localizer","","html-keyboard-response","86","399591","0.0-2.0-14.0-0.0","34","22705","male","24","","","","75","1","12","","Stimuli/Experimental_stims/localizer/body_parts/jasper-garratt-Ng_Kl7K6V8Y-unsplash.jpg","399186","1","body_parts","","0","0","0","400","4200","405","4259","","","","","","","","","","","","","","","","","","","","","","","","","","","","","","","","","","","","","","","","","","","","","","","","","","","","",""
"","iti_localizer","","html-keyboard-response","87","399896","0.0-2.0-14.0-1.0","34","22705","male","null","","","","null","","12","","","399591","1","","","","","","300","4600","305","4664","300","","","","","","","","","","","","","","","","","","","","","","","","","","","","","","","","","","","","","","","","","","","","","","","","","","","",""
"","localizer","","html-keyboard-response","88","400301","0.0-2.0-15.0-0.0","34","22705","male","50","","","","68","0","13","","Stimuli/Experimental_stims/localizer/body_parts/i-am_nah--S4OsO0c6Ts-unsplash.jpg","399896","1","body_parts","","0","0","1","400","4900","405","4969","","","","","","","","","","","","","","","","","","","","","","","","","","","","","","","","","","","","","","","","","","","","","","","","","","","","",""
"","iti_localizer","","html-keyboard-response","89","400605","0.0-2.0-15.0-1.0","34","22705","male","null","","","","null","","13","","","400301","1","","","","","","300","5300","304","5374","300","","","","","","","","","","","","","","","","","","","","","","","","","","","","","","","","","","","","","","","","","","","","","","","","","","","",""
"","localizer","","html-keyboard-response","90","401010","0.0-2.0-16.0-0.0","34","22705","male","1","","","","75","1","14","","Stimuli/Experimental_stims/localizer/body_parts/femme-spirit-RGYBDUHYbyM-unsplash.jpg","400605","1","body_parts","","0","0","0","400","5600","405","5678","","","","","","","","","","","","","","","","","","","","","","","","","","","","","","","","","","","","","","","","","","","","","","","","","","","","",""
"","iti_localizer","","html-keyboard-response","91","401315","0.0-2.0-16.0-1.0","34","22705","male","null","","","","null","","14","","","401010","1","","","","","","300","6000","305","6083","300","","","","","","","","","","","","","","","","","","","","","","","","","","","","","","","","","","","","","","","","","","","","","","","","","","","",""
"","localizer","","html-keyboard-response","92","401721","0.0-2.0-17.0-0.0","34","22705","male","7","","","","75","1","15","","Stimuli/Experimental_stims/localizer/body_parts/liv-bruce-M0oVPGsWk1E-unsplash.jpg","401315","1","body_parts","","0","0","0","400","6300","406","6388","","","","","","","","","","","","","","","","","","","","","","","","","","","","","","","","","","","","","","","","","","","","","","","","","","","","",""
"","iti_localizer","","html-keyboard-response","93","402026","0.0-2.0-17.0-1.0","34","22705","male","null","","","","null","","15","","","401721","1","","","","","","300","6700","305","6794","300","","","","","","","","","","","","","","","","","","","","","","","","","","","","","","","","","","","","","","","","","","","","","","","","","","","",""
"","localizer","","html-keyboard-response","94","402431","0.0-2.0-18.0-0.0","34","22705","male","144","","","","68","0","16","","Stimuli/Experimental_stims/localizer/body_parts/bady-abbas-N-VEeMnm7gE-unsplash.jpg","402026","1","body_parts","","0","0","1","400","7000","405","7099","","","","","","","","","","","","","","","","","","","","","","","","","","","","","","","","","","","","","","","","","","","","","","","","","","","","",""
"","iti_localizer","","html-keyboard-response","95","402736","0.0-2.0-18.0-1.0","34","22705","male","null","","","","null","","16","","","402431","1","","","","","","300","7400","305","7504","300","","","","","","","","","","","","","","","","","","","","","","","","","","","","","","","","","","","","","","","","","","","","","","","","","","","",""
"","localizer","","html-keyboard-response","96","403141","0.0-2.0-19.0-0.0","34","22705","male","171","","","","68","0","17","","Stimuli/Experimental_stims/localizer/body_parts/lucaxx-freire-CacZwMexYdk-unsplash.jpg","402736","1","body_parts","","0","0","1","400","7700","405","7809","","","","","","","","","","","","","","","","","","","","","","","","","","","","","","","","","","","","","","","","","","","","","","","","","","","","",""
"","iti_localizer","","html-keyboard-response","97","403455","0.0-2.0-19.0-1.0","34","22705","male","null","","","","null","","17","","","403141","1","","","","","","300","8100","314","8214","300","","","","","","","","","","","","","","","","","","","","","","","","","","","","","","","","","","","","","","","","","","","","","","","","","","","",""
"","localizer","","html-keyboard-response","98","403861","0.0-2.0-20.0-0.0","34","22705","male","11","","","","68","0","18","","Stimuli/Experimental_stims/localizer/body_parts/hu-chen-tCbTGNwrFNM-unsplash.jpg","403455","1","body_parts","","0","0","1","400","8400","406","8528","","","","","","","","","","","","","","","","","","","","","","","","","","","","","","","","","","","","","","","","","","","","","","","","","","","","",""
"","iti_localizer","","html-keyboard-response","99","404165","0.0-2.0-20.0-1.0","34","22705","male","null","","","","null","","18","","","403861","1","","","","","","300","8800","304","8934","300","","","","","","","","","","","","","","","","","","","","","","","","","","","","","","","","","","","","","","","","","","","","","","","","","","","",""
"","localizer","","html-keyboard-response","100","404570","0.0-2.0-21.0-0.0","34","22705","male","69","","","","68","0","19","","Stimuli/Experimental_stims/localizer/body_parts/megan-menegay-UojxG_BJxnI-unsplash.jpg","404165","1","body_parts","","0","0","1","400","9100","405","9238","","","","","","","","","","","","","","","","","","","","","","","","","","","","","","","","","","","","","","","","","","","","","","","","","","","","",""
"","iti_localizer","","html-keyboard-response","101","404875","0.0-2.0-21.0-1.0","34","22705","male","null","","","","null","","19","","","404570","1","","","","","","300","9500","305","9643","300","","","","","","","","","","","","","","","","","","","","","","","","","","","","","","","","","","","","","","","","","","","","","","","","","","","",""
"","localizer","","html-keyboard-response","102","405280","0.0-2.0-22.0-0.0","34","22705","male","95","","","","68","0","20","","Stimuli/Experimental_stims/localizer/body_parts/toan-nguyen-VIeLuUFzesg-unsplash.jpg","404875","1","body_parts","","1","0","0","400","9800","405","9948","","","","","","","","","","","","","","","","","","","","","","","","","","","","","","","","","","","","","","","","","","","","","","","","","","","","",""
"","iti_localizer","","html-keyboard-response","103","405584","0.0-2.0-22.0-1.0","34","22705","male","null","","","","null","","20","","","405280","1","","","","","","300","10200","304","10353","300","","","","","","","","","","","","","","","","","","","","","","","","","","","","","","","","","","","","","","","","","","","","","","","","","","","",""
"","localizer","","html-keyboard-response","104","405989","0.0-2.0-23.0-0.0","34","22705","male","154","","","","68","0","21","","Stimuli/Experimental_stims/localizer/body_parts/sippakorn-yamkasikorn-32_sJlJa5gA-unsplash.jpg","405584","1","body_parts","","0","0","1","400","10500","405","10657","","","","","","","","","","","","","","","","","","","","","","","","","","","","","","","","","","","","","","","","","","","","","","","","","","","","",""
"","iti_localizer","","html-keyboard-response","105","406294","0.0-2.0-23.0-1.0","34","22705","male","null","","","","null","","21","","","405989","1","","","","","","300","10900","305","11062","300","","","","","","","","","","","","","","","","","","","","","","","","","","","","","","","","","","","","","","","","","","","","","","","","","","","",""
"","localizer","","html-keyboard-response","106","406699","0.0-2.0-24.0-0.0","34","22705","male","4","","","","68","0","22","","Stimuli/Experimental_stims/localizer/body_parts/louis-hansel-FjKTMRTQYAs-unsplash.jpg","406294","1","body_parts","","0","0","1","400","11200","405","11367","","","","","","","","","","","","","","","","","","","","","","","","","","","","","","","","","","","","","","","","","","","","","","","","","","","","",""
"","iti_localizer","","html-keyboard-response","107","407005","0.0-2.0-24.0-1.0","34","22705","male","null","","","","null","","22","","","406699","1","","","","","","300","11600","306","11772","300","","","","","","","","","","","","","","","","","","","","","","","","","","","","","","","","","","","","","","","","","","","","","","","","","","","",""
"","localizer","","html-keyboard-response","108","407411","0.0-2.0-25.0-0.0","34","22705","male","46","","","","68","0","23","","Stimuli/Experimental_stims/localizer/body_parts/sydney-herron-b2W04fGuS70-unsplash.jpg","407005","1","body_parts","","0","0","1","400","11900","406","12078","","","","","","","","","","","","","","","","","","","","","","","","","","","","","","","","","","","","","","","","","","","","","","","","","","","","",""
"","iti_localizer","","html-keyboard-response","109","407716","0.0-2.0-25.0-1.0","34","22705","male","null","","","","null","","23","","","407411","1","","","","","","300","12300","305","12484","300","","","","","","","","","","","","","","","","","","","","","","","","","","","","","","","","","","","","","","","","","","","","","","","","","","","",""
"","localizer","","html-keyboard-response","110","408121","0.0-2.0-26.0-0.0","34","22705","male","86","","","","68","0","24","","Stimuli/Experimental_stims/localizer/body_parts/danie-franco-jyyNiSEcCl4-unsplash.jpg","407716","1","body_parts","","0","0","1","400","12600","405","12789","","","","","","","","","","","","","","","","","","","","","","","","","","","","","","","","","","","","","","","","","","","","","","","","","","","","",""
"","iti_localizer","","html-keyboard-response","111","408426","0.0-2.0-26.0-1.0","34","22705","male","null","","","","null","","24","","","408121","1","","","","","","300","13000","305","13194","300","","","","","","","","","","","","","","","","","","","","","","","","","","","","","","","","","","","","","","","","","","","","","","","","","","","",""
"","localizer","","html-keyboard-response","112","408831","0.0-2.0-27.0-0.0","34","22705","male","144","","","","68","0","25","","Stimuli/Experimental_stims/localizer/body_parts/ramesh-iyer-CRhznMXoJlc-unsplash.jpg","408426","1","body_parts","","0","0","1","400","13300","405","13499","","","","","","","","","","","","","","","","","","","","","","","","","","","","","","","","","","","","","","","","","","","","","","","","","","","","",""
"","iti_localizer","","html-keyboard-response","113","422836","0.0-2.0-27.0-1.0","34","22705","male","null","","","","null","","25","","","408831","1","","","","","","14000","13700","14005","13904","14000","","","","","","","","","","","","","","","","","","","","","","","","","","","","","","","","","","","","","","","","","","","","","","","","","","","",""
"","localizer","","html-keyboard-response","114","423242","0.0-2.0-28.0-0.0","34","22705","male","NaN","","","","null","NaN","26","","Stimuli/Experimental_stims/localizer/objects/adriano-pucciarelli-BE7yaZnZX6o-unsplash.jpg","422836","1","objects","","0","1","0","400","27700","406","27909","","","","","","","","","","","","","","","","","","","","","","","","","","","","","","","","","","","","","","","","","","","","","","","","","","","","",""
"","iti_localizer","","html-keyboard-response","115","423547","0.0-2.0-28.0-1.0","34","22705","male","null","","","","null","","26","","","423242","1","","","","","","300","28100","305","28315","300","","","","","","","","","","","","","","","","","","","","","","","","","","","","","","","","","","","","","","","","","","","","","","","","","","","",""
"","localizer","","html-keyboard-response","116","423961","0.0-2.0-29.0-0.0","34","22705","male","95","","","","68","0","27","","Stimuli/Experimental_stims/localizer/objects/petr-sidorov-3jm5TGqtULU-unsplash.jpg","423547","1","objects","","0","0","1","400","28400","414","28620","","","","","","","","","","","","","","","","","","","","","","","","","","","","","","","","","","","","","","","","","","","","","","","","","","","","",""
"","iti_localizer","","html-keyboard-response","117","424266","0.0-2.0-29.0-1.0","34","22705","male","null","","","","null","","27","","","423961","1","","","","","","300","28800","305","29034","300","","","","","","","","","","","","","","","","","","","","","","","","","","","","","","","","","","","","","","","","","","","","","","","","","","","",""
"","localizer","","html-keyboard-response","118","424671","0.0-2.0-30.0-0.0","34","22705","male","96","","","","68","0","28","","Stimuli/Experimental_stims/localizer/objects/carlos-felipe-ramirez-mesa-HW7bfB3ERSQ-unsplash.jpg","424266","1","objects","","0","0","1","400","29100","405","29339","","","","","","","","","","","","","","","","","","","","","","","","","","","","","","","","","","","","","","","","","","","","","","","","","","","","",""
"","iti_localizer","","html-keyboard-response","119","424975","0.0-2.0-30.0-1.0","34","22705","male","null","","","","null","","28","","","424671","1","","","","","","300","29500","304","29744","300","","","","","","","","","","","","","","","","","","","","","","","","","","","","","","","","","","","","","","","","","","","","","","","","","","","",""
"","localizer","","html-keyboard-response","120","425381","0.0-2.0-31.0-0.0","34","22705","male","91","","","","68","0","29","","Stimuli/Experimental_stims/localizer/objects/raimond-klavins-ZdvDPXVvcKs-unsplash.jpg","424975","1","objects","","1","0","0","400","29800","406","30048","","","","","","","","","","","","","","","","","","","","","","","","","","","","","","","","","","","","","","","","","","","","","","","","","","","","",""
"","iti_localizer","","html-keyboard-response","121","425686","0.0-2.0-31.0-1.0","34","22705","male","null","","","","null","","29","","","425381","1","","","","","","300","30200","305","30454","300","","","","","","","","","","","","","","","","","","","","","","","","","","","","","","","","","","","","","","","","","","","","","","","","","","","",""
"","localizer","","html-keyboard-response","122","426091","0.0-2.0-32.0-0.0","34","22705","male","68","","","","75","1","30","","Stimuli/Experimental_stims/localizer/objects/adriano-pucciarelli-Jl3S1yM8gi8-unsplash.jpg","425686","1","objects","","0","0","0","400","30500","405","30759","","","","","","","","","","","","","","","","","","","","","","","","","","","","","","","","","","","","","","","","","","","","","","","","","","","","",""
"","iti_localizer","","html-keyboard-response","123","426396","0.0-2.0-32.0-1.0","34","22705","male","null","","","","null","","30","","","426091","1","","","","","","300","30900","305","31164","300","","","","","","","","","","","","","","","","","","","","","","","","","","","","","","","","","","","","","","","","","","","","","","","","","","","",""
"","localizer","","html-keyboard-response","124","426802","0.0-2.0-33.0-0.0","34","22705","male","126","","","","75","1","31","","Stimuli/Experimental_stims/localizer/objects/engin-akyurt-bbbKzTmY2Gg-unsplash.jpg","426396","1","objects","","0","0","0","400","31200","406","31469","","","","","","","","","","","","","","","","","","","","","","","","","","","","","","","","","","","","","","","","","","","","","","","","","","","","",""
"","iti_localizer","","html-keyboard-response","125","427106","0.0-2.0-33.0-1.0","34","22705","male","null","","","","null","","31","","","426802","1","","","","","","300","31600","304","31875","300","","","","","","","","","","","","","","","","","","","","","","","","","","","","","","","","","","","","","","","","","","","","","","","","","","","",""
"","localizer","","html-keyboard-response","126","427511","0.0-2.0-34.0-0.0","34","22705","male","8","","","","68","0","32","","Stimuli/Experimental_stims/localizer/objects/sam-moghadam-khamseh-kvmdsTrGOBM-unsplash.jpg","427106","1","objects","","0","0","1","400","31900","405","32179","","","","","","","","","","","","","","","","","","","","","","","","","","","","","","","","","","","","","","","","","","","","","","","","","","","","",""
"","iti_localizer","","html-keyboard-response","127","427816","0.0-2.0-34.0-1.0","34","22705","male","null","","","","null","","32","","","427511","1","","","","","","300","32300","305","32584","300","","","","","","","","","","","","","","","","","","","","","","","","","","","","","","","","","","","","","","","","","","","","","","","","","","","",""
"","localizer","","html-keyboard-response","128","428221","0.0-2.0-35.0-0.0","34","22705","male","18","","","","68","0","33","","Stimuli/Experimental_stims/localizer/objects/jiangxulei1990-eIzzzwtkBjU-unsplash.jpg","427816","1","objects","","0","0","1","400","32600","405","32889","","","","","","","","","","","","","","","","","","","","","","","","","","","","","","","","","","","","","","","","","","","","","","","","","","","","",""
"","iti_localizer","","html-keyboard-response","129","428526","0.0-2.0-35.0-1.0","34","22705","male","null","","","","null","","33","","","428221","1","","","","","","300","33000","305","33294","300","","","","","","","","","","","","","","","","","","","","","","","","","","","","","","","","","","","","","","","","","","","","","","","","","","","",""
"","localizer","","html-keyboard-response","130","428932","0.0-2.0-36.0-0.0","34","22705","male","188","","","","75","1","34","","Stimuli/Experimental_stims/localizer/objects/florian-klauer-nptLmg6jqDo-unsplash.jpg","428526","1","objects","","0","0","0","400","33300","406","33599","","","","","","","","","","","","","","","","","","","","","","","","","","","","","","","","","","","","","","","","","","","","","","","","","","","","",""
"","iti_localizer","","html-keyboard-response","131","429237","0.0-2.0-36.0-1.0","34","22705","male","null","","","","null","","34","","","428932","1","","","","","","300","33700","305","34005","300","","","","","","","","","","","","","","","","","","","","","","","","","","","","","","","","","","","","","","","","","","","","","","","","","","","",""
"","localizer","","html-keyboard-response","132","429642","0.0-2.0-37.0-0.0","34","22705","male","21","","","","68","0","35","","Stimuli/Experimental_stims/localizer/objects/ignat-dolomanov-kFBDVnmskPA-unsplash.jpg","429237","1","objects","","0","0","1","400","34000","405","34310","","","","","","","","","","","","","","","","","","","","","","","","","","","","","","","","","","","","","","","","","","","","","","","","","","","","",""
"","iti_localizer","","html-keyboard-response","133","429947","0.0-2.0-37.0-1.0","34","22705","male","null","","","","null","","35","","","429642","1","","","","","","300","34400","305","34715","300","","","","","","","","","","","","","","","","","","","","","","","","","","","","","","","","","","","","","","","","","","","","","","","","","","","",""
"","localizer","","html-keyboard-response","134","430352","0.0-2.0-38.0-0.0","34","22705","male","0","","","","75","1","36","","Stimuli/Experimental_stims/localizer/objects/andrew-petrov-TVJqDat4MAw-unsplash.jpg","429947","1","objects","","0","0","0","400","34700","405","35020","","","","","","","","","","","","","","","","","","","","","","","","","","","","","","","","","","","","","","","","","","","","","","","","","","","","",""
"","iti_localizer","","html-keyboard-response","135","430657","0.0-2.0-38.0-1.0","34","22705","male","null","","","","null","","36","","","430352","1","","","","","","300","35100","305","35425","300","","","","","","","","","","","","","","","","","","","","","","","","","","","","","","","","","","","","","","","","","","","","","","","","","","","",""
"","localizer","","html-keyboard-response","136","431062","0.0-2.0-39.0-0.0","34","22705","male","26","","","","75","1","37","","Stimuli/Experimental_stims/localizer/objects/sam-moghadam-khamseh-L_7MQsHl_aU-unsplash.jpg","430657","1","objects","","0","0","0","400","35400","405","35730","","","","","","","","","","","","","","","","","","","","","","","","","","","","","","","","","","","","","","","","","","","","","","","","","","","","",""
"","iti_localizer","","html-keyboard-response","137","431366","0.0-2.0-39.0-1.0","34","22705","male","null","","","","null","","37","","","431062","1","","","","","","300","35800","304","36135","300","","","","","","","","","","","","","","","","","","","","","","","","","","","","","","","","","","","","","","","","","","","","","","","","","","","",""
"","localizer","","html-keyboard-response","138","431771","0.0-2.0-40.0-0.0","34","22705","male","100","","","","75","1","38","","Stimuli/Experimental_stims/localizer/objects/ana-9GmAaEMMKho-unsplash.jpg","431366","1","objects","","0","0","0","400","36100","405","36439","","","","","","","","","","","","","","","","","","","","","","","","","","","","","","","","","","","","","","","","","","","","","","","","","","","","",""
"","iti_localizer","","html-keyboard-response","139","432076","0.0-2.0-40.0-1.0","34","22705","male","null","","","","null","","38","","","431771","1","","","","","","300","36500","305","36844","300","","","","","","","","","","","","","","","","","","","","","","","","","","","","","","","","","","","","","","","","","","","","","","","","","","","",""
"","localizer","","html-keyboard-response","140","432482","0.0-2.0-41.0-0.0","34","22705","male","46","","","","68","0","39","","Stimuli/Experimental_stims/localizer/objects/mockup-graphics-U6ZMEefFGx8-unsplash.jpg","432076","1","objects","","0","0","1","400","36800","406","37149","","","","","","","","","","","","","","","","","","","","","","","","","","","","","","","","","","","","","","","","","","","","","","","","","","","","",""
"","iti_localizer","","html-keyboard-response","141","432787","0.0-2.0-41.0-1.0","34","22705","male","null","","","","null","","39","","","432482","1","","","","","","300","37200","305","37555","300","","","","","","","","","","","","","","","","","","","","","","","","","","","","","","","","","","","","","","","","","","","","","","","","","","","",""
"","localizer","","html-keyboard-response","142","433192","0.0-2.0-42.0-0.0","34","22705","male","7","","","","75","1","40","","Stimuli/Experimental_stims/localizer/objects/kelly-jean-cKjbI0Y00X0-unsplash.jpg","432787","1","objects","","0","0","0","400","37500","405","37860","","","","","","","","","","","","","","","","","","","","","","","","","","","","","","","","","","","","","","","","","","","","","","","","","","","","",""
"","iti_localizer","","html-keyboard-response","143","433498","0.0-2.0-42.0-1.0","34","22705","male","null","","","","null","","40","","","433192","1","","","","","","300","37900","306","38265","300","","","","","","","","","","","","","","","","","","","","","","","","","","","","","","","","","","","","","","","","","","","","","","","","","","","",""
"","localizer","","html-keyboard-response","144","433902","0.0-2.0-43.0-0.0","34","22705","male","111","","","","75","1","41","","Stimuli/Experimental_stims/localizer/objects/eugene-chystiakov-3neSwyntbQ8-unsplash.jpg","433498","1","objects","","0","0","0","400","38200","404","38571","","","","","","","","","","","","","","","","","","","","","","","","","","","","","","","","","","","","","","","","","","","","","","","","","","","","",""
"","iti_localizer","","html-keyboard-response","145","434207","0.0-2.0-43.0-1.0","34","22705","male","null","","","","null","","41","","","433902","1","","","","","","300","38600","305","38975","300","","","","","","","","","","","","","","","","","","","","","","","","","","","","","","","","","","","","","","","","","","","","","","","","","","","",""
"","localizer","","html-keyboard-response","146","434612","0.0-2.0-44.0-0.0","34","22705","male","74","","","","68","0","42","","Stimuli/Experimental_stims/localizer/objects/lance-reis-v0FYj9iioQg-unsplash.jpg","434207","1","objects","","0","0","1","400","38900","405","39280","","","","","","","","","","","","","","","","","","","","","","","","","","","","","","","","","","","","","","","","","","","","","","","","","","","","",""
"","iti_localizer","","html-keyboard-response","147","434918","0.0-2.0-44.0-1.0","34","22705","male","null","","","","null","","42","","","434612","1","","","","","","300","39300","306","39685","300","","","","","","","","","","","","","","","","","","","","","","","","","","","","","","","","","","","","","","","","","","","","","","","","","","","",""
"","localizer","","html-keyboard-response","148","435322","0.0-2.0-45.0-0.0","34","22705","male","100","","","","75","1","43","","Stimuli/Experimental_stims/localizer/objects/annie-spratt-fbAnIjhrOL4-unsplash.jpg","434918","1","objects","","0","0","0","400","39600","404","39991","","","","","","","","","","","","","","","","","","","","","","","","","","","","","","","","","","","","","","","","","","","","","","","","","","","","",""
"","iti_localizer","","html-keyboard-response","149","435627","0.0-2.0-45.0-1.0","34","22705","male","null","","","","null","","43","","","435322","1","","","","","","300","40000","305","40395","300","","","","","","","","","","","","","","","","","","","","","","","","","","","","","","","","","","","","","","","","","","","","","","","","","","","",""
"","localizer","","html-keyboard-response","150","436032","0.0-2.0-46.0-0.0","34","22705","male","62","","","","68","0","44","","Stimuli/Experimental_stims/localizer/objects/mockup-graphics-Pj2PY-E-LfM-unsplash.jpg","435627","1","objects","","1","0","0","400","40300","405","40700","","","","","","","","","","","","","","","","","","","","","","","","","","","","","","","","","","","","","","","","","","","","","","","","","","","","",""
"","iti_localizer","","html-keyboard-response","151","436337","0.0-2.0-46.0-1.0","34","22705","male","null","","","","null","","44","","","436032","1","","","","","","300","40700","305","41105","300","","","","","","","","","","","","","","","","","","","","","","","","","","","","","","","","","","","","","","","","","","","","","","","","","","","",""
"","localizer","","html-keyboard-response","152","436743","0.0-2.0-47.0-0.0","34","22705","male","88","","","","75","1","45","","Stimuli/Experimental_stims/localizer/objects/dario-mendez-hnJ2VNZzbns-unsplash.jpg","436337","1","objects","","0","0","0","400","41000","406","41410","","","","","","","","","","","","","","","","","","","","","","","","","","","","","","","","","","","","","","","","","","","","","","","","","","","","",""
"","iti_localizer","","html-keyboard-response","153","450747","0.0-2.0-47.0-1.0","34","22705","male","null","","","","null","","45","","","436743","1","","","","","","14000","41400","14004","41816","14000","","","","","","","","","","","","","","","","","","","","","","","","","","","","","","","","","","","","","","","","","","","","","","","","","","","",""
"","localizer","","html-keyboard-response","154","451153","0.0-2.0-48.0-0.0","34","22705","male","174","","","","75","1","46","","Stimuli/Experimental_stims/localizer/faces/christian-ferrer-8vT-DgHZDG4-unsplash.jpg","450747","1","faces","","1","0","1","400","55400","406","55820","","","","","","","","","","","","","","","","","","","","","","","","","","","","","","","","","","","","","","","","","","","","","","","","","","","","",""
"","iti_localizer","","html-keyboard-response","155","451457","0.0-2.0-48.0-1.0","34","22705","male","null","","","","null","","46","","","451153","1","","","","","","300","55800","304","56226","300","","","","","","","","","","","","","","","","","","","","","","","","","","","","","","","","","","","","","","","","","","","","","","","","","","","",""
"","localizer","","html-keyboard-response","156","451862","0.0-2.0-49.0-0.0","34","22705","male","136","","","","75","1","47","","Stimuli/Experimental_stims/localizer/faces/mathias-huysmans-U4JDjYmjn1g-unsplash.jpg","451457","1","faces","","0","0","0","400","56100","405","56530","","","","","","","","","","","","","","","","","","","","","","","","","","","","","","","","","","","","","","","","","","","","","","","","","","","","",""
"","iti_localizer","","html-keyboard-response","157","452167","0.0-2.0-49.0-1.0","34","22705","male","null","","","","null","","47","","","451862","1","","","","","","300","56500","305","56935","300","","","","","","","","","","","","","","","","","","","","","","","","","","","","","","","","","","","","","","","","","","","","","","","","","","","",""
"","localizer","","html-keyboard-response","158","452572","0.0-2.0-50.0-0.0","34","22705","male","114","","","","75","1","48","","Stimuli/Experimental_stims/localizer/faces/filipe-almeida-mnEWC72eWDM-unsplash.jpg","452167","1","faces","","0","0","0","400","56800","405","57240","","","","","","","","","","","","","","","","","","","","","","","","","","","","","","","","","","","","","","","","","","","","","","","","","","","","",""
"","iti_localizer","","html-keyboard-response","159","452876","0.0-2.0-50.0-1.0","34","22705","male","null","","","","null","","48","","","452572","1","","","","","","300","57200","304","57645","300","","","","","","","","","","","","","","","","","","","","","","","","","","","","","","","","","","","","","","","","","","","","","","","","","","","",""
"","localizer","","html-keyboard-response","160","453281","0.0-2.0-51.0-0.0","34","22705","male","77","","","","75","1","49","","Stimuli/Experimental_stims/localizer/faces/midas-hofstra-tidSLv-UaNs-unsplash.jpg","452876","1","faces","","0","0","0","400","57500","405","57949","","","","","","","","","","","","","","","","","","","","","","","","","","","","","","","","","","","","","","","","","","","","","","","","","","","","",""
"","iti_localizer","","html-keyboard-response","161","453586","0.0-2.0-51.0-1.0","34","22705","male","null","","","","null","","49","","","453281","1","","","","","","300","57900","305","58354","300","","","","","","","","","","","","","","","","","","","","","","","","","","","","","","","","","","","","","","","","","","","","","","","","","","","",""
"","localizer","","html-keyboard-response","162","453992","0.0-2.0-52.0-0.0","34","22705","male","103","","","","68","0","50","","Stimuli/Experimental_stims/localizer/faces/darshan-patel-QJEVpydulGs-unsplash.jpg","453586","1","faces","","0","0","1","400","58200","406","58659","","","","","","","","","","","","","","","","","","","","","","","","","","","","","","","","","","","","","","","","","","","","","","","","","","","","",""
"","iti_localizer","","html-keyboard-response","163","454296","0.0-2.0-52.0-1.0","34","22705","male","null","","","","null","","50","","","453992","1","","","","","","300","58600","304","59065","300","","","","","","","","","","","","","","","","","","","","","","","","","","","","","","","","","","","","","","","","","","","","","","","","","","","",""
"","localizer","","html-keyboard-response","164","454702","0.0-2.0-53.0-0.0","34","22705","male","113","","","","68","0","51","","Stimuli/Experimental_stims/localizer/faces/ivan-dodig-R21SyyJDFgc-unsplash.jpg","454296","1","faces","","0","0","1","400","58900","406","59369","","","","","","","","","","","","","","","","","","","","","","","","","","","","","","","","","","","","","","","","","","","","","","","","","","","","",""
"","iti_localizer","","html-keyboard-response","165","455007","0.0-2.0-53.0-1.0","34","22705","male","null","","","","null","","51","","","454702","1","","","","","","300","59300","305","59775","300","","","","","","","","","","","","","","","","","","","","","","","","","","","","","","","","","","","","","","","","","","","","","","","","","","","",""
"","localizer","","html-keyboard-response","166","455412","0.0-2.0-54.0-0.0","34","22705","male","59","","","","68","0","52","","Stimuli/Experimental_stims/localizer/faces/austin-wade-X6Uj51n5CE8-unsplash.jpg","455007","1","faces","","0","0","1","400","59600","405","60080","","","","","","","","","","","","","","","","","","","","","","","","","","","","","","","","","","","","","","","","","","","","","","","","","","","","",""
"","iti_localizer","","html-keyboard-response","167","455717","0.0-2.0-54.0-1.0","34","22705","male","null","","","","null","","52","","","455412","1","","","","","","300","60000","305","60485","300","","","","","","","","","","","","","","","","","","","","","","","","","","","","","","","","","","","","","","","","","","","","","","","","","","","",""
"","localizer","","html-keyboard-response","168","456122","0.0-2.0-55.0-0.0","34","22705","male","20","","","","68","0","53","","Stimuli/Experimental_stims/localizer/faces/linkedin-sales-solutions-pAtA8xe_iVM-unsplash.jpg","455717","1","faces","","0","0","1","400","60300","405","60790","","","","","","","","","","","","","","","","","","","","","","","","","","","","","","","","","","","","","","","","","","","","","","","","","","","","",""
"","iti_localizer","","html-keyboard-response","169","456427","0.0-2.0-55.0-1.0","34","22705","male","null","","","","null","","53","","","456122","1","","","","","","300","60700","305","61195","300","","","","","","","","","","","","","","","","","","","","","","","","","","","","","","","","","","","","","","","","","","","","","","","","","","","",""
"","localizer","","html-keyboard-response","170","456832","0.0-2.0-56.0-0.0","34","22705","male","142","","","","68","0","54","","Stimuli/Experimental_stims/localizer/faces/pavel-anoshin-d0peGya6R5Y-unsplash.jpg","456427","1","faces","","0","0","1","400","61000","405","61500","","","","","","","","","","","","","","","","","","","","","","","","","","","","","","","","","","","","","","","","","","","","","","","","","","","","",""
"","iti_localizer","","html-keyboard-response","171","457136","0.0-2.0-56.0-1.0","34","22705","male","null","","","","null","","54","","","456832","1","","","","","","300","61400","304","61905","300","","","","","","","","","","","","","","","","","","","","","","","","","","","","","","","","","","","","","","","","","","","","","","","","","","","",""
"","localizer","","html-keyboard-response","172","457541","0.0-2.0-57.0-0.0","34","22705","male","NaN","","","","null","NaN","55","","Stimuli/Experimental_stims/localizer/faces/jeffery-erhunse-vp9mRauo68c-unsplash.jpg","457136","1","faces","","0","1","0","400","61700","405","62209","","","","","","","","","","","","","","","","","","","","","","","","","","","","","","","","","","","","","","","","","","","","","","","","","","","","",""
"","iti_localizer","","html-keyboard-response","173","457846","0.0-2.0-57.0-1.0","34","22705","male","null","","","","null","","55","","","457541","1","","","","","","300","62100","305","62614","300","","","","","","","","","","","","","","","","","","","","","","","","","","","","","","","","","","","","","","","","","","","","","","","","","","","",""
"","localizer","","html-keyboard-response","174","458251","0.0-2.0-58.0-0.0","34","22705","male","147","","","","68","0","56","","Stimuli/Experimental_stims/localizer/faces/aatik-tasneem-7omHUGhhmZ0-unsplash.jpg","457846","1","faces","","0","0","1","400","62400","405","62919","","","","","","","","","","","","","","","","","","","","","","","","","","","","","","","","","","","","","","","","","","","","","","","","","","","","",""
"","iti_localizer","","html-keyboard-response","175","458556","0.0-2.0-58.0-1.0","34","22705","male","null","","","","null","","56","","","458251","1","","","","","","300","62800","305","63324","300","","","","","","","","","","","","","","","","","","","","","","","","","","","","","","","","","","","","","","","","","","","","","","","","","","","",""
"","localizer","","html-keyboard-response","176","458962","0.0-2.0-59.0-0.0","34","22705","male","205","","","","68","0","57","","Stimuli/Experimental_stims/localizer/faces/abstral-official-cyOKLSgkgCE-unsplash.jpg","458556","1","faces","","0","0","1","400","63100","406","63629","","","","","","","","","","","","","","","","","","","","","","","","","","","","","","","","","","","","","","","","","","","","","","","","","","","","",""
"","iti_localizer","","html-keyboard-response","177","459267","0.0-2.0-59.0-1.0","34","22705","male","null","","","","null","","57","","","458962","1","","","","","","300","63500","305","64035","300","","","","","","","","","","","","","","","","","","","","","","","","","","","","","","","","","","","","","","","","","","","","","","","","","","","",""
"","localizer","","html-keyboard-response","178","459672","0.0-2.0-60.0-0.0","34","22705","male","214","","","","68","0","58","","Stimuli/Experimental_stims/localizer/faces/brooke-cagle-Nm70URdtf3c-unsplash (1).jpg","459267","1","faces","","0","0","1","400","63800","405","64340","","","","","","","","","","","","","","","","","","","","","","","","","","","","","","","","","","","","","","","","","","","","","","","","","","","","",""
"","iti_localizer","","html-keyboard-response","179","459977","0.0-2.0-60.0-1.0","34","22705","male","null","","","","null","","58","","","459672","1","","","","","","300","64200","305","64745","300","","","","","","","","","","","","","","","","","","","","","","","","","","","","","","","","","","","","","","","","","","","","","","","","","","","",""
"","localizer","","html-keyboard-response","180","460383","0.0-2.0-61.0-0.0","34","22705","male","208","","","","68","0","59","","Stimuli/Experimental_stims/localizer/faces/icons8-team-6LZuSzSwso0-unsplash.jpg","459977","1","faces","","0","0","1","400","64500","406","65050","","","","","","","","","","","","","","","","","","","","","","","","","","","","","","","","","","","","","","","","","","","","","","","","","","","","",""
"","iti_localizer","","html-keyboard-response","181","460688","0.0-2.0-61.0-1.0","34","22705","male","null","","","","null","","59","","","460383","1","","","","","","300","64900","305","65456","300","","","","","","","","","","","","","","","","","","","","","","","","","","","","","","","","","","","","","","","","","","","","","","","","","","","",""
"","localizer","","html-keyboard-response","182","461093","0.0-2.0-62.0-0.0","34","22705","male","9","","","","68","0","60","","Stimuli/Experimental_stims/localizer/faces/christina-wocintechchat-com-0Zx1bDv5BNY-unsplash.jpg","460688","1","faces","","0","0","1","400","65200","405","65761","","","","","","","","","","","","","","","","","","","","","","","","","","","","","","","","","","","","","","","","","","","","","","","","","","","","",""
"","iti_localizer","","html-keyboard-response","183","461398","0.0-2.0-62.0-1.0","34","22705","male","null","","","","null","","60","","","461093","1","","","","","","300","65600","305","66166","300","","","","","","","","","","","","","","","","","","","","","","","","","","","","","","","","","","","","","","","","","","","","","","","","","","","",""
"","localizer","","html-keyboard-response","184","461803","0.0-2.0-63.0-0.0","34","22705","male","83","","","","68","0","61","","Stimuli/Experimental_stims/localizer/faces/juan-encalada-WC7KIHo13Fc-unsplash.jpg","461398","1","faces","","0","0","1","400","65900","405","66471","","","","","","","","","","","","","","","","","","","","","","","","","","","","","","","","","","","","","","","","","","","","","","","","","","","","",""
"","iti_localizer","","html-keyboard-response","185","462108","0.0-2.0-63.0-1.0","34","22705","male","null","","","","null","","61","","","461803","1","","","","","","300","66300","305","66876","300","","","","","","","","","","","","","","","","","","","","","","","","","","","","","","","","","","","","","","","","","","","","","","","","","","","",""
"","localizer","","html-keyboard-response","186","462513","0.0-2.0-64.0-0.0","34","22705","male","141","","","","68","0","62","","Stimuli/Experimental_stims/localizer/faces/nick-karvounis-JyO_szjGvUw-unsplash.jpg","462108","1","faces","","0","0","1","400","66600","405","67181","","","","","","","","","","","","","","","","","","","","","","","","","","","","","","","","","","","","","","","","","","","","","","","","","","","","",""
"","iti_localizer","","html-keyboard-response","187","462818","0.0-2.0-64.0-1.0","34","22705","male","null","","","","null","","62","","","462513","1","","","","","","300","67000","305","67586","300","","","","","","","","","","","","","","","","","","","","","","","","","","","","","","","","","","","","","","","","","","","","","","","","","","","",""
"","localizer","","html-keyboard-response","188","463223","0.0-2.0-65.0-0.0","34","22705","male","215","","","","68","0","63","","Stimuli/Experimental_stims/localizer/faces/carlos-vaz-KP4bxnxAilU-unsplash.jpg","462818","1","faces","","0","0","1","400","67300","405","67891","","","","","","","","","","","","","","","","","","","","","","","","","","","","","","","","","","","","","","","","","","","","","","","","","","","","",""
"","iti_localizer","","html-keyboard-response","189","463529","0.0-2.0-65.0-1.0","34","22705","male","null","","","","null","","63","","","463223","1","","","","","","300","67700","306","68296","300","","","","","","","","","","","","","","","","","","","","","","","","","","","","","","","","","","","","","","","","","","","","","","","","","","","",""
"","localizer","","html-keyboard-response","190","463933","0.0-2.0-66.0-0.0","34","22705","male","0","","","","68","0","64","","Stimuli/Experimental_stims/localizer/faces/tyler-nix-ZGa9d1a_4tA-unsplash.jpg","463529","1","faces","","1","0","0","400","68000","404","68602","","","","","","","","","","","","","","","","","","","","","","","","","","","","","","","","","","","","","","","","","","","","","","","","","","","","",""
"","iti_localizer","","html-keyboard-response","191","464238","0.0-2.0-66.0-1.0","34","22705","male","null","","","","null","","64","","","463933","1","","","","","","300","68400","305","69006","300","","","","","","","","","","","","","","","","","","","","","","","","","","","","","","","","","","","","","","","","","","","","","","","","","","","",""
"","localizer","","html-keyboard-response","192","464644","0.0-2.0-67.0-0.0","34","22705","male","27","","","","68","0","65","","Stimuli/Experimental_stims/localizer/faces/samuel-dixon--fQ5XNOcqFQ-unsplash.jpg","464238","1","faces","","0","0","1","400","68700","406","69311","","","","","","","","","","","","","","","","","","","","","","","","","","","","","","","","","","","","","","","","","","","","","","","","","","","","",""
"","iti_localizer","","html-keyboard-response","193","478649","0.0-2.0-67.0-1.0","34","22705","male","null","","","","null","","65","","","464644","1","","","","","","14000","69100","14005","69717","14000","","","","","","","","","","","","","","","","","","","","","","","","","","","","","","","","","","","","","","","","","","","","","","","","","","","",""
"","localizer","","html-keyboard-response","194","479054","0.0-2.0-68.0-0.0","34","22705","male","NaN","","","","null","NaN","66","","Stimuli/Experimental_stims/localizer/body_parts/nihal-karkala-LlOfbQD-IJ0-unsplash.jpg","478649","1","body_parts","","1","1","0","400","83100","405","83722","","","","","","","","","","","","","","","","","","","","","","","","","","","","","","","","","","","","","","","","","","","","","","","","","","","","",""
"","iti_localizer","","html-keyboard-response","195","479359","0.0-2.0-68.0-1.0","34","22705","male","null","","","","null","","66","","","479054","1","","","","","","300","83500","305","84127","300","","","","","","","","","","","","","","","","","","","","","","","","","","","","","","","","","","","","","","","","","","","","","","","","","","","",""
"","localizer","","html-keyboard-response","196","479765","0.0-2.0-69.0-0.0","34","22705","male","122","","","","75","1","67","","Stimuli/Experimental_stims/localizer/body_parts/nick-page-WTNmgJtwzGI-unsplash.jpg","479359","1","body_parts","","0","0","0","400","83800","406","84432","","","","","","","","","","","","","","","","","","","","","","","","","","","","","","","","","","","","","","","","","","","","","","","","","","","","",""
"","iti_localizer","","html-keyboard-response","197","480069","0.0-2.0-69.0-1.0","34","22705","male","null","","","","null","","67","","","479765","1","","","","","","300","84200","304","84838","300","","","","","","","","","","","","","","","","","","","","","","","","","","","","","","","","","","","","","","","","","","","","","","","","","","","",""
"","localizer","","html-keyboard-response","198","480475","0.0-2.0-70.0-0.0","34","22705","male","116","","","","68","0","68","","Stimuli/Experimental_stims/localizer/body_parts/sina-rezakhani-d1gQi0Jl05U-unsplash (1).jpg","480069","1","body_parts","","0","0","1","400","84500","406","85142","","","","","","","","","","","","","","","","","","","","","","","","","","","","","","","","","","","","","","","","","","","","","","","","","","","","",""
"","iti_localizer","","html-keyboard-response","199","480780","0.0-2.0-70.0-1.0","34","22705","male","null","","","","null","","68","","","480475","1","","","","","","300","84900","305","85548","300","","","","","","","","","","","","","","","","","","","","","","","","","","","","","","","","","","","","","","","","","","","","","","","","","","","",""
"","localizer","","html-keyboard-response","200","481185","0.0-2.0-71.0-0.0","34","22705","male","109","","","","68","0","69","","Stimuli/Experimental_stims/localizer/body_parts/meghan-thompson-U1b8OB0QpIo-unsplash.jpg","480780","1","body_parts","","0","0","1","400","85200","405","85853","","","","","","","","","","","","","","","","","","","","","","","","","","","","","","","","","","","","","","","","","","","","","","","","","","","","",""
"","iti_localizer","","html-keyboard-response","201","481489","0.0-2.0-71.0-1.0","34","22705","male","null","","","","null","","69","","","481185","1","","","","","","300","85600","304","86258","300","","","","","","","","","","","","","","","","","","","","","","","","","","","","","","","","","","","","","","","","","","","","","","","","","","","",""
"","localizer","","html-keyboard-response","202","481894","0.0-2.0-72.0-0.0","34","22705","male","136","","","","68","0","70","","Stimuli/Experimental_stims/localizer/body_parts/davidcohen-qghuLqyh3nE-unsplash.jpg","481489","1","body_parts","","0","0","1","400","85900","405","86562","","","","","","","","","","","","","","","","","","","","","","","","","","","","","","","","","","","","","","","","","","","","","","","","","","","","",""
"","iti_localizer","","html-keyboard-response","203","482200","0.0-2.0-72.0-1.0","34","22705","male","null","","","","null","","70","","","481894","1","","","","","","300","86300","306","86967","300","","","","","","","","","","","","","","","","","","","","","","","","","","","","","","","","","","","","","","","","","","","","","","","","","","","",""
"","localizer","","html-keyboard-response","204","482605","0.0-2.0-73.0-0.0","34","22705","male","177","","","","68","0","71","","Stimuli/Experimental_stims/localizer/body_parts/sincerely-media-QyzlAZjm0r0-unsplash.jpg","482200","1","body_parts","","0","0","1","400","86600","405","87273","","","","","","","","","","","","","","","","","","","","","","","","","","","","","","","","","","","","","","","","","","","","","","","","","","","","",""
"","iti_localizer","","html-keyboard-response","205","482910","0.0-2.0-73.0-1.0","34","22705","male","null","","","","null","","71","","","482605","1","","","","","","300","87000","305","87678","300","","","","","","","","","","","","","","","","","","","","","","","","","","","","","","","","","","","","","","","","","","","","","","","","","","","",""
"","localizer","","html-keyboard-response","206","483314","0.0-2.0-74.0-0.0","34","22705","male","235","","","","68","0","72","","Stimuli/Experimental_stims/localizer/body_parts/juja-han-Z8-6EI2tYtw-unsplash.jpg","482910","1","body_parts","","0","0","1","400","87300","404","87983","","","","","","","","","","","","","","","","","","","","","","","","","","","","","","","","","","","","","","","","","","","","","","","","","","","","",""
"","iti_localizer","","html-keyboard-response","207","483619","0.0-2.0-74.0-1.0","34","22705","male","null","","","","null","","72","","","483314","1","","","","","","300","87700","305","88387","300","","","","","","","","","","","","","","","","","","","","","","","","","","","","","","","","","","","","","","","","","","","","","","","","","","","",""
"","localizer","","html-keyboard-response","208","484025","0.0-2.0-75.0-0.0","34","22705","male","70","","","","68","0","73","","Stimuli/Experimental_stims/localizer/body_parts/natalie-grainger-8uB5kFKWWkk-unsplash.jpg","483619","1","body_parts","","0","0","1","400","88000","406","88692","","","","","","","","","","","","","","","","","","","","","","","","","","","","","","","","","","","","","","","","","","","","","","","","","","","","",""
"","iti_localizer","","html-keyboard-response","209","484330","0.0-2.0-75.0-1.0","34","22705","male","null","","","","null","","73","","","484025","1","","","","","","300","88400","305","89098","300","","","","","","","","","","","","","","","","","","","","","","","","","","","","","","","","","","","","","","","","","","","","","","","","","","","",""
"","localizer","","html-keyboard-response","210","484735","0.0-2.0-76.0-0.0","34","22705","male","174","","","","68","0","74","","Stimuli/Experimental_stims/localizer/body_parts/debby-hudson--B_757qSA4k-unsplash.jpg","484330","1","body_parts","","0","0","1","400","88700","405","89403","","","","","","","","","","","","","","","","","","","","","","","","","","","","","","","","","","","","","","","","","","","","","","","","","","","","",""
"","iti_localizer","","html-keyboard-response","211","485039","0.0-2.0-76.0-1.0","34","22705","male","null","","","","null","","74","","","484735","1","","","","","","300","89100","304","89808","300","","","","","","","","","","","","","","","","","","","","","","","","","","","","","","","","","","","","","","","","","","","","","","","","","","","",""
"","localizer","","html-keyboard-response","212","485445","0.0-2.0-77.0-0.0","34","22705","male","281","","","","68","0","75","","Stimuli/Experimental_stims/localizer/body_parts/pure-julia-E9Q4bqYHtIM-unsplash.jpg","485039","1","body_parts","","0","0","1","400","89400","406","90112","","","","","","","","","","","","","","","","","","","","","","","","","","","","","","","","","","","","","","","","","","","","","","","","","","","","",""
"","iti_localizer","","html-keyboard-response","213","485749","0.0-2.0-77.0-1.0","34","22705","male","null","","","","null","","75","","","485445","1","","","","","","300","89800","304","90518","300","","","","","","","","","","","","","","","","","","","","","","","","","","","","","","","","","","","","","","","","","","","","","","","","","","","",""
"","localizer","","html-keyboard-response","214","486154","0.0-2.0-78.0-0.0","34","22705","male","132","","","","68","0","76","","Stimuli/Experimental_stims/localizer/body_parts/charles-etoroma-1fo0biloDOc-unsplash.jpg","485749","1","body_parts","","0","0","1","400","90100","405","90822","","","","","","","","","","","","","","","","","","","","","","","","","","","","","","","","","","","","","","","","","","","","","","","","","","","","",""
"","iti_localizer","","html-keyboard-response","215","486459","0.0-2.0-78.0-1.0","34","22705","male","null","","","","null","","76","","","486154","1","","","","","","300","90500","305","91227","300","","","","","","","","","","","","","","","","","","","","","","","","","","","","","","","","","","","","","","","","","","","","","","","","","","","",""
"","localizer","","html-keyboard-response","216","486864","0.0-2.0-79.0-0.0","34","22705","male","237","","","","68","0","77","","Stimuli/Experimental_stims/localizer/body_parts/david-fanuel-qnV8X7OViNY-unsplash.jpg","486459","1","body_parts","","0","0","1","400","90800","405","91532","","","","","","","","","","","","","","","","","","","","","","","","","","","","","","","","","","","","","","","","","","","","","","","","","","","","",""
"","iti_localizer","","html-keyboard-response","217","487171","0.0-2.0-79.0-1.0","34","22705","male","null","","","","null","","77","","","486864","1","","","","","","300","91200","307","91937","300","","","","","","","","","","","","","","","","","","","","","","","","","","","","","","","","","","","","","","","","","","","","","","","","","","","",""
"","localizer","","html-keyboard-response","218","487576","0.0-2.0-80.0-0.0","34","22705","male","85","","","","68","0","78","","Stimuli/Experimental_stims/localizer/body_parts/diana-polekhina-SwWjCbIIoFE-unsplash.jpg","487171","1","body_parts","","0","0","1","400","91500","405","92244","","","","","","","","","","","","","","","","","","","","","","","","","","","","","","","","","","","","","","","","","","","","","","","","","","","","",""
"","iti_localizer","","html-keyboard-response","219","487880","0.0-2.0-80.0-1.0","34","22705","male","null","","","","null","","78","","","487576","1","","","","","","300","91900","304","92649","300","","","","","","","","","","","","","","","","","","","","","","","","","","","","","","","","","","","","","","","","","","","","","","","","","","","",""
"","localizer","","html-keyboard-response","220","488286","0.0-2.0-81.0-0.0","34","22705","male","1","","","","68","0","79","","Stimuli/Experimental_stims/localizer/body_parts/ant-rozetsky-bXQd8JXx0vs-unsplash.jpg","487880","1","body_parts","","0","0","1","400","92200","406","92953","","","","","","","","","","","","","","","","","","","","","","","","","","","","","","","","","","","","","","","","","","","","","","","","","","","","",""
"","iti_localizer","","html-keyboard-response","221","488591","0.0-2.0-81.0-1.0","34","22705","male","null","","","","null","","79","","","488286","1","","","","","","300","92600","305","93359","300","","","","","","","","","","","","","","","","","","","","","","","","","","","","","","","","","","","","","","","","","","","","","","","","","","","",""
"","localizer","","html-keyboard-response","222","488996","0.0-2.0-82.0-0.0","34","22705","male","218","","","","68","0","80","","Stimuli/Experimental_stims/localizer/body_parts/callum-skelton-3KLMq7y46nA-unsplash.jpg","488591","1","body_parts","","0","0","1","400","92900","405","93664","","","","","","","","","","","","","","","","","","","","","","","","","","","","","","","","","","","","","","","","","","","","","","","","","","","","",""
"","iti_localizer","","html-keyboard-response","223","489301","0.0-2.0-82.0-1.0","34","22705","male","null","","","","null","","80","","","488996","1","","","","","","300","93300","305","94069","300","","","","","","","","","","","","","","","","","","","","","","","","","","","","","","","","","","","","","","","","","","","","","","","","","","","",""
"","localizer","","html-keyboard-response","224","489706","0.0-2.0-83.0-0.0","34","22705","male","115","","","","68","0","81","","Stimuli/Experimental_stims/localizer/body_parts/freestocks-qw9LFf5T790-unsplash.jpg","489301","1","body_parts","","0","0","1","400","93600","405","94374","","","","","","","","","","","","","","","","","","","","","","","","","","","","","","","","","","","","","","","","","","","","","","","","","","","","",""
"","iti_localizer","","html-keyboard-response","225","490013","0.0-2.0-83.0-1.0","34","22705","male","null","","","","null","","81","","","489706","1","","","","","","300","94000","307","94779","300","","","","","","","","","","","","","","","","","","","","","","","","","","","","","","","","","","","","","","","","","","","","","","","","","","","",""
"","localizer","","html-keyboard-response","226","490418","0.0-2.0-84.0-0.0","34","22705","male","1","","","","68","0","82","","Stimuli/Experimental_stims/localizer/body_parts/carlos-henrique-NAOJKwZswbs-unsplash.jpg","490013","1","body_parts","","0","0","1","400","94300","405","95086","","","","","","","","","","","","","","","","","","","","","","","","","","","","","","","","","","","","","","","","","","","","","","","","","","","","",""
"","iti_localizer","","html-keyboard-response","227","490731","0.0-2.0-84.0-1.0","34","22705","male","null","","","","null","","82","","","490418","1","","","","","","300","94700","313","95491","300","","","","","","","","","","","","","","","","","","","","","","","","","","","","","","","","","","","","","","","","","","","","","","","","","","","",""
"","localizer","","html-keyboard-response","228","491137","0.0-2.0-85.0-0.0","34","22705","male","253","","","","68","0","83","","Stimuli/Experimental_stims/localizer/body_parts/boyd-christiansen-uVj7kewrZ-o-unsplash.jpg","490731","1","body_parts","","1","0","0","400","95000","406","95804","","","","","","","","","","","","","","","","","","","","","","","","","","","","","","","","","","","","","","","","","","","","","","","","","","","","",""
"","iti_localizer","","html-keyboard-response","229","491442","0.0-2.0-85.0-1.0","34","22705","male","null","","","","null","","83","","","491137","1","","","","","","300","95400","305","96210","300","","","","","","","","","","","","","","","","","","","","","","","","","","","","","","","","","","","","","","","","","","","","","","","","","","","",""
"","localizer","","html-keyboard-response","230","491847","0.0-2.0-86.0-0.0","34","22705","male","167","","","","68","0","84","","Stimuli/Experimental_stims/localizer/body_parts/nick-page-jAGdpOGvLAA-unsplash.jpg","491442","1","body_parts","","0","0","1","400","95700","405","96515","","","","","","","","","","","","","","","","","","","","","","","","","","","","","","","","","","","","","","","","","","","","","","","","","","","","",""
"","iti_localizer","","html-keyboard-response","231","492151","0.0-2.0-86.0-1.0","34","22705","male","null","","","","null","","84","","","491847","1","","","","","","300","96100","304","96920","300","","","","","","","","","","","","","","","","","","","","","","","","","","","","","","","","","","","","","","","","","","","","","","","","","","","",""
"","localizer","","html-keyboard-response","232","492557","0.0-2.0-87.0-0.0","34","22705","male","97","","","","68","0","85","","Stimuli/Experimental_stims/localizer/body_parts/lilartsy-1KkhQ8uL28g-unsplash.jpg","492151","1","body_parts","","0","0","1","400","96400","406","97224","","","","","","","","","","","","","","","","","","","","","","","","","","","","","","","","","","","","","","","","","","","","","","","","","","","","",""
"","iti_localizer","","html-keyboard-response","233","506563","0.0-2.0-87.0-1.0","34","22705","male","null","","","","null","","85","","","492557","1","","","","","","14000","96800","14006","97630","14000","","","","","","","","","","","","","","","","","","","","","","","","","","","","","","","","","","","","","","","","","","","","","","","","","","","",""
"","localizer","","html-keyboard-response","234","506968","0.0-2.0-88.0-0.0","34","22705","male","NaN","","","","null","NaN","86","","Stimuli/Experimental_stims/localizer/objects/yossy-made-yulian-WaEqwDSIeTY-unsplash.jpg","506563","1","objects","","1","1","0","400","110800","405","111636","","","","","","","","","","","","","","","","","","","","","","","","","","","","","","","","","","","","","","","","","","","","","","","","","","","","",""
"","iti_localizer","","html-keyboard-response","235","507273","0.0-2.0-88.0-1.0","34","22705","male","null","","","","null","","86","","","506968","1","","","","","","300","111200","305","112041","300","","","","","","","","","","","","","","","","","","","","","","","","","","","","","","","","","","","","","","","","","","","","","","","","","","","",""
"","localizer","","html-keyboard-response","236","507677","0.0-2.0-89.0-0.0","34","22705","male","48","","","","68","0","87","","Stimuli/Experimental_stims/localizer/objects/namroud-gorguis-FZWivbri0Xk-unsplash.jpg","507273","1","objects","","0","0","1","400","111500","404","112346","","","","","","","","","","","","","","","","","","","","","","","","","","","","","","","","","","","","","","","","","","","","","","","","","","","","",""
"","iti_localizer","","html-keyboard-response","237","507982","0.0-2.0-89.0-1.0","34","22705","male","null","","","","null","","87","","","507677","1","","","","","","300","111900","305","112750","300","","","","","","","","","","","","","","","","","","","","","","","","","","","","","","","","","","","","","","","","","","","","","","","","","","","",""
"","localizer","","html-keyboard-response","238","508387","0.0-2.0-90.0-0.0","34","22705","male","58","","","","68","0","88","","Stimuli/Experimental_stims/localizer/objects/muhammad-toqeer-NRJ9ipvz2iE-unsplash.jpg","507982","1","objects","","0","0","1","400","112200","405","113055","","","","","","","","","","","","","","","","","","","","","","","","","","","","","","","","","","","","","","","","","","","","","","","","","","","","",""
"","iti_localizer","","html-keyboard-response","239","508692","0.0-2.0-90.0-1.0","34","22705","male","null","","","","null","","88","","","508387","1","","","","","","300","112600","305","113460","300","","","","","","","","","","","","","","","","","","","","","","","","","","","","","","","","","","","","","","","","","","","","","","","","","","","",""
"","localizer","","html-keyboard-response","240","509097","0.0-2.0-91.0-0.0","34","22705","male","116","","","","68","0","89","","Stimuli/Experimental_stims/localizer/objects/chris-briggs-x9TCnxNBofE-unsplash.jpg","508692","1","objects","","0","0","1","400","112900","405","113765","","","","","","","","","","","","","","","","","","","","","","","","","","","","","","","","","","","","","","","","","","","","","","","","","","","","",""
"","iti_localizer","","html-keyboard-response","241","509402","0.0-2.0-91.0-1.0","34","22705","male","null","","","","null","","89","","","509097","1","","","","","","300","113300","305","114170","300","","","","","","","","","","","","","","","","","","","","","","","","","","","","","","","","","","","","","","","","","","","","","","","","","","","",""
"","localizer","","html-keyboard-response","242","509808","0.0-2.0-92.0-0.0","34","22705","male","206","","","","68","0","90","","Stimuli/Experimental_stims/localizer/objects/collab-media-eddtBBbaw0Y-unsplash.jpg","509402","1","objects","","0","0","1","400","113600","406","114475","","","","","","","","","","","","","","","","","","","","","","","","","","","","","","","","","","","","","","","","","","","","","","","","","","","","",""
"","iti_localizer","","html-keyboard-response","243","510112","0.0-2.0-92.0-1.0","34","22705","male","null","","","","null","","90","","","509808","1","","","","","","300","114000","304","114881","300","","","","","","","","","","","","","","","","","","","","","","","","","","","","","","","","","","","","","","","","","","","","","","","","","","","",""
"","localizer","","html-keyboard-response","244","510519","0.0-2.0-93.0-0.0","34","22705","male","8","","","","68","0","91","","Stimuli/Experimental_stims/localizer/objects/nordwood-themes-E9tFH39iRPE-unsplash.jpg","510112","1","objects","","0","0","1","400","114300","407","115185","","","","","","","","","","","","","","","","","","","","","","","","","","","","","","","","","","","","","","","","","","","","","","","","","","","","",""
"","iti_localizer","","html-keyboard-response","245","510823","0.0-2.0-93.0-1.0","34","22705","male","null","","","","null","","91","","","510519","1","","","","","","300","114700","304","115592","300","","","","","","","","","","","","","","","","","","","","","","","","","","","","","","","","","","","","","","","","","","","","","","","","","","","",""
"","localizer","","html-keyboard-response","246","511228","0.0-2.0-94.0-0.0","34","22705","male","145","","","","68","0","92","","Stimuli/Experimental_stims/localizer/objects/oriento-maVIpNNtmlQ-unsplash.jpg","510823","1","objects","","0","0","1","400","115000","405","115896","","","","","","","","","","","","","","","","","","","","","","","","","","","","","","","","","","","","","","","","","","","","","","","","","","","","",""
"","iti_localizer","","html-keyboard-response","247","511533","0.0-2.0-94.0-1.0","34","22705","male","null","","","","null","","92","","","511228","1","","","","","","300","115400","305","116301","300","","","","","","","","","","","","","","","","","","","","","","","","","","","","","","","","","","","","","","","","","","","","","","","","","","","",""
"","localizer","","html-keyboard-response","248","511939","0.0-2.0-95.0-0.0","34","22705","male","267","","","","68","0","93","","Stimuli/Experimental_stims/localizer/objects/alex-lvrs-2zDw14yCYqk-unsplash.jpg","511533","1","objects","","0","0","1","400","115700","406","116606","","","","","","","","","","","","","","","","","","","","","","","","","","","","","","","","","","","","","","","","","","","","","","","","","","","","",""
"","iti_localizer","","html-keyboard-response","249","512244","0.0-2.0-95.0-1.0","34","22705","male","null","","","","null","","93","","","511939","1","","","","","","300","116100","305","117012","300","","","","","","","","","","","","","","","","","","","","","","","","","","","","","","","","","","","","","","","","","","","","","","","","","","","",""
