"success","ttype","start_time","trial_type","trial_index","time_elapsed","internal_node_id","age","PID","gender","rt","responses","view_history","repeat_instructions","key_press","response","index","stimulus_index","path","start_time_elapsed","left_chosen","chosen_stimulus","unchosen_stimulus","chosen_category","unchosen_category","chosen_rating","unchosen_rating","chosen_path","unchosen_path","no_response","pair_id","practice","scramble_screen_time","scramble_instructed_side","stim_type","iti","block","run","left_stimulus","right_stimulus","left_category","right_category","left_path","right_path","left_rating","right_rating","duration","onset","duration_time_elapsed","onset_time_elapsed","trial_duration","scramble_acc","scramble_no_response","warning"
"true","full_screen","d08132023hr0034","fullscreen","0","2254","0.0-0.0-0.0","11","98647","11","","","","","","","","","","","","","","","","","","","","","","","","","","","","","","","","","","","","","","","","","","","",""
"","get_id","","survey-text","1","5759","0.0-0.0-1.0","11","98647","11","3502","{""Q0"":""11"",""Q1"":""11""}","","","","","","","","","","","","","","","","","","","","","","","","","","","","","","","","","","","","","","","","","",""
"","ratings_instructions","","instructions","2","7274","0.0-1.0-0.0-0.0","11","98647","11","1468","","[{""page_index"":0,""viewing_time"":1007},{""page_index"":1,""viewing_time"":461}]","","","","","","","","","","","","","","","","","","","","","","","","","","","","","","","","","","","","","","","","",""
"","rating_comprehension_check","","survey-multi-choice","3","10093","0.0-1.0-0.0-1.0","11","98647","11","2815","{""Q0"":""True"",""Q1"":""Mouse""}","","0","","","","","","","","","","","","","","","","","","","","","","","","","","","","","","","","","","","","","","","",""
"","","","html-keyboard-response","4","10926","0.0-1.0-1.0","11","98647","11","830","","","","68","","","","","","","","","","","","","","","","","","","","","","","","","","","","","","","","","","","","","","",""
"","rating","","html-slider-response","5","11916","0.0-1.0-2.0","11","98647","11","986","","","","","50","0","23","Stimuli/Experimental_stims/faces/rikonavt-HQjfrvdTfak-unsplash.jpg","","","","","","","","","","","","","","","","","","","","","","","","","","","","","","","","","","",""
"","rating","","html-slider-response","6","12077","0.0-1.0-3.0","11","98647","11","158","","","","","50","1","17","Stimuli/Experimental_stims/faces/good-faces-xmSWVeGEnJw-unsplash.jpg","","","","","","","","","","","","","","","","","","","","","","","","","","","","","","","","","","",""
"","rating","","html-slider-response","7","12240","0.0-1.0-4.0","11","98647","11","159","","","","","50","2","10","Stimuli/Experimental_stims/outdoor_scenes/shannon-kunkle-dM8INmkyDas-unsplash.jpg","","","","","","","","","","","","","","","","","","","","","","","","","","","","","","","","","","",""
"","rating","","html-slider-response","8","12490","0.0-1.0-5.0","11","98647","11","248","","","","","50","3","37","Stimuli/Experimental_stims/objects/alexander-andrews-VLGWE_SumrA-unsplash.jpg","","","","","","","","","","","","","","","","","","","","","","","","","","","","","","","","","","",""
"","rating","","html-slider-response","9","12661","0.0-1.0-6.0","11","98647","11","167","","","","","50","4","12","Stimuli/Experimental_stims/faces/aiony-haust-jmATI5Q_YgY-unsplash.jpg","","","","","","","","","","","","","","","","","","","","","","","","","","","","","","","","","","",""
"","rating","","html-slider-response","10","12831","0.0-1.0-7.0","11","98647","11","168","","","","","50","5","13","Stimuli/Experimental_stims/faces/daniel-rigdon-dXmXKPP2L4E-unsplash.jpg","","","","","","","","","","","","","","","","","","","","","","","","","","","","","","","","","","",""
"","rating","","html-slider-response","11","13001","0.0-1.0-8.0","11","98647","11","167","","","","","50","6","46","Stimuli/Experimental_stims/objects/mockup-graphics-PNsj6RiHAF4-unsplash.jpg","","","","","","","","","","","","","","","","","","","","","","","","","","","","","","","","","","",""
"","rating","","html-slider-response","12","13179","0.0-1.0-9.0","11","98647","11","175","","","","","50","7","0","Stimuli/Experimental_stims/outdoor_scenes/aleksandra-boguslawska-MS7KD9Ti7FQ-unsplash.jpg","","","","","","","","","","","","","","","","","","","","","","","","","","","","","","","","","","",""
"","rating","","html-slider-response","13","13349","0.0-1.0-10.0","11","98647","11","167","","","","","50","8","42","Stimuli/Experimental_stims/objects/jess-bailey-nOeVi8DsN8U-unsplash.jpg","","","","","","","","","","","","","","","","","","","","","","","","","","","","","","","","","","",""
"","rating","","html-slider-response","14","13527","0.0-1.0-11.0","11","98647","11","175","","","","","50","9","29","Stimuli/Experimental_stims/body_parts/manuel-schinner-ZwjFuJ7ebpk-unsplash.jpg","","","","","","","","","","","","","","","","","","","","","","","","","","","","","","","","","","",""
"","rating","","html-slider-response","15","13707","0.0-1.0-12.0","11","98647","11","176","","","","","50","10","45","Stimuli/Experimental_stims/objects/leohoho-rngTKHXumy0-unsplash.jpg","","","","","","","","","","","","","","","","","","","","","","","","","","","","","","","","","","",""
"","rating","","html-slider-response","16","13887","0.0-1.0-13.0","11","98647","11","176","","","","","50","11","16","Stimuli/Experimental_stims/faces/freddy-kearney-o-ioeoATbIM-unsplash.jpg","","","","","","","","","","","","","","","","","","","","","","","","","","","","","","","","","","",""
"","rating","","html-slider-response","17","14043","0.0-1.0-14.0","11","98647","11","152","","","","","50","12","35","Stimuli/Experimental_stims/body_parts/wc-so-KH4AAPjb-tI-unsplash.jpg","","","","","","","","","","","","","","","","","","","","","","","","","","","","","","","","","","",""
"","rating","","html-slider-response","18","14221","0.0-1.0-15.0","11","98647","11","174","","","","","50","13","8","Stimuli/Experimental_stims/outdoor_scenes/samsommer-vddccTqwal8-unsplash.jpg","","","","","","","","","","","","","","","","","","","","","","","","","","","","","","","","","","",""
"","rating","","html-slider-response","19","14398","0.0-1.0-16.0","11","98647","11","171","","","","","50","14","18","Stimuli/Experimental_stims/faces/jessica-radanavong-mrYkTuAesKE-unsplash.jpg","","","","","","","","","","","","","","","","","","","","","","","","","","","","","","","","","","",""
"","rating","","html-slider-response","20","14596","0.0-1.0-17.0","11","98647","11","192","","","","","50","15","6","Stimuli/Experimental_stims/outdoor_scenes/meng-ji-8BH_M-53CyA-unsplash.jpg","","","","","","","","","","","","","","","","","","","","","","","","","","","","","","","","","","",""
"","rating","","html-slider-response","21","14781","0.0-1.0-18.0","11","98647","11","180","","","","","50","16","2","Stimuli/Experimental_stims/outdoor_scenes/bruno-van-der-kraan-qez8mNJ3ilU-unsplash.jpg","","","","","","","","","","","","","","","","","","","","","","","","","","","","","","","","","","",""
"","rating","","html-slider-response","22","14965","0.0-1.0-19.0","11","98647","11","179","","","","","50","17","33","Stimuli/Experimental_stims/body_parts/tucker-good-36skLT5jZcc-unsplash.jpg","","","","","","","","","","","","","","","","","","","","","","","","","","","","","","","","","","",""
"","rating","","html-slider-response","23","15145","0.0-1.0-20.0","11","98647","11","175","","","","","50","18","25","Stimuli/Experimental_stims/body_parts/engin-akyurt-Q2rfH3GW39c-unsplash.jpg","","","","","","","","","","","","","","","","","","","","","","","","","","","","","","","","","","",""
"","rating","","html-slider-response","24","15325","0.0-1.0-21.0","11","98647","11","173","","","","","50","19","4","Stimuli/Experimental_stims/outdoor_scenes/jarrett-kow-1ZOyYPOBn7I-unsplash.jpg","","","","","","","","","","","","","","","","","","","","","","","","","","","","","","","","","","",""
"","rating","","html-slider-response","25","15483","0.0-1.0-22.0","11","98647","11","153","","","","","50","20","11","Stimuli/Experimental_stims/outdoor_scenes/stephen-leonardi-gyIRjKPXupE-unsplash.jpg","","","","","","","","","","","","","","","","","","","","","","","","","","","","","","","","","","",""
"","rating","","html-slider-response","26","15662","0.0-1.0-23.0","11","98647","11","174","","","","","50","21","47","Stimuli/Experimental_stims/objects/ronaldo-arthur-vidal-Cdz_lvnl37k-unsplash.jpg","","","","","","","","","","","","","","","","","","","","","","","","","","","","","","","","","","",""
"","rating","","html-slider-response","27","15833","0.0-1.0-24.0","11","98647","11","167","","","","","50","22","39","Stimuli/Experimental_stims/objects/charlesdeluvio-1-nx1QR5dTE-unsplash.jpg","","","","","","","","","","","","","","","","","","","","","","","","","","","","","","","","","","",""
"","rating","","html-slider-response","28","16015","0.0-1.0-25.0","11","98647","11","177","","","","","50","23","3","Stimuli/Experimental_stims/outdoor_scenes/henry-be-NLF6hTe4PAg-unsplash.jpg","","","","","","","","","","","","","","","","","","","","","","","","","","","","","","","","","","",""
"","rating","","html-slider-response","29","16209","0.0-1.0-26.0","11","98647","11","190","","","","","50","24","34","Stimuli/Experimental_stims/body_parts/wagner-santos-mBWMvIuVnso-unsplash.jpg","","","","","","","","","","","","","","","","","","","","","","","","","","","","","","","","","","",""
"","rating","","html-slider-response","30","16400","0.0-1.0-27.0","11","98647","11","187","","","","","50","25","27","Stimuli/Experimental_stims/body_parts/heike-mintel-i_Gns0ELnLw-unsplash.jpg","","","","","","","","","","","","","","","","","","","","","","","","","","","","","","","","","","",""
"","rating","","html-slider-response","31","16586","0.0-1.0-28.0","11","98647","11","182","","","","","50","26","43","Stimuli/Experimental_stims/objects/jonathan-greenaway-Y4hGgeiFn3s-unsplash.jpg","","","","","","","","","","","","","","","","","","","","","","","","","","","","","","","","","","",""
"","rating","","html-slider-response","32","16788","0.0-1.0-29.0","11","98647","11","197","","","","","50","27","40","Stimuli/Experimental_stims/objects/fabian-blank-pElSkGRA2NU-unsplash.jpg","","","","","","","","","","","","","","","","","","","","","","","","","","","","","","","","","","",""
"","rating","","html-slider-response","33","17000","0.0-1.0-30.0","11","98647","11","209","","","","","50","28","38","Stimuli/Experimental_stims/objects/art-lasovsky-8XddFc6NkBY-unsplash.jpg","","","","","","","","","","","","","","","","","","","","","","","","","","","","","","","","","","",""
"","rating","","html-slider-response","34","17158","0.0-1.0-31.0","11","98647","11","154","","","","","50","29","9","Stimuli/Experimental_stims/outdoor_scenes/sergey-pesterev-y-b_FOmJXdg-unsplash.jpg","","","","","","","","","","","","","","","","","","","","","","","","","","","","","","","","","","",""
"","rating","","html-slider-response","35","17356","0.0-1.0-32.0","11","98647","11","194","","","","","50","30","19","Stimuli/Experimental_stims/faces/joel-mott-LaK153ghdig-unsplash.jpg","","","","","","","","","","","","","","","","","","","","","","","","","","","","","","","","","","",""
"","rating","","html-slider-response","36","17538","0.0-1.0-33.0","11","98647","11","178","","","","","50","31","24","Stimuli/Experimental_stims/body_parts/clay-banks-LjqARJaJotc-unsplash.jpg","","","","","","","","","","","","","","","","","","","","","","","","","","","","","","","","","","",""
"","rating","","html-slider-response","37","17754","0.0-1.0-34.0","11","98647","11","211","","","","","50","32","14","Stimuli/Experimental_stims/faces/david-siglin-UuW4psOb388-unsplash.jpg","","","","","","","","","","","","","","","","","","","","","","","","","","","","","","","","","","",""
"","rating","","html-slider-response","38","17913","0.0-1.0-35.0","11","98647","11","155","","","","","50","33","44","Stimuli/Experimental_stims/objects/kuiye-chen-NuOGFo4PudE-unsplash.jpg","","","","","","","","","","","","","","","","","","","","","","","","","","","","","","","","","","",""
"","rating","","html-slider-response","39","18106","0.0-1.0-36.0","11","98647","11","189","","","","","50","34","15","Stimuli/Experimental_stims/faces/erik-lucatero-d2MSDujJl2g-unsplash.jpg","","","","","","","","","","","","","","","","","","","","","","","","","","","","","","","","","","",""
"","rating","","html-slider-response","40","18304","0.0-1.0-37.0","11","98647","11","194","","","","","50","35","1","Stimuli/Experimental_stims/outdoor_scenes/ashim-d-silva-S2Q5mdOrrVc-unsplash.jpg","","","","","","","","","","","","","","","","","","","","","","","","","","","","","","","","","","",""
"","rating","","html-slider-response","41","18492","0.0-1.0-38.0","11","98647","11","182","","","","","50","36","22","Stimuli/Experimental_stims/faces/ravi-patel-VMGAbeeJTKo-unsplash.jpg","","","","","","","","","","","","","","","","","","","","","","","","","","","","","","","","","","",""
"","rating","","html-slider-response","42","18681","0.0-1.0-39.0","11","98647","11","184","","","","","50","37","26","Stimuli/Experimental_stims/body_parts/engin-akyurt-x_3gyC42btc-unsplash.jpg","","","","","","","","","","","","","","","","","","","","","","","","","","","","","","","","","","",""
"","rating","","html-slider-response","43","18887","0.0-1.0-40.0","11","98647","11","202","","","","","50","38","31","Stimuli/Experimental_stims/body_parts/sincerely-media-VN6DbKajo5s-unsplash.jpg","","","","","","","","","","","","","","","","","","","","","","","","","","","","","","","","","","",""
"","rating","","html-slider-response","44","19098","0.0-1.0-41.0","11","98647","11","206","","","","","50","39","36","Stimuli/Experimental_stims/objects/alexander-andrews-JYGnB9gTCls-unsplash.jpg","","","","","","","","","","","","","","","","","","","","","","","","","","","","","","","","","","",""
"","rating","","html-slider-response","45","19299","0.0-1.0-42.0","11","98647","11","196","","","","","50","40","28","Stimuli/Experimental_stims/body_parts/ira-vishnevskaya-8DQAvdCby1I-unsplash.jpg","","","","","","","","","","","","","","","","","","","","","","","","","","","","","","","","","","",""
"","rating","","html-slider-response","46","19517","0.0-1.0-43.0","11","98647","11","214","","","","","50","41","20","Stimuli/Experimental_stims/faces/justin-chen-J7Cf1Gch49E-unsplash.jpg","","","","","","","","","","","","","","","","","","","","","","","","","","","","","","","","","","",""
"","rating","","html-slider-response","47","19697","0.0-1.0-44.0","11","98647","11","176","","","","","50","42","41","Stimuli/Experimental_stims/objects/insung-yoon-w2JtIQQXoRU-unsplash.jpg","","","","","","","","","","","","","","","","","","","","","","","","","","","","","","","","","","",""
"","rating","","html-slider-response","48","19882","0.0-1.0-45.0","11","98647","11","180","","","","","50","43","7","Stimuli/Experimental_stims/outdoor_scenes/petr-vysohlid-9fqwGqGLUxc-unsplash.jpg","","","","","","","","","","","","","","","","","","","","","","","","","","","","","","","","","","",""
"","rating","","html-slider-response","49","20089","0.0-1.0-46.0","11","98647","11","203","","","","","50","44","5","Stimuli/Experimental_stims/outdoor_scenes/jeff-king-bJHWJeiHfHc-unsplash.jpg","","","","","","","","","","","","","","","","","","","","","","","","","","","","","","","","","","",""
"","rating","","html-slider-response","50","20287","0.0-1.0-47.0","11","98647","11","194","","","","","50","45","30","Stimuli/Experimental_stims/body_parts/mika-korhonen-Xodzxosar18-unsplash.jpg","","","","","","","","","","","","","","","","","","","","","","","","","","","","","","","","","","",""
"","rating","","html-slider-response","51","20481","0.0-1.0-48.0","11","98647","11","190","","","","","50","46","32","Stimuli/Experimental_stims/body_parts/towfiqu-barbhuiya-3AsiVDsZnHg-unsplash.jpg","","","","","","","","","","","","","","","","","","","","","","","","","","","","","","","","","","",""
"","rating","","html-slider-response","52","20673","0.0-1.0-49.0","11","98647","11","188","","","","","50","47","21","Stimuli/Experimental_stims/faces/leilani-angel-K84vnnzxmTQ-unsplash.jpg","","","","","","","","","","","","","","","","","","","","","","","","","","","","","","","","","","",""
"","deliberation_instructions","","instructions","53","25608","0.0-3.0-0.0-0.0","11","98647","11","4894","","[{""page_index"":0,""viewing_time"":1526},{""page_index"":1,""viewing_time"":195},{""page_index"":2,""viewing_time"":534},{""page_index"":3,""viewing_time"":486},{""page_index"":4,""viewing_time"":1051},{""page_index"":5,""viewing_time"":502},{""page_index"":6,""viewing_time"":600}]","","","","","","","","","","","","","","","","","","","","","","","","","","","","","","","","","","","","","","","","",""
"","deliberation_comprehension_check","","survey-multi-choice","54","31065","0.0-3.0-0.0-1.0","11","98647","11","5450","{""Q0"":""True"",""Q1"":""True"",""Q2"":""Wait until an arrow comes up and then select the image the arrow is pointing at"",""Q3"":""Consider carefully and take your time (up to 3 seconds)"",""Q4"":""D""}","","0","","","","","","","","","","","","","","","","","","","","","","","","","","","","","","","","","","","","","","","",""
"","","","html-keyboard-response","55","31690","0.0-3.0-1.0","11","98647","11","622","","","","68","","","","","","","","","","","","","","","","","","","","","","","","","","","","","","","","","","","","","","",""
"","deliberation","","html-keyboard-response","56","32510","0.0-3.0-2.0-0.0","11","98647","11","813","","","","68","","0","","","31690","1","","","","","","","Stimuli/Practice_stims/Deliberation/anthony-delanoix-Q0-fOL2nqZc-unsplash.jpg","Stimuli/Practice_stims/Deliberation/becca-tapert-sY5RjMB1KkE-unsplash.jpg","0","prac1","1","0","","original","1500","0","0","","","","","Stimuli/Practice_stims/Deliberation/anthony-delanoix-Q0-fOL2nqZc-unsplash.jpg","Stimuli/Practice_stims/Deliberation/becca-tapert-sY5RjMB1KkE-unsplash.jpg","","","813","0","820","0","","","",""
"","deliberation_confirmation","","html-keyboard-response","57","32712","0.0-3.0-2.0-2.0-0.0","11","98647","11","null","","","","null","","0","","","32510","","","","","","","","","","","","","","","","","0","","","","","","","","","","187","813","202","820","187","","",""
"","iti","","html-keyboard-response","58","32822","0.0-3.0-2.0-4.0","11","98647","11","null","","","","null","","0","","","32712","","","","","","","","","","","","","","","","","0","","","","","","","","","","100","1000","110","1022","100","","",""
"","deliberation","","html-keyboard-response","59","35331","0.0-3.0-4.0-0.0","11","98647","11","74","","","","68","","1","","","32822","","","","","","","","","","0","prac2","1","2500","left","scramble","2500","0","0","","","","","Stimuli/Practice_stims/Deliberation/scramble/scrambled_clay-banks-1KPfcPdbWFM-unsplash.jpg","Stimuli/Practice_stims/Deliberation/scramble/scrambled_melissa-keizer-sV4Pd8wq5_o-unsplash.jpg","","","2500","1100","2509","1132","","","",""
"","scramble_prompt","","html-keyboard-response","60","35337","0.0-3.0-4.0-1.0-0.0","11","98647","11","null","","","","null","","1","","","35331","NaN","NaN","NaN","NaN","NaN","","","NaN","NaN","","","","","","","","0","","","","","","","","","","-1500","3600","6","3641","-1500","0","1",""
"","deliberation_no_response","","html-keyboard-response","61","35446","0.0-3.0-4.0-3.0-0.0","11","98647","11","null","","","","null","","1","","","35337","","","","","","","","","","1","","","","","","","0","","","","","","","","","","100","2100","109","3647","","","","1"
"","iti","","html-keyboard-response","62","35559","0.0-3.0-4.0-4.0","11","98647","11","null","","","","null","","1","","","35446","","","","","","","","","","","","","","","","","0","","","","","","","","","","100","2200","113","3756","100","","",""
"","deliberation","","html-keyboard-response","63","37072","0.0-3.0-6.0-0.0","11","98647","11","114","","","","68","","2","","","35559","","","","","","","","","","0","prac3","1","1500","right","scramble","3000","0","0","","","","","Stimuli/Practice_stims/Deliberation/scramble/scrambled_anthony-delanoix-Q0-fOL2nqZc-unsplash.jpg","Stimuli/Practice_stims/Deliberation/scramble/scrambled_becca-tapert-sY5RjMB1KkE-unsplash.jpg","","","1500","2300","1513","3869","","","",""
"","scramble_prompt","","html-keyboard-response","64","37081","0.0-3.0-6.0-1.0-0.0","11","98647","11","null","","","","null","","2","","","37072","NaN","NaN","NaN","NaN","NaN","","","NaN","NaN","","","","","","","","0","","","","","","","","","","-500","3800","9","5382","-500","0","1",""
"","deliberation_no_response","","html-keyboard-response","65","37189","0.0-3.0-6.0-3.0-0.0","11","98647","11","null","","","","null","","2","","","37081","","","","","","","","","","1","","","","","","","0","","","","","","","","","","100","3300","108","5391","","","","1"
"","iti","","html-keyboard-response","66","37305","0.0-3.0-6.0-4.0","11","98647","11","null","","","","null","","2","","","37189","","","","","","","","","","","","","","","","","0","","","","","","","","","","100","3400","116","5499","100","","",""
"","deliberation","","html-keyboard-response","67","37381","0.0-3.0-8.0-0.0","11","98647","11","71","","","","68","","3","","","37305","1","","","","","","","Stimuli/Practice_stims/Deliberation/clay-banks-1KPfcPdbWFM-unsplash.jpg","Stimuli/Practice_stims/Deliberation/melissa-keizer-sV4Pd8wq5_o-unsplash.jpg","0","prac4","1","0","","original","2000","0","0","","","","","Stimuli/Practice_stims/Deliberation/clay-banks-1KPfcPdbWFM-unsplash.jpg","Stimuli/Practice_stims/Deliberation/melissa-keizer-sV4Pd8wq5_o-unsplash.jpg","","","71","3500","76","5615","","","",""
"","deliberation_confirmation","","html-keyboard-response","68","38321","0.0-3.0-8.0-2.0-0.0","11","98647","11","null","","","","null","","3","","","37381","","","","","","","","","","","","","","","","","0","","","","","","","","","","929","3571","940","5691","929","","",""
"","iti","","html-keyboard-response","69","38433","0.0-3.0-8.0-4.0","11","98647","11","null","","","","null","","3","","","38321","","","","","","","","","","","","","","","","","0","","","","","","","","","","100","4500","112","6631","100","","",""
"","practice_over","","html-keyboard-response","70","39698","0.0-3.0-8.0-5.0-0.0","11","98647","11","1261","","","","68","","","","","","","","","","","","","","","","","","","","","","","","","","","","","","","","","","","","","","",""
"","start_run","","html-keyboard-response","71","40619","0.0-3.0-8.0-5.0-1.0","11","98647","11","918","","","","84","","","","","","","","","","","","","","","","","","","","","","","","","","","","","","","","","","","","","","",""
"","deliberation","","html-keyboard-response","72","41931","0.0-3.0-10.0-0.0","11","98647","11","415","","","","68","","4","","","40619","","","","","","","","","","0","D","0","1300","right","scramble","3300","1","1","42","14","objects","faces","Stimuli/Experimental_stims/scramble/objects/scrambled_jess-bailey-nOeVi8DsN8U-unsplash.jpg","Stimuli/Experimental_stims/scramble/faces/scrambled_david-siglin-UuW4psOb388-unsplash.jpg","NaN","NaN","1300","0","1312","0","","","",""
"","scramble_prompt","","html-keyboard-response","73","41937","0.0-3.0-10.0-1.0-0.0","11","98647","11","null","","","","null","","4","","","41931","NaN","NaN","NaN","NaN","NaN","","","NaN","NaN","","","","","","","","1","","","","","","","","","","-300","1300","6","1312","-300","0","1",""
"","deliberation_no_response","","html-keyboard-response","74","42047","0.0-3.0-10.0-3.0-0.0","11","98647","11","null","","","","null","","4","","","41937","","","","","","","","","","1","","","","","","","1","","","","","","","","","","100","1000","110","1318","","","","1"
"","iti","","html-keyboard-response","75","42158","0.0-3.0-10.0-4.0","11","98647","11","null","","","","null","","4","","","42047","","","","","","","","","","","","","","","","","1","","","","","","","","","","100","1100","111","1428","100","","",""
"","deliberation","","html-keyboard-response","76","43668","0.0-3.0-12.0-0.0","11","98647","11","5","","","","68","","5","","","42158","","","","","","","","","","0","B","0","1500","right","scramble","1100","1","1","6","17","outdoor_scenes","faces","Stimuli/Experimental_stims/scramble/outdoor_scenes/scrambled_meng-ji-8BH_M-53CyA-unsplash.jpg","Stimuli/Experimental_stims/scramble/faces/scrambled_good-faces-xmSWVeGEnJw-unsplash.jpg","NaN","NaN","1500","1200","1510","1539","","","",""
"","scramble_prompt","","html-keyboard-response","77","43675","0.0-3.0-12.0-1.0-0.0","11","98647","11","null","","","","null","","5","","","43668","NaN","NaN","NaN","NaN","NaN","","","NaN","NaN","","","","","","","","1","","","","","","","","","","-500","2700","7","3049","-500","0","1",""
"","deliberation_no_response","","html-keyboard-response","78","43779","0.0-3.0-12.0-3.0-0.0","11","98647","11","null","","","","null","","5","","","43675","","","","","","","","","","1","","","","","","","1","","","","","","","","","","100","2200","104","3056","","","","1"
"","iti","","html-keyboard-response","79","43885","0.0-3.0-12.0-4.0","11","98647","11","null","","","","null","","5","","","43779","","","","","","","","","","","","","","","","","1","","","","","","","","","","100","2300","106","3160","100","","",""
"","deliberation","","html-keyboard-response","80","43926","0.0-3.0-14.0-0.0","11","98647","11","37","","","","68","","6","","","43885","1","5","36","outdoor_scenes","objects","50","50","Stimuli/Experimental_stims/outdoor_scenes/jeff-king-bJHWJeiHfHc-unsplash.jpg","Stimuli/Experimental_stims/objects/alexander-andrews-JYGnB9gTCls-unsplash.jpg","0","A","0","0","","original","1800","1","1","5","36","outdoor_scenes","objects","Stimuli/Experimental_stims/outdoor_scenes/jeff-king-bJHWJeiHfHc-unsplash.jpg","Stimuli/Experimental_stims/objects/alexander-andrews-JYGnB9gTCls-unsplash.jpg","50","50","37","2400","41","3266","","","",""
"","deliberation_confirmation","","html-keyboard-response","81","44900","0.0-3.0-14.0-2.0-0.0","11","98647","11","null","","","","null","","6","","","43926","","","","","","","","","","","","","","","","","1","","","","","","","","","","963","2437","974","3307","963","","",""
"","iti","","html-keyboard-response","82","45011","0.0-3.0-14.0-4.0","11","98647","11","null","","","","null","","6","","","44900","","","","","","","","","","","","","","","","","1","","","","","","","","","","100","3400","111","4281","100","","",""
"","deliberation","","html-keyboard-response","83","45277","0.0-3.0-16.0-0.0","11","98647","11","263","","","","68","","7","","","45011","1","40","25","objects","body_parts","50","50","Stimuli/Experimental_stims/objects/fabian-blank-pElSkGRA2NU-unsplash.jpg","Stimuli/Experimental_stims/body_parts/engin-akyurt-Q2rfH3GW39c-unsplash.jpg","0","E","0","0","","original","1500","1","1","40","25","objects","body_parts","Stimuli/Experimental_stims/objects/fabian-blank-pElSkGRA2NU-unsplash.jpg","Stimuli/Experimental_stims/body_parts/engin-akyurt-Q2rfH3GW39c-unsplash.jpg","50","50","263","3500","266","4392","","","",""
"","deliberation_confirmation","","html-keyboard-response","84","46020","0.0-3.0-16.0-2.0-0.0","11","98647","11","null","","","","null","","7","","","45277","","","","","","","","","","","","","","","","","1","","","","","","","","","","737","3763","743","4658","737","","",""
"","iti","","html-keyboard-response","85","46133","0.0-3.0-16.0-4.0","11","98647","11","null","","","","null","","7","","","46020","","","","","","","","","","","","","","","","","1","","","","","","","","","","100","4500","113","5401","100","","",""
"","deliberation","","html-keyboard-response","86","47943","0.0-3.0-18.0-0.0","11","98647","11","null","","","","null","","8","","","46133","","","","","","","","","","1","K","0","1800","left","scramble","2200","1","1","31","43","body_parts","objects","Stimuli/Experimental_stims/scramble/body_parts/scrambled_sincerely-media-VN6DbKajo5s-unsplash.jpg","Stimuli/Experimental_stims/scramble/objects/scrambled_jonathan-greenaway-Y4hGgeiFn3s-unsplash.jpg","NaN","NaN","1800","4600","1810","5514","","","",""
"","scramble_prompt","","html-keyboard-response","87","47948","0.0-3.0-18.0-1.0-0.0","11","98647","11","null","","","","null","","8","","","47943","NaN","NaN","NaN","NaN","NaN","","","NaN","NaN","","","","","","","","1","","","","","","","","","","-800","6400","5","7324","-800","0","1",""
"","deliberation_no_response","","html-keyboard-response","88","48059","0.0-3.0-18.0-3.0-0.0","11","98647","11","null","","","","null","","8","","","47948","","","","","","","","","","1","","","","","","","1","","","","","","","","","","100","5600","111","7329","","","","1"
"","iti","","html-keyboard-response","89","48164","0.0-3.0-18.0-4.0","11","98647","11","null","","","","null","","8","","","48059","","","","","","","","","","","","","","","","","1","","","","","","","","","","100","5700","105","7440","100","","",""
"","deliberation","","html-keyboard-response","90","48386","0.0-3.0-20.0-0.0","11","98647","11","218","","","","68","","9","","","48164","1","12","44","faces","objects","50","50","Stimuli/Experimental_stims/faces/aiony-haust-jmATI5Q_YgY-unsplash.jpg","Stimuli/Experimental_stims/objects/kuiye-chen-NuOGFo4PudE-unsplash.jpg","0","J","0","0","","original","2400","1","1","12","44","faces","objects","Stimuli/Experimental_stims/faces/aiony-haust-jmATI5Q_YgY-unsplash.jpg","Stimuli/Experimental_stims/objects/kuiye-chen-NuOGFo4PudE-unsplash.jpg","50","50","218","5800","222","7545","","","",""
"","deliberation_confirmation","","html-keyboard-response","91","49181","0.0-3.0-20.0-2.0-0.0","11","98647","11","null","","","","null","","9","","","48386","","","","","","","","","","","","","","","","","1","","","","","","","","","","782","6018","795","7767","782","","",""
"","iti","","html-keyboard-response","92","49297","0.0-3.0-20.0-4.0","11","98647","11","null","","","","null","","9","","","49181","","","","","","","","","","","","","","","","","1","","","","","","","","","","100","6800","116","8562","100","","",""
"","deliberation","","html-keyboard-response","93","50009","0.0-3.0-22.0-0.0","11","98647","11","324","","","","68","","10","","","49297","","","","","","","","","","0","L","0","700","left","scramble","3000","1","1","29","15","body_parts","faces","Stimuli/Experimental_stims/scramble/body_parts/scrambled_manuel-schinner-ZwjFuJ7ebpk-unsplash.jpg","Stimuli/Experimental_stims/scramble/faces/scrambled_erik-lucatero-d2MSDujJl2g-unsplash.jpg","NaN","NaN","700","6900","712","8678","","","",""
"","scramble_prompt","","html-keyboard-response","94","50317","0.0-3.0-22.0-1.0-0.0","11","98647","11","null","","","","null","","10","","","50009","NaN","NaN","NaN","NaN","NaN","","","NaN","NaN","","","","","","","","1","","","","","","","","","","300","7600","308","9390","300","0","1",""
"","deliberation_no_response","","html-keyboard-response","95","50429","0.0-3.0-22.0-3.0-0.0","11","98647","11","null","","","","null","","10","","","50317","","","","","","","","","","1","","","","","","","1","","","","","","","","","","100","7900","112","9698","","","","1"
"","iti","","html-keyboard-response","96","50545","0.0-3.0-22.0-4.0","11","98647","11","null","","","","null","","10","","","50429","","","","","","","","","","","","","","","","","1","","","","","","","","","","100","8000","116","9810","100","","",""
"","deliberation","","html-keyboard-response","97","50981","0.0-3.0-24.0-0.0","11","98647","11","432","","","","68","","11","","","50545","1","3","33","outdoor_scenes","body_parts","50","50","Stimuli/Experimental_stims/outdoor_scenes/henry-be-NLF6hTe4PAg-unsplash.jpg","Stimuli/Experimental_stims/body_parts/tucker-good-36skLT5jZcc-unsplash.jpg","0","C","0","0","","original","1100","1","1","3","33","outdoor_scenes","body_parts","Stimuli/Experimental_stims/outdoor_scenes/henry-be-NLF6hTe4PAg-unsplash.jpg","Stimuli/Experimental_stims/body_parts/tucker-good-36skLT5jZcc-unsplash.jpg","50","50","432","8100","436","9926","","","",""
"","deliberation_confirmation","","html-keyboard-response","98","51558","0.0-3.0-24.0-2.0-0.0","11","98647","11","null","","","","null","","11","","","50981","","","","","","","","","","","","","","","","","1","","","","","","","","","","568","8532","577","10362","568","","",""
"","iti","","html-keyboard-response","99","51669","0.0-3.0-24.0-4.0","11","98647","11","null","","","","null","","11","","","51558","","","","","","","","","","","","","","","","","1","","","","","","","","","","100","9100","111","10939","100","","",""
"","deliberation","","html-keyboard-response","100","52098","0.0-3.0-26.0-0.0","11","98647","11","425","","","","68","","12","","","51669","1","22","30","faces","body_parts","50","50","Stimuli/Experimental_stims/faces/ravi-patel-VMGAbeeJTKo-unsplash.jpg","Stimuli/Experimental_stims/body_parts/mika-korhonen-Xodzxosar18-unsplash.jpg","0","F","0","0","","original","2300","1","1","22","30","faces","body_parts","Stimuli/Experimental_stims/faces/ravi-patel-VMGAbeeJTKo-unsplash.jpg","Stimuli/Experimental_stims/body_parts/mika-korhonen-Xodzxosar18-unsplash.jpg","50","50","425","9200","429","11050","","","",""
"","deliberation_confirmation","","html-keyboard-response","101","52687","0.0-3.0-26.0-2.0-0.0","11","98647","11","null","","","","null","","12","","","52098","","","","","","","","","","","","","","","","","1","","","","","","","","","","575","9625","589","11479","575","","",""
"","iti","","html-keyboard-response","102","52801","0.0-3.0-26.0-4.0","11","98647","11","null","","","","null","","12","","","52687","","","","","","","","","","","","","","","","","1","","","","","","","","","","100","10200","114","12068","100","","",""
"","deliberation","","html-keyboard-response","103","54415","0.0-3.0-28.0-0.0","11","98647","11","375","","","","68","","13","","","52801","","","","","","","","","","0","I","0","1600","left","scramble","1400","1","1","28","10","body_parts","outdoor_scenes","Stimuli/Experimental_stims/scramble/body_parts/scrambled_ira-vishnevskaya-8DQAvdCby1I-unsplash.jpg","Stimuli/Experimental_stims/scramble/outdoor_scenes/scrambled_shannon-kunkle-dM8INmkyDas-unsplash.jpg","NaN","NaN","1600","10300","1614","12182","","","",""
"","scramble_prompt","","html-keyboard-response","104","54421","0.0-3.0-28.0-1.0-0.0","11","98647","11","null","","","","null","","13","","","54415","NaN","NaN","NaN","NaN","NaN","","","NaN","NaN","","","","","","","","1","","","","","","","","","","-600","11900","6","13796","-600","0","1",""
"","deliberation_no_response","","html-keyboard-response","105","54535","0.0-3.0-28.0-3.0-0.0","11","98647","11","null","","","","null","","13","","","54421","","","","","","","","","","1","","","","","","","1","","","","","","","","","","100","11300","114","13802","","","","1"
"","iti","","html-keyboard-response","106","54646","0.0-3.0-28.0-4.0","11","98647","11","null","","","","null","","13","","","54535","","","","","","","","","","","","","","","","","1","","","","","","","","","","100","11400","111","13916","100","","",""
"","deliberation","","html-keyboard-response","107","54725","0.0-3.0-30.0-0.0","11","98647","11","76","","","","68","","14","","","54646","1","23","7","faces","outdoor_scenes","50","50","Stimuli/Experimental_stims/faces/rikonavt-HQjfrvdTfak-unsplash.jpg","Stimuli/Experimental_stims/outdoor_scenes/petr-vysohlid-9fqwGqGLUxc-unsplash.jpg","0","H","0","0","","original","2600","1","1","23","7","faces","outdoor_scenes","Stimuli/Experimental_stims/faces/rikonavt-HQjfrvdTfak-unsplash.jpg","Stimuli/Experimental_stims/outdoor_scenes/petr-vysohlid-9fqwGqGLUxc-unsplash.jpg","50","50","76","11500","79","14027","","","",""
"","deliberation_confirmation","","html-keyboard-response","108","55662","0.0-3.0-30.0-2.0-0.0","11","98647","11","null","","","","null","","14","","","54725","","","","","","","","","","","","","","","","","1","","","","","","","","","","924","11576","937","14106","924","","",""
"","iti","","html-keyboard-response","109","55773","0.0-3.0-30.0-4.0","11","98647","11","null","","","","null","","14","","","55662","","","","","","","","","","","","","","","","","1","","","","","","","","","","100","12500","111","15043","100","","",""
"","deliberation","","html-keyboard-response","110","57282","0.0-3.0-32.0-0.0","11","98647","11","609","","","","68","","15","","","55773","","","","","","","","","","0","C","0","1500","right","scramble","4300","1","1","3","33","outdoor_scenes","body_parts","Stimuli/Experimental_stims/scramble/outdoor_scenes/scrambled_henry-be-NLF6hTe4PAg-unsplash.jpg","Stimuli/Experimental_stims/scramble/body_parts/scrambled_tucker-good-36skLT5jZcc-unsplash.jpg","NaN","NaN","1500","12600","1509","15154","","","",""
"","scramble_prompt","","html-keyboard-response","111","57287","0.0-3.0-32.0-1.0-0.0","11","98647","11","null","","","","null","","15","","","57282","NaN","NaN","NaN","NaN","NaN","","","NaN","NaN","","","","","","","","1","","","","","","","","","","-500","14100","5","16663","-500","0","1",""
"","deliberation_no_response","","html-keyboard-response","112","57396","0.0-3.0-32.0-3.0-0.0","11","98647","11","null","","","","null","","15","","","57287","","","","","","","","","","1","","","","","","","1","","","","","","","","","","100","13600","109","16668","","","","1"
"","iti","","html-keyboard-response","113","57509","0.0-3.0-32.0-4.0","11","98647","11","null","","","","null","","15","","","57396","","","","","","","","","","","","","","","","","1","","","","","","","","","","100","13700","113","16777","100","","",""
"","deliberation","","html-keyboard-response","114","57929","0.0-3.0-34.0-0.0","11","98647","11","417","","","","68","","16","","","57509","1","31","43","body_parts","objects","50","50","Stimuli/Experimental_stims/body_parts/sincerely-media-VN6DbKajo5s-unsplash.jpg","Stimuli/Experimental_stims/objects/jonathan-greenaway-Y4hGgeiFn3s-unsplash.jpg","0","K","0","0","","original","1900","1","1","31","43","body_parts","objects","Stimuli/Experimental_stims/body_parts/sincerely-media-VN6DbKajo5s-unsplash.jpg","Stimuli/Experimental_stims/objects/jonathan-greenaway-Y4hGgeiFn3s-unsplash.jpg","50","50","417","13800","420","16890","","","",""
"","deliberation_confirmation","","html-keyboard-response","115","58525","0.0-3.0-34.0-2.0-0.0","11","98647","11","null","","","","null","","16","","","57929","","","","","","","","","","","","","","","","","1","","","","","","","","","","583","14217","596","17310","583","","",""
"","iti","","html-keyboard-response","116","58635","0.0-3.0-34.0-4.0","11","98647","11","null","","","","null","","16","","","58525","","","","","","","","","","","","","","","","","1","","","","","","","","","","100","14800","110","17906","100","","",""
"","deliberation","","html-keyboard-response","117","59940","0.0-3.0-36.0-0.0","11","98647","11","393","","","","68","","17","","","58635","","","","","","","","","","0","J","0","1300","right","scramble","1100","1","1","12","44","faces","objects","Stimuli/Experimental_stims/scramble/faces/scrambled_aiony-haust-jmATI5Q_YgY-unsplash.jpg","Stimuli/Experimental_stims/scramble/objects/scrambled_kuiye-chen-NuOGFo4PudE-unsplash.jpg","NaN","NaN","1300","14900","1305","18016","","","",""
"","scramble_prompt","","html-keyboard-response","118","59944","0.0-3.0-36.0-1.0-0.0","11","98647","11","null","","","","null","","17","","","59940","NaN","NaN","NaN","NaN","NaN","","","NaN","NaN","","","","","","","","1","","","","","","","","","","-300","16200","4","19321","-300","0","1",""
"","deliberation_no_response","","html-keyboard-response","119","60050","0.0-3.0-36.0-3.0-0.0","11","98647","11","null","","","","null","","17","","","59944","","","","","","","","","","1","","","","","","","1","","","","","","","","","","100","15900","106","19325","","","","1"
"","iti","","html-keyboard-response","120","60156","0.0-3.0-36.0-4.0","11","98647","11","null","","","","null","","17","","","60050","","","","","","","","","","","","","","","","","1","","","","","","","","","","100","16000","106","19431","100","","",""
"","deliberation","","html-keyboard-response","121","60275","0.0-3.0-38.0-0.0","11","98647","11","114","","","","68","","18","","","60156","1","38","9","objects","outdoor_scenes","50","50","Stimuli/Experimental_stims/objects/art-lasovsky-8XddFc6NkBY-unsplash.jpg","Stimuli/Experimental_stims/outdoor_scenes/sergey-pesterev-y-b_FOmJXdg-unsplash.jpg","0","G","0","0","","original","1500","1","1","38","9","objects","outdoor_scenes","Stimuli/Experimental_stims/objects/art-lasovsky-8XddFc6NkBY-unsplash.jpg","Stimuli/Experimental_stims/outdoor_scenes/sergey-pesterev-y-b_FOmJXdg-unsplash.jpg","50","50","114","16100","119","19537","","","",""
"","deliberation_confirmation","","html-keyboard-response","122","61170","0.0-3.0-38.0-2.0-0.0","11","98647","11","null","","","","null","","18","","","60275","","","","","","","","","","","","","","","","","1","","","","","","","","","","886","16214","895","19656","886","","",""
"","iti","","html-keyboard-response","123","61278","0.0-3.0-38.0-4.0","11","98647","11","null","","","","null","","18","","","61170","","","","","","","","","","","","","","","","","1","","","","","","","","","","100","17100","108","20551","100","","",""
"","deliberation","","html-keyboard-response","124","63283","0.0-3.0-40.0-0.0","11","98647","11","287","","","","68","","19","","","61278","","","","","","","","","","0","H","0","2000","right","scramble","1300","1","1","23","7","faces","outdoor_scenes","Stimuli/Experimental_stims/scramble/faces/scrambled_rikonavt-HQjfrvdTfak-unsplash.jpg","Stimuli/Experimental_stims/scramble/outdoor_scenes/scrambled_petr-vysohlid-9fqwGqGLUxc-unsplash.jpg","NaN","NaN","2000","17200","2005","20659","","","",""
"","scramble_prompt","","html-keyboard-response","125","63287","0.0-3.0-40.0-1.0-0.0","11","98647","11","null","","","","null","","19","","","63283","NaN","NaN","NaN","NaN","NaN","","","NaN","NaN","","","","","","","","1","","","","","","","","","","-1000","19200","4","22664","-1000","0","1",""
"","deliberation_no_response","","html-keyboard-response","126","63395","0.0-3.0-40.0-3.0-0.0","11","98647","11","null","","","","null","","19","","","63287","","","","","","","","","","1","","","","","","","1","","","","","","","","","","100","18200","108","22668","","","","1"
"","iti","","html-keyboard-response","127","63499","0.0-3.0-40.0-4.0","11","98647","11","null","","","","null","","19","","","63395","","","","","","","","","","","","","","","","","1","","","","","","","","","","100","18300","104","22776","100","","",""
"","deliberation","","html-keyboard-response","128","65416","0.0-3.0-42.0-0.0","11","98647","11","224","","","","68","","20","","","63499","","","","","","","","","","0","A","0","1900","left","scramble","3500","1","1","5","36","outdoor_scenes","objects","Stimuli/Experimental_stims/scramble/outdoor_scenes/scrambled_jeff-king-bJHWJeiHfHc-unsplash.jpg","Stimuli/Experimental_stims/scramble/objects/scrambled_alexander-andrews-JYGnB9gTCls-unsplash.jpg","NaN","NaN","1900","18400","1917","22880","","","",""
"","scramble_prompt","","html-keyboard-response","129","65425","0.0-3.0-42.0-1.0-0.0","11","98647","11","null","","","","null","","20","","","65416","NaN","NaN","NaN","NaN","NaN","","","NaN","NaN","","","","","","","","1","","","","","","","","","","-900","20300","9","24797","-900","0","1",""
"","deliberation_no_response","","html-keyboard-response","130","65532","0.0-3.0-42.0-3.0-0.0","11","98647","11","null","","","","null","","20","","","65425","","","","","","","","","","1","","","","","","","1","","","","","","","","","","100","19400","107","24806","","","","1"
"","iti","","html-keyboard-response","131","65648","0.0-3.0-42.0-4.0","11","98647","11","null","","","","null","","20","","","65532","","","","","","","","","","","","","","","","","1","","","","","","","","","","100","19500","116","24913","100","","",""
"","deliberation","","html-keyboard-response","132","65787","0.0-3.0-44.0-0.0","11","98647","11","136","","","","68","","21","","","65648","1","29","15","body_parts","faces","50","50","Stimuli/Experimental_stims/body_parts/manuel-schinner-ZwjFuJ7ebpk-unsplash.jpg","Stimuli/Experimental_stims/faces/erik-lucatero-d2MSDujJl2g-unsplash.jpg","0","L","0","0","","original","1400","1","1","29","15","body_parts","faces","Stimuli/Experimental_stims/body_parts/manuel-schinner-ZwjFuJ7ebpk-unsplash.jpg","Stimuli/Experimental_stims/faces/erik-lucatero-d2MSDujJl2g-unsplash.jpg","50","50","136","19600","139","25029","","","",""
"","deliberation_confirmation","","html-keyboard-response","133","66663","0.0-3.0-44.0-2.0-0.0","11","98647","11","null","","","","null","","21","","","65787","","","","","","","","","","","","","","","","","1","","","","","","","","","","864","19736","876","25168","864","","",""
"","iti","","html-keyboard-response","134","66776","0.0-3.0-44.0-4.0","11","98647","11","null","","","","null","","21","","","66663","","","","","","","","","","","","","","","","","1","","","","","","","","","","100","20600","113","26044","100","","",""
"","deliberation","","html-keyboard-response","135","66804","0.0-3.0-46.0-0.0","11","98647","11","25","","","","68","","22","","","66776","1","28","10","body_parts","outdoor_scenes","50","50","Stimuli/Experimental_stims/body_parts/ira-vishnevskaya-8DQAvdCby1I-unsplash.jpg","Stimuli/Experimental_stims/outdoor_scenes/shannon-kunkle-dM8INmkyDas-unsplash.jpg","0","I","0","0","","original","1300","1","1","28","10","body_parts","outdoor_scenes","Stimuli/Experimental_stims/body_parts/ira-vishnevskaya-8DQAvdCby1I-unsplash.jpg","Stimuli/Experimental_stims/outdoor_scenes/shannon-kunkle-dM8INmkyDas-unsplash.jpg","50","50","25","20700","28","26157","","","",""
"","deliberation_confirmation","","html-keyboard-response","136","67787","0.0-3.0-46.0-2.0-0.0","11","98647","11","null","","","","null","","22","","","66804","","","","","","","","","","","","","","","","","1","","","","","","","","","","975","20725","983","26185","975","","",""
"","iti","","html-keyboard-response","137","67901","0.0-3.0-46.0-4.0","11","98647","11","null","","","","null","","22","","","67787","","","","","","","","","","","","","","","","","1","","","","","","","","","","100","21700","114","27168","100","","",""
"","deliberation","","html-keyboard-response","138","68911","0.0-3.0-48.0-0.0","11","98647","11","121","","","","68","","23","","","67901","","","","","","","","","","0","G","0","1000","left","scramble","1100","1","1","38","9","objects","outdoor_scenes","Stimuli/Experimental_stims/scramble/objects/scrambled_art-lasovsky-8XddFc6NkBY-unsplash.jpg","Stimuli/Experimental_stims/scramble/outdoor_scenes/scrambled_sergey-pesterev-y-b_FOmJXdg-unsplash.jpg","NaN","NaN","1000","21800","1010","27282","","","",""
"","scramble_prompt","","html-keyboard-response","139","68918","0.0-3.0-48.0-1.0-0.0","11","98647","11","null","","","","null","","23","","","68911","NaN","NaN","NaN","NaN","NaN","","","NaN","NaN","","","","","","","","1","","","","","","","","","","0","22800","7","28292","0","0","1",""
"","deliberation_no_response","","html-keyboard-response","140","69028","0.0-3.0-48.0-3.0-0.0","11","98647","11","null","","","","null","","23","","","68918","","","","","","","","","","1","","","","","","","1","","","","","","","","","","100","22800","110","28299","","","","1"
"","iti","","html-keyboard-response","141","69140","0.0-3.0-48.0-4.0","11","98647","11","null","","","","null","","23","","","69028","","","","","","","","","","","","","","","","","1","","","","","","","","","","100","22900","112","28409","100","","",""
"","deliberation","","html-keyboard-response","142","69351","0.0-3.0-50.0-0.0","11","98647","11","207","","","","68","","24","","","69140","1","6","17","outdoor_scenes","faces","50","50","Stimuli/Experimental_stims/outdoor_scenes/meng-ji-8BH_M-53CyA-unsplash.jpg","Stimuli/Experimental_stims/faces/good-faces-xmSWVeGEnJw-unsplash.jpg","0","B","0","0","","original","1200","1","1","6","17","outdoor_scenes","faces","Stimuli/Experimental_stims/outdoor_scenes/meng-ji-8BH_M-53CyA-unsplash.jpg","Stimuli/Experimental_stims/faces/good-faces-xmSWVeGEnJw-unsplash.jpg","50","50","207","23000","211","28521","","","",""
"","deliberation_confirmation","","html-keyboard-response","143","70155","0.0-3.0-50.0-2.0-0.0","11","98647","11","null","","","","null","","24","","","69351","","","","","","","","","","","","","","","","","1","","","","","","","","","","793","23207","804","28732","793","","",""
"","iti","","html-keyboard-response","144","70265","0.0-3.0-50.0-4.0","11","98647","11","null","","","","null","","24","","","70155","","","","","","","","","","","","","","","","","1","","","","","","","","","","100","24000","110","29536","100","","",""
"","deliberation","","html-keyboard-response","145","71574","0.0-3.0-52.0-0.0","11","98647","11","94","","","","68","","25","","","70265","","","","","","","","","","0","E","0","1300","right","scramble","1100","1","1","40","25","objects","body_parts","Stimuli/Experimental_stims/scramble/objects/scrambled_fabian-blank-pElSkGRA2NU-unsplash.jpg","Stimuli/Experimental_stims/scramble/body_parts/scrambled_engin-akyurt-Q2rfH3GW39c-unsplash.jpg","NaN","NaN","1300","24100","1309","29646","","","",""
"","scramble_prompt","","html-keyboard-response","146","71578","0.0-3.0-52.0-1.0-0.0","11","98647","11","null","","","","null","","25","","","71574","NaN","NaN","NaN","NaN","NaN","","","NaN","NaN","","","","","","","","1","","","","","","","","","","-300","25400","4","30955","-300","0","1",""
"","deliberation_no_response","","html-keyboard-response","147","71687","0.0-3.0-52.0-3.0-0.0","11","98647","11","null","","","","null","","25","","","71578","","","","","","","","","","1","","","","","","","1","","","","","","","","","","100","25100","109","30959","","","","1"
"","iti","","html-keyboard-response","148","71798","0.0-3.0-52.0-4.0","11","98647","11","null","","","","null","","25","","","71687","","","","","","","","","","","","","","","","","1","","","","","","","","","","100","25200","111","31068","100","","",""
"","deliberation","","html-keyboard-response","149","71988","0.0-3.0-54.0-0.0","11","98647","11","187","","","","68","","26","","","71798","1","42","14","objects","faces","50","50","Stimuli/Experimental_stims/objects/jess-bailey-nOeVi8DsN8U-unsplash.jpg","Stimuli/Experimental_stims/faces/david-siglin-UuW4psOb388-unsplash.jpg","0","D","0","0","","original","1700","1","1","42","14","objects","faces","Stimuli/Experimental_stims/objects/jess-bailey-nOeVi8DsN8U-unsplash.jpg","Stimuli/Experimental_stims/faces/david-siglin-UuW4psOb388-unsplash.jpg","50","50","187","25300","190","31179","","","",""
"","deliberation_confirmation","","html-keyboard-response","150","72814","0.0-3.0-54.0-2.0-0.0","11","98647","11","null","","","","null","","26","","","71988","","","","","","","","","","","","","","","","","1","","","","","","","","","","813","25487","826","31369","813","","",""
"","iti","","html-keyboard-response","151","72928","0.0-3.0-54.0-4.0","11","98647","11","null","","","","null","","26","","","72814","","","","","","","","","","","","","","","","","1","","","","","","","","","","100","26300","114","32195","100","","",""
"","deliberation","","html-keyboard-response","152","74041","0.0-3.0-56.0-0.0","11","98647","11","20","","","","68","","27","","","72928","","","","","","","","","","0","F","0","1100","left","scramble","2200","1","1","22","30","faces","body_parts","Stimuli/Experimental_stims/scramble/faces/scrambled_ravi-patel-VMGAbeeJTKo-unsplash.jpg","Stimuli/Experimental_stims/scramble/body_parts/scrambled_mika-korhonen-Xodzxosar18-unsplash.jpg","NaN","NaN","1100","26400","1113","32309","","","",""
"","scramble_prompt","","html-keyboard-response","153","74047","0.0-3.0-56.0-1.0-0.0","11","98647","11","null","","","","null","","27","","","74041","NaN","NaN","NaN","NaN","NaN","","","NaN","NaN","","","","","","","","1","","","","","","","","","","-100","27500","6","33422","-100","0","1",""
"","deliberation_no_response","","html-keyboard-response","154","74155","0.0-3.0-56.0-3.0-0.0","11","98647","11","null","","","","null","","27","","","74047","","","","","","","","","","1","","","","","","","1","","","","","","","","","","100","27400","108","33428","","","","1"
"","iti","","html-keyboard-response","155","74268","0.0-3.0-56.0-4.0","11","98647","11","null","","","","null","","27","","","74155","","","","","","","","","","","","","","","","","1","","","","","","","","","","100","27500","113","33536","100","","",""
"","deliberation","","html-keyboard-response","156","74283","0.0-3.0-58.0-0.0","11","98647","11","11","","","","68","","28","","","74268","1","31","43","body_parts","objects","50","50","Stimuli/Experimental_stims/body_parts/sincerely-media-VN6DbKajo5s-unsplash.jpg","Stimuli/Experimental_stims/objects/jonathan-greenaway-Y4hGgeiFn3s-unsplash.jpg","0","K","0","0","","original","3200","2","1","31","43","body_parts","objects","Stimuli/Experimental_stims/body_parts/sincerely-media-VN6DbKajo5s-unsplash.jpg","Stimuli/Experimental_stims/objects/jonathan-greenaway-Y4hGgeiFn3s-unsplash.jpg","50","50","11","27600","15","33649","","","",""
"","deliberation_confirmation","","html-keyboard-response","157","75286","0.0-3.0-58.0-2.0-0.0","11","98647","11","null","","","","null","","28","","","74283","","","","","","","","","","","","","","","","","2","","","","","","","","","","989","27611","1003","33664","989","","",""
"","iti","","html-keyboard-response","158","75399","0.0-3.0-58.0-4.0","11","98647","11","null","","","","null","","28","","","75286","","","","","","","","","","","","","","","","","2","","","","","","","","","","100","28600","113","34667","100","","",""
"","deliberation","","html-keyboard-response","159","75404","0.0-3.0-60.0-0.0","11","98647","11","0","","","","68","","29","","","75399","1","28","10","body_parts","outdoor_scenes","50","50","Stimuli/Experimental_stims/body_parts/ira-vishnevskaya-8DQAvdCby1I-unsplash.jpg","Stimuli/Experimental_stims/outdoor_scenes/shannon-kunkle-dM8INmkyDas-unsplash.jpg","0","I","0","0","","original","2900","2","1","28","10","body_parts","outdoor_scenes","Stimuli/Experimental_stims/body_parts/ira-vishnevskaya-8DQAvdCby1I-unsplash.jpg","Stimuli/Experimental_stims/outdoor_scenes/shannon-kunkle-dM8INmkyDas-unsplash.jpg","50","50","0","28700","5","34780","","","",""
"","deliberation_confirmation","","html-keyboard-response","160","76413","0.0-3.0-60.0-2.0-0.0","11","98647","11","null","","","","null","","29","","","75404","","","","","","","","","","","","","","","","","2","","","","","","","","","","1000","28700","1009","34785","1000","","",""
"","iti","","html-keyboard-response","161","76526","0.0-3.0-60.0-4.0","11","98647","11","null","","","","null","","29","","","76413","","","","","","","","","","","","","","","","","2","","","","","","","","","","100","29700","113","35794","100","","",""
"","deliberation","","html-keyboard-response","162","78141","0.0-3.0-62.0-0.0","11","98647","11","402","","","","68","","30","","","76526","","","","","","","","","","0","C","0","1600","right","scramble","1300","2","1","3","33","outdoor_scenes","body_parts","Stimuli/Experimental_stims/scramble/outdoor_scenes/scrambled_henry-be-NLF6hTe4PAg-unsplash.jpg","Stimuli/Experimental_stims/scramble/body_parts/scrambled_tucker-good-36skLT5jZcc-unsplash.jpg","NaN","NaN","1600","29800","1615","35907","","","",""
"","scramble_prompt","","html-keyboard-response","163","78146","0.0-3.0-62.0-1.0-0.0","11","98647","11","null","","","","null","","30","","","78141","NaN","NaN","NaN","NaN","NaN","","","NaN","NaN","","","","","","","","2","","","","","","","","","","-600","31400","5","37522","-600","0","1",""
"","deliberation_no_response","","html-keyboard-response","164","78252","0.0-3.0-62.0-3.0-0.0","11","98647","11","null","","","","null","","30","","","78146","","","","","","","","","","1","","","","","","","2","","","","","","","","","","100","30800","106","37527","","","","1"
"","iti","","html-keyboard-response","165","78363","0.0-3.0-62.0-4.0","11","98647","11","null","","","","null","","30","","","78252","","","","","","","","","","","","","","","","","2","","","","","","","","","","100","30900","111","37633","100","","",""
"","deliberation","","html-keyboard-response","166","79078","0.0-3.0-64.0-0.0","11","98647","11","31","","","","75","","31","","","78363","","","","","","","","","","0","H","0","700","left","scramble","1000","2","1","23","7","faces","outdoor_scenes","Stimuli/Experimental_stims/scramble/faces/scrambled_rikonavt-HQjfrvdTfak-unsplash.jpg","Stimuli/Experimental_stims/scramble/outdoor_scenes/scrambled_petr-vysohlid-9fqwGqGLUxc-unsplash.jpg","NaN","NaN","700","31000","715","37744","","","",""
"","scramble_prompt","","html-keyboard-response","167","79389","0.0-3.0-64.0-1.0-0.0","11","98647","11","null","","","","null","","31","","","79078","NaN","NaN","NaN","NaN","NaN","","","NaN","NaN","","","","","","","","2","","","","","","","","","","300","31700","311","38459","300","0","1",""
"","deliberation_no_response","","html-keyboard-response","168","79505","0.0-3.0-64.0-3.0-0.0","11","98647","11","null","","","","null","","31","","","79389","","","","","","","","","","1","","","","","","","2","","","","","","","","","","100","32000","116","38770","","","","1"
"","iti","","html-keyboard-response","169","79618","0.0-3.0-64.0-4.0","11","98647","11","null","","","","null","","31","","","79505","","","","","","","","","","","","","","","","","2","","","","","","","","","","100","32100","113","38886","100","","",""
"","deliberation","","html-keyboard-response","170","79718","0.0-3.0-66.0-0.0","11","98647","11","96","","","","75","","32","","","79618","0","25","40","body_parts","objects","50","50","Stimuli/Experimental_stims/body_parts/engin-akyurt-Q2rfH3GW39c-unsplash.jpg","Stimuli/Experimental_stims/objects/fabian-blank-pElSkGRA2NU-unsplash.jpg","0","E","0","0","","original","1000","2","1","40","25","objects","body_parts","Stimuli/Experimental_stims/objects/fabian-blank-pElSkGRA2NU-unsplash.jpg","Stimuli/Experimental_stims/body_parts/engin-akyurt-Q2rfH3GW39c-unsplash.jpg","50","50","96","32200","100","38999","","","",""
"","deliberation_confirmation","","html-keyboard-response","171","80632","0.0-3.0-66.0-2.0-0.0","11","98647","11","null","","","","null","","32","","","79718","","","","","","","","","","","","","","","","","2","","","","","","","","","","904","32296","914","39099","904","","",""
"","iti","","html-keyboard-response","172","80741","0.0-3.0-66.0-4.0","11","98647","11","null","","","","null","","32","","","80632","","","","","","","","","","","","","","","","","2","","","","","","","","","","100","33200","109","40013","100","","",""
"","deliberation","","html-keyboard-response","173","82548","0.0-3.0-68.0-0.0","11","98647","11","345","","","","75","","33","","","80741","","","","","","","","","","0","F","0","1800","right","scramble","1300","2","1","22","30","faces","body_parts","Stimuli/Experimental_stims/scramble/faces/scrambled_ravi-patel-VMGAbeeJTKo-unsplash.jpg","Stimuli/Experimental_stims/scramble/body_parts/scrambled_mika-korhonen-Xodzxosar18-unsplash.jpg","NaN","NaN","1800","33300","1807","40122","","","",""
"","scramble_prompt","","html-keyboard-response","174","82554","0.0-3.0-68.0-1.0-0.0","11","98647","11","null","","","","null","","33","","","82548","NaN","NaN","NaN","NaN","NaN","","","NaN","NaN","","","","","","","","2","","","","","","","","","","-800","35100","6","41929","-800","0","1",""
"","deliberation_no_response","","html-keyboard-response","175","82659","0.0-3.0-68.0-3.0-0.0","11","98647","11","null","","","","null","","33","","","82554","","","","","","","","","","1","","","","","","","2","","","","","","","","","","100","34300","105","41935","","","","1"
"","iti","","html-keyboard-response","176","82769","0.0-3.0-68.0-4.0","11","98647","11","null","","","","null","","33","","","82659","","","","","","","","","","","","","","","","","2","","","","","","","","","","100","34400","110","42040","100","","",""
"","deliberation","","html-keyboard-response","177","84675","0.0-3.0-70.0-0.0","11","98647","11","186","","","","75","","34","","","82769","","","","","","","","","","0","D","0","1900","left","scramble","2500","2","1","42","14","objects","faces","Stimuli/Experimental_stims/scramble/objects/scrambled_jess-bailey-nOeVi8DsN8U-unsplash.jpg","Stimuli/Experimental_stims/scramble/faces/scrambled_david-siglin-UuW4psOb388-unsplash.jpg","NaN","NaN","1900","34500","1906","42150","","","",""
"","scramble_prompt","","html-keyboard-response","178","84683","0.0-3.0-70.0-1.0-0.0","11","98647","11","null","","","","null","","34","","","84675","NaN","NaN","NaN","NaN","NaN","","","NaN","NaN","","","","","","","","2","","","","","","","","","","-900","36400","8","44056","-900","0","1",""
"","deliberation_no_response","","html-keyboard-response","179","84790","0.0-3.0-70.0-3.0-0.0","11","98647","11","null","","","","null","","34","","","84683","","","","","","","","","","1","","","","","","","2","","","","","","","","","","100","35500","107","44064","","","","1"
"","iti","","html-keyboard-response","180","84900","0.0-3.0-70.0-4.0","11","98647","11","null","","","","null","","34","","","84790","","","","","","","","","","","","","","","","","2","","","","","","","","","","100","35600","110","44171","100","","",""
"","deliberation","","html-keyboard-response","181","85064","0.0-3.0-72.0-0.0","11","98647","11","160","","","","75","","35","","","84900","0","33","3","body_parts","outdoor_scenes","50","50","Stimuli/Experimental_stims/body_parts/tucker-good-36skLT5jZcc-unsplash.jpg","Stimuli/Experimental_stims/outdoor_scenes/henry-be-NLF6hTe4PAg-unsplash.jpg","0","C","0","0","","original","1700","2","1","3","33","outdoor_scenes","body_parts","Stimuli/Experimental_stims/outdoor_scenes/henry-be-NLF6hTe4PAg-unsplash.jpg","Stimuli/Experimental_stims/body_parts/tucker-good-36skLT5jZcc-unsplash.jpg","50","50","160","35700","164","44281","","","",""
"","deliberation_confirmation","","html-keyboard-response","182","85917","0.0-3.0-72.0-2.0-0.0","11","98647","11","null","","","","null","","35","","","85064","","","","","","","","","","","","","","","","","2","","","","","","","","","","840","35860","853","44445","840","","",""
"","iti","","html-keyboard-response","183","86028","0.0-3.0-72.0-4.0","11","98647","11","null","","","","null","","35","","","85917","","","","","","","","","","","","","","","","","2","","","","","","","","","","100","36700","111","45298","100","","",""
"","deliberation","","html-keyboard-response","184","87743","0.0-3.0-74.0-0.0","11","98647","11","93","","","","75","","36","","","86028","","","","","","","","","","0","B","0","1700","right","scramble","3800","2","1","6","17","outdoor_scenes","faces","Stimuli/Experimental_stims/scramble/outdoor_scenes/scrambled_meng-ji-8BH_M-53CyA-unsplash.jpg","Stimuli/Experimental_stims/scramble/faces/scrambled_good-faces-xmSWVeGEnJw-unsplash.jpg","NaN","NaN","1700","36800","1715","45409","","","",""
"","scramble_prompt","","html-keyboard-response","185","87748","0.0-3.0-74.0-1.0-0.0","11","98647","11","null","","","","null","","36","","","87743","NaN","NaN","NaN","NaN","NaN","","","NaN","NaN","","","","","","","","2","","","","","","","","","","-700","38500","5","47124","-700","0","1",""
"","deliberation_no_response","","html-keyboard-response","186","87862","0.0-3.0-74.0-3.0-0.0","11","98647","11","null","","","","null","","36","","","87748","","","","","","","","","","1","","","","","","","2","","","","","","","","","","100","37800","114","47129","","","","1"
"","iti","","html-keyboard-response","187","87973","0.0-3.0-74.0-4.0","11","98647","11","null","","","","null","","36","","","87862","","","","","","","","","","","","","","","","","2","","","","","","","","","","100","37900","111","47243","100","","",""
"","deliberation","","html-keyboard-response","188","88167","0.0-3.0-76.0-0.0","11","98647","11","189","","","","75","","37","","","87973","0","36","5","objects","outdoor_scenes","50","50","Stimuli/Experimental_stims/objects/alexander-andrews-JYGnB9gTCls-unsplash.jpg","Stimuli/Experimental_stims/outdoor_scenes/jeff-king-bJHWJeiHfHc-unsplash.jpg","0","A","0","0","","original","2400","2","1","5","36","outdoor_scenes","objects","Stimuli/Experimental_stims/outdoor_scenes/jeff-king-bJHWJeiHfHc-unsplash.jpg","Stimuli/Experimental_stims/objects/alexander-andrews-JYGnB9gTCls-unsplash.jpg","50","50","189","38000","194","47354","","","",""
"","deliberation_confirmation","","html-keyboard-response","189","88988","0.0-3.0-76.0-2.0-0.0","11","98647","11","null","","","","null","","37","","","88167","","","","","","","","","","","","","","","","","2","","","","","","","","","","811","38189","821","47548","811","","",""
"","iti","","html-keyboard-response","190","89104","0.0-3.0-76.0-4.0","11","98647","11","null","","","","null","","37","","","88988","","","","","","","","","","","","","","","","","2","","","","","","","","","","100","39000","116","48369","100","","",""
"","deliberation","","html-keyboard-response","191","89182","0.0-3.0-78.0-0.0","11","98647","11","74","","","","75","","38","","","89104","0","30","22","body_parts","faces","50","50","Stimuli/Experimental_stims/body_parts/mika-korhonen-Xodzxosar18-unsplash.jpg","Stimuli/Experimental_stims/faces/ravi-patel-VMGAbeeJTKo-unsplash.jpg","0","F","0","0","","original","2000","2","1","22","30","faces","body_parts","Stimuli/Experimental_stims/faces/ravi-patel-VMGAbeeJTKo-unsplash.jpg","Stimuli/Experimental_stims/body_parts/mika-korhonen-Xodzxosar18-unsplash.jpg","50","50","74","39100","78","48485","","","",""
"","deliberation_confirmation","","html-keyboard-response","192","90121","0.0-3.0-78.0-2.0-0.0","11","98647","11","null","","","","null","","38","","","89182","","","","","","","","","","","","","","","","","2","","","","","","","","","","926","39174","939","48563","926","","",""
"","iti","","html-keyboard-response","193","90234","0.0-3.0-78.0-4.0","11","98647","11","null","","","","null","","38","","","90121","","","","","","","","","","","","","","","","","2","","","","","","","","","","100","40100","113","49502","100","","",""
"","deliberation","","html-keyboard-response","194","91644","0.0-3.0-80.0-0.0","11","98647","11","408","","","","75","","39","","","90234","","","","","","","","","","0","K","0","1400","right","scramble","1800","2","1","31","43","body_parts","objects","Stimuli/Experimental_stims/scramble/body_parts/scrambled_sincerely-media-VN6DbKajo5s-unsplash.jpg","Stimuli/Experimental_stims/scramble/objects/scrambled_jonathan-greenaway-Y4hGgeiFn3s-unsplash.jpg","NaN","NaN","1400","40200","1410","49615","","","",""
"","scramble_prompt","","html-keyboard-response","195","91649","0.0-3.0-80.0-1.0-0.0","11","98647","11","null","","","","null","","39","","","91644","NaN","NaN","NaN","NaN","NaN","","","NaN","NaN","","","","","","","","2","","","","","","","","","","-400","41600","5","51025","-400","0","1",""
"","deliberation_no_response","","html-keyboard-response","196","91758","0.0-3.0-80.0-3.0-0.0","11","98647","11","null","","","","null","","39","","","91649","","","","","","","","","","1","","","","","","","2","","","","","","","","","","100","41200","109","51030","","","","1"
"","iti","","html-keyboard-response","197","91872","0.0-3.0-80.0-4.0","11","98647","11","null","","","","null","","39","","","91758","","","","","","","","","","","","","","","","","2","","","","","","","","","","100","41300","114","51139","100","","",""
"","deliberation","","html-keyboard-response","198","91994","0.0-3.0-82.0-0.0","11","98647","11","118","","","","75","","40","","","91872","0","15","29","faces","body_parts","50","50","Stimuli/Experimental_stims/faces/erik-lucatero-d2MSDujJl2g-unsplash.jpg","Stimuli/Experimental_stims/body_parts/manuel-schinner-ZwjFuJ7ebpk-unsplash.jpg","0","L","0","0","","original","1700","2","1","29","15","body_parts","faces","Stimuli/Experimental_stims/body_parts/manuel-schinner-ZwjFuJ7ebpk-unsplash.jpg","Stimuli/Experimental_stims/faces/erik-lucatero-d2MSDujJl2g-unsplash.jpg","50","50","118","41400","122","51253","","","",""
"","deliberation_confirmation","","html-keyboard-response","199","92884","0.0-3.0-82.0-2.0-0.0","11","98647","11","null","","","","null","","40","","","91994","","","","","","","","","","","","","","","","","2","","","","","","","","","","882","41518","890","51375","882","","",""
"","iti","","html-keyboard-response","200","92998","0.0-3.0-82.0-4.0","11","98647","11","null","","","","null","","40","","","92884","","","","","","","","","","","","","","","","","2","","","","","","","","","","100","42400","114","52265","100","","",""
"","deliberation","","html-keyboard-response","201","93381","0.0-3.0-84.0-0.0","11","98647","11","379","","","","75","","41","","","92998","0","14","42","faces","objects","50","50","Stimuli/Experimental_stims/faces/david-siglin-UuW4psOb388-unsplash.jpg","Stimuli/Experimental_stims/objects/jess-bailey-nOeVi8DsN8U-unsplash.jpg","0","D","0","0","","original","1500","2","1","42","14","objects","faces","Stimuli/Experimental_stims/objects/jess-bailey-nOeVi8DsN8U-unsplash.jpg","Stimuli/Experimental_stims/faces/david-siglin-UuW4psOb388-unsplash.jpg","50","50","379","42500","383","52379","","","",""
"","deliberation_confirmation","","html-keyboard-response","202","94016","0.0-3.0-84.0-2.0-0.0","11","98647","11","null","","","","null","","41","","","93381","","","","","","","","","","","","","","","","","2","","","","","","","","","","621","42879","635","52762","621","","",""
"","iti","","html-keyboard-response","203","94125","0.0-3.0-84.0-4.0","11","98647","11","null","","","","null","","41","","","94016","","","","","","","","","","","","","","","","","2","","","","","","","","","","100","43500","109","53397","100","","",""
"","deliberation","","html-keyboard-response","204","95334","0.0-3.0-86.0-0.0","11","98647","11","61","","","","75","","42","","","94125","","","","","","","","","","0","A","0","1200","left","scramble","2400","2","1","5","36","outdoor_scenes","objects","Stimuli/Experimental_stims/scramble/outdoor_scenes/scrambled_jeff-king-bJHWJeiHfHc-unsplash.jpg","Stimuli/Experimental_stims/scramble/objects/scrambled_alexander-andrews-JYGnB9gTCls-unsplash.jpg","NaN","NaN","1200","43600","1209","53506","","","",""
"","scramble_prompt","","html-keyboard-response","205","95341","0.0-3.0-86.0-1.0-0.0","11","98647","11","null","","","","null","","42","","","95334","NaN","NaN","NaN","NaN","NaN","","","NaN","NaN","","","","","","","","2","","","","","","","","","","-200","44800","7","54715","-200","0","1",""
"","deliberation_no_response","","html-keyboard-response","206","95453","0.0-3.0-86.0-3.0-0.0","11","98647","11","null","","","","null","","42","","","95341","","","","","","","","","","1","","","","","","","2","","","","","","","","","","100","44600","112","54722","","","","1"
"","iti","","html-keyboard-response","207","95563","0.0-3.0-86.0-4.0","11","98647","11","null","","","","null","","42","","","95453","","","","","","","","","","","","","","","","","2","","","","","","","","","","100","44700","110","54834","100","","",""
"","deliberation","","html-keyboard-response","208","95566","0.0-3.0-88.0-0.0","11","98647","11","0","","","","75","","43","","","95563","0","9","38","outdoor_scenes","objects","50","50","Stimuli/Experimental_stims/outdoor_scenes/sergey-pesterev-y-b_FOmJXdg-unsplash.jpg","Stimuli/Experimental_stims/objects/art-lasovsky-8XddFc6NkBY-unsplash.jpg","0","G","0","0","","original","3600","2","1","38","9","objects","outdoor_scenes","Stimuli/Experimental_stims/objects/art-lasovsky-8XddFc6NkBY-unsplash.jpg","Stimuli/Experimental_stims/outdoor_scenes/sergey-pesterev-y-b_FOmJXdg-unsplash.jpg","50","50","0","44800","3","54944","","","",""
"","deliberation_confirmation","","html-keyboard-response","209","96572","0.0-3.0-88.0-2.0-0.0","11","98647","11","null","","","","null","","43","","","95566","","","","","","","","","","","","","","","","","2","","","","","","","","","","1000","44800","1006","54947","1000","","",""
"","iti","","html-keyboard-response","210","96684","0.0-3.0-88.0-4.0","11","98647","11","null","","","","null","","43","","","96572","","","","","","","","","","","","","","","","","2","","","","","","","","","","100","45800","112","55953","100","","",""
"","deliberation","","html-keyboard-response","211","98492","0.0-3.0-90.0-0.0","11","98647","11","174","","","","75","","44","","","96684","","","","","","","","","","0","G","0","1800","right","scramble","1300","2","1","38","9","objects","outdoor_scenes","Stimuli/Experimental_stims/scramble/objects/scrambled_art-lasovsky-8XddFc6NkBY-unsplash.jpg","Stimuli/Experimental_stims/scramble/outdoor_scenes/scrambled_sergey-pesterev-y-b_FOmJXdg-unsplash.jpg","NaN","NaN","1800","45900","1808","56065","","","",""
"","scramble_prompt","","html-keyboard-response","212","98497","0.0-3.0-90.0-1.0-0.0","11","98647","11","null","","","","null","","44","","","98492","NaN","NaN","NaN","NaN","NaN","","","NaN","NaN","","","","","","","","2","","","","","","","","","","-800","47700","5","57873","-800","0","1",""
"","deliberation_no_response","","html-keyboard-response","213","98605","0.0-3.0-90.0-3.0-0.0","11","98647","11","null","","","","null","","44","","","98497","","","","","","","","","","1","","","","","","","2","","","","","","","","","","100","46900","108","57878","","","","1"
"","iti","","html-keyboard-response","214","98718","0.0-3.0-90.0-4.0","11","98647","11","null","","","","null","","44","","","98605","","","","","","","","","","","","","","","","","2","","","","","","","","","","100","47000","113","57986","100","","",""
"","deliberation","","html-keyboard-response","215","100531","0.0-3.0-92.0-0.0","11","98647","11","82","","","","75","","45","","","98718","","","","","","","","","","0","J","0","1800","left","scramble","1000","2","1","12","44","faces","objects","Stimuli/Experimental_stims/scramble/faces/scrambled_aiony-haust-jmATI5Q_YgY-unsplash.jpg","Stimuli/Experimental_stims/scramble/objects/scrambled_kuiye-chen-NuOGFo4PudE-unsplash.jpg","NaN","NaN","1800","47100","1813","58099","","","",""
"","scramble_prompt","","html-keyboard-response","216","100539","0.0-3.0-92.0-1.0-0.0","11","98647","11","null","","","","null","","45","","","100531","NaN","NaN","NaN","NaN","NaN","","","NaN","NaN","","","","","","","","2","","","","","","","","","","-800","48900","8","59912","-800","0","1",""
"","deliberation_no_response","","html-keyboard-response","217","100643","0.0-3.0-92.0-3.0-0.0","11","98647","11","null","","","","null","","45","","","100539","","","","","","","","","","1","","","","","","","2","","","","","","","","","","100","48100","104","59920","","","","1"
"","iti","","html-keyboard-response","218","100747","0.0-3.0-92.0-4.0","11","98647","11","null","","","","null","","45","","","100643","","","","","","","","","","","","","","","","","2","","","","","","","","","","100","48200","104","60024","100","","",""
"","deliberation","","html-keyboard-response","219","100848","0.0-3.0-94.0-0.0","11","98647","11","98","","","","75","","46","","","100747","0","17","6","faces","outdoor_scenes","50","50","Stimuli/Experimental_stims/faces/good-faces-xmSWVeGEnJw-unsplash.jpg","Stimuli/Experimental_stims/outdoor_scenes/meng-ji-8BH_M-53CyA-unsplash.jpg","0","B","0","0","","original","1700","2","1","6","17","outdoor_scenes","faces","Stimuli/Experimental_stims/outdoor_scenes/meng-ji-8BH_M-53CyA-unsplash.jpg","Stimuli/Experimental_stims/faces/good-faces-xmSWVeGEnJw-unsplash.jpg","50","50","98","48300","101","60128","","","",""
"","deliberation_confirmation","","html-keyboard-response","220","101759","0.0-3.0-94.0-2.0-0.0","11","98647","11","null","","","","null","","46","","","100848","","","","","","","","","","","","","","","","","2","","","","","","","","","","902","48398","911","60229","902","","",""
"","iti","","html-keyboard-response","221","101872","0.0-3.0-94.0-4.0","11","98647","11","null","","","","null","","46","","","101759","","","","","","","","","","","","","","","","","2","","","","","","","","","","100","49300","113","61140","100","","",""
"","deliberation","","html-keyboard-response","222","103182","0.0-3.0-96.0-0.0","11","98647","11","195","","","","75","","47","","","101872","","","","","","","","","","0","I","0","1300","right","scramble","1200","2","1","28","10","body_parts","outdoor_scenes","Stimuli/Experimental_stims/scramble/body_parts/scrambled_ira-vishnevskaya-8DQAvdCby1I-unsplash.jpg","Stimuli/Experimental_stims/scramble/outdoor_scenes/scrambled_shannon-kunkle-dM8INmkyDas-unsplash.jpg","NaN","NaN","1300","49400","1310","61253","","","",""
"","scramble_prompt","","html-keyboard-response","223","103188","0.0-3.0-96.0-1.0-0.0","11","98647","11","null","","","","null","","47","","","103182","NaN","NaN","NaN","NaN","NaN","","","NaN","NaN","","","","","","","","2","","","","","","","","","","-300","50700","6","62563","-300","0","1",""
"","deliberation_no_response","","html-keyboard-response","224","103293","0.0-3.0-96.0-3.0-0.0","11","98647","11","null","","","","null","","47","","","103188","","","","","","","","","","1","","","","","","","2","","","","","","","","","","100","50400","105","62569","","","","1"
"","iti","","html-keyboard-response","225","103408","0.0-3.0-96.0-4.0","11","98647","11","null","","","","null","","47","","","103293","","","","","","","","","","","","","","","","","2","","","","","","","","","","100","50500","115","62674","100","","",""
"","deliberation","","html-keyboard-response","226","103456","0.0-3.0-98.0-0.0","11","98647","11","44","","","","75","","48","","","103408","0","7","23","outdoor_scenes","faces","50","50","Stimuli/Experimental_stims/outdoor_scenes/petr-vysohlid-9fqwGqGLUxc-unsplash.jpg","Stimuli/Experimental_stims/faces/rikonavt-HQjfrvdTfak-unsplash.jpg","0","H","0","0","","original","2800","2","1","23","7","faces","outdoor_scenes","Stimuli/Experimental_stims/faces/rikonavt-HQjfrvdTfak-unsplash.jpg","Stimuli/Experimental_stims/outdoor_scenes/petr-vysohlid-9fqwGqGLUxc-unsplash.jpg","50","50","44","50600","48","62789","","","",""
"","deliberation_confirmation","","html-keyboard-response","227","104422","0.0-3.0-98.0-2.0-0.0","11","98647","11","null","","","","null","","48","","","103456","","","","","","","","","","","","","","","","","2","","","","","","","","","","956","50644","966","62837","956","","",""
"","iti","","html-keyboard-response","228","104535","0.0-3.0-98.0-4.0","11","98647","11","null","","","","null","","48","","","104422","","","","","","","","","","","","","","","","","2","","","","","","","","","","100","51600","113","63803","100","","",""
"","deliberation","","html-keyboard-response","229","105847","0.0-3.0-100.0-0.0","11","98647","11","11","","","","75","","49","","","104535","","","","","","","","","","0","L","0","1300","left","scramble","1400","2","1","29","15","body_parts","faces","Stimuli/Experimental_stims/scramble/body_parts/scrambled_manuel-schinner-ZwjFuJ7ebpk-unsplash.jpg","Stimuli/Experimental_stims/scramble/faces/scrambled_erik-lucatero-d2MSDujJl2g-unsplash.jpg","NaN","NaN","1300","51700","1312","63916","","","",""
"","scramble_prompt","","html-keyboard-response","230","105852","0.0-3.0-100.0-1.0-0.0","11","98647","11","null","","","","null","","49","","","105847","NaN","NaN","NaN","NaN","NaN","","","NaN","NaN","","","","","","","","2","","","","","","","","","","-300","53000","5","65228","-300","0","1",""
"","deliberation_no_response","","html-keyboard-response","231","105957","0.0-3.0-100.0-3.0-0.0","11","98647","11","null","","","","null","","49","","","105852","","","","","","","","","","1","","","","","","","2","","","","","","","","","","100","52700","105","65233","","","","1"
"","iti","","html-keyboard-response","232","106070","0.0-3.0-100.0-4.0","11","98647","11","null","","","","null","","49","","","105957","","","","","","","","","","","","","","","","","2","","","","","","","","","","100","52800","113","65338","100","","",""
"","deliberation","","html-keyboard-response","233","107078","0.0-3.0-102.0-0.0","11","98647","11","463","","","","75","","50","","","106070","","","","","","","","","","0","E","0","1000","left","scramble","1300","2","1","40","25","objects","body_parts","Stimuli/Experimental_stims/scramble/objects/scrambled_fabian-blank-pElSkGRA2NU-unsplash.jpg","Stimuli/Experimental_stims/scramble/body_parts/scrambled_engin-akyurt-Q2rfH3GW39c-unsplash.jpg","NaN","NaN","1000","52900","1008","65451","","","",""
"","scramble_prompt","","html-keyboard-response","234","107086","0.0-3.0-102.0-1.0-0.0","11","98647","11","null","","","","null","","50","","","107078","NaN","NaN","NaN","NaN","NaN","","","NaN","NaN","","","","","","","","2","","","","","","","","","","0","53900","8","66459","0","0","1",""
"","deliberation_no_response","","html-keyboard-response","235","107191","0.0-3.0-102.0-3.0-0.0","11","98647","11","null","","","","null","","50","","","107086","","","","","","","","","","1","","","","","","","2","","","","","","","","","","100","53900","105","66467","","","","1"
"","iti","","html-keyboard-response","236","107303","0.0-3.0-102.0-4.0","11","98647","11","null","","","","null","","50","","","107191","","","","","","","","","","","","","","","","","2","","","","","","","","","","100","54000","112","66572","100","","",""
"","deliberation","","html-keyboard-response","237","107733","0.0-3.0-104.0-0.0","11","98647","11","426","","","","75","","51","","","107303","0","44","12","objects","faces","50","50","Stimuli/Experimental_stims/objects/kuiye-chen-NuOGFo4PudE-unsplash.jpg","Stimuli/Experimental_stims/faces/aiony-haust-jmATI5Q_YgY-unsplash.jpg","0","J","0","0","","original","4900","2","1","12","44","faces","objects","Stimuli/Experimental_stims/faces/aiony-haust-jmATI5Q_YgY-unsplash.jpg","Stimuli/Experimental_stims/objects/kuiye-chen-NuOGFo4PudE-unsplash.jpg","50","50","426","54100","430","66684","","","",""
"","deliberation_confirmation","","html-keyboard-response","238","108320","0.0-3.0-104.0-2.0-0.0","11","98647","11","null","","","","null","","51","","","107733","","","","","","","","","","","","","","","","","2","","","","","","","","","","574","54526","587","67114","574","","",""
"","iti","","html-keyboard-response","239","108432","0.0-3.0-104.0-4.0","11","98647","11","null","","","","null","","51","","","108320","","","","","","","","","","","","","","","","","2","","","","","","","","","","100","55100","112","67701","100","","",""
"","deliberation_run_over","","html-keyboard-response","240","215767","0.0-3.0-104.0-6.0-0.0","11","98647","11","107331","","","","68","","51","","","","","","","","","","","","","","","","","","","","","","","","","","","","","","","","","","","","",""
"","start_run","","html-keyboard-response","241","216858","0.0-3.0-104.0-6.0-1.0","11","98647","11","1086","","","","84","","","","","","","","","","","","","","","","","","","","","","","","","","","","","","","","","","","","","","",""
"","deliberation","","html-keyboard-response","242","217769","0.0-3.0-106.0-0.0","11","98647","11","null","","","","null","","52","","","216858","","","","","","","","","","1","E","0","900","right","scramble","3800","3","2","40","25","objects","body_parts","Stimuli/Experimental_stims/scramble/objects/scrambled_fabian-blank-pElSkGRA2NU-unsplash.jpg","Stimuli/Experimental_stims/scramble/body_parts/scrambled_engin-akyurt-Q2rfH3GW39c-unsplash.jpg","NaN","NaN","900","0","911","0","","","",""
"","scramble_prompt","","html-keyboard-response","243","217879","0.0-3.0-106.0-1.0-0.0","11","98647","11","null","","","","null","","52","","","217769","NaN","NaN","NaN","NaN","NaN","","","NaN","NaN","","","","","","","","3","","","","","","","","","","100","900","110","911","100","0","1",""
"","deliberation_no_response","","html-keyboard-response","244","217990","0.0-3.0-106.0-3.0-0.0","11","98647","11","null","","","","null","","52","","","217879","","","","","","","","","","1","","","","","","","3","","","","","","","","","","100","1000","111","1021","","","","1"
"","iti","","html-keyboard-response","245","218099","0.0-3.0-106.0-4.0","11","98647","11","null","","","","null","","52","","","217990","","","","","","","","","","","","","","","","","3","","","","","","","","","","100","1100","109","1132","100","","",""
"","deliberation","","html-keyboard-response","246","219111","0.0-3.0-108.0-0.0","11","98647","11","null","","","","null","","53","","","218099","NaN","NaN","NaN","NaN","NaN","NaN","NaN","NaN","NaN","1","J","0","0","","original","2100","3","2","12","44","faces","objects","Stimuli/Experimental_stims/faces/aiony-haust-jmATI5Q_YgY-unsplash.jpg","Stimuli/Experimental_stims/objects/kuiye-chen-NuOGFo4PudE-unsplash.jpg","50","50","1000","1200","1012","1241","","","",""
"","deliberation_no_response","","html-keyboard-response","247","219225","0.0-3.0-108.0-3.0-0.0","11","98647","11","null","","","","null","","53","","","219111","","","","","","","","","","1","","","","","","","3","","","","","","","","","","100","2200","114","2253","","","","1"
"","iti","","html-keyboard-response","248","219336","0.0-3.0-108.0-4.0","11","98647","11","null","","","","null","","53","","","219225","","","","","","","","","","","","","","","","","3","","","","","","","","","","100","2300","111","2367","100","","",""
"","deliberation","","html-keyboard-response","249","220352","0.0-3.0-110.0-0.0","11","98647","11","null","","","","null","","54","","","219336","NaN","NaN","NaN","NaN","NaN","NaN","NaN","NaN","NaN","1","K","0","0","","original","1500","3","2","31","43","body_parts","objects","Stimuli/Experimental_stims/body_parts/sincerely-media-VN6DbKajo5s-unsplash.jpg","Stimuli/Experimental_stims/objects/jonathan-greenaway-Y4hGgeiFn3s-unsplash.jpg","50","50","1000","2400","1016","2478","","","",""
"","deliberation_no_response","","html-keyboard-response","250","220466","0.0-3.0-110.0-3.0-0.0","11","98647","11","null","","","","null","","54","","","220352","","","","","","","","","","1","","","","","","","3","","","","","","","","","","100","3400","114","3494","","","","1"
"","iti","","html-keyboard-response","251","220573","0.0-3.0-110.0-4.0","11","98647","11","null","","","","null","","54","","","220466","","","","","","","","","","","","","","","","","3","","","","","","","","","","100","3500","107","3608","100","","",""
"","deliberation","","html-keyboard-response","252","221485","0.0-3.0-112.0-0.0","11","98647","11","null","","","","null","","55","","","220573","","","","","","","","","","1","K","0","900","left","scramble","2100","3","2","31","43","body_parts","objects","Stimuli/Experimental_stims/scramble/body_parts/scrambled_sincerely-media-VN6DbKajo5s-unsplash.jpg","Stimuli/Experimental_stims/scramble/objects/scrambled_jonathan-greenaway-Y4hGgeiFn3s-unsplash.jpg","NaN","NaN","900","3600","912","3715","","","",""
"","scramble_prompt","","html-keyboard-response","253","221601","0.0-3.0-112.0-1.0-0.0","11","98647","11","null","","","","null","","55","","","221485","NaN","NaN","NaN","NaN","NaN","","","NaN","NaN","","","","","","","","3","","","","","","","","","","100","4500","116","4627","100","0","1",""
"","deliberation_no_response","","html-keyboard-response","254","221714","0.0-3.0-112.0-3.0-0.0","11","98647","11","null","","","","null","","55","","","221601","","","","","","","","","","1","","","","","","","3","","","","","","","","","","100","4600","113","4743","","","","1"
"","iti","","html-keyboard-response","255","221824","0.0-3.0-112.0-4.0","11","98647","11","null","","","","null","","55","","","221714","","","","","","","","","","","","","","","","","3","","","","","","","","","","100","4700","110","4856","100","","",""
"","deliberation","","html-keyboard-response","256","222841","0.0-3.0-114.0-0.0","11","98647","11","null","","","","null","","56","","","221824","NaN","NaN","NaN","NaN","NaN","NaN","NaN","NaN","NaN","1","E","0","0","","original","1400","3","2","40","25","objects","body_parts","Stimuli/Experimental_stims/objects/fabian-blank-pElSkGRA2NU-unsplash.jpg","Stimuli/Experimental_stims/body_parts/engin-akyurt-Q2rfH3GW39c-unsplash.jpg","50","50","1000","4800","1017","4966","","","",""
"","deliberation_no_response","","html-keyboard-response","257","222952","0.0-3.0-114.0-3.0-0.0","11","98647","11","null","","","","null","","56","","","222841","","","","","","","","","","1","","","","","","","3","","","","","","","","","","100","5800","111","5983","","","","1"
"","iti","","html-keyboard-response","258","223063","0.0-3.0-114.0-4.0","11","98647","11","null","","","","null","","56","","","222952","","","","","","","","","","","","","","","","","3","","","","","","","","","","100","5900","111","6094","100","","",""
"","deliberation","","html-keyboard-response","259","224282","0.0-3.0-116.0-0.0","11","98647","11","null","","","","null","","57","","","223063","","","","","","","","","","1","L","0","1200","left","scramble","2400","3","2","29","15","body_parts","faces","Stimuli/Experimental_stims/scramble/body_parts/scrambled_manuel-schinner-ZwjFuJ7ebpk-unsplash.jpg","Stimuli/Experimental_stims/scramble/faces/scrambled_erik-lucatero-d2MSDujJl2g-unsplash.jpg","NaN","NaN","1200","6000","1219","6205","","","",""
"","scramble_prompt","","html-keyboard-response","260","224291","0.0-3.0-116.0-1.0-0.0","11","98647","11","null","","","","null","","57","","","224282","NaN","NaN","NaN","NaN","NaN","","","NaN","NaN","","","","","","","","3","","","","","","","","","","-200","7200","9","7424","-200","0","1",""
"","deliberation_no_response","","html-keyboard-response","261","224399","0.0-3.0-116.0-3.0-0.0","11","98647","11","null","","","","null","","57","","","224291","","","","","","","","","","1","","","","","","","3","","","","","","","","","","100","7000","108","7433","","","","1"
"","iti","","html-keyboard-response","262","224511","0.0-3.0-116.0-4.0","11","98647","11","null","","","","null","","57","","","224399","","","","","","","","","","","","","","","","","3","","","","","","","","","","100","7100","112","7541","100","","",""
"","deliberation","","html-keyboard-response","263","225521","0.0-3.0-118.0-0.0","11","98647","11","null","","","","null","","58","","","224511","NaN","NaN","NaN","NaN","NaN","NaN","NaN","NaN","NaN","1","A","0","0","","original","1400","3","2","5","36","outdoor_scenes","objects","Stimuli/Experimental_stims/outdoor_scenes/jeff-king-bJHWJeiHfHc-unsplash.jpg","Stimuli/Experimental_stims/objects/alexander-andrews-JYGnB9gTCls-unsplash.jpg","50","50","1000","7200","1010","7653","","","",""
"","deliberation_no_response","","html-keyboard-response","264","225634","0.0-3.0-118.0-3.0-0.0","11","98647","11","null","","","","null","","58","","","225521","","","","","","","","","","1","","","","","","","3","","","","","","","","","","100","8200","113","8663","","","","1"
"","iti","","html-keyboard-response","265","225744","0.0-3.0-118.0-4.0","11","98647","11","null","","","","null","","58","","","225634","","","","","","","","","","","","","","","","","3","","","","","","","","","","100","8300","110","8776","100","","",""
"","deliberation","","html-keyboard-response","266","226760","0.0-3.0-120.0-0.0","11","98647","11","null","","","","null","","59","","","225744","NaN","NaN","NaN","NaN","NaN","NaN","NaN","NaN","NaN","1","H","0","0","","original","1400","3","2","23","7","faces","outdoor_scenes","Stimuli/Experimental_stims/faces/rikonavt-HQjfrvdTfak-unsplash.jpg","Stimuli/Experimental_stims/outdoor_scenes/petr-vysohlid-9fqwGqGLUxc-unsplash.jpg","50","50","1000","8400","1016","8886","","","",""
"","deliberation_no_response","","html-keyboard-response","267","226871","0.0-3.0-120.0-3.0-0.0","11","98647","11","null","","","","null","","59","","","226760","","","","","","","","","","1","","","","","","","3","","","","","","","","","","100","9400","111","9902","","","","1"
"","iti","","html-keyboard-response","268","226981","0.0-3.0-120.0-4.0","11","98647","11","null","","","","null","","59","","","226871","","","","","","","","","","","","","","","","","3","","","","","","","","","","100","9500","110","10013","100","","",""
"","deliberation","","html-keyboard-response","269","228391","0.0-3.0-122.0-0.0","11","98647","11","null","","","","null","","60","","","226981","","","","","","","","","","1","A","0","1400","left","scramble","1500","3","2","5","36","outdoor_scenes","objects","Stimuli/Experimental_stims/scramble/outdoor_scenes/scrambled_jeff-king-bJHWJeiHfHc-unsplash.jpg","Stimuli/Experimental_stims/scramble/objects/scrambled_alexander-andrews-JYGnB9gTCls-unsplash.jpg","NaN","NaN","1400","9600","1410","10123","","","",""
"","scramble_prompt","","html-keyboard-response","270","228400","0.0-3.0-122.0-1.0-0.0","11","98647","11","null","","","","null","","60","","","228391","NaN","NaN","NaN","NaN","NaN","","","NaN","NaN","","","","","","","","3","","","","","","","","","","-400","11000","9","11533","-400","0","1",""
"","deliberation_no_response","","html-keyboard-response","271","228505","0.0-3.0-122.0-3.0-0.0","11","98647","11","null","","","","null","","60","","","228400","","","","","","","","","","1","","","","","","","3","","","","","","","","","","100","10600","105","11542","","","","1"
"","iti","","html-keyboard-response","272","228614","0.0-3.0-122.0-4.0","11","98647","11","null","","","","null","","60","","","228505","","","","","","","","","","","","","","","","","3","","","","","","","","","","100","10700","109","11647","100","","",""
"","deliberation","","html-keyboard-response","273","229624","0.0-3.0-124.0-0.0","11","98647","11","null","","","","null","","61","","","228614","","","","","","","","","","1","C","0","1000","left","scramble","2900","3","2","3","33","outdoor_scenes","body_parts","Stimuli/Experimental_stims/scramble/outdoor_scenes/scrambled_henry-be-NLF6hTe4PAg-unsplash.jpg","Stimuli/Experimental_stims/scramble/body_parts/scrambled_tucker-good-36skLT5jZcc-unsplash.jpg","NaN","NaN","1000","10800","1010","11756","","","",""
"","scramble_prompt","","html-keyboard-response","274","229632","0.0-3.0-124.0-1.0-0.0","11","98647","11","null","","","","null","","61","","","229624","NaN","NaN","NaN","NaN","NaN","","","NaN","NaN","","","","","","","","3","","","","","","","","","","0","11800","8","12766","0","0","1",""
"","deliberation_no_response","","html-keyboard-response","275","229736","0.0-3.0-124.0-3.0-0.0","11","98647","11","null","","","","null","","61","","","229632","","","","","","","","","","1","","","","","","","3","","","","","","","","","","100","11800","104","12774","","","","1"
"","iti","","html-keyboard-response","276","229849","0.0-3.0-124.0-4.0","11","98647","11","null","","","","null","","61","","","229736","","","","","","","","","","","","","","","","","3","","","","","","","","","","100","11900","113","12878","100","","",""
"","deliberation","","html-keyboard-response","277","230863","0.0-3.0-126.0-0.0","11","98647","11","null","","","","null","","62","","","229849","NaN","NaN","NaN","NaN","NaN","NaN","NaN","NaN","NaN","1","C","0","0","","original","2000","3","2","3","33","outdoor_scenes","body_parts","Stimuli/Experimental_stims/outdoor_scenes/henry-be-NLF6hTe4PAg-unsplash.jpg","Stimuli/Experimental_stims/body_parts/tucker-good-36skLT5jZcc-unsplash.jpg","50","50","1000","12000","1014","12991","","","",""
"","deliberation_no_response","","html-keyboard-response","278","230973","0.0-3.0-126.0-3.0-0.0","11","98647","11","null","","","","null","","62","","","230863","","","","","","","","","","1","","","","","","","3","","","","","","","","","","100","13000","110","14005","","","","1"
"","iti","","html-keyboard-response","279","231089","0.0-3.0-126.0-4.0","11","98647","11","null","","","","null","","62","","","230973","","","","","","","","","","","","","","","","","3","","","","","","","","","","100","13100","116","14115","100","","",""
"","deliberation","","html-keyboard-response","280","232101","0.0-3.0-128.0-0.0","11","98647","11","null","","","","null","","63","","","231089","NaN","NaN","NaN","NaN","NaN","NaN","NaN","NaN","NaN","1","G","0","0","","original","2000","3","2","38","9","objects","outdoor_scenes","Stimuli/Experimental_stims/objects/art-lasovsky-8XddFc6NkBY-unsplash.jpg","Stimuli/Experimental_stims/outdoor_scenes/sergey-pesterev-y-b_FOmJXdg-unsplash.jpg","50","50","1000","13200","1012","14231","","","",""
"","deliberation_no_response","","html-keyboard-response","281","232218","0.0-3.0-128.0-3.0-0.0","11","98647","11","null","","","","null","","63","","","232101","","","","","","","","","","1","","","","","","","3","","","","","","","","","","100","14200","117","15243","","","","1"
"","iti","","html-keyboard-response","282","232328","0.0-3.0-128.0-4.0","11","98647","11","null","","","","null","","63","","","232218","","","","","","","","","","","","","","","","","3","","","","","","","","","","100","14300","110","15360","100","","",""
"","deliberation","","html-keyboard-response","283","233640","0.0-3.0-130.0-0.0","11","98647","11","null","","","","null","","64","","","232328","","","","","","","","","","1","G","0","1300","right","scramble","2100","3","2","38","9","objects","outdoor_scenes","Stimuli/Experimental_stims/scramble/objects/scrambled_art-lasovsky-8XddFc6NkBY-unsplash.jpg","Stimuli/Experimental_stims/scramble/outdoor_scenes/scrambled_sergey-pesterev-y-b_FOmJXdg-unsplash.jpg","NaN","NaN","1300","14400","1312","15470","","","",""
"","scramble_prompt","","html-keyboard-response","284","233649","0.0-3.0-130.0-1.0-0.0","11","98647","11","null","","","","null","","64","","","233640","NaN","NaN","NaN","NaN","NaN","","","NaN","NaN","","","","","","","","3","","","","","","","","","","-300","15700","9","16782","-300","0","1",""
"","deliberation_no_response","","html-keyboard-response","285","233759","0.0-3.0-130.0-3.0-0.0","11","98647","11","null","","","","null","","64","","","233649","","","","","","","","","","1","","","","","","","3","","","","","","","","","","100","15400","110","16791","","","","1"
"","iti","","html-keyboard-response","286","233874","0.0-3.0-130.0-4.0","11","98647","11","null","","","","null","","64","","","233759","","","","","","","","","","","","","","","","","3","","","","","","","","","","100","15500","115","16901","100","","",""
"","deliberation","","html-keyboard-response","287","234983","0.0-3.0-132.0-0.0","11","98647","11","null","","","","null","","65","","","233874","","","","","","","","","","1","F","0","1100","left","scramble","2100","3","2","22","30","faces","body_parts","Stimuli/Experimental_stims/scramble/faces/scrambled_ravi-patel-VMGAbeeJTKo-unsplash.jpg","Stimuli/Experimental_stims/scramble/body_parts/scrambled_mika-korhonen-Xodzxosar18-unsplash.jpg","NaN","NaN","1100","15600","1109","17016","","","",""
"","scramble_prompt","","html-keyboard-response","288","234992","0.0-3.0-132.0-1.0-0.0","11","98647","11","null","","","","null","","65","","","234983","NaN","NaN","NaN","NaN","NaN","","","NaN","NaN","","","","","","","","3","","","","","","","","","","-100","16700","9","18125","-100","0","1",""
"","deliberation_no_response","","html-keyboard-response","289","235101","0.0-3.0-132.0-3.0-0.0","11","98647","11","null","","","","null","","65","","","234992","","","","","","","","","","1","","","","","","","3","","","","","","","","","","100","16600","109","18134","","","","1"
"","iti","","html-keyboard-response","290","235215","0.0-3.0-132.0-4.0","11","98647","11","null","","","","null","","65","","","235101","","","","","","","","","","","","","","","","","3","","","","","","","","","","100","16700","114","18243","100","","",""
