"success","ttype","start_time","trial_type","trial_index","time_elapsed","internal_node_id","age","PID","gender","rt","responses","view_history","repeat_instructions","key_press","response","index","stimulus_index","path"
"true","full_screen","d08112023hr1435","fullscreen","0","17043","0.0-0.0-0.0","11","16418","12","","","","","","","","",""
"","get_id","","survey-text","1","20332","0.0-0.0-1.0","11","16418","12","3285","{""Q0"":""11"",""Q1"":""12""}","","","","","","",""
"","ratings_instructions","","instructions","2","22153","0.0-1.0-0.0-0.0","11","16418","12","1776","","[{""page_index"":0,""viewing_time"":1131},{""page_index"":1,""viewing_time"":645}]","","","","","",""
"","rating_comprehension_check","","survey-multi-choice","3","24698","0.0-1.0-0.0-1.0","11","16418","12","2540","{""Q0"":""True"",""Q1"":""Mouse""}","","0","","","","",""
"","","","html-keyboard-response","4","25786","0.0-1.0-1.0","11","16418","12","1082","","","","68","","","",""
"","rating","","html-slider-response","5","26837","0.0-1.0-2.0","11","16418","12","1046","","","","","50","0","11","Stimuli/Experimental_stims/outdoor_scenes/stephen-leonardi-gyIRjKPXupE-unsplash.jpg"
"","rating","","html-slider-response","6","26991","0.0-1.0-3.0","11","16418","12","149","","","","","50","1","37","Stimuli/Experimental_stims/objects/alexander-andrews-VLGWE_SumrA-unsplash.jpg"
"","rating","","html-slider-response","7","27151","0.0-1.0-4.0","11","16418","12","155","","","","","50","2","43","Stimuli/Experimental_stims/objects/jonathan-greenaway-Y4hGgeiFn3s-unsplash.jpg"
"","rating","","html-slider-response","8","27315","0.0-1.0-5.0","11","16418","12","159","","","","","50","3","45","Stimuli/Experimental_stims/objects/leohoho-rngTKHXumy0-unsplash.jpg"
"","rating","","html-slider-response","9","27522","0.0-1.0-6.0","11","16418","12","202","","","","","50","4","1","Stimuli/Experimental_stims/outdoor_scenes/ashim-d-silva-S2Q5mdOrrVc-unsplash.jpg"
"","rating","","html-slider-response","10","27693","0.0-1.0-7.0","11","16418","12","168","","","","","50","5","4","Stimuli/Experimental_stims/outdoor_scenes/jarrett-kow-1ZOyYPOBn7I-unsplash.jpg"
"","rating","","html-slider-response","11","27865","0.0-1.0-8.0","11","16418","12","168","","","","","50","6","35","Stimuli/Experimental_stims/body_parts/wc-so-KH4AAPjb-tI-unsplash.jpg"
"","rating","","html-slider-response","12","28012","0.0-1.0-9.0","11","16418","12","141","","","","","50","7","24","Stimuli/Experimental_stims/body_parts/clay-banks-LjqARJaJotc-unsplash.jpg"
"","rating","","html-slider-response","13","28171","0.0-1.0-10.0","11","16418","12","155","","","","","50","8","6","Stimuli/Experimental_stims/outdoor_scenes/meng-ji-8BH_M-53CyA-unsplash.jpg"
"","rating","","html-slider-response","14","28335","0.0-1.0-11.0","11","16418","12","160","","","","","50","9","3","Stimuli/Experimental_stims/outdoor_scenes/henry-be-NLF6hTe4PAg-unsplash.jpg"
"","rating","","html-slider-response","15","28496","0.0-1.0-12.0","11","16418","12","155","","","","","50","10","5","Stimuli/Experimental_stims/outdoor_scenes/jeff-king-bJHWJeiHfHc-unsplash.jpg"
"","rating","","html-slider-response","16","28647","0.0-1.0-13.0","11","16418","12","148","","","","","50","11","25","Stimuli/Experimental_stims/body_parts/engin-akyurt-Q2rfH3GW39c-unsplash.jpg"
"","rating","","html-slider-response","17","28820","0.0-1.0-14.0","11","16418","12","169","","","","","50","12","21","Stimuli/Experimental_stims/faces/leilani-angel-K84vnnzxmTQ-unsplash.jpg"
"","rating","","html-slider-response","18","28992","0.0-1.0-15.0","11","16418","12","167","","","","","50","13","40","Stimuli/Experimental_stims/objects/fabian-blank-pElSkGRA2NU-unsplash.jpg"
"","rating","","html-slider-response","19","29165","0.0-1.0-16.0","11","16418","12","168","","","","","50","14","46","Stimuli/Experimental_stims/objects/mockup-graphics-PNsj6RiHAF4-unsplash.jpg"
"","rating","","html-slider-response","20","29324","0.0-1.0-17.0","11","16418","12","154","","","","","50","15","34","Stimuli/Experimental_stims/body_parts/wagner-santos-mBWMvIuVnso-unsplash.jpg"
"","rating","","html-slider-response","21","29482","0.0-1.0-18.0","11","16418","12","154","","","","","50","16","32","Stimuli/Experimental_stims/body_parts/towfiqu-barbhuiya-3AsiVDsZnHg-unsplash.jpg"
"","rating","","html-slider-response","22","29653","0.0-1.0-19.0","11","16418","12","167","","","","","50","17","18","Stimuli/Experimental_stims/faces/jessica-radanavong-mrYkTuAesKE-unsplash.jpg"
"","rating","","html-slider-response","23","29813","0.0-1.0-20.0","11","16418","12","156","","","","","50","18","22","Stimuli/Experimental_stims/faces/ravi-patel-VMGAbeeJTKo-unsplash.jpg"
"","rating","","html-slider-response","24","29982","0.0-1.0-21.0","11","16418","12","165","","","","","50","19","33","Stimuli/Experimental_stims/body_parts/tucker-good-36skLT5jZcc-unsplash.jpg"
"","rating","","html-slider-response","25","30136","0.0-1.0-22.0","11","16418","12","151","","","","","50","20","47","Stimuli/Experimental_stims/objects/ronaldo-arthur-vidal-Cdz_lvnl37k-unsplash.jpg"
"","rating","","html-slider-response","26","30300","0.0-1.0-23.0","11","16418","12","159","","","","","50","21","20","Stimuli/Experimental_stims/faces/justin-chen-J7Cf1Gch49E-unsplash.jpg"
"","rating","","html-slider-response","27","30472","0.0-1.0-24.0","11","16418","12","168","","","","","50","22","19","Stimuli/Experimental_stims/faces/joel-mott-LaK153ghdig-unsplash.jpg"
"","rating","","html-slider-response","28","30636","0.0-1.0-25.0","11","16418","12","157","","","","","50","23","42","Stimuli/Experimental_stims/objects/jess-bailey-nOeVi8DsN8U-unsplash.jpg"
"","rating","","html-slider-response","29","30787","0.0-1.0-26.0","11","16418","12","147","","","","","50","24","26","Stimuli/Experimental_stims/body_parts/engin-akyurt-x_3gyC42btc-unsplash.jpg"
"","rating","","html-slider-response","30","30958","0.0-1.0-27.0","11","16418","12","167","","","","","50","25","36","Stimuli/Experimental_stims/objects/alexander-andrews-JYGnB9gTCls-unsplash.jpg"
"","rating","","html-slider-response","31","31119","0.0-1.0-28.0","11","16418","12","157","","","","","50","26","41","Stimuli/Experimental_stims/objects/insung-yoon-w2JtIQQXoRU-unsplash.jpg"
"","rating","","html-slider-response","32","31270","0.0-1.0-29.0","11","16418","12","148","","","","","50","27","0","Stimuli/Experimental_stims/outdoor_scenes/aleksandra-boguslawska-MS7KD9Ti7FQ-unsplash.jpg"
"","rating","","html-slider-response","33","31436","0.0-1.0-30.0","11","16418","12","162","","","","","50","28","29","Stimuli/Experimental_stims/body_parts/manuel-schinner-ZwjFuJ7ebpk-unsplash.jpg"
"","rating","","html-slider-response","34","31606","0.0-1.0-31.0","11","16418","12","165","","","","","50","29","39","Stimuli/Experimental_stims/objects/charlesdeluvio-1-nx1QR5dTE-unsplash.jpg"
"","rating","","html-slider-response","35","31766","0.0-1.0-32.0","11","16418","12","156","","","","","50","30","27","Stimuli/Experimental_stims/body_parts/heike-mintel-i_Gns0ELnLw-unsplash.jpg"
"","rating","","html-slider-response","36","31938","0.0-1.0-33.0","11","16418","12","168","","","","","50","31","16","Stimuli/Experimental_stims/faces/freddy-kearney-o-ioeoATbIM-unsplash.jpg"
"","rating","","html-slider-response","37","32099","0.0-1.0-34.0","11","16418","12","156","","","","","50","32","8","Stimuli/Experimental_stims/outdoor_scenes/samsommer-vddccTqwal8-unsplash.jpg"
"","rating","","html-slider-response","38","32266","0.0-1.0-35.0","11","16418","12","163","","","","","50","33","38","Stimuli/Experimental_stims/objects/art-lasovsky-8XddFc6NkBY-unsplash.jpg"
"","rating","","html-slider-response","39","32427","0.0-1.0-36.0","11","16418","12","158","","","","","50","34","30","Stimuli/Experimental_stims/body_parts/mika-korhonen-Xodzxosar18-unsplash.jpg"
"","rating","","html-slider-response","40","32605","0.0-1.0-37.0","11","16418","12","175","","","","","50","35","23","Stimuli/Experimental_stims/faces/rikonavt-HQjfrvdTfak-unsplash.jpg"
"","rating","","html-slider-response","41","32757","0.0-1.0-38.0","11","16418","12","147","","","","","50","36","10","Stimuli/Experimental_stims/outdoor_scenes/shannon-kunkle-dM8INmkyDas-unsplash.jpg"
"","rating","","html-slider-response","42","32934","0.0-1.0-39.0","11","16418","12","173","","","","","50","37","12","Stimuli/Experimental_stims/faces/aiony-haust-jmATI5Q_YgY-unsplash.jpg"
"","rating","","html-slider-response","43","33105","0.0-1.0-40.0","11","16418","12","165","","","","","50","38","31","Stimuli/Experimental_stims/body_parts/sincerely-media-VN6DbKajo5s-unsplash.jpg"
"","rating","","html-slider-response","44","33283","0.0-1.0-41.0","11","16418","12","174","","","","","50","39","7","Stimuli/Experimental_stims/outdoor_scenes/petr-vysohlid-9fqwGqGLUxc-unsplash.jpg"
"","rating","","html-slider-response","45","33451","0.0-1.0-42.0","11","16418","12","163","","","","","50","40","15","Stimuli/Experimental_stims/faces/erik-lucatero-d2MSDujJl2g-unsplash.jpg"
"","rating","","html-slider-response","46","33618","0.0-1.0-43.0","11","16418","12","163","","","","","50","41","28","Stimuli/Experimental_stims/body_parts/ira-vishnevskaya-8DQAvdCby1I-unsplash.jpg"
"","rating","","html-slider-response","47","33788","0.0-1.0-44.0","11","16418","12","166","","","","","50","42","9","Stimuli/Experimental_stims/outdoor_scenes/sergey-pesterev-y-b_FOmJXdg-unsplash.jpg"
"","rating","","html-slider-response","48","33969","0.0-1.0-45.0","11","16418","12","177","","","","","50","43","2","Stimuli/Experimental_stims/outdoor_scenes/bruno-van-der-kraan-qez8mNJ3ilU-unsplash.jpg"
"","rating","","html-slider-response","49","34133","0.0-1.0-46.0","11","16418","12","160","","","","","50","44","17","Stimuli/Experimental_stims/faces/good-faces-xmSWVeGEnJw-unsplash.jpg"
"","rating","","html-slider-response","50","34309","0.0-1.0-47.0","11","16418","12","171","","","","","50","45","44","Stimuli/Experimental_stims/objects/kuiye-chen-NuOGFo4PudE-unsplash.jpg"
"","rating","","html-slider-response","51","34490","0.0-1.0-48.0","11","16418","12","177","","","","","50","46","13","Stimuli/Experimental_stims/faces/daniel-rigdon-dXmXKPP2L4E-unsplash.jpg"
"","rating","","html-slider-response","52","34665","0.0-1.0-49.0","11","16418","12","171","","","","","50","47","14","Stimuli/Experimental_stims/faces/david-siglin-UuW4psOb388-unsplash.jpg"
