"success","ttype","start_time","trial_type","trial_index","time_elapsed","internal_node_id","age","PID","gender","rt","responses","view_history","repeat_instructions","key_press","response","index","stimulus_index","path","start_time_elapsed","run","task","isi","is_odd_ball","no_response","acc","duration","onset","duration_time_elapsed","onset_time_elapsed","trial_duration","left_chosen","chosen_stimulus","unchosen_stimulus","chosen_category","unchosen_category","chosen_rating","unchosen_rating","chosen_path","unchosen_path","pair_id","practice","scramble_screen_time","scramble_instructed_side","stim_type","iti","block","left_stimulus","right_stimulus","left_category","right_category","left_path","right_path","left_rating","right_rating","scramble_acc","scramble_no_response","warning"
"true","full_screen","d08162023hr2230","fullscreen","0","5974","0.0-0.0-0.0","27","31027","Female","","","","","","","","","","","","","","","","","","","","","","","","","","","","","","","","","","","","","","","","","","","","","","","",""
"","get_id","","survey-text","1","14314","0.0-0.0-1.0","27","31027","Female","8327","{""Q0"":""27"",""Q1"":""Female""}","","","","","","","","","","","","","","","","","","","","","","","","","","","","","","","","","","","","","","","","","","","","","",""
"","ratings_instructions","","instructions","2","38832","0.0-1.0-0.0-0.0","27","31027","Female","22326","","[{""page_index"":0,""viewing_time"":16234},{""page_index"":1,""viewing_time"":6092}]","","","","","","","","","","","","","","","","","","","","","","","","","","","","","","","","","","","","","","","","","","","","",""
"","rating_comprehension_check","","survey-multi-choice","3","118038","0.0-1.0-0.0-1.0","27","31027","Female","79185","{""Q0"":""True"",""Q1"":""Mouse""}","","0","","","","","","","","","","","","","","","","","","","","","","","","","","","","","","","","","","","","","","","","","","","",""
"","","","html-keyboard-response","4","123911","0.0-1.0-1.0","27","31027","Female","5859","","","","68","","","","","","","","","","","","","","","","","","","","","","","","","","","","","","","","","","","","","","","","","","",""
"","rating","","html-slider-response","5","132478","0.0-1.0-2.0","27","31027","Female","8553","","","","","74","0","23","Stimuli/Experimental_stims/faces/rikonavt-HQjfrvdTfak-unsplash.jpg","","","","","","","","","","","","","","","","","","","","","","","","","","","","","","","","","","","","","","",""
"","rating","","html-slider-response","6","138344","0.0-1.0-3.0","27","31027","Female","5852","","","","","75","1","17","Stimuli/Experimental_stims/faces/good-faces-xmSWVeGEnJw-unsplash.jpg","","","","","","","","","","","","","","","","","","","","","","","","","","","","","","","","","","","","","","",""
"","rating","","html-slider-response","7","143854","0.0-1.0-4.0","27","31027","Female","5498","","","","","94","2","10","Stimuli/Experimental_stims/outdoor_scenes/shannon-kunkle-dM8INmkyDas-unsplash.jpg","","","","","","","","","","","","","","","","","","","","","","","","","","","","","","","","","","","","","","",""
"","rating","","html-slider-response","8","149282","0.0-1.0-5.0","27","31027","Female","5413","","","","","75","3","37","Stimuli/Experimental_stims/objects/alexander-andrews-VLGWE_SumrA-unsplash.jpg","","","","","","","","","","","","","","","","","","","","","","","","","","","","","","","","","","","","","","",""
"","rating","","html-slider-response","9","153466","0.0-1.0-6.0","27","31027","Female","4170","","","","","85","4","12","Stimuli/Experimental_stims/faces/aiony-haust-jmATI5Q_YgY-unsplash.jpg","","","","","","","","","","","","","","","","","","","","","","","","","","","","","","","","","","","","","","",""
"","rating","","html-slider-response","10","158078","0.0-1.0-7.0","27","31027","Female","4603","","","","","77","5","13","Stimuli/Experimental_stims/faces/daniel-rigdon-dXmXKPP2L4E-unsplash.jpg","","","","","","","","","","","","","","","","","","","","","","","","","","","","","","","","","","","","","","",""
"","rating","","html-slider-response","11","163059","0.0-1.0-8.0","27","31027","Female","4973","","","","","66","6","46","Stimuli/Experimental_stims/objects/mockup-graphics-PNsj6RiHAF4-unsplash.jpg","","","","","","","","","","","","","","","","","","","","","","","","","","","","","","","","","","","","","","",""
"","rating","","html-slider-response","12","167536","0.0-1.0-9.0","27","31027","Female","4469","","","","","96","7","0","Stimuli/Experimental_stims/outdoor_scenes/aleksandra-boguslawska-MS7KD9Ti7FQ-unsplash.jpg","","","","","","","","","","","","","","","","","","","","","","","","","","","","","","","","","","","","","","",""
"","rating","","html-slider-response","13","171385","0.0-1.0-10.0","27","31027","Female","3840","","","","","60","8","42","Stimuli/Experimental_stims/objects/jess-bailey-nOeVi8DsN8U-unsplash.jpg","","","","","","","","","","","","","","","","","","","","","","","","","","","","","","","","","","","","","","",""
"","rating","","html-slider-response","14","175770","0.0-1.0-11.0","27","31027","Female","4373","","","","","80","9","29","Stimuli/Experimental_stims/body_parts/manuel-schinner-ZwjFuJ7ebpk-unsplash.jpg","","","","","","","","","","","","","","","","","","","","","","","","","","","","","","","","","","","","","","",""
"","rating","","html-slider-response","15","179866","0.0-1.0-12.0","27","31027","Female","4083","","","","","67","10","45","Stimuli/Experimental_stims/objects/leohoho-rngTKHXumy0-unsplash.jpg","","","","","","","","","","","","","","","","","","","","","","","","","","","","","","","","","","","","","","",""
"","rating","","html-slider-response","16","183882","0.0-1.0-13.0","27","31027","Female","4001","","","","","69","11","16","Stimuli/Experimental_stims/faces/freddy-kearney-o-ioeoATbIM-unsplash.jpg","","","","","","","","","","","","","","","","","","","","","","","","","","","","","","","","","","","","","","",""
"","rating","","html-slider-response","17","187476","0.0-1.0-14.0","27","31027","Female","3582","","","","","66","12","35","Stimuli/Experimental_stims/body_parts/wc-so-KH4AAPjb-tI-unsplash.jpg","","","","","","","","","","","","","","","","","","","","","","","","","","","","","","","","","","","","","","",""
"","rating","","html-slider-response","18","191367","0.0-1.0-15.0","27","31027","Female","3880","","","","","98","13","8","Stimuli/Experimental_stims/outdoor_scenes/samsommer-vddccTqwal8-unsplash.jpg","","","","","","","","","","","","","","","","","","","","","","","","","","","","","","","","","","","","","","",""
"","rating","","html-slider-response","19","195151","0.0-1.0-16.0","27","31027","Female","3768","","","","","73","14","18","Stimuli/Experimental_stims/faces/jessica-radanavong-mrYkTuAesKE-unsplash.jpg","","","","","","","","","","","","","","","","","","","","","","","","","","","","","","","","","","","","","","",""
"","rating","","html-slider-response","20","200825","0.0-1.0-17.0","27","31027","Female","5660","","","","","100","15","6","Stimuli/Experimental_stims/outdoor_scenes/meng-ji-8BH_M-53CyA-unsplash.jpg","","","","","","","","","","","","","","","","","","","","","","","","","","","","","","","","","","","","","","",""
"","rating","","html-slider-response","21","205404","0.0-1.0-18.0","27","31027","Female","4565","","","","","100","16","2","Stimuli/Experimental_stims/outdoor_scenes/bruno-van-der-kraan-qez8mNJ3ilU-unsplash.jpg","","","","","","","","","","","","","","","","","","","","","","","","","","","","","","","","","","","","","","",""
"","rating","","html-slider-response","22","209683","0.0-1.0-19.0","27","31027","Female","4268","","","","","87","17","33","Stimuli/Experimental_stims/body_parts/tucker-good-36skLT5jZcc-unsplash.jpg","","","","","","","","","","","","","","","","","","","","","","","","","","","","","","","","","","","","","","",""
"","rating","","html-slider-response","23","214950","0.0-1.0-20.0","27","31027","Female","5255","","","","","58","18","25","Stimuli/Experimental_stims/body_parts/engin-akyurt-Q2rfH3GW39c-unsplash.jpg","","","","","","","","","","","","","","","","","","","","","","","","","","","","","","","","","","","","","","",""
"","rating","","html-slider-response","24","219322","0.0-1.0-21.0","27","31027","Female","4357","","","","","100","19","4","Stimuli/Experimental_stims/outdoor_scenes/jarrett-kow-1ZOyYPOBn7I-unsplash.jpg","","","","","","","","","","","","","","","","","","","","","","","","","","","","","","","","","","","","","","",""
"","rating","","html-slider-response","25","223867","0.0-1.0-22.0","27","31027","Female","4534","","","","","100","20","11","Stimuli/Experimental_stims/outdoor_scenes/stephen-leonardi-gyIRjKPXupE-unsplash.jpg","","","","","","","","","","","","","","","","","","","","","","","","","","","","","","","","","","","","","","",""
"","rating","","html-slider-response","26","227043","0.0-1.0-23.0","27","31027","Female","3164","","","","","61","21","47","Stimuli/Experimental_stims/objects/ronaldo-arthur-vidal-Cdz_lvnl37k-unsplash.jpg","","","","","","","","","","","","","","","","","","","","","","","","","","","","","","","","","","","","","","",""
"","rating","","html-slider-response","27","231709","0.0-1.0-24.0","27","31027","Female","4651","","","","","85","22","39","Stimuli/Experimental_stims/objects/charlesdeluvio-1-nx1QR5dTE-unsplash.jpg","","","","","","","","","","","","","","","","","","","","","","","","","","","","","","","","","","","","","","",""
"","rating","","html-slider-response","28","235834","0.0-1.0-25.0","27","31027","Female","4115","","","","","100","23","3","Stimuli/Experimental_stims/outdoor_scenes/henry-be-NLF6hTe4PAg-unsplash.jpg","","","","","","","","","","","","","","","","","","","","","","","","","","","","","","","","","","","","","","",""
"","rating","","html-slider-response","29","239172","0.0-1.0-26.0","27","31027","Female","3328","","","","","62","24","34","Stimuli/Experimental_stims/body_parts/wagner-santos-mBWMvIuVnso-unsplash.jpg","","","","","","","","","","","","","","","","","","","","","","","","","","","","","","","","","","","","","","",""
"","rating","","html-slider-response","30","243557","0.0-1.0-27.0","27","31027","Female","4376","","","","","75","25","27","Stimuli/Experimental_stims/body_parts/heike-mintel-i_Gns0ELnLw-unsplash.jpg","","","","","","","","","","","","","","","","","","","","","","","","","","","","","","","","","","","","","","",""
"","rating","","html-slider-response","31","247523","0.0-1.0-28.0","27","31027","Female","3955","","","","","78","26","43","Stimuli/Experimental_stims/objects/jonathan-greenaway-Y4hGgeiFn3s-unsplash.jpg","","","","","","","","","","","","","","","","","","","","","","","","","","","","","","","","","","","","","","",""
"","rating","","html-slider-response","32","251292","0.0-1.0-29.0","27","31027","Female","3758","","","","","81","27","40","Stimuli/Experimental_stims/objects/fabian-blank-pElSkGRA2NU-unsplash.jpg","","","","","","","","","","","","","","","","","","","","","","","","","","","","","","","","","","","","","","",""
"","rating","","html-slider-response","33","254419","0.0-1.0-30.0","27","31027","Female","3116","","","","","64","28","38","Stimuli/Experimental_stims/objects/art-lasovsky-8XddFc6NkBY-unsplash.jpg","","","","","","","","","","","","","","","","","","","","","","","","","","","","","","","","","","","","","","",""
"","rating","","html-slider-response","34","258496","0.0-1.0-31.0","27","31027","Female","4065","","","","","100","29","9","Stimuli/Experimental_stims/outdoor_scenes/sergey-pesterev-y-b_FOmJXdg-unsplash.jpg","","","","","","","","","","","","","","","","","","","","","","","","","","","","","","","","","","","","","","",""
"","rating","","html-slider-response","35","261889","0.0-1.0-32.0","27","31027","Female","3379","","","","","59","30","19","Stimuli/Experimental_stims/faces/joel-mott-LaK153ghdig-unsplash.jpg","","","","","","","","","","","","","","","","","","","","","","","","","","","","","","","","","","","","","","",""
"","rating","","html-slider-response","36","265452","0.0-1.0-33.0","27","31027","Female","3547","","","","","73","31","24","Stimuli/Experimental_stims/body_parts/clay-banks-LjqARJaJotc-unsplash.jpg","","","","","","","","","","","","","","","","","","","","","","","","","","","","","","","","","","","","","","",""
"","rating","","html-slider-response","37","271099","0.0-1.0-34.0","27","31027","Female","5627","","","","","69","32","14","Stimuli/Experimental_stims/faces/david-siglin-UuW4psOb388-unsplash.jpg","","","","","","","","","","","","","","","","","","","","","","","","","","","","","","","","","","","","","","",""
"","rating","","html-slider-response","38","276517","0.0-1.0-35.0","27","31027","Female","5402","","","","","61","33","44","Stimuli/Experimental_stims/objects/kuiye-chen-NuOGFo4PudE-unsplash.jpg","","","","","","","","","","","","","","","","","","","","","","","","","","","","","","","","","","","","","","",""
"","rating","","html-slider-response","39","280127","0.0-1.0-36.0","27","31027","Female","3601","","","","","63","34","15","Stimuli/Experimental_stims/faces/erik-lucatero-d2MSDujJl2g-unsplash.jpg","","","","","","","","","","","","","","","","","","","","","","","","","","","","","","","","","","","","","","",""
"","rating","","html-slider-response","40","284392","0.0-1.0-37.0","27","31027","Female","4255","","","","","100","35","1","Stimuli/Experimental_stims/outdoor_scenes/ashim-d-silva-S2Q5mdOrrVc-unsplash.jpg","","","","","","","","","","","","","","","","","","","","","","","","","","","","","","","","","","","","","","",""
"","rating","","html-slider-response","41","287809","0.0-1.0-38.0","27","31027","Female","3408","","","","","73","36","22","Stimuli/Experimental_stims/faces/ravi-patel-VMGAbeeJTKo-unsplash.jpg","","","","","","","","","","","","","","","","","","","","","","","","","","","","","","","","","","","","","","",""
"","rating","","html-slider-response","42","291683","0.0-1.0-39.0","27","31027","Female","3861","","","","","56","37","26","Stimuli/Experimental_stims/body_parts/engin-akyurt-x_3gyC42btc-unsplash.jpg","","","","","","","","","","","","","","","","","","","","","","","","","","","","","","","","","","","","","","",""
"","rating","","html-slider-response","43","294851","0.0-1.0-40.0","27","31027","Female","3151","","","","","59","38","31","Stimuli/Experimental_stims/body_parts/sincerely-media-VN6DbKajo5s-unsplash.jpg","","","","","","","","","","","","","","","","","","","","","","","","","","","","","","","","","","","","","","",""
"","rating","","html-slider-response","44","298009","0.0-1.0-41.0","27","31027","Female","3146","","","","","58","39","36","Stimuli/Experimental_stims/objects/alexander-andrews-JYGnB9gTCls-unsplash.jpg","","","","","","","","","","","","","","","","","","","","","","","","","","","","","","","","","","","","","","",""
"","rating","","html-slider-response","45","302175","0.0-1.0-42.0","27","31027","Female","4156","","","","","58","40","28","Stimuli/Experimental_stims/body_parts/ira-vishnevskaya-8DQAvdCby1I-unsplash.jpg","","","","","","","","","","","","","","","","","","","","","","","","","","","","","","","","","","","","","","",""
"","rating","","html-slider-response","46","305409","0.0-1.0-43.0","27","31027","Female","3222","","","","","72","41","20","Stimuli/Experimental_stims/faces/justin-chen-J7Cf1Gch49E-unsplash.jpg","","","","","","","","","","","","","","","","","","","","","","","","","","","","","","","","","","","","","","",""
"","rating","","html-slider-response","47","309762","0.0-1.0-44.0","27","31027","Female","4340","","","","","71","42","41","Stimuli/Experimental_stims/objects/insung-yoon-w2JtIQQXoRU-unsplash.jpg","","","","","","","","","","","","","","","","","","","","","","","","","","","","","","","","","","","","","","",""
"","rating","","html-slider-response","48","314622","0.0-1.0-45.0","27","31027","Female","4851","","","","","100","43","7","Stimuli/Experimental_stims/outdoor_scenes/petr-vysohlid-9fqwGqGLUxc-unsplash.jpg","","","","","","","","","","","","","","","","","","","","","","","","","","","","","","","","","","","","","","",""
"","rating","","html-slider-response","49","318108","0.0-1.0-46.0","27","31027","Female","3476","","","","","87","44","5","Stimuli/Experimental_stims/outdoor_scenes/jeff-king-bJHWJeiHfHc-unsplash.jpg","","","","","","","","","","","","","","","","","","","","","","","","","","","","","","","","","","","","","","",""
"","rating","","html-slider-response","50","321097","0.0-1.0-47.0","27","31027","Female","2979","","","","","76","45","30","Stimuli/Experimental_stims/body_parts/mika-korhonen-Xodzxosar18-unsplash.jpg","","","","","","","","","","","","","","","","","","","","","","","","","","","","","","","","","","","","","","",""
"","rating","","html-slider-response","51","324354","0.0-1.0-48.0","27","31027","Female","3247","","","","","78","46","32","Stimuli/Experimental_stims/body_parts/towfiqu-barbhuiya-3AsiVDsZnHg-unsplash.jpg","","","","","","","","","","","","","","","","","","","","","","","","","","","","","","","","","","","","","","",""
"","rating","","html-slider-response","52","328222","0.0-1.0-49.0","27","31027","Female","3851","","","","","73","47","21","Stimuli/Experimental_stims/faces/leilani-angel-K84vnnzxmTQ-unsplash.jpg","","","","","","","","","","","","","","","","","","","","","","","","","","","","","","","","","","","","","","",""
"","localizer_instructions","","instructions","53","425625","0.0-2.0-0.0-0.0","27","31027","Female","97313","","[{""page_index"":0,""viewing_time"":40474},{""page_index"":1,""viewing_time"":52072},{""page_index"":2,""viewing_time"":4767}]","","","","","","","","","","","","","","","","","","","","","","","","","","","","","","","","","","","","","","","","","","","","",""
"","localizer_comprehension_check","","survey-multi-choice","54","453758","0.0-2.0-0.0-1.0","27","31027","Female","28112","{""Q0"":""True"",""Q1"":""K"",""Q2"":""D""}","","0","","","","","","","","","","","","","","","","","","","","","","","","","","","","","","","","","","","","","","","","","","","",""
"","","","html-keyboard-response","55","461201","0.0-2.0-1.0","27","31027","Female","7430","","","","68","","","","","","","","","","","","","","","","","","","","","","","","","","","","","","","","","","","","","","","","","","",""
"","localizer","","html-keyboard-response","56","461625","0.0-2.0-2.0-0.0","27","31027","Female","NaN","","","","null","NaN","0","","Stimuli/Practice_stims/Localizer/annie-spratt-g9KFpAfQ5bc-unsplash.jpg","461201","0","NaN","","0","1","0","400","0","424","0","","","","","","","","","","","","","","","","","","","","","","","","","","","",""
"","iti_localizer","","html-keyboard-response","57","461936","0.0-2.0-2.0-1.0","27","31027","Female","null","","","","null","","0","","","461625","0","","","","","","300","400","311","424","300","","","","","","","","","","","","","","","","","","","","","","","","","","",""
"","localizer","","html-keyboard-response","58","462349","0.0-2.0-2.1-0.1","27","31027","Female","NaN","","","","null","NaN","0","","Stimuli/Practice_stims/Localizer/annie-spratt-g9KFpAfQ5bc-unsplash.jpg","461936","0","NaN","","0","1","0","400","700","413","735","","","","","","","","","","","","","","","","","","","","","","","","","","","",""
"","iti_localizer","","html-keyboard-response","59","462663","0.0-2.0-2.1-1.1","27","31027","Female","null","","","","null","","0","","","462349","0","","","","","","300","1100","314","1148","300","","","","","","","","","","","","","","","","","","","","","","","","","","",""
"","localizer","","html-keyboard-response","60","463074","0.0-2.0-2.2-0.2","27","31027","Female","NaN","","","","null","NaN","0","","Stimuli/Practice_stims/Localizer/annie-spratt-g9KFpAfQ5bc-unsplash.jpg","462663","0","NaN","","0","1","0","400","1400","411","1462","","","","","","","","","","","","","","","","","","","","","","","","","","","",""
"","iti_localizer","","html-keyboard-response","61","463383","0.0-2.0-2.2-1.2","27","31027","Female","null","","","","null","","0","","","463074","0","","","","","","300","1800","309","1873","300","","","","","","","","","","","","","","","","","","","","","","","","","","",""
"","localizer","","html-keyboard-response","62","463798","0.0-2.0-2.3-0.3","27","31027","Female","NaN","","","","null","NaN","0","","Stimuli/Practice_stims/Localizer/annie-spratt-g9KFpAfQ5bc-unsplash.jpg","463383","0","NaN","","0","1","0","400","2100","415","2182","","","","","","","","","","","","","","","","","","","","","","","","","","","",""
"","iti_localizer","","html-keyboard-response","63","464114","0.0-2.0-2.3-1.3","27","31027","Female","null","","","","null","","0","","","463798","0","","","","","","300","2500","316","2597","300","","","","","","","","","","","","","","","","","","","","","","","","","","",""
"","localizer","","html-keyboard-response","64","464537","0.0-2.0-2.4-0.4","27","31027","Female","180","","","","68","0","0","","Stimuli/Practice_stims/Localizer/annie-spratt-g9KFpAfQ5bc-unsplash.jpg","464114","0","NaN","","0","0","1","400","2800","423","2913","","","","","","","","","","","","","","","","","","","","","","","","","","","",""
"","iti_localizer","","html-keyboard-response","65","464852","0.0-2.0-2.4-1.4","27","31027","Female","null","","","","null","","0","","","464537","0","","","","","","300","3200","315","3336","300","","","","","","","","","","","","","","","","","","","","","","","","","","",""
"","localizer","","html-keyboard-response","66","465269","0.0-2.0-3.0-0.0","27","31027","Female","191","","","","75","1","1","","Stimuli/Practice_stims/Localizer/becca-tapert-sY5RjMB1KkE-unsplash.jpg","464852","0","NaN","","0","0","0","400","3500","417","3651","","","","","","","","","","","","","","","","","","","","","","","","","","","",""
"","iti_localizer","","html-keyboard-response","67","465583","0.0-2.0-3.0-1.0","27","31027","Female","null","","","","null","","1","","","465269","0","","","","","","300","3900","314","4068","300","","","","","","","","","","","","","","","","","","","","","","","","","","",""
"","localizer","","html-keyboard-response","68","465991","0.0-2.0-4.0-0.0","27","31027","Female","241","","","","68","0","2","","Stimuli/Practice_stims/Localizer/charl-durand-bsfXvI25iNg-unsplash.jpg","465583","0","NaN","","1","0","0","400","4200","408","4382","","","","","","","","","","","","","","","","","","","","","","","","","","","",""
"","iti_localizer","","html-keyboard-response","69","466300","0.0-2.0-4.0-1.0","27","31027","Female","null","","","","null","","2","","","465991","0","","","","","","300","4600","309","4790","300","","","","","","","","","","","","","","","","","","","","","","","","","","",""
"","localizer","","html-keyboard-response","70","466709","0.0-2.0-5.0-0.0","27","31027","Female","NaN","","","","null","NaN","3","","Stimuli/Practice_stims/Localizer/nizar-albusaidy-B2r2SWAf5CE-unsplash.jpg","466300","0","NaN","","0","1","0","400","4900","409","5099","","","","","","","","","","","","","","","","","","","","","","","","","","","",""
"","iti_localizer","","html-keyboard-response","71","467023","0.0-2.0-5.0-1.0","27","31027","Female","null","","","","null","","3","","","466709","0","","","","","","300","5300","314","5508","300","","","","","","","","","","","","","","","","","","","","","","","","","","",""
"","localizer","","html-keyboard-response","72","467440","0.0-2.0-5.1-0.1","27","31027","Female","NaN","","","","null","NaN","3","","Stimuli/Practice_stims/Localizer/nizar-albusaidy-B2r2SWAf5CE-unsplash.jpg","467023","0","NaN","","0","1","0","400","5600","417","5822","","","","","","","","","","","","","","","","","","","","","","","","","","","",""
"","iti_localizer","","html-keyboard-response","73","467753","0.0-2.0-5.1-1.1","27","31027","Female","null","","","","null","","3","","","467440","0","","","","","","300","6000","313","6239","300","","","","","","","","","","","","","","","","","","","","","","","","","","",""
"","localizer","","html-keyboard-response","74","468169","0.0-2.0-5.2-0.2","27","31027","Female","200","","","","68","0","3","","Stimuli/Practice_stims/Localizer/nizar-albusaidy-B2r2SWAf5CE-unsplash.jpg","467753","0","NaN","","0","0","1","400","6300","416","6552","","","","","","","","","","","","","","","","","","","","","","","","","","","",""
"","iti_localizer","","html-keyboard-response","75","468490","0.0-2.0-5.2-1.2","27","31027","Female","null","","","","null","","3","","","468169","0","","","","","","300","6700","321","6968","300","","","","","","","","","","","","","","","","","","","","","","","","","","",""
"","localizer","","html-keyboard-response","76","468912","0.0-2.0-6.0-0.0","27","31027","Female","NaN","","","","null","NaN","4","","Stimuli/Practice_stims/Localizer/randy-fath-epf1tdtIIkM-unsplash.jpg","468490","0","NaN","","1","1","0","400","7000","422","7289","","","","","","","","","","","","","","","","","","","","","","","","","","","",""
"","iti_localizer","","html-keyboard-response","77","469228","0.0-2.0-6.0-1.0","27","31027","Female","null","","","","null","","4","","","468912","0","","","","","","300","7400","316","7711","300","","","","","","","","","","","","","","","","","","","","","","","","","","",""
"","localizer","","html-keyboard-response","78","469641","0.0-2.0-6.1-0.1","27","31027","Female","NaN","","","","null","NaN","4","","Stimuli/Practice_stims/Localizer/randy-fath-epf1tdtIIkM-unsplash.jpg","469228","0","NaN","","1","1","0","400","7700","413","8027","","","","","","","","","","","","","","","","","","","","","","","","","","","",""
"","iti_localizer","","html-keyboard-response","79","469955","0.0-2.0-6.1-1.1","27","31027","Female","null","","","","null","","4","","","469641","0","","","","","","300","8100","314","8440","300","","","","","","","","","","","","","","","","","","","","","","","","","","",""
"","localizer","","html-keyboard-response","80","470388","0.0-2.0-6.2-0.2","27","31027","Female","NaN","","","","null","NaN","4","","Stimuli/Practice_stims/Localizer/randy-fath-epf1tdtIIkM-unsplash.jpg","469955","0","NaN","","1","1","0","400","8400","433","8754","","","","","","","","","","","","","","","","","","","","","","","","","","","",""
"","iti_localizer","","html-keyboard-response","81","470705","0.0-2.0-6.2-1.2","27","31027","Female","null","","","","null","","4","","","470388","0","","","","","","300","8800","317","9187","300","","","","","","","","","","","","","","","","","","","","","","","","","","",""
"","localizer","","html-keyboard-response","82","471118","0.0-2.0-6.3-0.3","27","31027","Female","NaN","","","","null","NaN","4","","Stimuli/Practice_stims/Localizer/randy-fath-epf1tdtIIkM-unsplash.jpg","470705","0","NaN","","1","1","0","400","9100","413","9504","","","","","","","","","","","","","","","","","","","","","","","","","","","",""
"","iti_localizer","","html-keyboard-response","83","471432","0.0-2.0-6.3-1.3","27","31027","Female","null","","","","null","","4","","","471118","0","","","","","","300","9500","314","9917","300","","","","","","","","","","","","","","","","","","","","","","","","","","",""
"","localizer","","html-keyboard-response","84","471848","0.0-2.0-6.4-0.4","27","31027","Female","NaN","","","","null","NaN","4","","Stimuli/Practice_stims/Localizer/randy-fath-epf1tdtIIkM-unsplash.jpg","471432","0","NaN","","1","1","0","400","9800","416","10231","","","","","","","","","","","","","","","","","","","","","","","","","","","",""
"","iti_localizer","","html-keyboard-response","85","472167","0.0-2.0-6.4-1.4","27","31027","Female","null","","","","null","","4","","","471848","0","","","","","","300","10200","319","10647","300","","","","","","","","","","","","","","","","","","","","","","","","","","",""
"","localizer","","html-keyboard-response","86","472582","0.0-2.0-6.5-0.5","27","31027","Female","NaN","","","","null","NaN","4","","Stimuli/Practice_stims/Localizer/randy-fath-epf1tdtIIkM-unsplash.jpg","472167","0","NaN","","1","1","0","400","10500","415","10966","","","","","","","","","","","","","","","","","","","","","","","","","","","",""
"","iti_localizer","","html-keyboard-response","87","472903","0.0-2.0-6.5-1.5","27","31027","Female","null","","","","null","","4","","","472582","0","","","","","","300","10900","321","11381","300","","","","","","","","","","","","","","","","","","","","","","","","","","",""
"","localizer","","html-keyboard-response","88","473313","0.0-2.0-6.6-0.6","27","31027","Female","NaN","","","","null","NaN","4","","Stimuli/Practice_stims/Localizer/randy-fath-epf1tdtIIkM-unsplash.jpg","472903","0","NaN","","1","1","0","400","11200","410","11702","","","","","","","","","","","","","","","","","","","","","","","","","","","",""
"","iti_localizer","","html-keyboard-response","89","473625","0.0-2.0-6.6-1.6","27","31027","Female","null","","","","null","","4","","","473313","0","","","","","","300","11600","312","12112","300","","","","","","","","","","","","","","","","","","","","","","","","","","",""
"","localizer","","html-keyboard-response","90","474042","0.0-2.0-6.7-0.7","27","31027","Female","NaN","","","","null","NaN","4","","Stimuli/Practice_stims/Localizer/randy-fath-epf1tdtIIkM-unsplash.jpg","473625","0","NaN","","1","1","0","400","11900","417","12424","","","","","","","","","","","","","","","","","","","","","","","","","","","",""
"","iti_localizer","","html-keyboard-response","91","474360","0.0-2.0-6.7-1.7","27","31027","Female","null","","","","null","","4","","","474042","0","","","","","","300","12300","318","12841","300","","","","","","","","","","","","","","","","","","","","","","","","","","",""
"","localizer","","html-keyboard-response","92","474776","0.0-2.0-6.8-0.8","27","31027","Female","NaN","","","","null","NaN","4","","Stimuli/Practice_stims/Localizer/randy-fath-epf1tdtIIkM-unsplash.jpg","474360","0","NaN","","1","1","0","400","12600","416","13159","","","","","","","","","","","","","","","","","","","","","","","","","","","",""
"","iti_localizer","","html-keyboard-response","93","475088","0.0-2.0-6.8-1.8","27","31027","Female","null","","","","null","","4","","","474776","0","","","","","","300","13000","312","13575","300","","","","","","","","","","","","","","","","","","","","","","","","","","",""
"","localizer","","html-keyboard-response","94","475503","0.0-2.0-6.9-0.9","27","31027","Female","NaN","","","","null","NaN","4","","Stimuli/Practice_stims/Localizer/randy-fath-epf1tdtIIkM-unsplash.jpg","475088","0","NaN","","1","1","0","400","13300","415","13887","","","","","","","","","","","","","","","","","","","","","","","","","","","",""
"","iti_localizer","","html-keyboard-response","95","475814","0.0-2.0-6.9-1.9","27","31027","Female","null","","","","null","","4","","","475503","0","","","","","","300","13700","311","14302","300","","","","","","","","","","","","","","","","","","","","","","","","","","",""
"","localizer","","html-keyboard-response","96","476229","0.0-2.0-6.10-0.10","27","31027","Female","NaN","","","","null","NaN","4","","Stimuli/Practice_stims/Localizer/randy-fath-epf1tdtIIkM-unsplash.jpg","475814","0","NaN","","1","1","0","400","14000","415","14613","","","","","","","","","","","","","","","","","","","","","","","","","","","",""
"","iti_localizer","","html-keyboard-response","97","476546","0.0-2.0-6.10-1.10","27","31027","Female","null","","","","null","","4","","","476229","0","","","","","","300","14400","317","15028","300","","","","","","","","","","","","","","","","","","","","","","","","","","",""
"","localizer","","html-keyboard-response","98","476989","0.0-2.0-6.11-0.11","27","31027","Female","NaN","","","","null","NaN","4","","Stimuli/Practice_stims/Localizer/randy-fath-epf1tdtIIkM-unsplash.jpg","476546","0","NaN","","1","1","0","400","14700","443","15345","","","","","","","","","","","","","","","","","","","","","","","","","","","",""
"","iti_localizer","","html-keyboard-response","99","477303","0.0-2.0-6.11-1.11","27","31027","Female","null","","","","null","","4","","","476989","0","","","","","","300","15100","314","15788","300","","","","","","","","","","","","","","","","","","","","","","","","","","",""
"","localizer","","html-keyboard-response","100","477717","0.0-2.0-6.12-0.12","27","31027","Female","248","","","","75","1","4","","Stimuli/Practice_stims/Localizer/randy-fath-epf1tdtIIkM-unsplash.jpg","477303","0","NaN","","1","0","1","400","15400","414","16102","","","","","","","","","","","","","","","","","","","","","","","","","","","",""
"","iti_localizer","","html-keyboard-response","101","478039","0.0-2.0-6.12-1.12","27","31027","Female","null","","","","null","","4","","","477717","0","","","","","","300","15800","322","16516","300","","","","","","","","","","","","","","","","","","","","","","","","","","",""
"","localizer","","html-keyboard-response","102","478454","0.0-2.0-7.0-0.0","27","31027","Female","200","","","","75","1","5","","Stimuli/Practice_stims/Localizer/yassine-khalfalli-adsQ9d_Cx0c-unsplash.jpg","478039","0","NaN","","0","0","0","400","16100","415","16838","","","","","","","","","","","","","","","","","","","","","","","","","","","",""
"","iti_localizer","","html-keyboard-response","103","478760","0.0-2.0-7.0-1.0","27","31027","Female","null","","","","null","","5","","","478454","0","","","","","","300","16500","306","17253","300","","","","","","","","","","","","","","","","","","","","","","","","","","",""
"","practice_over","","html-keyboard-response","104","479417","0.0-2.0-7.0-2.0-0.0","27","31027","Female","650","","","","68","","","","","","","","","","","","","","","","","","","","","","","","","","","","","","","","","","","","","","","","","","",""
"","start_run","","html-keyboard-response","105","482129","0.0-2.0-7.0-2.0-1.0","27","31027","Female","2705","","","","84","","","","","","","","","","","","","","","","","","","","","","","","","","","","","","","","","","","","","","","","","","",""
"","localizer","","html-keyboard-response","106","482543","0.0-2.0-8.0-0.0","27","31027","Female","NaN","","","","null","NaN","6","","Stimuli/Experimental_stims/localizer/faces/allef-vinicius-C_1jjFJioWg-unsplash.jpg","482129","1","faces","","0","1","0","400","0","414","0","","","","","","","","","","","","","","","","","","","","","","","","","","","",""
"","iti_localizer","","html-keyboard-response","107","482852","0.0-2.0-8.0-1.0","27","31027","Female","null","","","","null","","6","","","482543","1","","","","","","300","400","309","414","300","","","","","","","","","","","","","","","","","","","","","","","","","","",""
"","localizer","","html-keyboard-response","108","483303","0.0-2.0-9.0-0.0","27","31027","Female","NaN","","","","null","NaN","7","","Stimuli/Experimental_stims/localizer/faces/ayo-ogunseinde-sibVwORYqs0-unsplash.jpg","482852","1","faces","","1","1","0","400","700","451","723","","","","","","","","","","","","","","","","","","","","","","","","","","","",""
"","iti_localizer","","html-keyboard-response","109","483614","0.0-2.0-9.0-1.0","27","31027","Female","null","","","","null","","7","","","483303","1","","","","","","300","1100","311","1174","300","","","","","","","","","","","","","","","","","","","","","","","","","","",""
"","localizer","","html-keyboard-response","110","484028","0.0-2.0-10.0-0.0","27","31027","Female","NaN","","","","null","NaN","8","","Stimuli/Experimental_stims/localizer/faces/abstral-official-cyOKLSgkgCE-unsplash.jpg","483614","1","faces","","0","1","0","400","1400","414","1485","","","","","","","","","","","","","","","","","","","","","","","","","","","",""
"","iti_localizer","","html-keyboard-response","111","484343","0.0-2.0-10.0-1.0","27","31027","Female","null","","","","null","","8","","","484028","1","","","","","","300","1800","315","1899","300","","","","","","","","","","","","","","","","","","","","","","","","","","",""
"","localizer","","html-keyboard-response","112","484754","0.0-2.0-11.0-0.0","27","31027","Female","392","","","","68","0","9","","Stimuli/Experimental_stims/localizer/faces/hisu-lee-2qvxIr_DXGo-unsplash.jpg","484343","1","faces","","0","0","1","400","2100","411","2214","","","","","","","","","","","","","","","","","","","","","","","","","","","",""
"","iti_localizer","","html-keyboard-response","113","485067","0.0-2.0-11.0-1.0","27","31027","Female","null","","","","null","","9","","","484754","1","","","","","","300","2500","313","2625","300","","","","","","","","","","","","","","","","","","","","","","","","","","",""
"","localizer","","html-keyboard-response","114","485487","0.0-2.0-12.0-0.0","27","31027","Female","NaN","","","","null","NaN","10","","Stimuli/Experimental_stims/localizer/faces/austin-wade-X6Uj51n5CE8-unsplash.jpg","485067","1","faces","","0","1","0","400","2800","420","2938","","","","","","","","","","","","","","","","","","","","","","","","","","","",""
"","iti_localizer","","html-keyboard-response","115","485916","0.0-2.0-12.0-1.0","27","31027","Female","null","","","","null","","10","","","485487","1","","","","","","300","3200","429","3358","300","","","","","","","","","","","","","","","","","","","","","","","","","","",""
"","localizer","","html-keyboard-response","116","486329","0.0-2.0-13.0-0.0","27","31027","Female","NaN","","","","null","NaN","11","","Stimuli/Experimental_stims/localizer/faces/darshan-patel-QJEVpydulGs-unsplash.jpg","485916","1","faces","","0","1","0","400","3500","413","3787","","","","","","","","","","","","","","","","","","","","","","","","","","","",""
"","iti_localizer","","html-keyboard-response","117","486639","0.0-2.0-13.0-1.0","27","31027","Female","null","","","","null","","11","","","486329","1","","","","","","300","3900","310","4200","300","","","","","","","","","","","","","","","","","","","","","","","","","","",""
"","localizer","","html-keyboard-response","118","487055","0.0-2.0-14.0-0.0","27","31027","Female","NaN","","","","null","NaN","12","","Stimuli/Experimental_stims/localizer/faces/aleksandar-popovski-Jy4ELSGPHTc-unsplash.jpg","486639","1","faces","","0","1","0","400","4200","416","4510","","","","","","","","","","","","","","","","","","","","","","","","","","","",""
"","iti_localizer","","html-keyboard-response","119","487407","0.0-2.0-14.0-1.0","27","31027","Female","null","","","","null","","12","","","487055","1","","","","","","300","4600","352","4926","300","","","","","","","","","","","","","","","","","","","","","","","","","","",""
"","localizer","","html-keyboard-response","120","487817","0.0-2.0-15.0-0.0","27","31027","Female","NaN","","","","null","NaN","13","","Stimuli/Experimental_stims/localizer/faces/ethan-haddox-__ng3cRXmFE-unsplash.jpg","487407","1","faces","","0","1","0","400","4900","410","5278","","","","","","","","","","","","","","","","","","","","","","","","","","","",""
"","iti_localizer","","html-keyboard-response","121","488124","0.0-2.0-15.0-1.0","27","31027","Female","null","","","","null","","13","","","487817","1","","","","","","300","5300","307","5688","300","","","","","","","","","","","","","","","","","","","","","","","","","","",""
"","localizer","","html-keyboard-response","122","488534","0.0-2.0-16.0-0.0","27","31027","Female","NaN","","","","null","NaN","14","","Stimuli/Experimental_stims/localizer/faces/jake-nackos-IF9TK5Uy-KI-unsplash.jpg","488124","1","faces","","0","1","0","400","5600","410","5995","","","","","","","","","","","","","","","","","","","","","","","","","","","",""
"","iti_localizer","","html-keyboard-response","123","488847","0.0-2.0-16.0-1.0","27","31027","Female","null","","","","null","","14","","","488534","1","","","","","","300","6000","313","6405","300","","","","","","","","","","","","","","","","","","","","","","","","","","",""
"","localizer","","html-keyboard-response","124","489415","0.0-2.0-17.0-0.0","27","31027","Female","155","","","","68","0","15","","Stimuli/Experimental_stims/localizer/faces/mubariz-mehdizadeh-o-wlIFT4zE4-unsplash.jpg","488847","1","faces","","0","0","1","400","6300","568","6718","","","","","","","","","","","","","","","","","","","","","","","","","","","",""
"","iti_localizer","","html-keyboard-response","125","489725","0.0-2.0-17.0-1.0","27","31027","Female","null","","","","null","","15","","","489415","1","","","","","","300","6700","310","7286","300","","","","","","","","","","","","","","","","","","","","","","","","","","",""
"","localizer","","html-keyboard-response","126","490135","0.0-2.0-18.0-0.0","27","31027","Female","NaN","","","","null","NaN","16","","Stimuli/Experimental_stims/localizer/faces/stephanie-nakagawa-ADSKIn0ScDg-unsplash.jpg","489725","1","faces","","0","1","0","400","7000","410","7596","","","","","","","","","","","","","","","","","","","","","","","","","","","",""
"","iti_localizer","","html-keyboard-response","127","490447","0.0-2.0-18.0-1.0","27","31027","Female","null","","","","null","","16","","","490135","1","","","","","","300","7400","312","8006","300","","","","","","","","","","","","","","","","","","","","","","","","","","",""
"","localizer","","html-keyboard-response","128","490863","0.0-2.0-19.0-0.0","27","31027","Female","14","","","","68","0","17","","Stimuli/Experimental_stims/localizer/faces/foto-sushi-6anudmpILw4-unsplash.jpg","490447","1","faces","","0","0","1","400","7700","416","8318","","","","","","","","","","","","","","","","","","","","","","","","","","","",""
"","iti_localizer","","html-keyboard-response","129","491171","0.0-2.0-19.0-1.0","27","31027","Female","null","","","","null","","17","","","490863","1","","","","","","300","8100","308","8734","300","","","","","","","","","","","","","","","","","","","","","","","","","","",""
"","localizer","","html-keyboard-response","130","491600","0.0-2.0-20.0-0.0","27","31027","Female","NaN","","","","null","NaN","18","","Stimuli/Experimental_stims/localizer/faces/samuel-dixon--fQ5XNOcqFQ-unsplash.jpg","491171","1","faces","","0","1","0","400","8400","429","9042","","","","","","","","","","","","","","","","","","","","","","","","","","","",""
"","iti_localizer","","html-keyboard-response","131","491916","0.0-2.0-20.0-1.0","27","31027","Female","null","","","","null","","18","","","491600","1","","","","","","300","8800","316","9471","300","","","","","","","","","","","","","","","","","","","","","","","","","","",""
"","localizer","","html-keyboard-response","132","492332","0.0-2.0-21.0-0.0","27","31027","Female","NaN","","","","null","NaN","19","","Stimuli/Experimental_stims/localizer/faces/jeffery-erhunse-vp9mRauo68c-unsplash.jpg","491916","1","faces","","0","1","0","400","9100","416","9787","","","","","","","","","","","","","","","","","","","","","","","","","","","",""
"","iti_localizer","","html-keyboard-response","133","492644","0.0-2.0-21.0-1.0","27","31027","Female","null","","","","null","","19","","","492332","1","","","","","","300","9500","312","10203","300","","","","","","","","","","","","","","","","","","","","","","","","","","",""
"","localizer","","html-keyboard-response","134","493061","0.0-2.0-22.0-0.0","27","31027","Female","NaN","","","","null","NaN","20","","Stimuli/Experimental_stims/localizer/faces/ayo-ogunseinde-6W4F62sN_yI-unsplash.jpg","492644","1","faces","","0","1","0","400","9800","417","10515","","","","","","","","","","","","","","","","","","","","","","","","","","","",""
"","iti_localizer","","html-keyboard-response","135","493450","0.0-2.0-22.0-1.0","27","31027","Female","null","","","","null","","20","","","493061","1","","","","","","300","10200","389","10932","300","","","","","","","","","","","","","","","","","","","","","","","","","","",""
"","localizer","","html-keyboard-response","136","493888","0.0-2.0-23.0-0.0","27","31027","Female","309","","","","68","0","21","","Stimuli/Experimental_stims/localizer/faces/whereslugo-zl_fPgiwduo-unsplash.jpg","493450","1","faces","","0","0","1","400","10500","438","11321","","","","","","","","","","","","","","","","","","","","","","","","","","","",""
"","iti_localizer","","html-keyboard-response","137","494201","0.0-2.0-23.0-1.0","27","31027","Female","null","","","","null","","21","","","493888","1","","","","","","300","10900","313","11759","300","","","","","","","","","","","","","","","","","","","","","","","","","","",""
"","localizer","","html-keyboard-response","138","494648","0.0-2.0-24.0-0.0","27","31027","Female","22","","","","68","0","22","","Stimuli/Experimental_stims/localizer/faces/chanvre-quebec-mXu1SpzHq6w-unsplash.jpg","494201","1","faces","","0","0","1","400","11200","447","12072","","","","","","","","","","","","","","","","","","","","","","","","","","","",""
"","iti_localizer","","html-keyboard-response","139","494961","0.0-2.0-24.0-1.0","27","31027","Female","null","","","","null","","22","","","494648","1","","","","","","300","11600","313","12519","300","","","","","","","","","","","","","","","","","","","","","","","","","","",""
"","localizer","","html-keyboard-response","140","495375","0.0-2.0-25.0-0.0","27","31027","Female","337","","","","68","0","23","","Stimuli/Experimental_stims/localizer/faces/ian-dooley-d1UPkiFd04A-unsplash.jpg","494961","1","faces","","0","0","1","400","11900","414","12832","","","","","","","","","","","","","","","","","","","","","","","","","","","",""
"","iti_localizer","","html-keyboard-response","141","495688","0.0-2.0-25.0-1.0","27","31027","Female","null","","","","null","","23","","","495375","1","","","","","","300","12300","313","13246","300","","","","","","","","","","","","","","","","","","","","","","","","","","",""
"","localizer","","html-keyboard-response","142","496106","0.0-2.0-26.0-0.0","27","31027","Female","NaN","","","","null","NaN","24","","Stimuli/Experimental_stims/localizer/faces/matheus-ferrero-W7b3eDUb_2I-unsplash.jpg","495688","1","faces","","1","1","0","400","12600","418","13559","","","","","","","","","","","","","","","","","","","","","","","","","","","",""
"","iti_localizer","","html-keyboard-response","143","496428","0.0-2.0-26.0-1.0","27","31027","Female","null","","","","null","","24","","","496106","1","","","","","","300","13000","322","13977","300","","","","","","","","","","","","","","","","","","","","","","","","","","",""
"","localizer","","html-keyboard-response","144","496851","0.0-2.0-27.0-0.0","27","31027","Female","304","","","","75","1","25","","Stimuli/Experimental_stims/localizer/faces/jeffery-erhunse-BQMZ5ligqps-unsplash.jpg","496428","1","faces","","0","0","0","400","13300","423","14299","","","","","","","","","","","","","","","","","","","","","","","","","","","",""
"","iti_localizer","","html-keyboard-response","145","510878","0.0-2.0-27.0-1.0","27","31027","Female","null","","","","null","","25","","","496851","1","","","","","","14000","13700","14027","14722","14000","","","","","","","","","","","","","","","","","","","","","","","","","","",""
"","localizer","","html-keyboard-response","146","511295","0.0-2.0-28.0-0.0","27","31027","Female","NaN","","","","null","NaN","26","","Stimuli/Experimental_stims/localizer/body_parts/jeremy-bishop-mLd3hAaH2ns-unsplash.jpg","510878","1","body_parts","","0","1","0","400","27700","417","28749","","","","","","","","","","","","","","","","","","","","","","","","","","","",""
"","iti_localizer","","html-keyboard-response","147","511609","0.0-2.0-28.0-1.0","27","31027","Female","null","","","","null","","26","","","511295","1","","","","","","300","28100","314","29166","300","","","","","","","","","","","","","","","","","","","","","","","","","","",""
"","localizer","","html-keyboard-response","148","512021","0.0-2.0-29.0-0.0","27","31027","Female","NaN","","","","null","NaN","27","","Stimuli/Experimental_stims/localizer/body_parts/sincerely-media-3DZHTq_i7Qk-unsplash.jpg","511609","1","body_parts","","0","1","0","400","28400","412","29480","","","","","","","","","","","","","","","","","","","","","","","","","","","",""
"","iti_localizer","","html-keyboard-response","149","512340","0.0-2.0-29.0-1.0","27","31027","Female","null","","","","null","","27","","","512021","1","","","","","","300","28800","319","29892","300","","","","","","","","","","","","","","","","","","","","","","","","","","",""
"","localizer","","html-keyboard-response","150","512755","0.0-2.0-30.0-0.0","27","31027","Female","NaN","","","","null","NaN","28","","Stimuli/Experimental_stims/localizer/body_parts/nick-page-jAGdpOGvLAA-unsplash.jpg","512340","1","body_parts","","0","1","0","400","29100","415","30211","","","","","","","","","","","","","","","","","","","","","","","","","","","",""
"","iti_localizer","","html-keyboard-response","151","513115","0.0-2.0-30.0-1.0","27","31027","Female","null","","","","null","","28","","","512755","1","","","","","","300","29500","360","30626","300","","","","","","","","","","","","","","","","","","","","","","","","","","",""
"","localizer","","html-keyboard-response","152","513525","0.0-2.0-31.0-0.0","27","31027","Female","142","","","","68","0","29","","Stimuli/Experimental_stims/localizer/body_parts/priscilla-du-preez-e6fcNpur53A-unsplash.jpg","513115","1","body_parts","","1","0","0","400","29800","410","30986","","","","","","","","","","","","","","","","","","","","","","","","","","","",""
"","iti_localizer","","html-keyboard-response","153","513842","0.0-2.0-31.0-1.0","27","31027","Female","null","","","","null","","29","","","513525","1","","","","","","300","30200","317","31396","300","","","","","","","","","","","","","","","","","","","","","","","","","","",""
"","localizer","","html-keyboard-response","154","514259","0.0-2.0-32.0-0.0","27","31027","Female","NaN","","","","null","NaN","30","","Stimuli/Experimental_stims/localizer/body_parts/lilartsy-1KkhQ8uL28g-unsplash.jpg","513842","1","body_parts","","0","1","0","400","30500","417","31713","","","","","","","","","","","","","","","","","","","","","","","","","","","",""
"","iti_localizer","","html-keyboard-response","155","514569","0.0-2.0-32.0-1.0","27","31027","Female","null","","","","null","","30","","","514259","1","","","","","","300","30900","310","32130","300","","","","","","","","","","","","","","","","","","","","","","","","","","",""
"","localizer","","html-keyboard-response","156","514982","0.0-2.0-33.0-0.0","27","31027","Female","349","","","","68","0","31","","Stimuli/Experimental_stims/localizer/body_parts/sippakorn-yamkasikorn-32_sJlJa5gA-unsplash.jpg","514569","1","body_parts","","0","0","1","400","31200","413","32440","","","","","","","","","","","","","","","","","","","","","","","","","","","",""
"","iti_localizer","","html-keyboard-response","157","515305","0.0-2.0-33.0-1.0","27","31027","Female","null","","","","null","","31","","","514982","1","","","","","","300","31600","323","32853","300","","","","","","","","","","","","","","","","","","","","","","","","","","",""
"","localizer","","html-keyboard-response","158","515716","0.0-2.0-34.0-0.0","27","31027","Female","NaN","","","","null","NaN","32","","Stimuli/Experimental_stims/localizer/body_parts/meghan-thompson-U1b8OB0QpIo-unsplash.jpg","515305","1","body_parts","","0","1","0","400","31900","411","33176","","","","","","","","","","","","","","","","","","","","","","","","","","","",""
"","iti_localizer","","html-keyboard-response","159","516029","0.0-2.0-34.0-1.0","27","31027","Female","null","","","","null","","32","","","515716","1","","","","","","300","32300","313","33587","300","","","","","","","","","","","","","","","","","","","","","","","","","","",""
"","localizer","","html-keyboard-response","160","516450","0.0-2.0-35.0-0.0","27","31027","Female","NaN","","","","null","NaN","33","","Stimuli/Experimental_stims/localizer/body_parts/semen-zhuravlev-_XxH_mV8dnk-unsplash (1).jpg","516029","1","body_parts","","0","1","0","400","32600","421","33900","","","","","","","","","","","","","","","","","","","","","","","","","","","",""
"","iti_localizer","","html-keyboard-response","161","516760","0.0-2.0-35.0-1.0","27","31027","Female","null","","","","null","","33","","","516450","1","","","","","","300","33000","310","34321","300","","","","","","","","","","","","","","","","","","","","","","","","","","",""
"","localizer","","html-keyboard-response","162","517174","0.0-2.0-36.0-0.0","27","31027","Female","NaN","","","","null","NaN","34","","Stimuli/Experimental_stims/localizer/body_parts/betzy-arosemena-YHdgnygtVCQ-unsplash.jpg","516760","1","body_parts","","0","1","0","400","33300","414","34631","","","","","","","","","","","","","","","","","","","","","","","","","","","",""
"","iti_localizer","","html-keyboard-response","163","517488","0.0-2.0-36.0-1.0","27","31027","Female","null","","","","null","","34","","","517174","1","","","","","","300","33700","314","35045","300","","","","","","","","","","","","","","","","","","","","","","","","","","",""
"","localizer","","html-keyboard-response","164","517955","0.0-2.0-37.0-0.0","27","31027","Female","NaN","","","","null","NaN","35","","Stimuli/Experimental_stims/localizer/body_parts/davidcohen-qghuLqyh3nE-unsplash.jpg","517488","1","body_parts","","0","1","0","400","34000","467","35359","","","","","","","","","","","","","","","","","","","","","","","","","","","",""
"","iti_localizer","","html-keyboard-response","165","518271","0.0-2.0-37.0-1.0","27","31027","Female","null","","","","null","","35","","","517955","1","","","","","","300","34400","316","35826","300","","","","","","","","","","","","","","","","","","","","","","","","","","",""
"","localizer","","html-keyboard-response","166","518680","0.0-2.0-38.0-0.0","27","31027","Female","NaN","","","","null","NaN","36","","Stimuli/Experimental_stims/localizer/body_parts/niu-niu-5HzOtV-FSlw-unsplash.jpg","518271","1","body_parts","","0","1","0","400","34700","409","36142","","","","","","","","","","","","","","","","","","","","","","","","","","","",""
"","iti_localizer","","html-keyboard-response","167","518988","0.0-2.0-38.0-1.0","27","31027","Female","null","","","","null","","36","","","518680","1","","","","","","300","35100","308","36551","300","","","","","","","","","","","","","","","","","","","","","","","","","","",""
"","localizer","","html-keyboard-response","168","519415","0.0-2.0-39.0-0.0","27","31027","Female","130","","","","68","0","37","","Stimuli/Experimental_stims/localizer/body_parts/liv-bruce-M0oVPGsWk1E-unsplash.jpg","518988","1","body_parts","","0","0","1","400","35400","427","36859","","","","","","","","","","","","","","","","","","","","","","","","","","","",""
"","iti_localizer","","html-keyboard-response","169","519732","0.0-2.0-39.0-1.0","27","31027","Female","null","","","","null","","37","","","519415","1","","","","","","300","35800","317","37286","300","","","","","","","","","","","","","","","","","","","","","","","","","","",""
"","localizer","","html-keyboard-response","170","520148","0.0-2.0-40.0-0.0","27","31027","Female","104","","","","68","0","38","","Stimuli/Experimental_stims/localizer/body_parts/nick-page-WTNmgJtwzGI-unsplash.jpg","519732","1","body_parts","","0","0","1","400","36100","416","37603","","","","","","","","","","","","","","","","","","","","","","","","","","","",""
"","iti_localizer","","html-keyboard-response","171","520471","0.0-2.0-40.0-1.0","27","31027","Female","null","","","","null","","38","","","520148","1","","","","","","300","36500","323","38019","300","","","","","","","","","","","","","","","","","","","","","","","","","","",""
"","localizer","","html-keyboard-response","172","520888","0.0-2.0-41.0-0.0","27","31027","Female","49","","","","68","0","39","","Stimuli/Experimental_stims/localizer/body_parts/billie-5OXE3KjDEfI-unsplash.jpg","520471","1","body_parts","","0","0","1","400","36800","417","38342","","","","","","","","","","","","","","","","","","","","","","","","","","","",""
"","iti_localizer","","html-keyboard-response","173","521248","0.0-2.0-41.0-1.0","27","31027","Female","null","","","","null","","39","","","520888","1","","","","","","300","37200","360","38759","300","","","","","","","","","","","","","","","","","","","","","","","","","","",""
"","localizer","","html-keyboard-response","174","521665","0.0-2.0-42.0-0.0","27","31027","Female","NaN","","","","null","NaN","40","","Stimuli/Experimental_stims/localizer/body_parts/apostolos-vamvouras-g5wKHRu2QW0-unsplash.jpg","521248","1","body_parts","","0","1","0","400","37500","417","39119","","","","","","","","","","","","","","","","","","","","","","","","","","","",""
"","iti_localizer","","html-keyboard-response","175","521981","0.0-2.0-42.0-1.0","27","31027","Female","null","","","","null","","40","","","521665","1","","","","","","300","37900","316","39536","300","","","","","","","","","","","","","","","","","","","","","","","","","","",""
"","localizer","","html-keyboard-response","176","522394","0.0-2.0-43.0-0.0","27","31027","Female","NaN","","","","null","NaN","41","","Stimuli/Experimental_stims/localizer/body_parts/david-fanuel-qnV8X7OViNY-unsplash.jpg","521981","1","body_parts","","0","1","0","400","38200","413","39852","","","","","","","","","","","","","","","","","","","","","","","","","","","",""
"","iti_localizer","","html-keyboard-response","177","522701","0.0-2.0-43.0-1.0","27","31027","Female","null","","","","null","","41","","","522394","1","","","","","","300","38600","307","40265","300","","","","","","","","","","","","","","","","","","","","","","","","","","",""
"","localizer","","html-keyboard-response","178","523161","0.0-2.0-44.0-0.0","27","31027","Female","NaN","","","","null","NaN","42","","Stimuli/Experimental_stims/localizer/body_parts/nattalia-nunez-MB9sdDfZMSg-unsplash.jpg","522701","1","body_parts","","0","1","0","400","38900","460","40572","","","","","","","","","","","","","","","","","","","","","","","","","","","",""
"","iti_localizer","","html-keyboard-response","179","523472","0.0-2.0-44.0-1.0","27","31027","Female","null","","","","null","","42","","","523161","1","","","","","","300","39300","311","41032","300","","","","","","","","","","","","","","","","","","","","","","","","","","",""
"","localizer","","html-keyboard-response","180","523885","0.0-2.0-45.0-0.0","27","31027","Female","300","","","","68","0","43","","Stimuli/Experimental_stims/localizer/body_parts/carlos-henrique-NAOJKwZswbs-unsplash.jpg","523472","1","body_parts","","0","0","1","400","39600","413","41343","","","","","","","","","","","","","","","","","","","","","","","","","","","",""
"","iti_localizer","","html-keyboard-response","181","524203","0.0-2.0-45.0-1.0","27","31027","Female","null","","","","null","","43","","","523885","1","","","","","","300","40000","318","41756","300","","","","","","","","","","","","","","","","","","","","","","","","","","",""
"","localizer","","html-keyboard-response","182","524615","0.0-2.0-46.0-0.0","27","31027","Female","NaN","","","","null","NaN","44","","Stimuli/Experimental_stims/localizer/body_parts/jeremy-yap-TfJEi17kA0w-unsplash.jpg","524203","1","body_parts","","1","1","0","400","40300","412","42074","","","","","","","","","","","","","","","","","","","","","","","","","","","",""
"","iti_localizer","","html-keyboard-response","183","524928","0.0-2.0-46.0-1.0","27","31027","Female","null","","","","null","","44","","","524615","1","","","","","","300","40700","313","42486","300","","","","","","","","","","","","","","","","","","","","","","","","","","",""
"","localizer","","html-keyboard-response","184","525362","0.0-2.0-47.0-0.0","27","31027","Female","126","","","","68","0","45","","Stimuli/Experimental_stims/localizer/body_parts/danie-franco-jyyNiSEcCl4-unsplash.jpg","524928","1","body_parts","","0","0","1","400","41000","434","42799","","","","","","","","","","","","","","","","","","","","","","","","","","","",""
"","iti_localizer","","html-keyboard-response","185","539439","0.0-2.0-47.0-1.0","27","31027","Female","null","","","","null","","45","","","525362","1","","","","","","14000","41400","14077","43233","14000","","","","","","","","","","","","","","","","","","","","","","","","","","",""
"","localizer","","html-keyboard-response","186","539851","0.0-2.0-48.0-0.0","27","31027","Female","NaN","","","","null","NaN","46","","Stimuli/Experimental_stims/localizer/objects/chris-briggs-x9TCnxNBofE-unsplash.jpg","539439","1","objects","","0","1","0","400","55400","412","57310","","","","","","","","","","","","","","","","","","","","","","","","","","","",""
"","iti_localizer","","html-keyboard-response","187","540166","0.0-2.0-48.0-1.0","27","31027","Female","null","","","","null","","46","","","539851","1","","","","","","300","55800","315","57722","300","","","","","","","","","","","","","","","","","","","","","","","","","","",""
"","localizer","","html-keyboard-response","188","540580","0.0-2.0-49.0-0.0","27","31027","Female","NaN","","","","null","NaN","47","","Stimuli/Experimental_stims/localizer/objects/quino-al-8gWEAAXJjtI-unsplash.jpg","540166","1","objects","","0","1","0","400","56100","414","58037","","","","","","","","","","","","","","","","","","","","","","","","","","","",""
"","iti_localizer","","html-keyboard-response","189","540891","0.0-2.0-49.0-1.0","27","31027","Female","null","","","","null","","47","","","540580","1","","","","","","300","56500","311","58451","300","","","","","","","","","","","","","","","","","","","","","","","","","","",""
"","localizer","","html-keyboard-response","190","541310","0.0-2.0-50.0-0.0","27","31027","Female","NaN","","","","null","NaN","48","","Stimuli/Experimental_stims/localizer/objects/recha-oktaviani-t__61ap00Mc-unsplash.jpg","540891","1","objects","","0","1","0","400","56800","419","58762","","","","","","","","","","","","","","","","","","","","","","","","","","","",""
"","iti_localizer","","html-keyboard-response","191","541626","0.0-2.0-50.0-1.0","27","31027","Female","null","","","","null","","48","","","541310","1","","","","","","300","57200","316","59181","300","","","","","","","","","","","","","","","","","","","","","","","","","","",""
"","localizer","","html-keyboard-response","192","542043","0.0-2.0-51.0-0.0","27","31027","Female","NaN","","","","null","NaN","49","","Stimuli/Experimental_stims/localizer/objects/kelly-jean-cKjbI0Y00X0-unsplash.jpg","541626","1","objects","","1","1","0","400","57500","417","59497","","","","","","","","","","","","","","","","","","","","","","","","","","","",""
"","iti_localizer","","html-keyboard-response","193","542358","0.0-2.0-51.0-1.0","27","31027","Female","null","","","","null","","49","","","542043","1","","","","","","300","57900","315","59914","300","","","","","","","","","","","","","","","","","","","","","","","","","","",""
"","localizer","","html-keyboard-response","194","542770","0.0-2.0-52.0-0.0","27","31027","Female","NaN","","","","null","NaN","50","","Stimuli/Experimental_stims/localizer/objects/mockup-graphics-Pj2PY-E-LfM-unsplash.jpg","542358","1","objects","","0","1","0","400","58200","412","60229","","","","","","","","","","","","","","","","","","","","","","","","","","","",""
"","iti_localizer","","html-keyboard-response","195","543095","0.0-2.0-52.0-1.0","27","31027","Female","null","","","","null","","50","","","542770","1","","","","","","300","58600","325","60641","300","","","","","","","","","","","","","","","","","","","","","","","","","","",""
"","localizer","","html-keyboard-response","196","543512","0.0-2.0-53.0-0.0","27","31027","Female","NaN","","","","null","NaN","51","","Stimuli/Experimental_stims/localizer/objects/andrew-petrov-TVJqDat4MAw-unsplash.jpg","543095","1","objects","","0","1","0","400","58900","417","60966","","","","","","","","","","","","","","","","","","","","","","","","","","","",""
"","iti_localizer","","html-keyboard-response","197","543825","0.0-2.0-53.0-1.0","27","31027","Female","null","","","","null","","51","","","543512","1","","","","","","300","59300","313","61383","300","","","","","","","","","","","","","","","","","","","","","","","","","","",""
"","localizer","","html-keyboard-response","198","544243","0.0-2.0-54.0-0.0","27","31027","Female","NaN","","","","null","NaN","52","","Stimuli/Experimental_stims/localizer/objects/ignat-dolomanov-kFBDVnmskPA-unsplash.jpg","543825","1","objects","","0","1","0","400","59600","418","61696","","","","","","","","","","","","","","","","","","","","","","","","","","","",""
"","iti_localizer","","html-keyboard-response","199","544569","0.0-2.0-54.0-1.0","27","31027","Female","null","","","","null","","52","","","544243","1","","","","","","300","60000","326","62114","300","","","","","","","","","","","","","","","","","","","","","","","","","","",""
"","localizer","","html-keyboard-response","200","544989","0.0-2.0-55.0-0.0","27","31027","Female","233","","","","68","0","53","","Stimuli/Experimental_stims/localizer/objects/ana-9GmAaEMMKho-unsplash.jpg","544569","1","objects","","0","0","1","400","60300","420","62440","","","","","","","","","","","","","","","","","","","","","","","","","","","",""
"","iti_localizer","","html-keyboard-response","201","545373","0.0-2.0-55.0-1.0","27","31027","Female","null","","","","null","","53","","","544989","1","","","","","","300","60700","384","62860","300","","","","","","","","","","","","","","","","","","","","","","","","","","",""
"","localizer","","html-keyboard-response","202","545788","0.0-2.0-56.0-0.0","27","31027","Female","284","","","","68","0","54","","Stimuli/Experimental_stims/localizer/objects/yossy-made-yulian-WaEqwDSIeTY-unsplash.jpg","545373","1","objects","","0","0","1","400","61000","415","63244","","","","","","","","","","","","","","","","","","","","","","","","","","","",""
"","iti_localizer","","html-keyboard-response","203","546098","0.0-2.0-56.0-1.0","27","31027","Female","null","","","","null","","54","","","545788","1","","","","","","300","61400","310","63659","300","","","","","","","","","","","","","","","","","","","","","","","","","","",""
"","localizer","","html-keyboard-response","204","546515","0.0-2.0-57.0-0.0","27","31027","Female","150","","","","75","1","55","","Stimuli/Experimental_stims/localizer/objects/mockup-graphics-U6ZMEefFGx8-unsplash.jpg","546098","1","objects","","0","0","0","400","61700","417","63969","","","","","","","","","","","","","","","","","","","","","","","","","","","",""
"","iti_localizer","","html-keyboard-response","205","546837","0.0-2.0-57.0-1.0","27","31027","Female","null","","","","null","","55","","","546515","1","","","","","","300","62100","322","64386","300","","","","","","","","","","","","","","","","","","","","","","","","","","",""
"","localizer","","html-keyboard-response","206","547256","0.0-2.0-58.0-0.0","27","31027","Female","61","","","","75","1","56","","Stimuli/Experimental_stims/localizer/objects/raimond-klavins-ZdvDPXVvcKs-unsplash.jpg","546837","1","objects","","0","0","0","400","62400","419","64708","","","","","","","","","","","","","","","","","","","","","","","","","","","",""
"","iti_localizer","","html-keyboard-response","207","547566","0.0-2.0-58.0-1.0","27","31027","Female","null","","","","null","","56","","","547256","1","","","","","","300","62800","310","65127","300","","","","","","","","","","","","","","","","","","","","","","","","","","",""
"","localizer","","html-keyboard-response","208","547992","0.0-2.0-59.0-0.0","27","31027","Female","124","","","","68","0","57","","Stimuli/Experimental_stims/localizer/objects/sam-moghadam-khamseh-L_7MQsHl_aU-unsplash.jpg","547566","1","objects","","0","0","1","400","63100","426","65437","","","","","","","","","","","","","","","","","","","","","","","","","","","",""
"","iti_localizer","","html-keyboard-response","209","548304","0.0-2.0-59.0-1.0","27","31027","Female","null","","","","null","","57","","","547992","1","","","","","","300","63500","312","65863","300","","","","","","","","","","","","","","","","","","","","","","","","","","",""
"","localizer","","html-keyboard-response","210","548729","0.0-2.0-60.0-0.0","27","31027","Female","1","","","","75","1","58","","Stimuli/Experimental_stims/localizer/objects/engin-akyurt-bbbKzTmY2Gg-unsplash.jpg","548304","1","objects","","0","0","0","400","63800","425","66175","","","","","","","","","","","","","","","","","","","","","","","","","","","",""
"","iti_localizer","","html-keyboard-response","211","549035","0.0-2.0-60.0-1.0","27","31027","Female","null","","","","null","","58","","","548729","1","","","","","","300","64200","306","66600","300","","","","","","","","","","","","","","","","","","","","","","","","","","",""
"","localizer","","html-keyboard-response","212","549444","0.0-2.0-61.0-0.0","27","31027","Female","189","","","","68","0","59","","Stimuli/Experimental_stims/localizer/objects/eugene-chystiakov-3neSwyntbQ8-unsplash.jpg","549035","1","objects","","1","0","0","400","64500","409","66906","","","","","","","","","","","","","","","","","","","","","","","","","","","",""
"","iti_localizer","","html-keyboard-response","213","549750","0.0-2.0-61.0-1.0","27","31027","Female","null","","","","null","","59","","","549444","1","","","","","","300","64900","306","67315","300","","","","","","","","","","","","","","","","","","","","","","","","","","",""
"","localizer","","html-keyboard-response","214","550249","0.0-2.0-62.0-0.0","27","31027","Female","488","","","","75","1","60","","Stimuli/Experimental_stims/localizer/objects/mae-mu-yl2d0CKW130-unsplash.jpg","549750","1","objects","","0","0","0","400","65200","499","67621","","","","","","","","","","","","","","","","","","","","","","","","","","","",""
"","iti_localizer","","html-keyboard-response","215","550641","0.0-2.0-62.0-1.0","27","31027","Female","null","","","","null","","60","","","550249","1","","","","","","300","65600","392","68120","300","","","","","","","","","","","","","","","","","","","","","","","","","","",""
"","localizer","","html-keyboard-response","216","551057","0.0-2.0-63.0-0.0","27","31027","Female","108","","","","68","0","61","","Stimuli/Experimental_stims/localizer/objects/sam-moghadam-khamseh-kvmdsTrGOBM-unsplash.jpg","550641","1","objects","","0","0","1","400","65900","416","68512","","","","","","","","","","","","","","","","","","","","","","","","","","","",""
"","iti_localizer","","html-keyboard-response","217","551367","0.0-2.0-63.0-1.0","27","31027","Female","null","","","","null","","61","","","551057","1","","","","","","300","66300","310","68928","300","","","","","","","","","","","","","","","","","","","","","","","","","","",""
"","localizer","","html-keyboard-response","218","551787","0.0-2.0-64.0-0.0","27","31027","Female","104","","","","68","0","62","","Stimuli/Experimental_stims/localizer/objects/nordwood-themes-E9tFH39iRPE-unsplash.jpg","551367","1","objects","","0","0","1","400","66600","420","69238","","","","","","","","","","","","","","","","","","","","","","","","","","","",""
"","iti_localizer","","html-keyboard-response","219","552104","0.0-2.0-64.0-1.0","27","31027","Female","null","","","","null","","62","","","551787","1","","","","","","300","67000","317","69658","300","","","","","","","","","","","","","","","","","","","","","","","","","","",""
"","localizer","","html-keyboard-response","220","552518","0.0-2.0-65.0-0.0","27","31027","Female","161","","","","68","0","63","","Stimuli/Experimental_stims/localizer/objects/mockup-graphics-aUkYaG12Dgs-unsplash.jpg","552104","1","objects","","0","0","1","400","67300","414","69975","","","","","","","","","","","","","","","","","","","","","","","","","","","",""
"","iti_localizer","","html-keyboard-response","221","552828","0.0-2.0-65.0-1.0","27","31027","Female","null","","","","null","","63","","","552518","1","","","","","","300","67700","310","70389","300","","","","","","","","","","","","","","","","","","","","","","","","","","",""
"","localizer","","html-keyboard-response","222","553245","0.0-2.0-66.0-0.0","27","31027","Female","46","","","","68","0","64","","Stimuli/Experimental_stims/localizer/objects/maria-lupan-Rlakka_pZMU-unsplash.jpg","552828","1","objects","","0","0","1","400","68000","417","70699","","","","","","","","","","","","","","","","","","","","","","","","","","","",""
"","iti_localizer","","html-keyboard-response","223","553560","0.0-2.0-66.0-1.0","27","31027","Female","null","","","","null","","64","","","553245","1","","","","","","300","68400","315","71116","300","","","","","","","","","","","","","","","","","","","","","","","","","","",""
"","localizer","","html-keyboard-response","224","553971","0.0-2.0-67.0-0.0","27","31027","Female","NaN","","","","null","NaN","65","","Stimuli/Experimental_stims/localizer/objects/quaritsch-photography-lZ8onQ1wuY8-unsplash.jpg","553560","1","objects","","0","1","0","400","68700","411","71431","","","","","","","","","","","","","","","","","","","","","","","","","","","",""
"","iti_localizer","","html-keyboard-response","225","567993","0.0-2.0-67.0-1.0","27","31027","Female","null","","","","null","","65","","","553971","1","","","","","","14000","69100","14022","71842","14000","","","","","","","","","","","","","","","","","","","","","","","","","","",""
"","localizer","","html-keyboard-response","226","568410","0.0-2.0-68.0-0.0","27","31027","Female","NaN","","","","null","NaN","66","","Stimuli/Experimental_stims/localizer/faces/brooke-cagle-Nm70URdtf3c-unsplash (1).jpg","567993","1","faces","","0","1","0","400","83100","417","85864","","","","","","","","","","","","","","","","","","","","","","","","","","","",""
"","iti_localizer","","html-keyboard-response","227","568724","0.0-2.0-68.0-1.0","27","31027","Female","null","","","","null","","66","","","568410","1","","","","","","300","83500","314","86281","300","","","","","","","","","","","","","","","","","","","","","","","","","","",""
"","localizer","","html-keyboard-response","228","569132","0.0-2.0-69.0-0.0","27","31027","Female","137","","","","68","0","67","","Stimuli/Experimental_stims/localizer/faces/joseph-gonzalez-iFgRcqHznqg-unsplash.jpg","568724","1","faces","","0","0","1","400","83800","408","86595","","","","","","","","","","","","","","","","","","","","","","","","","","","",""
"","iti_localizer","","html-keyboard-response","229","569487","0.0-2.0-69.0-1.0","27","31027","Female","null","","","","null","","67","","","569132","1","","","","","","300","84200","355","87003","300","","","","","","","","","","","","","","","","","","","","","","","","","","",""
"","localizer","","html-keyboard-response","230","569901","0.0-2.0-70.0-0.0","27","31027","Female","214","","","","68","0","68","","Stimuli/Experimental_stims/localizer/faces/pavel-anoshin-d0peGya6R5Y-unsplash.jpg","569487","1","faces","","0","0","1","400","84500","414","87358","","","","","","","","","","","","","","","","","","","","","","","","","","","",""
"","iti_localizer","","html-keyboard-response","231","570210","0.0-2.0-70.0-1.0","27","31027","Female","null","","","","null","","68","","","569901","1","","","","","","300","84900","309","87772","300","","","","","","","","","","","","","","","","","","","","","","","","","","",""
"","localizer","","html-keyboard-response","232","570628","0.0-2.0-71.0-0.0","27","31027","Female","113","","","","68","0","69","","Stimuli/Experimental_stims/localizer/faces/alexis-chloe-TYDkKEgc0Fg-unsplash.jpg","570210","1","faces","","0","0","1","400","85200","418","88081","","","","","","","","","","","","","","","","","","","","","","","","","","","",""
"","iti_localizer","","html-keyboard-response","233","570953","0.0-2.0-71.0-1.0","27","31027","Female","null","","","","null","","69","","","570628","1","","","","","","300","85600","325","88499","300","","","","","","","","","","","","","","","","","","","","","","","","","","",""
"","localizer","","html-keyboard-response","234","571804","0.0-2.0-72.0-0.0","27","31027","Female","187","","","","68","0","70","","Stimuli/Experimental_stims/localizer/faces/aiony-haust-K0DxxljcRv0-unsplash.jpg","570953","1","faces","","1","0","0","400","85900","851","88824","","","","","","","","","","","","","","","","","","","","","","","","","","","",""
"","iti_localizer","","html-keyboard-response","235","572118","0.0-2.0-72.0-1.0","27","31027","Female","null","","","","null","","70","","","571804","1","","","","","","300","86300","314","89675","300","","","","","","","","","","","","","","","","","","","","","","","","","","",""
"","localizer","","html-keyboard-response","236","572536","0.0-2.0-73.0-0.0","27","31027","Female","NaN","","","","null","NaN","71","","Stimuli/Experimental_stims/localizer/faces/olena-sergienko-0TSd6uCKTKc-unsplash.jpg","572118","1","faces","","0","1","0","400","86600","418","89989","","","","","","","","","","","","","","","","","","","","","","","","","","","",""
"","iti_localizer","","html-keyboard-response","237","572852","0.0-2.0-73.0-1.0","27","31027","Female","null","","","","null","","71","","","572536","1","","","","","","300","87000","316","90407","300","","","","","","","","","","","","","","","","","","","","","","","","","","",""
"","localizer","","html-keyboard-response","238","573348","0.0-2.0-74.0-0.0","27","31027","Female","162","","","","68","0","72","","Stimuli/Experimental_stims/localizer/faces/aatik-tasneem-7omHUGhhmZ0-unsplash.jpg","572852","1","faces","","0","0","1","400","87300","496","90723","","","","","","","","","","","","","","","","","","","","","","","","","","","",""
"","iti_localizer","","html-keyboard-response","239","573667","0.0-2.0-74.0-1.0","27","31027","Female","null","","","","null","","72","","","573348","1","","","","","","300","87700","319","91219","300","","","","","","","","","","","","","","","","","","","","","","","","","","",""
"","localizer","","html-keyboard-response","240","574087","0.0-2.0-75.0-0.0","27","31027","Female","NaN","","","","null","NaN","73","","Stimuli/Experimental_stims/localizer/faces/tyler-nix-ZGa9d1a_4tA-unsplash.jpg","573667","1","faces","","0","1","0","400","88000","420","91538","","","","","","","","","","","","","","","","","","","","","","","","","","","",""
"","iti_localizer","","html-keyboard-response","241","574401","0.0-2.0-75.0-1.0","27","31027","Female","null","","","","null","","73","","","574087","1","","","","","","300","88400","314","91958","300","","","","","","","","","","","","","","","","","","","","","","","","","","",""
"","localizer","","html-keyboard-response","242","574809","0.0-2.0-76.0-0.0","27","31027","Female","172","","","","75","1","74","","Stimuli/Experimental_stims/localizer/faces/imansyah-muhamad-putera-n4KewLKFOZw-unsplash.jpg","574401","1","faces","","0","0","0","400","88700","408","92272","","","","","","","","","","","","","","","","","","","","","","","","","","","",""
"","iti_localizer","","html-keyboard-response","243","575203","0.0-2.0-76.0-1.0","27","31027","Female","null","","","","null","","74","","","574809","1","","","","","","300","89100","394","92680","300","","","","","","","","","","","","","","","","","","","","","","","","","","",""
"","localizer","","html-keyboard-response","244","575623","0.0-2.0-77.0-0.0","27","31027","Female","NaN","","","","null","NaN","75","","Stimuli/Experimental_stims/localizer/faces/philip-martin-5aGUyCW_PJw-unsplash.jpg","575203","1","faces","","0","1","0","400","89400","420","93074","","","","","","","","","","","","","","","","","","","","","","","","","","","",""
"","iti_localizer","","html-keyboard-response","245","575937","0.0-2.0-77.0-1.0","27","31027","Female","null","","","","null","","75","","","575623","1","","","","","","300","89800","314","93494","300","","","","","","","","","","","","","","","","","","","","","","","","","","",""
"","localizer","","html-keyboard-response","246","576356","0.0-2.0-78.0-0.0","27","31027","Female","NaN","","","","null","NaN","76","","Stimuli/Experimental_stims/localizer/faces/vince-fleming-j3lf-Jn6deo-unsplash.jpg","575937","1","faces","","0","1","0","400","90100","419","93808","","","","","","","","","","","","","","","","","","","","","","","","","","","",""
"","iti_localizer","","html-keyboard-response","247","576671","0.0-2.0-78.0-1.0","27","31027","Female","null","","","","null","","76","","","576356","1","","","","","","300","90500","315","94227","300","","","","","","","","","","","","","","","","","","","","","","","","","","",""
"","localizer","","html-keyboard-response","248","577087","0.0-2.0-79.0-0.0","27","31027","Female","NaN","","","","null","NaN","77","","Stimuli/Experimental_stims/localizer/faces/hassan-khan-EGVccebWodM-unsplash.jpg","576671","1","faces","","0","1","0","400","90800","416","94542","","","","","","","","","","","","","","","","","","","","","","","","","","","",""
"","iti_localizer","","html-keyboard-response","249","577408","0.0-2.0-79.0-1.0","27","31027","Female","null","","","","null","","77","","","577087","1","","","","","","300","91200","321","94958","300","","","","","","","","","","","","","","","","","","","","","","","","","","",""
"","localizer","","html-keyboard-response","250","577841","0.0-2.0-80.0-0.0","27","31027","Female","NaN","","","","null","NaN","78","","Stimuli/Experimental_stims/localizer/faces/toa-heftiba-O3ymvT7Wf9U-unsplash.jpg","577408","1","faces","","0","1","0","400","91500","433","95279","","","","","","","","","","","","","","","","","","","","","","","","","","","",""
"","iti_localizer","","html-keyboard-response","251","578154","0.0-2.0-80.0-1.0","27","31027","Female","null","","","","null","","78","","","577841","1","","","","","","300","91900","313","95712","300","","","","","","","","","","","","","","","","","","","","","","","","","","",""
"","localizer","","html-keyboard-response","252","578567","0.0-2.0-81.0-0.0","27","31027","Female","NaN","","","","null","NaN","79","","Stimuli/Experimental_stims/localizer/faces/jurica-koletic-7YVZYZeITc8-unsplash.jpg","578154","1","faces","","0","1","0","400","92200","413","96025","","","","","","","","","","","","","","","","","","","","","","","","","","","",""
"","iti_localizer","","html-keyboard-response","253","578878","0.0-2.0-81.0-1.0","27","31027","Female","null","","","","null","","79","","","578567","1","","","","","","300","92600","311","96438","300","","","","","","","","","","","","","","","","","","","","","","","","","","",""
"","localizer","","html-keyboard-response","254","579289","0.0-2.0-82.0-0.0","27","31027","Female","73","","","","68","0","80","","Stimuli/Experimental_stims/localizer/faces/rui-silvestre-hAMJpesMeDE-unsplash.jpg","578878","1","faces","","0","0","1","400","92900","411","96749","","","","","","","","","","","","","","","","","","","","","","","","","","","",""
"","iti_localizer","","html-keyboard-response","255","579630","0.0-2.0-82.0-1.0","27","31027","Female","null","","","","null","","80","","","579289","1","","","","","","300","93300","341","97160","300","","","","","","","","","","","","","","","","","","","","","","","","","","",""
"","localizer","","html-keyboard-response","256","580053","0.0-2.0-83.0-0.0","27","31027","Female","19","","","","68","0","81","","Stimuli/Experimental_stims/localizer/faces/ben-scott-tWb7IsL9CnY-unsplash.jpg","579630","1","faces","","1","0","0","400","93600","423","97501","","","","","","","","","","","","","","","","","","","","","","","","","","","",""
"","iti_localizer","","html-keyboard-response","257","580364","0.0-2.0-83.0-1.0","27","31027","Female","null","","","","null","","81","","","580053","1","","","","","","300","94000","311","97924","300","","","","","","","","","","","","","","","","","","","","","","","","","","",""
"","localizer","","html-keyboard-response","258","580774","0.0-2.0-84.0-0.0","27","31027","Female","NaN","","","","null","NaN","82","","Stimuli/Experimental_stims/localizer/faces/mathias-huysmans-U4JDjYmjn1g-unsplash.jpg","580364","1","faces","","0","1","0","400","94300","410","98235","","","","","","","","","","","","","","","","","","","","","","","","","","","",""
"","iti_localizer","","html-keyboard-response","259","581112","0.0-2.0-84.0-1.0","27","31027","Female","null","","","","null","","82","","","580774","1","","","","","","300","94700","338","98645","300","","","","","","","","","","","","","","","","","","","","","","","","","","",""
"","localizer","","html-keyboard-response","260","581524","0.0-2.0-85.0-0.0","27","31027","Female","179","","","","68","0","83","","Stimuli/Experimental_stims/localizer/faces/james-marty-h1BuNJZzpC8-unsplash.jpg","581112","1","faces","","0","0","1","400","95000","412","98983","","","","","","","","","","","","","","","","","","","","","","","","","","","",""
"","iti_localizer","","html-keyboard-response","261","581839","0.0-2.0-85.0-1.0","27","31027","Female","null","","","","null","","83","","","581524","1","","","","","","300","95400","315","99395","300","","","","","","","","","","","","","","","","","","","","","","","","","","",""
"","localizer","","html-keyboard-response","262","582253","0.0-2.0-86.0-0.0","27","31027","Female","131","","","","68","0","84","","Stimuli/Experimental_stims/localizer/faces/drew-hays-agGIKYs4mYs-unsplash.jpg","581839","1","faces","","0","0","1","400","95700","414","99710","","","","","","","","","","","","","","","","","","","","","","","","","","","",""
"","iti_localizer","","html-keyboard-response","263","582571","0.0-2.0-86.0-1.0","27","31027","Female","null","","","","null","","84","","","582253","1","","","","","","300","96100","318","100124","300","","","","","","","","","","","","","","","","","","","","","","","","","","",""
"","localizer","","html-keyboard-response","264","582989","0.0-2.0-87.0-0.0","27","31027","Female","NaN","","","","null","NaN","85","","Stimuli/Experimental_stims/localizer/faces/jakob-owens-lkMJcGDZLVs-unsplash.jpg","582571","1","faces","","0","1","0","400","96400","418","100442","","","","","","","","","","","","","","","","","","","","","","","","","","","",""
"","iti_localizer","","html-keyboard-response","265","597005","0.0-2.0-87.0-1.0","27","31027","Female","null","","","","null","","85","","","582989","1","","","","","","14000","96800","14016","100860","14000","","","","","","","","","","","","","","","","","","","","","","","","","","",""
"","localizer","","html-keyboard-response","266","597427","0.0-2.0-88.0-0.0","27","31027","Female","NaN","","","","null","NaN","86","","Stimuli/Experimental_stims/localizer/body_parts/marcel-fagin-OUYg0Q3ec-Y-unsplash.jpg","597005","1","body_parts","","0","1","0","400","110800","422","114876","","","","","","","","","","","","","","","","","","","","","","","","","","","",""
"","iti_localizer","","html-keyboard-response","267","597743","0.0-2.0-88.0-1.0","27","31027","Female","null","","","","null","","86","","","597427","1","","","","","","300","111200","316","115298","300","","","","","","","","","","","","","","","","","","","","","","","","","","",""
"","localizer","","html-keyboard-response","268","598283","0.0-2.0-89.0-0.0","27","31027","Female","NaN","","","","null","NaN","87","","Stimuli/Experimental_stims/localizer/body_parts/helen-ast-l2iY5Sh0mTg-unsplash.jpg","597743","1","body_parts","","0","1","0","400","111500","540","115614","","","","","","","","","","","","","","","","","","","","","","","","","","","",""
"","iti_localizer","","html-keyboard-response","269","598599","0.0-2.0-89.0-1.0","27","31027","Female","null","","","","null","","87","","","598283","1","","","","","","300","111900","316","116154","300","","","","","","","","","","","","","","","","","","","","","","","","","","",""
"","localizer","","html-keyboard-response","270","599061","0.0-2.0-90.0-0.0","27","31027","Female","311","","","","68","0","88","","Stimuli/Experimental_stims/localizer/body_parts/luisa-denu-o5EU_lUB1rg-unsplash.jpg","598599","1","body_parts","","0","0","1","400","112200","462","116470","","","","","","","","","","","","","","","","","","","","","","","","","","","",""
"","iti_localizer","","html-keyboard-response","271","599378","0.0-2.0-90.0-1.0","27","31027","Female","null","","","","null","","88","","","599061","1","","","","","","300","112600","317","116932","300","","","","","","","","","","","","","","","","","","","","","","","","","","",""
"","localizer","","html-keyboard-response","272","599792","0.0-2.0-91.0-0.0","27","31027","Female","318","","","","68","0","89","","Stimuli/Experimental_stims/localizer/body_parts/megan-menegay-UojxG_BJxnI-unsplash.jpg","599378","1","body_parts","","0","0","1","400","112900","414","117249","","","","","","","","","","","","","","","","","","","","","","","","","","","",""
"","iti_localizer","","html-keyboard-response","273","600182","0.0-2.0-91.0-1.0","27","31027","Female","null","","","","null","","89","","","599792","1","","","","","","300","113300","390","117663","300","","","","","","","","","","","","","","","","","","","","","","","","","","",""
"","localizer","","html-keyboard-response","274","600600","0.0-2.0-92.0-0.0","27","31027","Female","NaN","","","","null","NaN","90","","Stimuli/Experimental_stims/localizer/body_parts/sincerely-media-9Zf6yh7RYbQ-unsplash.jpg","600182","1","body_parts","","0","1","0","400","113600","418","118053","","","","","","","","","","","","","","","","","","","","","","","","","","","",""
"","iti_localizer","","html-keyboard-response","275","600907","0.0-2.0-92.0-1.0","27","31027","Female","null","","","","null","","90","","","600600","1","","","","","","300","114000","307","118471","300","","","","","","","","","","","","","","","","","","","","","","","","","","",""
"","localizer","","html-keyboard-response","276","601322","0.0-2.0-93.0-0.0","27","31027","Female","NaN","","","","null","NaN","91","","Stimuli/Experimental_stims/localizer/body_parts/sandra-seitamaa-YCc_YAAhY3I-unsplash.jpg","600907","1","body_parts","","1","1","0","400","114300","415","118778","","","","","","","","","","","","","","","","","","","","","","","","","","","",""
"","iti_localizer","","html-keyboard-response","277","601634","0.0-2.0-93.0-1.0","27","31027","Female","null","","","","null","","91","","","601322","1","","","","","","300","114700","312","119193","300","","","","","","","","","","","","","","","","","","","","","","","","","","",""
"","localizer","","html-keyboard-response","278","602069","0.0-2.0-94.0-0.0","27","31027","Female","322","","","","75","1","92","","Stimuli/Experimental_stims/localizer/body_parts/jonathan-borba-hTwH8QFkPMs-unsplash.jpg","601634","1","body_parts","","0","0","0","400","115000","435","119505","","","","","","","","","","","","","","","","","","","","","","","","","","","",""
"","iti_localizer","","html-keyboard-response","279","602380","0.0-2.0-94.0-1.0","27","31027","Female","null","","","","null","","92","","","602069","1","","","","","","300","115400","311","119940","300","","","","","","","","","","","","","","","","","","","","","","","","","","",""
"","localizer","","html-keyboard-response","280","602788","0.0-2.0-95.0-0.0","27","31027","Female","186","","","","68","0","93","","Stimuli/Experimental_stims/localizer/body_parts/bady-abbas-N-VEeMnm7gE-unsplash.jpg","602380","1","body_parts","","0","0","1","400","115700","408","120251","","","","","","","","","","","","","","","","","","","","","","","","","","","",""
"","iti_localizer","","html-keyboard-response","281","603101","0.0-2.0-95.0-1.0","27","31027","Female","null","","","","null","","93","","","602788","1","","","","","","300","116100","313","120659","300","","","","","","","","","","","","","","","","","","","","","","","","","","",""
"","localizer","","html-keyboard-response","282","603517","0.0-2.0-96.0-0.0","27","31027","Female","282","","","","68","0","94","","Stimuli/Experimental_stims/localizer/body_parts/sydney-herron-b2W04fGuS70-unsplash.jpg","603101","1","body_parts","","0","0","1","400","116400","416","120972","","","","","","","","","","","","","","","","","","","","","","","","","","","",""
"","iti_localizer","","html-keyboard-response","283","603833","0.0-2.0-96.0-1.0","27","31027","Female","null","","","","null","","94","","","603517","1","","","","","","300","116800","316","121388","300","","","","","","","","","","","","","","","","","","","","","","","","","","",""
"","localizer","","html-keyboard-response","284","604249","0.0-2.0-97.0-0.0","27","31027","Female","NaN","","","","null","NaN","95","","Stimuli/Experimental_stims/localizer/body_parts/matthew-wheeler-2_UxqsaDMmo-unsplash.jpg","603833","1","body_parts","","0","1","0","400","117100","416","121704","","","","","","","","","","","","","","","","","","","","","","","","","","","",""
"","iti_localizer","","html-keyboard-response","285","604574","0.0-2.0-97.0-1.0","27","31027","Female","null","","","","null","","95","","","604249","1","","","","","","300","117500","325","122120","300","","","","","","","","","","","","","","","","","","","","","","","","","","",""
"","localizer","","html-keyboard-response","286","604984","0.0-2.0-98.0-0.0","27","31027","Female","NaN","","","","null","NaN","96","","Stimuli/Experimental_stims/localizer/body_parts/sincerely-media-Q7qRyaurQfo-unsplash.jpg","604574","1","body_parts","","0","1","0","400","117800","410","122445","","","","","","","","","","","","","","","","","","","","","","","","","","","",""
"","iti_localizer","","html-keyboard-response","287","605298","0.0-2.0-98.0-1.0","27","31027","Female","null","","","","null","","96","","","604984","1","","","","","","300","118200","314","122855","300","","","","","","","","","","","","","","","","","","","","","","","","","","",""
"","localizer","","html-keyboard-response","288","605716","0.0-2.0-99.0-0.0","27","31027","Female","169","","","","68","0","97","","Stimuli/Experimental_stims/localizer/body_parts/sincerely-media-pdynOoM7xmA-unsplash.jpg","605298","1","body_parts","","0","0","1","400","118500","418","123169","","","","","","","","","","","","","","","","","","","","","","","","","","","",""
"","iti_localizer","","html-keyboard-response","289","606166","0.0-2.0-99.0-1.0","27","31027","Female","null","","","","null","","97","","","605716","1","","","","","","300","118900","450","123587","300","","","","","","","","","","","","","","","","","","","","","","","","","","",""
"","localizer","","html-keyboard-response","290","606583","0.0-2.0-100.0-0.0","27","31027","Female","1","","","","68","0","98","","Stimuli/Experimental_stims/localizer/body_parts/nadine-shaabana-ypyaaEf2ntM-unsplash.jpg","606166","1","body_parts","","0","0","1","400","119200","417","124037","","","","","","","","","","","","","","","","","","","","","","","","","","","",""
"","iti_localizer","","html-keyboard-response","291","606900","0.0-2.0-100.0-1.0","27","31027","Female","null","","","","null","","98","","","606583","1","","","","","","300","119600","317","124454","300","","","","","","","","","","","","","","","","","","","","","","","","","","",""
"","localizer","","html-keyboard-response","292","607313","0.0-2.0-101.0-0.0","27","31027","Female","91","","","","68","0","99","","Stimuli/Experimental_stims/localizer/body_parts/louis-hansel-FjKTMRTQYAs-unsplash.jpg","606900","1","body_parts","","0","0","1","400","119900","413","124771","","","","","","","","","","","","","","","","","","","","","","","","","","","",""
"","iti_localizer","","html-keyboard-response","293","607627","0.0-2.0-101.0-1.0","27","31027","Female","null","","","","null","","99","","","607313","1","","","","","","300","120300","314","125184","300","","","","","","","","","","","","","","","","","","","","","","","","","","",""
"","localizer","","html-keyboard-response","294","608051","0.0-2.0-102.0-0.0","27","31027","Female","157","","","","68","0","100","","Stimuli/Experimental_stims/localizer/body_parts/pure-julia-9lVaya31sMk-unsplash.jpg","607627","1","body_parts","","0","0","1","400","120600","424","125498","","","","","","","","","","","","","","","","","","","","","","","","","","","",""
"","iti_localizer","","html-keyboard-response","295","608372","0.0-2.0-102.0-1.0","27","31027","Female","null","","","","null","","100","","","608051","1","","","","","","300","121000","321","125922","300","","","","","","","","","","","","","","","","","","","","","","","","","","",""
"","localizer","","html-keyboard-response","296","608793","0.0-2.0-103.0-0.0","27","31027","Female","118","","","","68","0","101","","Stimuli/Experimental_stims/localizer/body_parts/sincerely-media-7TBFwUQA6Xk-unsplash.jpg","608372","1","body_parts","","0","0","1","400","121300","421","126243","","","","","","","","","","","","","","","","","","","","","","","","","","","",""
"","iti_localizer","","html-keyboard-response","297","609103","0.0-2.0-103.0-1.0","27","31027","Female","null","","","","null","","101","","","608793","1","","","","","","300","121700","310","126664","300","","","","","","","","","","","","","","","","","","","","","","","","","","",""
"","localizer","","html-keyboard-response","298","609518","0.0-2.0-104.0-0.0","27","31027","Female","54","","","","68","0","102","","Stimuli/Experimental_stims/localizer/body_parts/bady-abbas-pIySu25o0bM-unsplash.jpg","609103","1","body_parts","","0","0","1","400","122000","415","126974","","","","","","","","","","","","","","","","","","","","","","","","","","","",""
"","iti_localizer","","html-keyboard-response","299","609842","0.0-2.0-104.0-1.0","27","31027","Female","null","","","","null","","102","","","609518","1","","","","","","300","122400","324","127389","300","","","","","","","","","","","","","","","","","","","","","","","","","","",""
"","localizer","","html-keyboard-response","300","610264","0.0-2.0-105.0-0.0","27","31027","Female","18","","","","68","0","103","","Stimuli/Experimental_stims/localizer/body_parts/hu-chen-tCbTGNwrFNM-unsplash.jpg","609842","1","body_parts","","0","0","1","400","122700","422","127713","","","","","","","","","","","","","","","","","","","","","","","","","","","",""
"","iti_localizer","","html-keyboard-response","301","610654","0.0-2.0-105.0-1.0","27","31027","Female","null","","","","null","","103","","","610264","1","","","","","","300","123100","390","128135","300","","","","","","","","","","","","","","","","","","","","","","","","","","",""
"","localizer","","html-keyboard-response","302","611069","0.0-2.0-106.0-0.0","27","31027","Female","NaN","","","","null","NaN","104","","Stimuli/Experimental_stims/localizer/body_parts/sina-rezakhani-d1gQi0Jl05U-unsplash (1).jpg","610654","1","body_parts","","0","1","0","400","123400","415","128525","","","","","","","","","","","","","","","","","","","","","","","","","","","",""
"","iti_localizer","","html-keyboard-response","303","611386","0.0-2.0-106.0-1.0","27","31027","Female","null","","","","null","","104","","","611069","1","","","","","","300","123800","317","128940","300","","","","","","","","","","","","","","","","","","","","","","","","","","",""
"","localizer","","html-keyboard-response","304","611801","0.0-2.0-107.0-0.0","27","31027","Female","NaN","","","","null","NaN","105","","Stimuli/Experimental_stims/localizer/body_parts/ant-rozetsky-bXQd8JXx0vs-unsplash.jpg","611386","1","body_parts","","1","1","0","400","124100","415","129257","","","","","","","","","","","","","","","","","","","","","","","","","","","",""
"","iti_localizer","","html-keyboard-response","305","625864","0.0-2.0-107.0-1.0","27","31027","Female","null","","","","null","","105","","","611801","1","","","","","","14000","124500","14063","129672","14000","","","","","","","","","","","","","","","","","","","","","","","","","","",""
"","localizer","","html-keyboard-response","306","626275","0.0-2.0-108.0-0.0","27","31027","Female","210","","","","68","0","106","","Stimuli/Experimental_stims/localizer/outdoor_scenes/samsommer-vddccTqwal8-unsplash.jpg","625864","1","outdoor_scenes","","0","0","1","400","138500","411","143735","","","","","","","","","","","","","","","","","","","","","","","","","","","",""
