"success","ttype","start_time","trial_type","trial_index","time_elapsed","internal_node_id","age","PID","gender","rt","responses","view_history","repeat_instructions","key_press","response","index","stimulus_index","path","start_time_elapsed","run","task","isi","is_odd_ball","no_response","acc","duration","onset","duration_time_elapsed","onset_time_elapsed","trial_duration","left_chosen","chosen_stimulus","unchosen_stimulus","chosen_category","unchosen_category","chosen_rating","unchosen_rating","chosen_path","unchosen_path","pair_id","practice","scramble_screen_time","scramble_instructed_side","stim_type","iti","block","left_stimulus","right_stimulus","left_category","right_category","left_path","right_path","left_rating","right_rating","scramble_acc","scramble_no_response","warning","missed_checkup","stimulus_id","item_id","outcome","response_rt","deliberation_reward_tally","choice_type","gain_left","left_item_id","right_item_id","higher_outcome_chosen","chosen_left","old_pair","pair_type","old_response","pair_acc","reward_type","outcome_response","outcome_rt","outcome_acc","category","choice","deliberated_stim","old_rating","new_rating","total_reward_tally"
"true","full_screen","d08172023hr1752","fullscreen","0","103132","0.0-0.0-0.0","34","37104","male","","","","","","","","","","","","","","","","","","","","","","","","","","","","","","","","","","","","","","","","","","","","","","","","","","","","","","","","","","","","","","","","","","","","","","","","","",""
"","get_id","","survey-text","1","109957","0.0-0.0-1.0","34","37104","male","6815","{""Q0"":""34"",""Q1"":""male""}","","","","","","","","","","","","","","","","","","","","","","","","","","","","","","","","","","","","","","","","","","","","","","","","","","","","","","","","","","","","","","","","","","","","","","","",""
"","ratings_instructions","","instructions","2","122437","0.0-1.0-0.0-0.0","34","37104","male","11804","","[{""page_index"":0,""viewing_time"":9419},{""page_index"":1,""viewing_time"":2384}]","","","","","","","","","","","","","","","","","","","","","","","","","","","","","","","","","","","","","","","","","","","","","","","","","","","","","","","","","","","","","","","","","","","","","","",""
"","rating_comprehension_check","","survey-multi-choice","3","129375","0.0-1.0-0.0-1.0","34","37104","male","6928","{""Q0"":""True"",""Q1"":""Mouse""}","","0","","","","","","","","","","","","","","","","","","","","","","","","","","","","","","","","","","","","","","","","","","","","","","","","","","","","","","","","","","","","","","","","","","","","","",""
"","","","html-keyboard-response","4","132256","0.0-1.0-1.0","34","37104","male","2873","","","","68","","","","","","","","","","","","","","","","","","","","","","","","","","","","","","","","","","","","","","","","","","","","","","","","","","","","","","","","","","","","","","","","","","","","",""
"","rating","","html-slider-response","5","135887","0.0-1.0-2.0","34","37104","male","3625","","","","","32","0","38","Stimuli/Experimental_stims/objects/art-lasovsky-8XddFc6NkBY-unsplash.jpg","","","","","","","","","","","","","","","","","","","","","","","","","","","","","","","","","","","","","","","","","","","","","","","","","","","","","","","","","","","","","","","","",""
"","rating","","html-slider-response","6","139248","0.0-1.0-3.0","34","37104","male","3355","","","","","22","1","24","Stimuli/Experimental_stims/body_parts/clay-banks-LjqARJaJotc-unsplash.jpg","","","","","","","","","","","","","","","","","","","","","","","","","","","","","","","","","","","","","","","","","","","","","","","","","","","","","","","","","","","","","","","","",""
"","rating","","html-slider-response","7","142149","0.0-1.0-4.0","34","37104","male","2894","","","","","80","2","13","Stimuli/Experimental_stims/faces/daniel-rigdon-dXmXKPP2L4E-unsplash.jpg","","","","","","","","","","","","","","","","","","","","","","","","","","","","","","","","","","","","","","","","","","","","","","","","","","","","","","","","","","","","","","","","",""
"","rating","","html-slider-response","8","145184","0.0-1.0-5.0","34","37104","male","3030","","","","","91","3","2","Stimuli/Experimental_stims/outdoor_scenes/bruno-van-der-kraan-qez8mNJ3ilU-unsplash.jpg","","","","","","","","","","","","","","","","","","","","","","","","","","","","","","","","","","","","","","","","","","","","","","","","","","","","","","","","","","","","","","","","",""
"","rating","","html-slider-response","9","148077","0.0-1.0-6.0","34","37104","male","2885","","","","","8","4","36","Stimuli/Experimental_stims/objects/alexander-andrews-JYGnB9gTCls-unsplash.jpg","","","","","","","","","","","","","","","","","","","","","","","","","","","","","","","","","","","","","","","","","","","","","","","","","","","","","","","","","","","","","","","","",""
"","rating","","html-slider-response","10","152244","0.0-1.0-7.0","34","37104","male","4161","","","","","86","5","7","Stimuli/Experimental_stims/outdoor_scenes/petr-vysohlid-9fqwGqGLUxc-unsplash.jpg","","","","","","","","","","","","","","","","","","","","","","","","","","","","","","","","","","","","","","","","","","","","","","","","","","","","","","","","","","","","","","","","",""
"","rating","","html-slider-response","11","154797","0.0-1.0-8.0","34","37104","male","2547","","","","","68","6","28","Stimuli/Experimental_stims/body_parts/ira-vishnevskaya-8DQAvdCby1I-unsplash.jpg","","","","","","","","","","","","","","","","","","","","","","","","","","","","","","","","","","","","","","","","","","","","","","","","","","","","","","","","","","","","","","","","",""
"","rating","","html-slider-response","12","157289","0.0-1.0-9.0","34","37104","male","2485","","","","","11","7","14","Stimuli/Experimental_stims/faces/david-siglin-UuW4psOb388-unsplash.jpg","","","","","","","","","","","","","","","","","","","","","","","","","","","","","","","","","","","","","","","","","","","","","","","","","","","","","","","","","","","","","","","","",""
"","rating","","html-slider-response","13","161276","0.0-1.0-10.0","34","37104","male","3980","","","","","84","8","23","Stimuli/Experimental_stims/faces/rikonavt-HQjfrvdTfak-unsplash.jpg","","","","","","","","","","","","","","","","","","","","","","","","","","","","","","","","","","","","","","","","","","","","","","","","","","","","","","","","","","","","","","","","",""
"","rating","","html-slider-response","14","163973","0.0-1.0-11.0","34","37104","male","2692","","","","","13","9","39","Stimuli/Experimental_stims/objects/charlesdeluvio-1-nx1QR5dTE-unsplash.jpg","","","","","","","","","","","","","","","","","","","","","","","","","","","","","","","","","","","","","","","","","","","","","","","","","","","","","","","","","","","","","","","","",""
"","rating","","html-slider-response","15","167032","0.0-1.0-12.0","34","37104","male","3053","","","","","87","10","11","Stimuli/Experimental_stims/outdoor_scenes/stephen-leonardi-gyIRjKPXupE-unsplash.jpg","","","","","","","","","","","","","","","","","","","","","","","","","","","","","","","","","","","","","","","","","","","","","","","","","","","","","","","","","","","","","","","","",""
"","rating","","html-slider-response","16","169373","0.0-1.0-13.0","34","37104","male","2334","","","","","34","11","16","Stimuli/Experimental_stims/faces/freddy-kearney-o-ioeoATbIM-unsplash.jpg","","","","","","","","","","","","","","","","","","","","","","","","","","","","","","","","","","","","","","","","","","","","","","","","","","","","","","","","","","","","","","","","",""
"","rating","","html-slider-response","17","171596","0.0-1.0-14.0","34","37104","male","2218","","","","","13","12","46","Stimuli/Experimental_stims/objects/mockup-graphics-PNsj6RiHAF4-unsplash.jpg","","","","","","","","","","","","","","","","","","","","","","","","","","","","","","","","","","","","","","","","","","","","","","","","","","","","","","","","","","","","","","","","",""
"","rating","","html-slider-response","18","174030","0.0-1.0-15.0","34","37104","male","2427","","","","","32","13","20","Stimuli/Experimental_stims/faces/justin-chen-J7Cf1Gch49E-unsplash.jpg","","","","","","","","","","","","","","","","","","","","","","","","","","","","","","","","","","","","","","","","","","","","","","","","","","","","","","","","","","","","","","","","",""
"","rating","","html-slider-response","19","176386","0.0-1.0-16.0","34","37104","male","2349","","","","","17","14","18","Stimuli/Experimental_stims/faces/jessica-radanavong-mrYkTuAesKE-unsplash.jpg","","","","","","","","","","","","","","","","","","","","","","","","","","","","","","","","","","","","","","","","","","","","","","","","","","","","","","","","","","","","","","","","",""
"","rating","","html-slider-response","20","178556","0.0-1.0-17.0","34","37104","male","2163","","","","","28","15","42","Stimuli/Experimental_stims/objects/jess-bailey-nOeVi8DsN8U-unsplash.jpg","","","","","","","","","","","","","","","","","","","","","","","","","","","","","","","","","","","","","","","","","","","","","","","","","","","","","","","","","","","","","","","","",""
"","rating","","html-slider-response","21","180492","0.0-1.0-18.0","34","37104","male","1925","","","","","70","16","5","Stimuli/Experimental_stims/outdoor_scenes/jeff-king-bJHWJeiHfHc-unsplash.jpg","","","","","","","","","","","","","","","","","","","","","","","","","","","","","","","","","","","","","","","","","","","","","","","","","","","","","","","","","","","","","","","","",""
"","rating","","html-slider-response","22","183680","0.0-1.0-19.0","34","37104","male","3181","","","","","13","17","25","Stimuli/Experimental_stims/body_parts/engin-akyurt-Q2rfH3GW39c-unsplash.jpg","","","","","","","","","","","","","","","","","","","","","","","","","","","","","","","","","","","","","","","","","","","","","","","","","","","","","","","","","","","","","","","","",""
"","rating","","html-slider-response","23","186764","0.0-1.0-20.0","34","37104","male","3078","","","","","64","18","29","Stimuli/Experimental_stims/body_parts/manuel-schinner-ZwjFuJ7ebpk-unsplash.jpg","","","","","","","","","","","","","","","","","","","","","","","","","","","","","","","","","","","","","","","","","","","","","","","","","","","","","","","","","","","","","","","","",""
"","rating","","html-slider-response","24","189368","0.0-1.0-21.0","34","37104","male","2599","","","","","0","19","47","Stimuli/Experimental_stims/objects/ronaldo-arthur-vidal-Cdz_lvnl37k-unsplash.jpg","","","","","","","","","","","","","","","","","","","","","","","","","","","","","","","","","","","","","","","","","","","","","","","","","","","","","","","","","","","","","","","","",""
"","rating","","html-slider-response","25","192092","0.0-1.0-22.0","34","37104","male","2719","","","","","86","20","4","Stimuli/Experimental_stims/outdoor_scenes/jarrett-kow-1ZOyYPOBn7I-unsplash.jpg","","","","","","","","","","","","","","","","","","","","","","","","","","","","","","","","","","","","","","","","","","","","","","","","","","","","","","","","","","","","","","","","",""
"","rating","","html-slider-response","26","194343","0.0-1.0-23.0","34","37104","male","2246","","","","","27","21","31","Stimuli/Experimental_stims/body_parts/sincerely-media-VN6DbKajo5s-unsplash.jpg","","","","","","","","","","","","","","","","","","","","","","","","","","","","","","","","","","","","","","","","","","","","","","","","","","","","","","","","","","","","","","","","",""
"","rating","","html-slider-response","27","196708","0.0-1.0-24.0","34","37104","male","2358","","","","","25","22","44","Stimuli/Experimental_stims/objects/kuiye-chen-NuOGFo4PudE-unsplash.jpg","","","","","","","","","","","","","","","","","","","","","","","","","","","","","","","","","","","","","","","","","","","","","","","","","","","","","","","","","","","","","","","","",""
"","rating","","html-slider-response","28","199471","0.0-1.0-25.0","34","37104","male","2757","","","","","21","23","37","Stimuli/Experimental_stims/objects/alexander-andrews-VLGWE_SumrA-unsplash.jpg","","","","","","","","","","","","","","","","","","","","","","","","","","","","","","","","","","","","","","","","","","","","","","","","","","","","","","","","","","","","","","","","",""
"","rating","","html-slider-response","29","202044","0.0-1.0-26.0","34","37104","male","2566","","","","","77","24","10","Stimuli/Experimental_stims/outdoor_scenes/shannon-kunkle-dM8INmkyDas-unsplash.jpg","","","","","","","","","","","","","","","","","","","","","","","","","","","","","","","","","","","","","","","","","","","","","","","","","","","","","","","","","","","","","","","","",""
"","rating","","html-slider-response","30","204075","0.0-1.0-27.0","34","37104","male","2026","","","","","36","25","40","Stimuli/Experimental_stims/objects/fabian-blank-pElSkGRA2NU-unsplash.jpg","","","","","","","","","","","","","","","","","","","","","","","","","","","","","","","","","","","","","","","","","","","","","","","","","","","","","","","","","","","","","","","","",""
"","rating","","html-slider-response","31","207363","0.0-1.0-28.0","34","37104","male","3282","","","","","93","26","9","Stimuli/Experimental_stims/outdoor_scenes/sergey-pesterev-y-b_FOmJXdg-unsplash.jpg","","","","","","","","","","","","","","","","","","","","","","","","","","","","","","","","","","","","","","","","","","","","","","","","","","","","","","","","","","","","","","","","",""
"","rating","","html-slider-response","32","209509","0.0-1.0-29.0","34","37104","male","2138","","","","","18","27","41","Stimuli/Experimental_stims/objects/insung-yoon-w2JtIQQXoRU-unsplash.jpg","","","","","","","","","","","","","","","","","","","","","","","","","","","","","","","","","","","","","","","","","","","","","","","","","","","","","","","","","","","","","","","","",""
"","rating","","html-slider-response","33","212443","0.0-1.0-30.0","34","37104","male","2929","","","","","95","28","8","Stimuli/Experimental_stims/outdoor_scenes/samsommer-vddccTqwal8-unsplash.jpg","","","","","","","","","","","","","","","","","","","","","","","","","","","","","","","","","","","","","","","","","","","","","","","","","","","","","","","","","","","","","","","","",""
"","rating","","html-slider-response","34","214635","0.0-1.0-31.0","34","37104","male","2187","","","","","86","29","3","Stimuli/Experimental_stims/outdoor_scenes/henry-be-NLF6hTe4PAg-unsplash.jpg","","","","","","","","","","","","","","","","","","","","","","","","","","","","","","","","","","","","","","","","","","","","","","","","","","","","","","","","","","","","","","","","",""
"","rating","","html-slider-response","35","216787","0.0-1.0-32.0","34","37104","male","2146","","","","","21","30","27","Stimuli/Experimental_stims/body_parts/heike-mintel-i_Gns0ELnLw-unsplash.jpg","","","","","","","","","","","","","","","","","","","","","","","","","","","","","","","","","","","","","","","","","","","","","","","","","","","","","","","","","","","","","","","","",""
"","rating","","html-slider-response","36","219151","0.0-1.0-33.0","34","37104","male","2358","","","","","71","31","19","Stimuli/Experimental_stims/faces/joel-mott-LaK153ghdig-unsplash.jpg","","","","","","","","","","","","","","","","","","","","","","","","","","","","","","","","","","","","","","","","","","","","","","","","","","","","","","","","","","","","","","","","",""
"","rating","","html-slider-response","37","222127","0.0-1.0-34.0","34","37104","male","2970","","","","","14","32","45","Stimuli/Experimental_stims/objects/leohoho-rngTKHXumy0-unsplash.jpg","","","","","","","","","","","","","","","","","","","","","","","","","","","","","","","","","","","","","","","","","","","","","","","","","","","","","","","","","","","","","","","","",""
"","rating","","html-slider-response","38","224715","0.0-1.0-35.0","34","37104","male","2583","","","","","26","33","30","Stimuli/Experimental_stims/body_parts/mika-korhonen-Xodzxosar18-unsplash.jpg","","","","","","","","","","","","","","","","","","","","","","","","","","","","","","","","","","","","","","","","","","","","","","","","","","","","","","","","","","","","","","","","",""
"","rating","","html-slider-response","39","227539","0.0-1.0-36.0","34","37104","male","2818","","","","","7","34","21","Stimuli/Experimental_stims/faces/leilani-angel-K84vnnzxmTQ-unsplash.jpg","","","","","","","","","","","","","","","","","","","","","","","","","","","","","","","","","","","","","","","","","","","","","","","","","","","","","","","","","","","","","","","","",""
"","rating","","html-slider-response","40","230017","0.0-1.0-37.0","34","37104","male","2471","","","","","22","35","34","Stimuli/Experimental_stims/body_parts/wagner-santos-mBWMvIuVnso-unsplash.jpg","","","","","","","","","","","","","","","","","","","","","","","","","","","","","","","","","","","","","","","","","","","","","","","","","","","","","","","","","","","","","","","","",""
"","rating","","html-slider-response","41","233527","0.0-1.0-38.0","34","37104","male","3505","","","","","22","36","35","Stimuli/Experimental_stims/body_parts/wc-so-KH4AAPjb-tI-unsplash.jpg","","","","","","","","","","","","","","","","","","","","","","","","","","","","","","","","","","","","","","","","","","","","","","","","","","","","","","","","","","","","","","","","",""
"","rating","","html-slider-response","42","236523","0.0-1.0-39.0","34","37104","male","2990","","","","","22","37","15","Stimuli/Experimental_stims/faces/erik-lucatero-d2MSDujJl2g-unsplash.jpg","","","","","","","","","","","","","","","","","","","","","","","","","","","","","","","","","","","","","","","","","","","","","","","","","","","","","","","","","","","","","","","","",""
"","rating","","html-slider-response","43","238795","0.0-1.0-40.0","34","37104","male","2266","","","","","36","38","1","Stimuli/Experimental_stims/outdoor_scenes/ashim-d-silva-S2Q5mdOrrVc-unsplash.jpg","","","","","","","","","","","","","","","","","","","","","","","","","","","","","","","","","","","","","","","","","","","","","","","","","","","","","","","","","","","","","","","","",""
"","rating","","html-slider-response","44","241069","0.0-1.0-41.0","34","37104","male","2268","","","","","16","39","22","Stimuli/Experimental_stims/faces/ravi-patel-VMGAbeeJTKo-unsplash.jpg","","","","","","","","","","","","","","","","","","","","","","","","","","","","","","","","","","","","","","","","","","","","","","","","","","","","","","","","","","","","","","","","",""
"","rating","","html-slider-response","45","243131","0.0-1.0-42.0","34","37104","male","2056","","","","","25","40","26","Stimuli/Experimental_stims/body_parts/engin-akyurt-x_3gyC42btc-unsplash.jpg","","","","","","","","","","","","","","","","","","","","","","","","","","","","","","","","","","","","","","","","","","","","","","","","","","","","","","","","","","","","","","","","",""
"","rating","","html-slider-response","46","245643","0.0-1.0-43.0","34","37104","male","2506","","","","","75","41","0","Stimuli/Experimental_stims/outdoor_scenes/aleksandra-boguslawska-MS7KD9Ti7FQ-unsplash.jpg","","","","","","","","","","","","","","","","","","","","","","","","","","","","","","","","","","","","","","","","","","","","","","","","","","","","","","","","","","","","","","","","",""
"","rating","","html-slider-response","47","248024","0.0-1.0-44.0","34","37104","male","2374","","","","","43","42","43","Stimuli/Experimental_stims/objects/jonathan-greenaway-Y4hGgeiFn3s-unsplash.jpg","","","","","","","","","","","","","","","","","","","","","","","","","","","","","","","","","","","","","","","","","","","","","","","","","","","","","","","","","","","","","","","","",""
"","rating","","html-slider-response","48","250171","0.0-1.0-45.0","34","37104","male","2141","","","","","38","43","32","Stimuli/Experimental_stims/body_parts/towfiqu-barbhuiya-3AsiVDsZnHg-unsplash.jpg","","","","","","","","","","","","","","","","","","","","","","","","","","","","","","","","","","","","","","","","","","","","","","","","","","","","","","","","","","","","","","","","",""
"","rating","","html-slider-response","49","252634","0.0-1.0-46.0","34","37104","male","2458","","","","","66","44","17","Stimuli/Experimental_stims/faces/good-faces-xmSWVeGEnJw-unsplash.jpg","","","","","","","","","","","","","","","","","","","","","","","","","","","","","","","","","","","","","","","","","","","","","","","","","","","","","","","","","","","","","","","","",""
"","rating","","html-slider-response","50","255507","0.0-1.0-47.0","34","37104","male","2866","","","","","84","45","6","Stimuli/Experimental_stims/outdoor_scenes/meng-ji-8BH_M-53CyA-unsplash.jpg","","","","","","","","","","","","","","","","","","","","","","","","","","","","","","","","","","","","","","","","","","","","","","","","","","","","","","","","","","","","","","","","",""
"","rating","","html-slider-response","51","258079","0.0-1.0-48.0","34","37104","male","2566","","","","","20","46","33","Stimuli/Experimental_stims/body_parts/tucker-good-36skLT5jZcc-unsplash.jpg","","","","","","","","","","","","","","","","","","","","","","","","","","","","","","","","","","","","","","","","","","","","","","","","","","","","","","","","","","","","","","","","",""
"","rating","","html-slider-response","52","261760","0.0-1.0-49.0","34","37104","male","3675","","","","","61","47","12","Stimuli/Experimental_stims/faces/aiony-haust-jmATI5Q_YgY-unsplash.jpg","","","","","","","","","","","","","","","","","","","","","","","","","","","","","","","","","","","","","","","","","","","","","","","","","","","","","","","","","","","","","","","","",""
"","localizer_instructions","","instructions","53","298482","0.0-2.0-0.0-0.0","34","37104","male","36658","","[{""page_index"":0,""viewing_time"":22938},{""page_index"":1,""viewing_time"":12047},{""page_index"":2,""viewing_time"":1673}]","","","","","","","","","","","","","","","","","","","","","","","","","","","","","","","","","","","","","","","","","","","","","","","","","","","","","","","","","","","","","","","","","","","","","","",""
"","localizer_comprehension_check","","survey-multi-choice","54","308038","0.0-2.0-0.0-1.0","34","37104","male","9548","{""Q0"":""True"",""Q1"":""K"",""Q2"":""D""}","","0","","","","","","","","","","","","","","","","","","","","","","","","","","","","","","","","","","","","","","","","","","","","","","","","","","","","","","","","","","","","","","","","","","","","","",""
"","","","html-keyboard-response","55","314315","0.0-2.0-1.0","34","37104","male","6271","","","","68","","","","","","","","","","","","","","","","","","","","","","","","","","","","","","","","","","","","","","","","","","","","","","","","","","","","","","","","","","","","","","","","","","","","",""
"","localizer","","html-keyboard-response","56","314723","0.0-2.0-2.0-0.0","34","37104","male","NaN","","","","null","NaN","0","","Stimuli/Practice_stims/Localizer/annie-spratt-g9KFpAfQ5bc-unsplash.jpg","314315","0","NaN","","0","1","0","400","0","408","0","","","","","","","","","","","","","","","","","","","","","","","","","","","","","","","","","","","","","","","","","","","","","","","","","","","","","",""
"","iti_localizer","","html-keyboard-response","57","315029","0.0-2.0-2.0-1.0","34","37104","male","null","","","","null","","0","","","314723","0","","","","","","300","400","306","408","300","","","","","","","","","","","","","","","","","","","","","","","","","","","","","","","","","","","","","","","","","","","","","","","","","","","","",""
"","localizer","","html-keyboard-response","58","315478","0.0-2.0-2.1-0.1","34","37104","male","192","","","","68","0","0","","Stimuli/Practice_stims/Localizer/annie-spratt-g9KFpAfQ5bc-unsplash.jpg","315029","0","NaN","","0","0","1","400","700","449","714","","","","","","","","","","","","","","","","","","","","","","","","","","","","","","","","","","","","","","","","","","","","","","","","","","","","","",""
"","iti_localizer","","html-keyboard-response","59","315784","0.0-2.0-2.1-1.1","34","37104","male","null","","","","null","","0","","","315478","0","","","","","","300","1100","306","1163","300","","","","","","","","","","","","","","","","","","","","","","","","","","","","","","","","","","","","","","","","","","","","","","","","","","","","",""
"","localizer","","html-keyboard-response","60","316189","0.0-2.0-3.0-0.0","34","37104","male","302","","","","68","0","1","","Stimuli/Practice_stims/Localizer/becca-tapert-sY5RjMB1KkE-unsplash.jpg","315784","0","NaN","","0","0","1","400","1400","405","1469","","","","","","","","","","","","","","","","","","","","","","","","","","","","","","","","","","","","","","","","","","","","","","","","","","","","","",""
"","iti_localizer","","html-keyboard-response","61","316495","0.0-2.0-3.0-1.0","34","37104","male","null","","","","null","","1","","","316189","0","","","","","","300","1800","306","1874","300","","","","","","","","","","","","","","","","","","","","","","","","","","","","","","","","","","","","","","","","","","","","","","","","","","","","",""
"","localizer","","html-keyboard-response","62","316901","0.0-2.0-4.0-0.0","34","37104","male","NaN","","","","null","NaN","2","","Stimuli/Practice_stims/Localizer/charl-durand-bsfXvI25iNg-unsplash.jpg","316495","0","NaN","","1","1","0","400","2100","406","2180","","","","","","","","","","","","","","","","","","","","","","","","","","","","","","","","","","","","","","","","","","","","","","","","","","","","","",""
"","iti_localizer","","html-keyboard-response","63","317207","0.0-2.0-4.0-1.0","34","37104","male","null","","","","null","","2","","","316901","0","","","","","","300","2500","306","2586","300","","","","","","","","","","","","","","","","","","","","","","","","","","","","","","","","","","","","","","","","","","","","","","","","","","","","",""
"","localizer","","html-keyboard-response","64","317614","0.0-2.0-4.1-0.1","34","37104","male","NaN","","","","null","NaN","2","","Stimuli/Practice_stims/Localizer/charl-durand-bsfXvI25iNg-unsplash.jpg","317207","0","NaN","","1","1","0","400","2800","407","2892","","","","","","","","","","","","","","","","","","","","","","","","","","","","","","","","","","","","","","","","","","","","","","","","","","","","","",""
"","iti_localizer","","html-keyboard-response","65","317920","0.0-2.0-4.1-1.1","34","37104","male","null","","","","null","","2","","","317614","0","","","","","","300","3200","306","3299","300","","","","","","","","","","","","","","","","","","","","","","","","","","","","","","","","","","","","","","","","","","","","","","","","","","","","",""
"","localizer","","html-keyboard-response","66","318326","0.0-2.0-4.2-0.2","34","37104","male","382","","","","75","1","2","","Stimuli/Practice_stims/Localizer/charl-durand-bsfXvI25iNg-unsplash.jpg","317920","0","NaN","","1","0","1","400","3500","406","3605","","","","","","","","","","","","","","","","","","","","","","","","","","","","","","","","","","","","","","","","","","","","","","","","","","","","","",""
"","iti_localizer","","html-keyboard-response","67","318632","0.0-2.0-4.2-1.2","34","37104","male","null","","","","null","","2","","","318326","0","","","","","","300","3900","306","4011","300","","","","","","","","","","","","","","","","","","","","","","","","","","","","","","","","","","","","","","","","","","","","","","","","","","","","",""
"","localizer","","html-keyboard-response","68","319038","0.0-2.0-5.0-0.0","34","37104","male","NaN","","","","null","NaN","3","","Stimuli/Practice_stims/Localizer/nizar-albusaidy-B2r2SWAf5CE-unsplash.jpg","318632","0","NaN","","0","1","0","400","4200","406","4317","","","","","","","","","","","","","","","","","","","","","","","","","","","","","","","","","","","","","","","","","","","","","","","","","","","","","",""
"","iti_localizer","","html-keyboard-response","69","319344","0.0-2.0-5.0-1.0","34","37104","male","null","","","","null","","3","","","319038","0","","","","","","300","4600","306","4723","300","","","","","","","","","","","","","","","","","","","","","","","","","","","","","","","","","","","","","","","","","","","","","","","","","","","","",""
"","localizer","","html-keyboard-response","70","319749","0.0-2.0-5.1-0.1","34","37104","male","342","","","","68","0","3","","Stimuli/Practice_stims/Localizer/nizar-albusaidy-B2r2SWAf5CE-unsplash.jpg","319344","0","NaN","","0","0","1","400","4900","405","5029","","","","","","","","","","","","","","","","","","","","","","","","","","","","","","","","","","","","","","","","","","","","","","","","","","","","","",""
"","iti_localizer","","html-keyboard-response","71","320055","0.0-2.0-5.1-1.1","34","37104","male","null","","","","null","","3","","","319749","0","","","","","","300","5300","306","5434","300","","","","","","","","","","","","","","","","","","","","","","","","","","","","","","","","","","","","","","","","","","","","","","","","","","","","",""
"","localizer","","html-keyboard-response","72","320460","0.0-2.0-6.0-0.0","34","37104","male","NaN","","","","null","NaN","4","","Stimuli/Practice_stims/Localizer/randy-fath-epf1tdtIIkM-unsplash.jpg","320055","0","NaN","","1","1","0","400","5600","405","5740","","","","","","","","","","","","","","","","","","","","","","","","","","","","","","","","","","","","","","","","","","","","","","","","","","","","","",""
"","iti_localizer","","html-keyboard-response","73","320768","0.0-2.0-6.0-1.0","34","37104","male","null","","","","null","","4","","","320460","0","","","","","","300","6000","308","6145","300","","","","","","","","","","","","","","","","","","","","","","","","","","","","","","","","","","","","","","","","","","","","","","","","","","","","",""
"","localizer","","html-keyboard-response","74","321174","0.0-2.0-6.1-0.1","34","37104","male","397","","","","75","1","4","","Stimuli/Practice_stims/Localizer/randy-fath-epf1tdtIIkM-unsplash.jpg","320768","0","NaN","","1","0","1","400","6300","406","6453","","","","","","","","","","","","","","","","","","","","","","","","","","","","","","","","","","","","","","","","","","","","","","","","","","","","","",""
"","iti_localizer","","html-keyboard-response","75","321482","0.0-2.0-6.1-1.1","34","37104","male","null","","","","null","","4","","","321174","0","","","","","","300","6700","308","6859","300","","","","","","","","","","","","","","","","","","","","","","","","","","","","","","","","","","","","","","","","","","","","","","","","","","","","",""
"","localizer","","html-keyboard-response","76","321888","0.0-2.0-7.0-0.0","34","37104","male","372","","","","68","0","5","","Stimuli/Practice_stims/Localizer/yassine-khalfalli-adsQ9d_Cx0c-unsplash.jpg","321482","0","NaN","","0","0","1","400","7000","406","7167","","","","","","","","","","","","","","","","","","","","","","","","","","","","","","","","","","","","","","","","","","","","","","","","","","","","","",""
"","iti_localizer","","html-keyboard-response","77","322193","0.0-2.0-7.0-1.0","34","37104","male","null","","","","null","","5","","","321888","0","","","","","","300","7400","305","7573","300","","","","","","","","","","","","","","","","","","","","","","","","","","","","","","","","","","","","","","","","","","","","","","","","","","","","",""
"","practice_over","","html-keyboard-response","78","325499","0.0-2.0-7.0-2.0-0.0","34","37104","male","3301","","","","68","","","","","","","","","","","","","","","","","","","","","","","","","","","","","","","","","","","","","","","","","","","","","","","","","","","","","","","","","","","","","","","","","","","","",""
"","start_run","","html-keyboard-response","79","327662","0.0-2.0-7.0-2.0-1.0","34","37104","male","2157","","","","84","","","","","","","","","","","","","","","","","","","","","","","","","","","","","","","","","","","","","","","","","","","","","","","","","","","","","","","","","","","","","","","","","","","","",""
"","localizer","","html-keyboard-response","80","328068","0.0-2.0-8.0-0.0","34","37104","male","NaN","","","","null","NaN","6","","Stimuli/Experimental_stims/localizer/faces/christina-wocintechchat-com-0Zx1bDv5BNY-unsplash.jpg","327662","1","faces","","0","1","0","400","0","406","0","","","","","","","","","","","","","","","","","","","","","","","","","","","","","","","","","","","","","","","","","","","","","","","","","","","","","",""
"","iti_localizer","","html-keyboard-response","81","328373","0.0-2.0-8.0-1.0","34","37104","male","null","","","","null","","6","","","328068","1","","","","","","300","400","305","406","300","","","","","","","","","","","","","","","","","","","","","","","","","","","","","","","","","","","","","","","","","","","","","","","","","","","","",""
"","localizer","","html-keyboard-response","82","328784","0.0-2.0-9.0-0.0","34","37104","male","353","","","","68","0","7","","Stimuli/Experimental_stims/localizer/faces/jeffery-erhunse-BQMZ5ligqps-unsplash.jpg","328373","1","faces","","0","0","1","400","700","411","711","","","","","","","","","","","","","","","","","","","","","","","","","","","","","","","","","","","","","","","","","","","","","","","","","","","","","",""
"","iti_localizer","","html-keyboard-response","83","329089","0.0-2.0-9.0-1.0","34","37104","male","null","","","","null","","7","","","328784","1","","","","","","300","1100","305","1122","300","","","","","","","","","","","","","","","","","","","","","","","","","","","","","","","","","","","","","","","","","","","","","","","","","","","","",""
"","localizer","","html-keyboard-response","84","329495","0.0-2.0-10.0-0.0","34","37104","male","357","","","","68","0","8","","Stimuli/Experimental_stims/localizer/faces/matheus-ferrero-W7b3eDUb_2I-unsplash.jpg","329089","1","faces","","0","0","1","400","1400","406","1427","","","","","","","","","","","","","","","","","","","","","","","","","","","","","","","","","","","","","","","","","","","","","","","","","","","","","",""
"","iti_localizer","","html-keyboard-response","85","329803","0.0-2.0-10.0-1.0","34","37104","male","null","","","","null","","8","","","329495","1","","","","","","300","1800","308","1833","300","","","","","","","","","","","","","","","","","","","","","","","","","","","","","","","","","","","","","","","","","","","","","","","","","","","","",""
"","localizer","","html-keyboard-response","86","330209","0.0-2.0-11.0-0.0","34","37104","male","339","","","","75","1","9","","Stimuli/Experimental_stims/localizer/faces/jurica-koletic-7YVZYZeITc8-unsplash.jpg","329803","1","faces","","1","0","1","400","2100","406","2141","","","","","","","","","","","","","","","","","","","","","","","","","","","","","","","","","","","","","","","","","","","","","","","","","","","","","",""
"","iti_localizer","","html-keyboard-response","87","330514","0.0-2.0-11.0-1.0","34","37104","male","null","","","","null","","9","","","330209","1","","","","","","300","2500","305","2547","300","","","","","","","","","","","","","","","","","","","","","","","","","","","","","","","","","","","","","","","","","","","","","","","","","","","","",""
"","localizer","","html-keyboard-response","88","330920","0.0-2.0-12.0-0.0","34","37104","male","380","","","","68","0","10","","Stimuli/Experimental_stims/localizer/faces/drew-hays-agGIKYs4mYs-unsplash.jpg","330514","1","faces","","0","0","1","400","2800","406","2852","","","","","","","","","","","","","","","","","","","","","","","","","","","","","","","","","","","","","","","","","","","","","","","","","","","","","",""
"","iti_localizer","","html-keyboard-response","89","331234","0.0-2.0-12.0-1.0","34","37104","male","null","","","","null","","10","","","330920","1","","","","","","300","3200","314","3258","300","","","","","","","","","","","","","","","","","","","","","","","","","","","","","","","","","","","","","","","","","","","","","","","","","","","","",""
"","localizer","","html-keyboard-response","90","331640","0.0-2.0-13.0-0.0","34","37104","male","NaN","","","","null","NaN","11","","Stimuli/Experimental_stims/localizer/faces/rui-silvestre-hAMJpesMeDE-unsplash.jpg","331234","1","faces","","0","1","0","400","3500","406","3572","","","","","","","","","","","","","","","","","","","","","","","","","","","","","","","","","","","","","","","","","","","","","","","","","","","","","",""
"","iti_localizer","","html-keyboard-response","91","331947","0.0-2.0-13.0-1.0","34","37104","male","null","","","","null","","11","","","331640","1","","","","","","300","3900","307","3978","300","","","","","","","","","","","","","","","","","","","","","","","","","","","","","","","","","","","","","","","","","","","","","","","","","","","","",""
"","localizer","","html-keyboard-response","92","332352","0.0-2.0-14.0-0.0","34","37104","male","380","","","","68","0","12","","Stimuli/Experimental_stims/localizer/faces/sean-kong--1B_y4wGs-s-unsplash.jpg","331947","1","faces","","0","0","1","400","4200","405","4285","","","","","","","","","","","","","","","","","","","","","","","","","","","","","","","","","","","","","","","","","","","","","","","","","","","","","",""
"","iti_localizer","","html-keyboard-response","93","332658","0.0-2.0-14.0-1.0","34","37104","male","null","","","","null","","12","","","332352","1","","","","","","300","4600","306","4690","300","","","","","","","","","","","","","","","","","","","","","","","","","","","","","","","","","","","","","","","","","","","","","","","","","","","","",""
"","localizer","","html-keyboard-response","94","333063","0.0-2.0-15.0-0.0","34","37104","male","380","","","","68","0","13","","Stimuli/Experimental_stims/localizer/faces/vince-fleming-j3lf-Jn6deo-unsplash.jpg","332658","1","faces","","0","0","1","400","4900","405","4996","","","","","","","","","","","","","","","","","","","","","","","","","","","","","","","","","","","","","","","","","","","","","","","","","","","","","",""
"","iti_localizer","","html-keyboard-response","95","333368","0.0-2.0-15.0-1.0","34","37104","male","null","","","","null","","13","","","333063","1","","","","","","300","5300","305","5401","300","","","","","","","","","","","","","","","","","","","","","","","","","","","","","","","","","","","","","","","","","","","","","","","","","","","","",""
"","localizer","","html-keyboard-response","96","333775","0.0-2.0-16.0-0.0","34","37104","male","382","","","","68","0","14","","Stimuli/Experimental_stims/localizer/faces/tyler-nix-ZGa9d1a_4tA-unsplash.jpg","333368","1","faces","","0","0","1","400","5600","407","5706","","","","","","","","","","","","","","","","","","","","","","","","","","","","","","","","","","","","","","","","","","","","","","","","","","","","","",""
"","iti_localizer","","html-keyboard-response","97","334081","0.0-2.0-16.0-1.0","34","37104","male","null","","","","null","","14","","","333775","1","","","","","","300","6000","306","6113","300","","","","","","","","","","","","","","","","","","","","","","","","","","","","","","","","","","","","","","","","","","","","","","","","","","","","",""
"","localizer","","html-keyboard-response","98","334488","0.0-2.0-17.0-0.0","34","37104","male","349","","","","68","0","15","","Stimuli/Experimental_stims/localizer/faces/abstral-official-cyOKLSgkgCE-unsplash.jpg","334081","1","faces","","0","0","1","400","6300","407","6419","","","","","","","","","","","","","","","","","","","","","","","","","","","","","","","","","","","","","","","","","","","","","","","","","","","","","",""
"","iti_localizer","","html-keyboard-response","99","334793","0.0-2.0-17.0-1.0","34","37104","male","null","","","","null","","15","","","334488","1","","","","","","300","6700","305","6826","300","","","","","","","","","","","","","","","","","","","","","","","","","","","","","","","","","","","","","","","","","","","","","","","","","","","","",""
"","localizer","","html-keyboard-response","100","335201","0.0-2.0-18.0-0.0","34","37104","male","365","","","","68","0","16","","Stimuli/Experimental_stims/localizer/faces/ethan-haddox-__ng3cRXmFE-unsplash.jpg","334793","1","faces","","0","0","1","400","7000","408","7131","","","","","","","","","","","","","","","","","","","","","","","","","","","","","","","","","","","","","","","","","","","","","","","","","","","","","",""
"","iti_localizer","","html-keyboard-response","101","335506","0.0-2.0-18.0-1.0","34","37104","male","null","","","","null","","16","","","335201","1","","","","","","300","7400","305","7539","300","","","","","","","","","","","","","","","","","","","","","","","","","","","","","","","","","","","","","","","","","","","","","","","","","","","","",""
"","localizer","","html-keyboard-response","102","335912","0.0-2.0-19.0-0.0","34","37104","male","371","","","","68","0","17","","Stimuli/Experimental_stims/localizer/faces/foto-sushi-6anudmpILw4-unsplash.jpg","335506","1","faces","","0","0","1","400","7700","406","7844","","","","","","","","","","","","","","","","","","","","","","","","","","","","","","","","","","","","","","","","","","","","","","","","","","","","","",""
"","iti_localizer","","html-keyboard-response","103","336218","0.0-2.0-19.0-1.0","34","37104","male","null","","","","null","","17","","","335912","1","","","","","","300","8100","306","8250","300","","","","","","","","","","","","","","","","","","","","","","","","","","","","","","","","","","","","","","","","","","","","","","","","","","","","",""
"","localizer","","html-keyboard-response","104","336624","0.0-2.0-20.0-0.0","34","37104","male","348","","","","68","0","18","","Stimuli/Experimental_stims/localizer/faces/christian-ferrer-8vT-DgHZDG4-unsplash.jpg","336218","1","faces","","0","0","1","400","8400","406","8556","","","","","","","","","","","","","","","","","","","","","","","","","","","","","","","","","","","","","","","","","","","","","","","","","","","","","",""
"","iti_localizer","","html-keyboard-response","105","336935","0.0-2.0-20.0-1.0","34","37104","male","null","","","","null","","18","","","336624","1","","","","","","300","8800","311","8962","300","","","","","","","","","","","","","","","","","","","","","","","","","","","","","","","","","","","","","","","","","","","","","","","","","","","","",""
"","localizer","","html-keyboard-response","106","337342","0.0-2.0-21.0-0.0","34","37104","male","367","","","","68","0","19","","Stimuli/Experimental_stims/localizer/faces/stephanie-nakagawa-ADSKIn0ScDg-unsplash.jpg","336935","1","faces","","0","0","1","400","9100","407","9273","","","","","","","","","","","","","","","","","","","","","","","","","","","","","","","","","","","","","","","","","","","","","","","","","","","","","",""
"","iti_localizer","","html-keyboard-response","107","337648","0.0-2.0-21.0-1.0","34","37104","male","null","","","","null","","19","","","337342","1","","","","","","300","9500","306","9680","300","","","","","","","","","","","","","","","","","","","","","","","","","","","","","","","","","","","","","","","","","","","","","","","","","","","","",""
"","localizer","","html-keyboard-response","108","338053","0.0-2.0-22.0-0.0","34","37104","male","NaN","","","","null","NaN","20","","Stimuli/Experimental_stims/localizer/faces/toa-heftiba-2O1EUSTRBrY-unsplash.jpg","337648","1","faces","","1","1","0","400","9800","405","9986","","","","","","","","","","","","","","","","","","","","","","","","","","","","","","","","","","","","","","","","","","","","","","","","","","","","","",""
"","iti_localizer","","html-keyboard-response","109","338358","0.0-2.0-22.0-1.0","34","37104","male","null","","","","null","","20","","","338053","1","","","","","","300","10200","305","10391","300","","","","","","","","","","","","","","","","","","","","","","","","","","","","","","","","","","","","","","","","","","","","","","","","","","","","",""
"","localizer","","html-keyboard-response","110","338764","0.0-2.0-23.0-0.0","34","37104","male","NaN","","","","null","NaN","21","","Stimuli/Experimental_stims/localizer/faces/darshan-patel-QJEVpydulGs-unsplash.jpg","338358","1","faces","","0","1","0","400","10500","406","10696","","","","","","","","","","","","","","","","","","","","","","","","","","","","","","","","","","","","","","","","","","","","","","","","","","","","","",""
"","iti_localizer","","html-keyboard-response","111","339069","0.0-2.0-23.0-1.0","34","37104","male","null","","","","null","","21","","","338764","1","","","","","","300","10900","305","11102","300","","","","","","","","","","","","","","","","","","","","","","","","","","","","","","","","","","","","","","","","","","","","","","","","","","","","",""
"","localizer","","html-keyboard-response","112","339489","0.0-2.0-24.0-0.0","34","37104","male","393","","","","68","0","22","","Stimuli/Experimental_stims/localizer/faces/mubariz-mehdizadeh-o-wlIFT4zE4-unsplash.jpg","339069","1","faces","","0","0","1","400","11200","420","11407","","","","","","","","","","","","","","","","","","","","","","","","","","","","","","","","","","","","","","","","","","","","","","","","","","","","","",""
"","iti_localizer","","html-keyboard-response","113","339794","0.0-2.0-24.0-1.0","34","37104","male","null","","","","null","","22","","","339489","1","","","","","","300","11600","305","11827","300","","","","","","","","","","","","","","","","","","","","","","","","","","","","","","","","","","","","","","","","","","","","","","","","","","","","",""
"","localizer","","html-keyboard-response","114","340201","0.0-2.0-25.0-0.0","34","37104","male","348","","","","68","0","23","","Stimuli/Experimental_stims/localizer/faces/midas-hofstra-tidSLv-UaNs-unsplash.jpg","339794","1","faces","","0","0","1","400","11900","407","12132","","","","","","","","","","","","","","","","","","","","","","","","","","","","","","","","","","","","","","","","","","","","","","","","","","","","","",""
"","iti_localizer","","html-keyboard-response","115","340506","0.0-2.0-25.0-1.0","34","37104","male","null","","","","null","","23","","","340201","1","","","","","","300","12300","305","12539","300","","","","","","","","","","","","","","","","","","","","","","","","","","","","","","","","","","","","","","","","","","","","","","","","","","","","",""
"","localizer","","html-keyboard-response","116","340912","0.0-2.0-26.0-0.0","34","37104","male","355","","","","68","0","24","","Stimuli/Experimental_stims/localizer/faces/toa-heftiba-O3ymvT7Wf9U-unsplash.jpg","340506","1","faces","","0","0","1","400","12600","406","12844","","","","","","","","","","","","","","","","","","","","","","","","","","","","","","","","","","","","","","","","","","","","","","","","","","","","","",""
"","iti_localizer","","html-keyboard-response","117","341223","0.0-2.0-26.0-1.0","34","37104","male","null","","","","null","","24","","","340912","1","","","","","","300","13000","311","13250","300","","","","","","","","","","","","","","","","","","","","","","","","","","","","","","","","","","","","","","","","","","","","","","","","","","","","",""
"","localizer","","html-keyboard-response","118","341629","0.0-2.0-27.0-0.0","34","37104","male","NaN","","","","null","NaN","25","","Stimuli/Experimental_stims/localizer/faces/katsiaryna-endruszkiewicz-BteCp6aq4GI-unsplash.jpg","341223","1","faces","","0","1","0","400","13300","406","13561","","","","","","","","","","","","","","","","","","","","","","","","","","","","","","","","","","","","","","","","","","","","","","","","","","","","","",""
"","iti_localizer","","html-keyboard-response","119","355648","0.0-2.0-27.0-1.0","34","37104","male","null","","","","null","","25","","","341629","1","","","","","","14000","13700","14019","13967","14000","","","","","","","","","","","","","","","","","","","","","","","","","","","","","","","","","","","","","","","","","","","","","","","","","","","","",""
"","localizer","","html-keyboard-response","120","356055","0.0-2.0-28.0-0.0","34","37104","male","NaN","","","","null","NaN","26","","Stimuli/Experimental_stims/localizer/outdoor_scenes/jaanus-jagomagi-FddgewYQF2M-unsplash.jpg","355648","1","outdoor_scenes","","0","1","0","400","27700","407","27986","","","","","","","","","","","","","","","","","","","","","","","","","","","","","","","","","","","","","","","","","","","","","","","","","","","","","",""
"","iti_localizer","","html-keyboard-response","121","356360","0.0-2.0-28.0-1.0","34","37104","male","null","","","","null","","26","","","356055","1","","","","","","300","28100","305","28393","300","","","","","","","","","","","","","","","","","","","","","","","","","","","","","","","","","","","","","","","","","","","","","","","","","","","","",""
"","localizer","","html-keyboard-response","122","356765","0.0-2.0-29.0-0.0","34","37104","male","343","","","","68","0","27","","Stimuli/Experimental_stims/localizer/outdoor_scenes/v2osk-1Z2niiBPg5A-unsplash.jpg","356360","1","outdoor_scenes","","1","0","0","400","28400","405","28698","","","","","","","","","","","","","","","","","","","","","","","","","","","","","","","","","","","","","","","","","","","","","","","","","","","","","",""
"","iti_localizer","","html-keyboard-response","123","357071","0.0-2.0-29.0-1.0","34","37104","male","null","","","","null","","27","","","356765","1","","","","","","300","28800","306","29103","300","","","","","","","","","","","","","","","","","","","","","","","","","","","","","","","","","","","","","","","","","","","","","","","","","","","","",""
"","localizer","","html-keyboard-response","124","357476","0.0-2.0-30.0-0.0","34","37104","male","351","","","","68","0","28","","Stimuli/Experimental_stims/localizer/outdoor_scenes/wai-siew-mTFyV8oNDzU-unsplash.jpg","357071","1","outdoor_scenes","","0","0","1","400","29100","405","29409","","","","","","","","","","","","","","","","","","","","","","","","","","","","","","","","","","","","","","","","","","","","","","","","","","","","","",""
"","iti_localizer","","html-keyboard-response","125","357790","0.0-2.0-30.0-1.0","34","37104","male","null","","","","null","","28","","","357476","1","","","","","","300","29500","314","29814","300","","","","","","","","","","","","","","","","","","","","","","","","","","","","","","","","","","","","","","","","","","","","","","","","","","","","",""
"","localizer","","html-keyboard-response","126","358198","0.0-2.0-31.0-0.0","34","37104","male","NaN","","","","null","NaN","29","","Stimuli/Experimental_stims/localizer/outdoor_scenes/jay-cai-F_laX9E8CUo-unsplash.jpg","357790","1","outdoor_scenes","","0","1","0","400","29800","408","30128","","","","","","","","","","","","","","","","","","","","","","","","","","","","","","","","","","","","","","","","","","","","","","","","","","","","","",""
"","iti_localizer","","html-keyboard-response","127","358503","0.0-2.0-31.0-1.0","34","37104","male","null","","","","null","","29","","","358198","1","","","","","","300","30200","305","30536","300","","","","","","","","","","","","","","","","","","","","","","","","","","","","","","","","","","","","","","","","","","","","","","","","","","","","",""
"","localizer","","html-keyboard-response","128","358909","0.0-2.0-32.0-0.0","34","37104","male","376","","","","68","0","30","","Stimuli/Experimental_stims/localizer/outdoor_scenes/jeremy-cai-ucYWe5mzTMU-unsplash.jpg","358503","1","outdoor_scenes","","0","0","1","400","30500","406","30841","","","","","","","","","","","","","","","","","","","","","","","","","","","","","","","","","","","","","","","","","","","","","","","","","","","","","",""
"","iti_localizer","","html-keyboard-response","129","359215","0.0-2.0-32.0-1.0","34","37104","male","null","","","","null","","30","","","358909","1","","","","","","300","30900","306","31247","300","","","","","","","","","","","","","","","","","","","","","","","","","","","","","","","","","","","","","","","","","","","","","","","","","","","","",""
"","localizer","","html-keyboard-response","130","359620","0.0-2.0-33.0-0.0","34","37104","male","343","","","","68","0","31","","Stimuli/Experimental_stims/localizer/outdoor_scenes/erol-ahmed-d3pTF3r_hwY-unsplash.jpg","359215","1","outdoor_scenes","","0","0","1","400","31200","405","31553","","","","","","","","","","","","","","","","","","","","","","","","","","","","","","","","","","","","","","","","","","","","","","","","","","","","","",""
"","iti_localizer","","html-keyboard-response","131","359926","0.0-2.0-33.0-1.0","34","37104","male","null","","","","null","","31","","","359620","1","","","","","","300","31600","306","31958","300","","","","","","","","","","","","","","","","","","","","","","","","","","","","","","","","","","","","","","","","","","","","","","","","","","","","",""
"","localizer","","html-keyboard-response","132","360333","0.0-2.0-34.0-0.0","34","37104","male","352","","","","68","0","32","","Stimuli/Experimental_stims/localizer/outdoor_scenes/quino-al-vmZ2DehWQ3Q-unsplash.jpg","359926","1","outdoor_scenes","","0","0","1","400","31900","407","32264","","","","","","","","","","","","","","","","","","","","","","","","","","","","","","","","","","","","","","","","","","","","","","","","","","","","","",""
"","iti_localizer","","html-keyboard-response","133","360640","0.0-2.0-34.0-1.0","34","37104","male","null","","","","null","","32","","","360333","1","","","","","","300","32300","307","32671","300","","","","","","","","","","","","","","","","","","","","","","","","","","","","","","","","","","","","","","","","","","","","","","","","","","","","",""
"","localizer","","html-keyboard-response","134","361045","0.0-2.0-35.0-0.0","34","37104","male","357","","","","68","0","33","","Stimuli/Experimental_stims/localizer/outdoor_scenes/kenneth-thewissen-D76DklsG-5U-unsplash.jpg","360640","1","outdoor_scenes","","0","0","1","400","32600","405","32978","","","","","","","","","","","","","","","","","","","","","","","","","","","","","","","","","","","","","","","","","","","","","","","","","","","","","",""
"","iti_localizer","","html-keyboard-response","135","361356","0.0-2.0-35.0-1.0","34","37104","male","null","","","","null","","33","","","361045","1","","","","","","300","33000","311","33383","300","","","","","","","","","","","","","","","","","","","","","","","","","","","","","","","","","","","","","","","","","","","","","","","","","","","","",""
"","localizer","","html-keyboard-response","136","361764","0.0-2.0-36.0-0.0","34","37104","male","362","","","","68","0","34","","Stimuli/Experimental_stims/localizer/outdoor_scenes/johny-goerend-U_diPCXCBxU-unsplash.jpg","361356","1","outdoor_scenes","","0","0","1","400","33300","408","33694","","","","","","","","","","","","","","","","","","","","","","","","","","","","","","","","","","","","","","","","","","","","","","","","","","","","","",""
"","iti_localizer","","html-keyboard-response","137","362075","0.0-2.0-36.0-1.0","34","37104","male","null","","","","null","","34","","","361764","1","","","","","","300","33700","311","34102","300","","","","","","","","","","","","","","","","","","","","","","","","","","","","","","","","","","","","","","","","","","","","","","","","","","","","",""
"","localizer","","html-keyboard-response","138","362488","0.0-2.0-37.0-0.0","34","37104","male","347","","","","68","0","35","","Stimuli/Experimental_stims/localizer/outdoor_scenes/ken-cheung-KonWFWUaAuk-unsplash.jpg","362075","1","outdoor_scenes","","0","0","1","400","34000","413","34413","","","","","","","","","","","","","","","","","","","","","","","","","","","","","","","","","","","","","","","","","","","","","","","","","","","","","",""
"","iti_localizer","","html-keyboard-response","139","362799","0.0-2.0-37.0-1.0","34","37104","male","null","","","","null","","35","","","362488","1","","","","","","300","34400","311","34826","300","","","","","","","","","","","","","","","","","","","","","","","","","","","","","","","","","","","","","","","","","","","","","","","","","","","","",""
"","localizer","","html-keyboard-response","140","363205","0.0-2.0-38.0-0.0","34","37104","male","373","","","","68","0","36","","Stimuli/Experimental_stims/localizer/outdoor_scenes/alessio-furlan-Vw3a0HgE7AM-unsplash.jpg","362799","1","outdoor_scenes","","0","0","1","400","34700","406","35137","","","","","","","","","","","","","","","","","","","","","","","","","","","","","","","","","","","","","","","","","","","","","","","","","","","","","",""
"","iti_localizer","","html-keyboard-response","141","363511","0.0-2.0-38.0-1.0","34","37104","male","null","","","","null","","36","","","363205","1","","","","","","300","35100","306","35543","300","","","","","","","","","","","","","","","","","","","","","","","","","","","","","","","","","","","","","","","","","","","","","","","","","","","","",""
"","localizer","","html-keyboard-response","142","363917","0.0-2.0-39.0-0.0","34","37104","male","NaN","","","","null","NaN","37","","Stimuli/Experimental_stims/localizer/outdoor_scenes/ricardo-gomez-angel-dTSaC-S-7fs-unsplash.jpg","363511","1","outdoor_scenes","","0","1","0","400","35400","406","35849","","","","","","","","","","","","","","","","","","","","","","","","","","","","","","","","","","","","","","","","","","","","","","","","","","","","","",""
"","iti_localizer","","html-keyboard-response","143","364223","0.0-2.0-39.0-1.0","34","37104","male","null","","","","null","","37","","","363917","1","","","","","","300","35800","306","36255","300","","","","","","","","","","","","","","","","","","","","","","","","","","","","","","","","","","","","","","","","","","","","","","","","","","","","",""
"","localizer","","html-keyboard-response","144","364629","0.0-2.0-40.0-0.0","34","37104","male","278","","","","68","0","38","","Stimuli/Experimental_stims/localizer/outdoor_scenes/samuel-ferrara-IEHPDNk2-8w-unsplash.jpg","364223","1","outdoor_scenes","","0","0","1","400","36100","406","36561","","","","","","","","","","","","","","","","","","","","","","","","","","","","","","","","","","","","","","","","","","","","","","","","","","","","","",""
"","iti_localizer","","html-keyboard-response","145","364935","0.0-2.0-40.0-1.0","34","37104","male","null","","","","null","","38","","","364629","1","","","","","","300","36500","306","36967","300","","","","","","","","","","","","","","","","","","","","","","","","","","","","","","","","","","","","","","","","","","","","","","","","","","","","",""
"","localizer","","html-keyboard-response","146","365340","0.0-2.0-41.0-0.0","34","37104","male","190","","","","68","0","39","","Stimuli/Experimental_stims/localizer/outdoor_scenes/pietro-de-grandi-T7K4aEPoGGk-unsplash.jpg","364935","1","outdoor_scenes","","0","0","1","400","36800","405","37273","","","","","","","","","","","","","","","","","","","","","","","","","","","","","","","","","","","","","","","","","","","","","","","","","","","","","",""
"","iti_localizer","","html-keyboard-response","147","365646","0.0-2.0-41.0-1.0","34","37104","male","null","","","","null","","39","","","365340","1","","","","","","300","37200","306","37678","300","","","","","","","","","","","","","","","","","","","","","","","","","","","","","","","","","","","","","","","","","","","","","","","","","","","","",""
"","localizer","","html-keyboard-response","148","366052","0.0-2.0-42.0-0.0","34","37104","male","280","","","","68","0","40","","Stimuli/Experimental_stims/localizer/outdoor_scenes/tomasz-filipek-CUWC-6MRcNg-unsplash.jpg","365646","1","outdoor_scenes","","0","0","1","400","37500","406","37984","","","","","","","","","","","","","","","","","","","","","","","","","","","","","","","","","","","","","","","","","","","","","","","","","","","","","",""
"","iti_localizer","","html-keyboard-response","149","366357","0.0-2.0-42.0-1.0","34","37104","male","null","","","","null","","40","","","366052","1","","","","","","300","37900","305","38390","300","","","","","","","","","","","","","","","","","","","","","","","","","","","","","","","","","","","","","","","","","","","","","","","","","","","","",""
"","localizer","","html-keyboard-response","150","366763","0.0-2.0-43.0-0.0","34","37104","male","368","","","","68","0","41","","Stimuli/Experimental_stims/localizer/outdoor_scenes/cayetano-gil-rguHxZmOF5U-unsplash.jpg","366357","1","outdoor_scenes","","0","0","1","400","38200","406","38695","","","","","","","","","","","","","","","","","","","","","","","","","","","","","","","","","","","","","","","","","","","","","","","","","","","","","",""
"","iti_localizer","","html-keyboard-response","151","367068","0.0-2.0-43.0-1.0","34","37104","male","null","","","","null","","41","","","366763","1","","","","","","300","38600","305","39101","300","","","","","","","","","","","","","","","","","","","","","","","","","","","","","","","","","","","","","","","","","","","","","","","","","","","","",""
"","localizer","","html-keyboard-response","152","367474","0.0-2.0-44.0-0.0","34","37104","male","346","","","","68","0","42","","Stimuli/Experimental_stims/localizer/outdoor_scenes/nikola-majksner-hXNGeAFOgT4-unsplash.jpg","367068","1","outdoor_scenes","","0","0","1","400","38900","406","39406","","","","","","","","","","","","","","","","","","","","","","","","","","","","","","","","","","","","","","","","","","","","","","","","","","","","","",""
"","iti_localizer","","html-keyboard-response","153","367779","0.0-2.0-44.0-1.0","34","37104","male","null","","","","null","","42","","","367474","1","","","","","","300","39300","305","39812","300","","","","","","","","","","","","","","","","","","","","","","","","","","","","","","","","","","","","","","","","","","","","","","","","","","","","",""
"","localizer","","html-keyboard-response","154","368184","0.0-2.0-45.0-0.0","34","37104","male","362","","","","68","0","43","","Stimuli/Experimental_stims/localizer/outdoor_scenes/wil-stewart-pHANr-CpbYM-unsplash.jpg","367779","1","outdoor_scenes","","1","0","0","400","39600","405","40117","","","","","","","","","","","","","","","","","","","","","","","","","","","","","","","","","","","","","","","","","","","","","","","","","","","","","",""
"","iti_localizer","","html-keyboard-response","155","368489","0.0-2.0-45.0-1.0","34","37104","male","null","","","","null","","43","","","368184","1","","","","","","300","40000","305","40522","300","","","","","","","","","","","","","","","","","","","","","","","","","","","","","","","","","","","","","","","","","","","","","","","","","","","","",""
"","localizer","","html-keyboard-response","156","368895","0.0-2.0-46.0-0.0","34","37104","male","NaN","","","","null","NaN","44","","Stimuli/Experimental_stims/localizer/outdoor_scenes/chang-qing-2YQoKbyGvDc-unsplash.jpg","368489","1","outdoor_scenes","","0","1","0","400","40300","406","40827","","","","","","","","","","","","","","","","","","","","","","","","","","","","","","","","","","","","","","","","","","","","","","","","","","","","","",""
"","iti_localizer","","html-keyboard-response","157","369201","0.0-2.0-46.0-1.0","34","37104","male","null","","","","null","","44","","","368895","1","","","","","","300","40700","306","41233","300","","","","","","","","","","","","","","","","","","","","","","","","","","","","","","","","","","","","","","","","","","","","","","","","","","","","",""
"","localizer","","html-keyboard-response","158","369607","0.0-2.0-47.0-0.0","34","37104","male","300","","","","68","0","45","","Stimuli/Experimental_stims/localizer/outdoor_scenes/solotravelgoals-7kLufxYoqWk-unsplash.jpg","369201","1","outdoor_scenes","","0","0","1","400","41000","406","41539","","","","","","","","","","","","","","","","","","","","","","","","","","","","","","","","","","","","","","","","","","","","","","","","","","","","","",""
"","iti_localizer","","html-keyboard-response","159","383620","0.0-2.0-47.0-1.0","34","37104","male","null","","","","null","","45","","","369607","1","","","","","","14000","41400","14013","41945","14000","","","","","","","","","","","","","","","","","","","","","","","","","","","","","","","","","","","","","","","","","","","","","","","","","","","","",""
"","localizer","","html-keyboard-response","160","384026","0.0-2.0-48.0-0.0","34","37104","male","370","","","","68","0","46","","Stimuli/Experimental_stims/localizer/body_parts/jeremy-bishop-mLd3hAaH2ns-unsplash.jpg","383620","1","body_parts","","0","0","1","400","55400","406","55958","","","","","","","","","","","","","","","","","","","","","","","","","","","","","","","","","","","","","","","","","","","","","","","","","","","","","",""
"","iti_localizer","","html-keyboard-response","161","384331","0.0-2.0-48.0-1.0","34","37104","male","null","","","","null","","46","","","384026","1","","","","","","300","55800","305","56364","300","","","","","","","","","","","","","","","","","","","","","","","","","","","","","","","","","","","","","","","","","","","","","","","","","","","","",""
"","localizer","","html-keyboard-response","162","384737","0.0-2.0-49.0-0.0","34","37104","male","338","","","","68","0","47","","Stimuli/Experimental_stims/localizer/body_parts/lilartsy-1KkhQ8uL28g-unsplash.jpg","384331","1","body_parts","","0","0","1","400","56100","406","56669","","","","","","","","","","","","","","","","","","","","","","","","","","","","","","","","","","","","","","","","","","","","","","","","","","","","","",""
"","iti_localizer","","html-keyboard-response","163","385043","0.0-2.0-49.0-1.0","34","37104","male","null","","","","null","","47","","","384737","1","","","","","","300","56500","306","57075","300","","","","","","","","","","","","","","","","","","","","","","","","","","","","","","","","","","","","","","","","","","","","","","","","","","","","",""
"","localizer","","html-keyboard-response","164","385451","0.0-2.0-50.0-0.0","34","37104","male","402","","","","68","0","48","","Stimuli/Experimental_stims/localizer/body_parts/toa-heftiba-qxvWnfHb3-M-unsplash.jpg","385043","1","body_parts","","0","0","1","400","56800","408","57381","","","","","","","","","","","","","","","","","","","","","","","","","","","","","","","","","","","","","","","","","","","","","","","","","","","","","",""
"","iti_localizer","","html-keyboard-response","165","385757","0.0-2.0-50.0-1.0","34","37104","male","null","","","","null","","48","","","385451","1","","","","","","300","57200","306","57789","300","","","","","","","","","","","","","","","","","","","","","","","","","","","","","","","","","","","","","","","","","","","","","","","","","","","","",""
"","localizer","","html-keyboard-response","166","386165","0.0-2.0-51.0-0.0","34","37104","male","400","","","","75","1","49","","Stimuli/Experimental_stims/localizer/body_parts/callum-skelton-3KLMq7y46nA-unsplash.jpg","385757","1","body_parts","","1","0","1","400","57500","408","58095","","","","","","","","","","","","","","","","","","","","","","","","","","","","","","","","","","","","","","","","","","","","","","","","","","","","","",""
"","iti_localizer","","html-keyboard-response","167","386470","0.0-2.0-51.0-1.0","34","37104","male","null","","","","null","","49","","","386165","1","","","","","","300","57900","305","58503","300","","","","","","","","","","","","","","","","","","","","","","","","","","","","","","","","","","","","","","","","","","","","","","","","","","","","",""
"","localizer","","html-keyboard-response","168","386877","0.0-2.0-52.0-0.0","34","37104","male","NaN","","","","null","NaN","50","","Stimuli/Experimental_stims/localizer/body_parts/ant-rozetsky-bXQd8JXx0vs-unsplash.jpg","386470","1","body_parts","","0","1","0","400","58200","407","58808","","","","","","","","","","","","","","","","","","","","","","","","","","","","","","","","","","","","","","","","","","","","","","","","","","","","","",""
"","iti_localizer","","html-keyboard-response","169","387183","0.0-2.0-52.0-1.0","34","37104","male","null","","","","null","","50","","","386877","1","","","","","","300","58600","306","59215","300","","","","","","","","","","","","","","","","","","","","","","","","","","","","","","","","","","","","","","","","","","","","","","","","","","","","",""
"","localizer","","html-keyboard-response","170","387589","0.0-2.0-53.0-0.0","34","37104","male","359","","","","68","0","51","","Stimuli/Experimental_stims/localizer/body_parts/boyd-christiansen-uVj7kewrZ-o-unsplash.jpg","387183","1","body_parts","","0","0","1","400","58900","406","59521","","","","","","","","","","","","","","","","","","","","","","","","","","","","","","","","","","","","","","","","","","","","","","","","","","","","","",""
"","iti_localizer","","html-keyboard-response","171","387894","0.0-2.0-53.0-1.0","34","37104","male","null","","","","null","","51","","","387589","1","","","","","","300","59300","305","59927","300","","","","","","","","","","","","","","","","","","","","","","","","","","","","","","","","","","","","","","","","","","","","","","","","","","","","",""
"","localizer","","html-keyboard-response","172","388300","0.0-2.0-54.0-0.0","34","37104","male","295","","","","68","0","52","","Stimuli/Experimental_stims/localizer/body_parts/helen-ast-l2iY5Sh0mTg-unsplash.jpg","387894","1","body_parts","","0","0","1","400","59600","406","60232","","","","","","","","","","","","","","","","","","","","","","","","","","","","","","","","","","","","","","","","","","","","","","","","","","","","","",""
"","iti_localizer","","html-keyboard-response","173","388606","0.0-2.0-54.0-1.0","34","37104","male","null","","","","null","","52","","","388300","1","","","","","","300","60000","306","60638","300","","","","","","","","","","","","","","","","","","","","","","","","","","","","","","","","","","","","","","","","","","","","","","","","","","","","",""
"","localizer","","html-keyboard-response","174","389012","0.0-2.0-55.0-0.0","34","37104","male","303","","","","68","0","53","","Stimuli/Experimental_stims/localizer/body_parts/pure-julia-E9Q4bqYHtIM-unsplash.jpg","388606","1","body_parts","","0","0","1","400","60300","406","60944","","","","","","","","","","","","","","","","","","","","","","","","","","","","","","","","","","","","","","","","","","","","","","","","","","","","","",""
"","iti_localizer","","html-keyboard-response","175","389317","0.0-2.0-55.0-1.0","34","37104","male","null","","","","null","","53","","","389012","1","","","","","","300","60700","305","61350","300","","","","","","","","","","","","","","","","","","","","","","","","","","","","","","","","","","","","","","","","","","","","","","","","","","","","",""
"","localizer","","html-keyboard-response","176","389736","0.0-2.0-56.0-0.0","34","37104","male","248","","","","68","0","54","","Stimuli/Experimental_stims/localizer/body_parts/sina-rezakhani-d1gQi0Jl05U-unsplash (1).jpg","389317","1","body_parts","","0","0","1","400","61000","419","61655","","","","","","","","","","","","","","","","","","","","","","","","","","","","","","","","","","","","","","","","","","","","","","","","","","","","","",""
"","iti_localizer","","html-keyboard-response","177","390041","0.0-2.0-56.0-1.0","34","37104","male","null","","","","null","","54","","","389736","1","","","","","","300","61400","305","62074","300","","","","","","","","","","","","","","","","","","","","","","","","","","","","","","","","","","","","","","","","","","","","","","","","","","","","",""
"","localizer","","html-keyboard-response","178","390447","0.0-2.0-57.0-0.0","34","37104","male","212","","","","68","0","55","","Stimuli/Experimental_stims/localizer/body_parts/megan-menegay-UojxG_BJxnI-unsplash.jpg","390041","1","body_parts","","0","0","1","400","61700","406","62379","","","","","","","","","","","","","","","","","","","","","","","","","","","","","","","","","","","","","","","","","","","","","","","","","","","","","",""
"","iti_localizer","","html-keyboard-response","179","390753","0.0-2.0-57.0-1.0","34","37104","male","null","","","","null","","55","","","390447","1","","","","","","300","62100","306","62785","300","","","","","","","","","","","","","","","","","","","","","","","","","","","","","","","","","","","","","","","","","","","","","","","","","","","","",""
"","localizer","","html-keyboard-response","180","391160","0.0-2.0-58.0-0.0","34","37104","male","346","","","","68","0","56","","Stimuli/Experimental_stims/localizer/body_parts/sincerely-media-7TBFwUQA6Xk-unsplash.jpg","390753","1","body_parts","","0","0","1","400","62400","407","63091","","","","","","","","","","","","","","","","","","","","","","","","","","","","","","","","","","","","","","","","","","","","","","","","","","","","","",""
"","iti_localizer","","html-keyboard-response","181","391466","0.0-2.0-58.0-1.0","34","37104","male","null","","","","null","","56","","","391160","1","","","","","","300","62800","306","63498","300","","","","","","","","","","","","","","","","","","","","","","","","","","","","","","","","","","","","","","","","","","","","","","","","","","","","",""
"","localizer","","html-keyboard-response","182","391883","0.0-2.0-59.0-0.0","34","37104","male","348","","","","68","0","57","","Stimuli/Experimental_stims/localizer/body_parts/sincerely-media-pdynOoM7xmA-unsplash.jpg","391466","1","body_parts","","0","0","1","400","63100","417","63804","","","","","","","","","","","","","","","","","","","","","","","","","","","","","","","","","","","","","","","","","","","","","","","","","","","","","",""
"","iti_localizer","","html-keyboard-response","183","392188","0.0-2.0-59.0-1.0","34","37104","male","null","","","","null","","57","","","391883","1","","","","","","300","63500","305","64221","300","","","","","","","","","","","","","","","","","","","","","","","","","","","","","","","","","","","","","","","","","","","","","","","","","","","","",""
"","localizer","","html-keyboard-response","184","392594","0.0-2.0-60.0-0.0","34","37104","male","369","","","","68","0","58","","Stimuli/Experimental_stims/localizer/body_parts/adrien-king-XzBluXxBoyQ-unsplash.jpg","392188","1","body_parts","","0","0","1","400","63800","406","64526","","","","","","","","","","","","","","","","","","","","","","","","","","","","","","","","","","","","","","","","","","","","","","","","","","","","","",""
"","iti_localizer","","html-keyboard-response","185","392900","0.0-2.0-60.0-1.0","34","37104","male","null","","","","null","","58","","","392594","1","","","","","","300","64200","306","64932","300","","","","","","","","","","","","","","","","","","","","","","","","","","","","","","","","","","","","","","","","","","","","","","","","","","","","",""
"","localizer","","html-keyboard-response","186","393305","0.0-2.0-61.0-0.0","34","37104","male","361","","","","68","0","59","","Stimuli/Experimental_stims/localizer/body_parts/nattalia-nunez-MB9sdDfZMSg-unsplash.jpg","392900","1","body_parts","","1","0","0","400","64500","405","65238","","","","","","","","","","","","","","","","","","","","","","","","","","","","","","","","","","","","","","","","","","","","","","","","","","","","","",""
"","iti_localizer","","html-keyboard-response","187","393614","0.0-2.0-61.0-1.0","34","37104","male","null","","","","null","","59","","","393305","1","","","","","","300","64900","309","65643","300","","","","","","","","","","","","","","","","","","","","","","","","","","","","","","","","","","","","","","","","","","","","","","","","","","","","",""
"","localizer","","html-keyboard-response","188","394026","0.0-2.0-62.0-0.0","34","37104","male","344","","","","68","0","60","","Stimuli/Experimental_stims/localizer/body_parts/louis-hansel-FjKTMRTQYAs-unsplash.jpg","393614","1","body_parts","","0","0","1","400","65200","412","65952","","","","","","","","","","","","","","","","","","","","","","","","","","","","","","","","","","","","","","","","","","","","","","","","","","","","","",""
"","iti_localizer","","html-keyboard-response","189","394334","0.0-2.0-62.0-1.0","34","37104","male","null","","","","null","","60","","","394026","1","","","","","","300","65600","308","66364","300","","","","","","","","","","","","","","","","","","","","","","","","","","","","","","","","","","","","","","","","","","","","","","","","","","","","",""
"","localizer","","html-keyboard-response","190","394739","0.0-2.0-63.0-0.0","34","37104","male","385","","","","75","1","61","","Stimuli/Experimental_stims/localizer/body_parts/jonathan-borba-hTwH8QFkPMs-unsplash.jpg","394334","1","body_parts","","0","0","0","400","65900","405","66672","","","","","","","","","","","","","","","","","","","","","","","","","","","","","","","","","","","","","","","","","","","","","","","","","","","","","",""
"","iti_localizer","","html-keyboard-response","191","395044","0.0-2.0-63.0-1.0","34","37104","male","null","","","","null","","61","","","394739","1","","","","","","300","66300","305","67077","300","","","","","","","","","","","","","","","","","","","","","","","","","","","","","","","","","","","","","","","","","","","","","","","","","","","","",""
"","localizer","","html-keyboard-response","192","395449","0.0-2.0-64.0-0.0","34","37104","male","329","","","","68","0","62","","Stimuli/Experimental_stims/localizer/body_parts/hu-chen-tCbTGNwrFNM-unsplash.jpg","395044","1","body_parts","","0","0","1","400","66600","405","67382","","","","","","","","","","","","","","","","","","","","","","","","","","","","","","","","","","","","","","","","","","","","","","","","","","","","","",""
"","iti_localizer","","html-keyboard-response","193","395762","0.0-2.0-64.0-1.0","34","37104","male","null","","","","null","","62","","","395449","1","","","","","","300","67000","313","67787","300","","","","","","","","","","","","","","","","","","","","","","","","","","","","","","","","","","","","","","","","","","","","","","","","","","","","",""
"","localizer","","html-keyboard-response","194","396169","0.0-2.0-65.0-0.0","34","37104","male","314","","","","68","0","63","","Stimuli/Experimental_stims/localizer/body_parts/danie-franco-jyyNiSEcCl4-unsplash.jpg","395762","1","body_parts","","0","0","1","400","67300","407","68100","","","","","","","","","","","","","","","","","","","","","","","","","","","","","","","","","","","","","","","","","","","","","","","","","","","","","",""
"","iti_localizer","","html-keyboard-response","195","396475","0.0-2.0-65.0-1.0","34","37104","male","null","","","","null","","63","","","396169","1","","","","","","300","67700","306","68507","300","","","","","","","","","","","","","","","","","","","","","","","","","","","","","","","","","","","","","","","","","","","","","","","","","","","","",""
"","localizer","","html-keyboard-response","196","396881","0.0-2.0-66.0-0.0","34","37104","male","322","","","","68","0","64","","Stimuli/Experimental_stims/localizer/body_parts/natalie-grainger-8uB5kFKWWkk-unsplash.jpg","396475","1","body_parts","","0","0","1","400","68000","406","68813","","","","","","","","","","","","","","","","","","","","","","","","","","","","","","","","","","","","","","","","","","","","","","","","","","","","","",""
"","iti_localizer","","html-keyboard-response","197","397187","0.0-2.0-66.0-1.0","34","37104","male","null","","","","null","","64","","","396881","1","","","","","","300","68400","306","69219","300","","","","","","","","","","","","","","","","","","","","","","","","","","","","","","","","","","","","","","","","","","","","","","","","","","","","",""
"","localizer","","html-keyboard-response","198","397593","0.0-2.0-67.0-0.0","34","37104","male","NaN","","","","null","NaN","65","","Stimuli/Experimental_stims/localizer/body_parts/apostolos-vamvouras-g5wKHRu2QW0-unsplash.jpg","397187","1","body_parts","","0","1","0","400","68700","406","69525","","","","","","","","","","","","","","","","","","","","","","","","","","","","","","","","","","","","","","","","","","","","","","","","","","","","","",""
"","iti_localizer","","html-keyboard-response","199","411598","0.0-2.0-67.0-1.0","34","37104","male","null","","","","null","","65","","","397593","1","","","","","","14000","69100","14005","69931","14000","","","","","","","","","","","","","","","","","","","","","","","","","","","","","","","","","","","","","","","","","","","","","","","","","","","","",""
"","localizer","","html-keyboard-response","200","412004","0.0-2.0-68.0-0.0","34","37104","male","304","","","","68","0","66","","Stimuli/Experimental_stims/localizer/objects/quaritsch-photography-lZ8onQ1wuY8-unsplash.jpg","411598","1","objects","","1","0","0","400","83100","406","83936","","","","","","","","","","","","","","","","","","","","","","","","","","","","","","","","","","","","","","","","","","","","","","","","","","","","","",""
"","iti_localizer","","html-keyboard-response","201","412309","0.0-2.0-68.0-1.0","34","37104","male","null","","","","null","","66","","","412004","1","","","","","","300","83500","305","84342","300","","","","","","","","","","","","","","","","","","","","","","","","","","","","","","","","","","","","","","","","","","","","","","","","","","","","",""
"","localizer","","html-keyboard-response","202","412715","0.0-2.0-69.0-0.0","34","37104","male","320","","","","68","0","67","","Stimuli/Experimental_stims/localizer/objects/ana-9GmAaEMMKho-unsplash.jpg","412309","1","objects","","0","0","1","400","83800","406","84647","","","","","","","","","","","","","","","","","","","","","","","","","","","","","","","","","","","","","","","","","","","","","","","","","","","","","",""
"","iti_localizer","","html-keyboard-response","203","413020","0.0-2.0-69.0-1.0","34","37104","male","null","","","","null","","67","","","412715","1","","","","","","300","84200","305","85053","300","","","","","","","","","","","","","","","","","","","","","","","","","","","","","","","","","","","","","","","","","","","","","","","","","","","","",""
"","localizer","","html-keyboard-response","204","413426","0.0-2.0-70.0-0.0","34","37104","male","329","","","","68","0","68","","Stimuli/Experimental_stims/localizer/objects/nordwood-themes-nDd3dIkkOLo-unsplash.jpg","413020","1","objects","","0","0","1","400","84500","406","85358","","","","","","","","","","","","","","","","","","","","","","","","","","","","","","","","","","","","","","","","","","","","","","","","","","","","","",""
"","iti_localizer","","html-keyboard-response","205","413732","0.0-2.0-70.0-1.0","34","37104","male","null","","","","null","","68","","","413426","1","","","","","","300","84900","306","85764","300","","","","","","","","","","","","","","","","","","","","","","","","","","","","","","","","","","","","","","","","","","","","","","","","","","","","",""
"","localizer","","html-keyboard-response","206","414137","0.0-2.0-71.0-0.0","34","37104","male","354","","","","68","0","69","","Stimuli/Experimental_stims/localizer/objects/kelly-jean-cKjbI0Y00X0-unsplash.jpg","413732","1","objects","","0","0","1","400","85200","405","86070","","","","","","","","","","","","","","","","","","","","","","","","","","","","","","","","","","","","","","","","","","","","","","","","","","","","","",""
"","iti_localizer","","html-keyboard-response","207","414442","0.0-2.0-71.0-1.0","34","37104","male","null","","","","null","","69","","","414137","1","","","","","","300","85600","305","86475","300","","","","","","","","","","","","","","","","","","","","","","","","","","","","","","","","","","","","","","","","","","","","","","","","","","","","",""
"","localizer","","html-keyboard-response","208","414848","0.0-2.0-72.0-0.0","34","37104","male","299","","","","68","0","70","","Stimuli/Experimental_stims/localizer/objects/florian-klauer-nptLmg6jqDo-unsplash.jpg","414442","1","objects","","0","0","1","400","85900","406","86780","","","","","","","","","","","","","","","","","","","","","","","","","","","","","","","","","","","","","","","","","","","","","","","","","","","","","",""
"","iti_localizer","","html-keyboard-response","209","415153","0.0-2.0-72.0-1.0","34","37104","male","null","","","","null","","70","","","414848","1","","","","","","300","86300","305","87186","300","","","","","","","","","","","","","","","","","","","","","","","","","","","","","","","","","","","","","","","","","","","","","","","","","","","","",""
"","localizer","","html-keyboard-response","210","415559","0.0-2.0-73.0-0.0","34","37104","male","340","","","","68","0","71","","Stimuli/Experimental_stims/localizer/objects/nicolas-hippert-SVgX47QIUlc-unsplash.jpg","415153","1","objects","","0","0","1","400","86600","406","87491","","","","","","","","","","","","","","","","","","","","","","","","","","","","","","","","","","","","","","","","","","","","","","","","","","","","","",""
"","iti_localizer","","html-keyboard-response","211","415865","0.0-2.0-73.0-1.0","34","37104","male","null","","","","null","","71","","","415559","1","","","","","","300","87000","306","87897","300","","","","","","","","","","","","","","","","","","","","","","","","","","","","","","","","","","","","","","","","","","","","","","","","","","","","",""
"","localizer","","html-keyboard-response","212","416271","0.0-2.0-74.0-0.0","34","37104","male","396","","","","68","0","72","","Stimuli/Experimental_stims/localizer/objects/florian-klauer-mk7D-4UCfmg-unsplash.jpg","415865","1","objects","","0","0","1","400","87300","406","88203","","","","","","","","","","","","","","","","","","","","","","","","","","","","","","","","","","","","","","","","","","","","","","","","","","","","","",""
"","iti_localizer","","html-keyboard-response","213","416576","0.0-2.0-74.0-1.0","34","37104","male","null","","","","null","","72","","","416271","1","","","","","","300","87700","305","88609","300","","","","","","","","","","","","","","","","","","","","","","","","","","","","","","","","","","","","","","","","","","","","","","","","","","","","",""
"","localizer","","html-keyboard-response","214","416981","0.0-2.0-75.0-0.0","34","37104","male","309","","","","68","0","73","","Stimuli/Experimental_stims/localizer/objects/alex-lvrs-2zDw14yCYqk-unsplash.jpg","416576","1","objects","","0","0","1","400","88000","405","88914","","","","","","","","","","","","","","","","","","","","","","","","","","","","","","","","","","","","","","","","","","","","","","","","","","","","","",""
"","iti_localizer","","html-keyboard-response","215","417287","0.0-2.0-75.0-1.0","34","37104","male","null","","","","null","","73","","","416981","1","","","","","","300","88400","306","89319","300","","","","","","","","","","","","","","","","","","","","","","","","","","","","","","","","","","","","","","","","","","","","","","","","","","","","",""
"","localizer","","html-keyboard-response","216","417693","0.0-2.0-76.0-0.0","34","37104","male","310","","","","68","0","74","","Stimuli/Experimental_stims/localizer/objects/hipster-mum-XookgCxFw6Q-unsplash.jpg","417287","1","objects","","0","0","1","400","88700","406","89625","","","","","","","","","","","","","","","","","","","","","","","","","","","","","","","","","","","","","","","","","","","","","","","","","","","","","",""
"","iti_localizer","","html-keyboard-response","217","418001","0.0-2.0-76.0-1.0","34","37104","male","null","","","","null","","74","","","417693","1","","","","","","300","89100","308","90031","300","","","","","","","","","","","","","","","","","","","","","","","","","","","","","","","","","","","","","","","","","","","","","","","","","","","","",""
"","localizer","","html-keyboard-response","218","418406","0.0-2.0-77.0-0.0","34","37104","male","364","","","","68","0","75","","Stimuli/Experimental_stims/localizer/objects/ian-talmacs-ugqU0a4P18U-unsplash.jpg","418001","1","objects","","0","0","1","400","89400","405","90339","","","","","","","","","","","","","","","","","","","","","","","","","","","","","","","","","","","","","","","","","","","","","","","","","","","","","",""
"","iti_localizer","","html-keyboard-response","219","418714","0.0-2.0-77.0-1.0","34","37104","male","null","","","","null","","75","","","418406","1","","","","","","300","89800","308","90744","300","","","","","","","","","","","","","","","","","","","","","","","","","","","","","","","","","","","","","","","","","","","","","","","","","","","","",""
"","localizer","","html-keyboard-response","220","419119","0.0-2.0-78.0-0.0","34","37104","male","339","","","","68","0","76","","Stimuli/Experimental_stims/localizer/objects/chris-briggs-FobzAZJGM9M-unsplash.jpg","418714","1","objects","","0","0","1","400","90100","405","91052","","","","","","","","","","","","","","","","","","","","","","","","","","","","","","","","","","","","","","","","","","","","","","","","","","","","","",""
"","iti_localizer","","html-keyboard-response","221","419425","0.0-2.0-78.0-1.0","34","37104","male","null","","","","null","","76","","","419119","1","","","","","","300","90500","306","91457","300","","","","","","","","","","","","","","","","","","","","","","","","","","","","","","","","","","","","","","","","","","","","","","","","","","","","",""
"","localizer","","html-keyboard-response","222","419832","0.0-2.0-79.0-0.0","34","37104","male","356","","","","68","0","77","","Stimuli/Experimental_stims/localizer/objects/recha-oktaviani-t__61ap00Mc-unsplash.jpg","419425","1","objects","","0","0","1","400","90800","407","91763","","","","","","","","","","","","","","","","","","","","","","","","","","","","","","","","","","","","","","","","","","","","","","","","","","","","","",""
"","iti_localizer","","html-keyboard-response","223","420137","0.0-2.0-79.0-1.0","34","37104","male","null","","","","null","","77","","","419832","1","","","","","","300","91200","305","92170","300","","","","","","","","","","","","","","","","","","","","","","","","","","","","","","","","","","","","","","","","","","","","","","","","","","","","",""
"","localizer","","html-keyboard-response","224","420545","0.0-2.0-80.0-0.0","34","37104","male","340","","","","68","0","78","","Stimuli/Experimental_stims/localizer/objects/jonny-caspari-wsvCC6UyKjs-unsplash.jpg","420137","1","objects","","0","0","1","400","91500","408","92475","","","","","","","","","","","","","","","","","","","","","","","","","","","","","","","","","","","","","","","","","","","","","","","","","","","","","",""
"","iti_localizer","","html-keyboard-response","225","420851","0.0-2.0-80.0-1.0","34","37104","male","null","","","","null","","78","","","420545","1","","","","","","300","91900","306","92883","300","","","","","","","","","","","","","","","","","","","","","","","","","","","","","","","","","","","","","","","","","","","","","","","","","","","","",""
"","localizer","","html-keyboard-response","226","421258","0.0-2.0-81.0-0.0","34","37104","male","NaN","","","","null","NaN","79","","Stimuli/Experimental_stims/localizer/objects/markus-spiske-ANrVtttbNss-unsplash.jpg","420851","1","objects","","0","1","0","400","92200","407","93189","","","","","","","","","","","","","","","","","","","","","","","","","","","","","","","","","","","","","","","","","","","","","","","","","","","","","",""
"","iti_localizer","","html-keyboard-response","227","421563","0.0-2.0-81.0-1.0","34","37104","male","null","","","","null","","79","","","421258","1","","","","","","300","92600","305","93596","300","","","","","","","","","","","","","","","","","","","","","","","","","","","","","","","","","","","","","","","","","","","","","","","","","","","","",""
"","localizer","","html-keyboard-response","228","421968","0.0-2.0-82.0-0.0","34","37104","male","NaN","","","","null","NaN","80","","Stimuli/Experimental_stims/localizer/objects/ignat-dolomanov-kFBDVnmskPA-unsplash.jpg","421563","1","objects","","0","1","0","400","92900","405","93901","","","","","","","","","","","","","","","","","","","","","","","","","","","","","","","","","","","","","","","","","","","","","","","","","","","","","",""
"","iti_localizer","","html-keyboard-response","229","422273","0.0-2.0-82.0-1.0","34","37104","male","null","","","","null","","80","","","421968","1","","","","","","300","93300","305","94306","300","","","","","","","","","","","","","","","","","","","","","","","","","","","","","","","","","","","","","","","","","","","","","","","","","","","","",""
"","localizer","","html-keyboard-response","230","422680","0.0-2.0-83.0-0.0","34","37104","male","308","","","","68","0","81","","Stimuli/Experimental_stims/localizer/objects/mockup-graphics-Pj2PY-E-LfM-unsplash.jpg","422273","1","objects","","0","0","1","400","93600","407","94611","","","","","","","","","","","","","","","","","","","","","","","","","","","","","","","","","","","","","","","","","","","","","","","","","","","","","",""
"","iti_localizer","","html-keyboard-response","231","422986","0.0-2.0-83.0-1.0","34","37104","male","null","","","","null","","81","","","422680","1","","","","","","300","94000","306","95018","300","","","","","","","","","","","","","","","","","","","","","","","","","","","","","","","","","","","","","","","","","","","","","","","","","","","","",""
"","localizer","","html-keyboard-response","232","423391","0.0-2.0-84.0-0.0","34","37104","male","323","","","","68","0","82","","Stimuli/Experimental_stims/localizer/objects/lance-reis-v0FYj9iioQg-unsplash.jpg","422986","1","objects","","0","0","1","400","94300","405","95324","","","","","","","","","","","","","","","","","","","","","","","","","","","","","","","","","","","","","","","","","","","","","","","","","","","","","",""
"","iti_localizer","","html-keyboard-response","233","423697","0.0-2.0-84.0-1.0","34","37104","male","null","","","","null","","82","","","423391","1","","","","","","300","94700","306","95729","300","","","","","","","","","","","","","","","","","","","","","","","","","","","","","","","","","","","","","","","","","","","","","","","","","","","","",""
"","localizer","","html-keyboard-response","234","424102","0.0-2.0-85.0-0.0","34","37104","male","380","","","","68","0","83","","Stimuli/Experimental_stims/localizer/objects/mockup-graphics-U6ZMEefFGx8-unsplash.jpg","423697","1","objects","","0","0","1","400","95000","405","96035","","","","","","","","","","","","","","","","","","","","","","","","","","","","","","","","","","","","","","","","","","","","","","","","","","","","","",""
"","iti_localizer","","html-keyboard-response","235","424408","0.0-2.0-85.0-1.0","34","37104","male","null","","","","null","","83","","","424102","1","","","","","","300","95400","306","96440","300","","","","","","","","","","","","","","","","","","","","","","","","","","","","","","","","","","","","","","","","","","","","","","","","","","","","",""
"","localizer","","html-keyboard-response","236","424814","0.0-2.0-86.0-0.0","34","37104","male","NaN","","","","null","NaN","84","","Stimuli/Experimental_stims/localizer/objects/engin-akyurt-bbbKzTmY2Gg-unsplash.jpg","424408","1","objects","","1","1","0","400","95700","406","96746","","","","","","","","","","","","","","","","","","","","","","","","","","","","","","","","","","","","","","","","","","","","","","","","","","","","","",""
"","iti_localizer","","html-keyboard-response","237","425120","0.0-2.0-86.0-1.0","34","37104","male","null","","","","null","","84","","","424814","1","","","","","","300","96100","306","97152","300","","","","","","","","","","","","","","","","","","","","","","","","","","","","","","","","","","","","","","","","","","","","","","","","","","","","",""
"","localizer","","html-keyboard-response","238","425525","0.0-2.0-87.0-0.0","34","37104","male","357","","","","68","0","85","","Stimuli/Experimental_stims/localizer/objects/eugene-chystiakov-3neSwyntbQ8-unsplash.jpg","425120","1","objects","","0","0","1","400","96400","405","97458","","","","","","","","","","","","","","","","","","","","","","","","","","","","","","","","","","","","","","","","","","","","","","","","","","","","","",""
"","iti_localizer","","html-keyboard-response","239","439532","0.0-2.0-87.0-1.0","34","37104","male","null","","","","null","","85","","","425525","1","","","","","","14000","96800","14007","97863","14000","","","","","","","","","","","","","","","","","","","","","","","","","","","","","","","","","","","","","","","","","","","","","","","","","","","","",""
"","localizer","","html-keyboard-response","240","439938","0.0-2.0-88.0-0.0","34","37104","male","336","","","","68","0","86","","Stimuli/Experimental_stims/localizer/body_parts/bady-abbas-N-VEeMnm7gE-unsplash.jpg","439532","1","body_parts","","0","0","1","400","110800","406","111870","","","","","","","","","","","","","","","","","","","","","","","","","","","","","","","","","","","","","","","","","","","","","","","","","","","","","",""
"","iti_localizer","","html-keyboard-response","241","440244","0.0-2.0-88.0-1.0","34","37104","male","null","","","","null","","86","","","439938","1","","","","","","300","111200","306","112276","300","","","","","","","","","","","","","","","","","","","","","","","","","","","","","","","","","","","","","","","","","","","","","","","","","","","","",""
"","localizer","","html-keyboard-response","242","440650","0.0-2.0-89.0-0.0","34","37104","male","316","","","","68","0","87","","Stimuli/Experimental_stims/localizer/body_parts/sincerely-media-QyzlAZjm0r0-unsplash.jpg","440244","1","body_parts","","1","0","0","400","111500","406","112582","","","","","","","","","","","","","","","","","","","","","","","","","","","","","","","","","","","","","","","","","","","","","","","","","","","","","",""
"","iti_localizer","","html-keyboard-response","243","440955","0.0-2.0-89.0-1.0","34","37104","male","null","","","","null","","87","","","440650","1","","","","","","300","111900","305","112988","300","","","","","","","","","","","","","","","","","","","","","","","","","","","","","","","","","","","","","","","","","","","","","","","","","","","","",""
"","localizer","","html-keyboard-response","244","441361","0.0-2.0-90.0-0.0","34","37104","male","298","","","","68","0","88","","Stimuli/Experimental_stims/localizer/body_parts/jeremy-yap-TfJEi17kA0w-unsplash.jpg","440955","1","body_parts","","0","0","1","400","112200","406","113293","","","","","","","","","","","","","","","","","","","","","","","","","","","","","","","","","","","","","","","","","","","","","","","","","","","","","",""
"","iti_localizer","","html-keyboard-response","245","441666","0.0-2.0-90.0-1.0","34","37104","male","null","","","","null","","88","","","441361","1","","","","","","300","112600","305","113699","300","","","","","","","","","","","","","","","","","","","","","","","","","","","","","","","","","","","","","","","","","","","","","","","","","","","","",""
"","localizer","","html-keyboard-response","246","442074","0.0-2.0-91.0-0.0","34","37104","male","321","","","","68","0","89","","Stimuli/Experimental_stims/localizer/body_parts/matheus-frade-eyzdb1C3JDM-unsplash.jpg","441666","1","body_parts","","0","0","1","400","112900","408","114004","","","","","","","","","","","","","","","","","","","","","","","","","","","","","","","","","","","","","","","","","","","","","","","","","","","","","",""
