"success","ttype","start_time","trial_type","trial_index","time_elapsed","internal_node_id","age","PID","gender","rt","responses","view_history","repeat_instructions","key_press","response","index","stimulus_index","path","start_time_elapsed","run","task","isi","is_odd_ball","no_response","acc","duration","onset","duration_time_elapsed","onset_time_elapsed","trial_duration","missed_checkup","left_chosen","chosen_stimulus","unchosen_stimulus","chosen_category","unchosen_category","chosen_rating","unchosen_rating","chosen_path","unchosen_path","pair_id","practice","scramble_screen_time","scramble_instructed_side","stim_type","iti","block","left_stimulus","right_stimulus","left_category","right_category","left_path","right_path","left_rating","right_rating","scramble_acc","scramble_no_response","warning","stimulus_id","item_id","outcome","response_rt","deliberation_reward_tally","choice_type","gain_left","left_item_id","right_item_id","higher_outcome_chosen","chosen_left","old_pair","pair_type","old_response","pair_acc","reward_type","outcome_response","outcome_rt","outcome_acc","category","choice","deliberated_stim","old_rating","new_rating","total_reward_tally"
"true","full_screen","d08172023hr1454","fullscreen","0","6906","0.0-0.0-0.0","40","39660","Male","","","","","","","","","","","","","","","","","","","","","","","","","","","","","","","","","","","","","","","","","","","","","","","","","","","","","","","","","","","","","","","","","","","","","","","","","",""
"","get_id","","survey-text","1","11344","0.0-0.0-1.0","40","39660","Male","4428","{""Q0"":""40"",""Q1"":""Male""}","","","","","","","","","","","","","","","","","","","","","","","","","","","","","","","","","","","","","","","","","","","","","","","","","","","","","","","","","","","","","","","","","","","","","","","",""
"","ratings_instructions","","instructions","2","31573","0.0-1.0-0.0-0.0","40","39660","Male","13690","","[{""page_index"":0,""viewing_time"":8976},{""page_index"":1,""viewing_time"":4713}]","","","","","","","","","","","","","","","","","","","","","","","","","","","","","","","","","","","","","","","","","","","","","","","","","","","","","","","","","","","","","","","","","","","","","","",""
"","rating_comprehension_check","","survey-multi-choice","3","41678","0.0-1.0-0.0-1.0","40","39660","Male","10094","{""Q0"":""True"",""Q1"":""Mouse""}","","0","","","","","","","","","","","","","","","","","","","","","","","","","","","","","","","","","","","","","","","","","","","","","","","","","","","","","","","","","","","","","","","","","","","","","",""
"","","","html-keyboard-response","4","44356","0.0-1.0-1.0","40","39660","Male","2667","","","","68","","","","","","","","","","","","","","","","","","","","","","","","","","","","","","","","","","","","","","","","","","","","","","","","","","","","","","","","","","","","","","","","","","","","",""
"","rating","","html-slider-response","5","48998","0.0-1.0-2.0","40","39660","Male","4632","","","","","66","0","38","Stimuli/Experimental_stims/objects/art-lasovsky-8XddFc6NkBY-unsplash.jpg","","","","","","","","","","","","","","","","","","","","","","","","","","","","","","","","","","","","","","","","","","","","","","","","","","","","","","","","","","","","","","","","",""
"","rating","","html-slider-response","6","53710","0.0-1.0-3.0","40","39660","Male","4701","","","","","90","1","24","Stimuli/Experimental_stims/body_parts/clay-banks-LjqARJaJotc-unsplash.jpg","","","","","","","","","","","","","","","","","","","","","","","","","","","","","","","","","","","","","","","","","","","","","","","","","","","","","","","","","","","","","","","","",""
"","rating","","html-slider-response","7","56411","0.0-1.0-4.0","40","39660","Male","2691","","","","","37","2","13","Stimuli/Experimental_stims/faces/daniel-rigdon-dXmXKPP2L4E-unsplash.jpg","","","","","","","","","","","","","","","","","","","","","","","","","","","","","","","","","","","","","","","","","","","","","","","","","","","","","","","","","","","","","","","","",""
"","rating","","html-slider-response","8","60323","0.0-1.0-5.0","40","39660","Male","3902","","","","","66","3","2","Stimuli/Experimental_stims/outdoor_scenes/bruno-van-der-kraan-qez8mNJ3ilU-unsplash.jpg","","","","","","","","","","","","","","","","","","","","","","","","","","","","","","","","","","","","","","","","","","","","","","","","","","","","","","","","","","","","","","","","",""
"","rating","","html-slider-response","9","63150","0.0-1.0-6.0","40","39660","Male","2817","","","","","29","4","36","Stimuli/Experimental_stims/objects/alexander-andrews-JYGnB9gTCls-unsplash.jpg","","","","","","","","","","","","","","","","","","","","","","","","","","","","","","","","","","","","","","","","","","","","","","","","","","","","","","","","","","","","","","","","",""
"","rating","","html-slider-response","10","66242","0.0-1.0-7.0","40","39660","Male","3082","","","","","76","5","7","Stimuli/Experimental_stims/outdoor_scenes/petr-vysohlid-9fqwGqGLUxc-unsplash.jpg","","","","","","","","","","","","","","","","","","","","","","","","","","","","","","","","","","","","","","","","","","","","","","","","","","","","","","","","","","","","","","","","",""
"","rating","","html-slider-response","11","70605","0.0-1.0-8.0","40","39660","Male","4353","","","","","34","6","28","Stimuli/Experimental_stims/body_parts/ira-vishnevskaya-8DQAvdCby1I-unsplash.jpg","","","","","","","","","","","","","","","","","","","","","","","","","","","","","","","","","","","","","","","","","","","","","","","","","","","","","","","","","","","","","","","","",""
"","rating","","html-slider-response","12","73222","0.0-1.0-9.0","40","39660","Male","2608","","","","","68","7","14","Stimuli/Experimental_stims/faces/david-siglin-UuW4psOb388-unsplash.jpg","","","","","","","","","","","","","","","","","","","","","","","","","","","","","","","","","","","","","","","","","","","","","","","","","","","","","","","","","","","","","","","","",""
"","rating","","html-slider-response","13","77042","0.0-1.0-10.0","40","39660","Male","3810","","","","","45","8","23","Stimuli/Experimental_stims/faces/rikonavt-HQjfrvdTfak-unsplash.jpg","","","","","","","","","","","","","","","","","","","","","","","","","","","","","","","","","","","","","","","","","","","","","","","","","","","","","","","","","","","","","","","","",""
"","rating","","html-slider-response","14","80047","0.0-1.0-11.0","40","39660","Male","2996","","","","","73","9","39","Stimuli/Experimental_stims/objects/charlesdeluvio-1-nx1QR5dTE-unsplash.jpg","","","","","","","","","","","","","","","","","","","","","","","","","","","","","","","","","","","","","","","","","","","","","","","","","","","","","","","","","","","","","","","","",""
"","rating","","html-slider-response","15","83073","0.0-1.0-12.0","40","39660","Male","3017","","","","","92","10","11","Stimuli/Experimental_stims/outdoor_scenes/stephen-leonardi-gyIRjKPXupE-unsplash.jpg","","","","","","","","","","","","","","","","","","","","","","","","","","","","","","","","","","","","","","","","","","","","","","","","","","","","","","","","","","","","","","","","",""
"","rating","","html-slider-response","16","85570","0.0-1.0-13.0","40","39660","Male","2486","","","","","76","11","16","Stimuli/Experimental_stims/faces/freddy-kearney-o-ioeoATbIM-unsplash.jpg","","","","","","","","","","","","","","","","","","","","","","","","","","","","","","","","","","","","","","","","","","","","","","","","","","","","","","","","","","","","","","","","",""
"","rating","","html-slider-response","17","88429","0.0-1.0-14.0","40","39660","Male","2849","","","","","75","12","46","Stimuli/Experimental_stims/objects/mockup-graphics-PNsj6RiHAF4-unsplash.jpg","","","","","","","","","","","","","","","","","","","","","","","","","","","","","","","","","","","","","","","","","","","","","","","","","","","","","","","","","","","","","","","","",""
"","rating","","html-slider-response","18","92173","0.0-1.0-15.0","40","39660","Male","3734","","","","","79","13","20","Stimuli/Experimental_stims/faces/justin-chen-J7Cf1Gch49E-unsplash.jpg","","","","","","","","","","","","","","","","","","","","","","","","","","","","","","","","","","","","","","","","","","","","","","","","","","","","","","","","","","","","","","","","",""
"","rating","","html-slider-response","19","95204","0.0-1.0-16.0","40","39660","Male","3022","","","","","22","14","18","Stimuli/Experimental_stims/faces/jessica-radanavong-mrYkTuAesKE-unsplash.jpg","","","","","","","","","","","","","","","","","","","","","","","","","","","","","","","","","","","","","","","","","","","","","","","","","","","","","","","","","","","","","","","","",""
"","rating","","html-slider-response","20","98587","0.0-1.0-17.0","40","39660","Male","3373","","","","","26","15","42","Stimuli/Experimental_stims/objects/jess-bailey-nOeVi8DsN8U-unsplash.jpg","","","","","","","","","","","","","","","","","","","","","","","","","","","","","","","","","","","","","","","","","","","","","","","","","","","","","","","","","","","","","","","","",""
"","rating","","html-slider-response","21","101792","0.0-1.0-18.0","40","39660","Male","3195","","","","","95","16","5","Stimuli/Experimental_stims/outdoor_scenes/jeff-king-bJHWJeiHfHc-unsplash.jpg","","","","","","","","","","","","","","","","","","","","","","","","","","","","","","","","","","","","","","","","","","","","","","","","","","","","","","","","","","","","","","","","",""
"","rating","","html-slider-response","22","104782","0.0-1.0-19.0","40","39660","Male","2979","","","","","32","17","25","Stimuli/Experimental_stims/body_parts/engin-akyurt-Q2rfH3GW39c-unsplash.jpg","","","","","","","","","","","","","","","","","","","","","","","","","","","","","","","","","","","","","","","","","","","","","","","","","","","","","","","","","","","","","","","","",""
"","rating","","html-slider-response","23","108829","0.0-1.0-20.0","40","39660","Male","4039","","","","","100","18","29","Stimuli/Experimental_stims/body_parts/manuel-schinner-ZwjFuJ7ebpk-unsplash.jpg","","","","","","","","","","","","","","","","","","","","","","","","","","","","","","","","","","","","","","","","","","","","","","","","","","","","","","","","","","","","","","","","",""
"","rating","","html-slider-response","24","112053","0.0-1.0-21.0","40","39660","Male","3215","","","","","63","19","47","Stimuli/Experimental_stims/objects/ronaldo-arthur-vidal-Cdz_lvnl37k-unsplash.jpg","","","","","","","","","","","","","","","","","","","","","","","","","","","","","","","","","","","","","","","","","","","","","","","","","","","","","","","","","","","","","","","","",""
"","rating","","html-slider-response","25","115585","0.0-1.0-22.0","40","39660","Male","3522","","","","","87","20","4","Stimuli/Experimental_stims/outdoor_scenes/jarrett-kow-1ZOyYPOBn7I-unsplash.jpg","","","","","","","","","","","","","","","","","","","","","","","","","","","","","","","","","","","","","","","","","","","","","","","","","","","","","","","","","","","","","","","","",""
"","rating","","html-slider-response","26","118421","0.0-1.0-23.0","40","39660","Male","2826","","","","","63","21","31","Stimuli/Experimental_stims/body_parts/sincerely-media-VN6DbKajo5s-unsplash.jpg","","","","","","","","","","","","","","","","","","","","","","","","","","","","","","","","","","","","","","","","","","","","","","","","","","","","","","","","","","","","","","","","",""
"","rating","","html-slider-response","27","121715","0.0-1.0-24.0","40","39660","Male","3285","","","","","58","22","44","Stimuli/Experimental_stims/objects/kuiye-chen-NuOGFo4PudE-unsplash.jpg","","","","","","","","","","","","","","","","","","","","","","","","","","","","","","","","","","","","","","","","","","","","","","","","","","","","","","","","","","","","","","","","",""
"","rating","","html-slider-response","28","124577","0.0-1.0-25.0","40","39660","Male","2855","","","","","85","23","37","Stimuli/Experimental_stims/objects/alexander-andrews-VLGWE_SumrA-unsplash.jpg","","","","","","","","","","","","","","","","","","","","","","","","","","","","","","","","","","","","","","","","","","","","","","","","","","","","","","","","","","","","","","","","",""
"","rating","","html-slider-response","29","127439","0.0-1.0-26.0","40","39660","Male","2852","","","","","92","24","10","Stimuli/Experimental_stims/outdoor_scenes/shannon-kunkle-dM8INmkyDas-unsplash.jpg","","","","","","","","","","","","","","","","","","","","","","","","","","","","","","","","","","","","","","","","","","","","","","","","","","","","","","","","","","","","","","","","",""
"","rating","","html-slider-response","30","130408","0.0-1.0-27.0","40","39660","Male","2960","","","","","73","25","40","Stimuli/Experimental_stims/objects/fabian-blank-pElSkGRA2NU-unsplash.jpg","","","","","","","","","","","","","","","","","","","","","","","","","","","","","","","","","","","","","","","","","","","","","","","","","","","","","","","","","","","","","","","","",""
"","rating","","html-slider-response","31","133362","0.0-1.0-28.0","40","39660","Male","2943","","","","","83","26","9","Stimuli/Experimental_stims/outdoor_scenes/sergey-pesterev-y-b_FOmJXdg-unsplash.jpg","","","","","","","","","","","","","","","","","","","","","","","","","","","","","","","","","","","","","","","","","","","","","","","","","","","","","","","","","","","","","","","","",""
"","rating","","html-slider-response","32","135866","0.0-1.0-29.0","40","39660","Male","2494","","","","","68","27","41","Stimuli/Experimental_stims/objects/insung-yoon-w2JtIQQXoRU-unsplash.jpg","","","","","","","","","","","","","","","","","","","","","","","","","","","","","","","","","","","","","","","","","","","","","","","","","","","","","","","","","","","","","","","","",""
"","rating","","html-slider-response","33","138984","0.0-1.0-30.0","40","39660","Male","3110","","","","","91","28","8","Stimuli/Experimental_stims/outdoor_scenes/samsommer-vddccTqwal8-unsplash.jpg","","","","","","","","","","","","","","","","","","","","","","","","","","","","","","","","","","","","","","","","","","","","","","","","","","","","","","","","","","","","","","","","",""
"","rating","","html-slider-response","34","142673","0.0-1.0-31.0","40","39660","Male","3682","","","","","83","29","3","Stimuli/Experimental_stims/outdoor_scenes/henry-be-NLF6hTe4PAg-unsplash.jpg","","","","","","","","","","","","","","","","","","","","","","","","","","","","","","","","","","","","","","","","","","","","","","","","","","","","","","","","","","","","","","","","",""
"","rating","","html-slider-response","35","145468","0.0-1.0-32.0","40","39660","Male","2784","","","","","78","30","27","Stimuli/Experimental_stims/body_parts/heike-mintel-i_Gns0ELnLw-unsplash.jpg","","","","","","","","","","","","","","","","","","","","","","","","","","","","","","","","","","","","","","","","","","","","","","","","","","","","","","","","","","","","","","","","",""
"","rating","","html-slider-response","36","148400","0.0-1.0-33.0","40","39660","Male","2923","","","","","52","31","19","Stimuli/Experimental_stims/faces/joel-mott-LaK153ghdig-unsplash.jpg","","","","","","","","","","","","","","","","","","","","","","","","","","","","","","","","","","","","","","","","","","","","","","","","","","","","","","","","","","","","","","","","",""
"","rating","","html-slider-response","37","151569","0.0-1.0-34.0","40","39660","Male","3158","","","","","84","32","45","Stimuli/Experimental_stims/objects/leohoho-rngTKHXumy0-unsplash.jpg","","","","","","","","","","","","","","","","","","","","","","","","","","","","","","","","","","","","","","","","","","","","","","","","","","","","","","","","","","","","","","","","",""
"","rating","","html-slider-response","38","155213","0.0-1.0-35.0","40","39660","Male","3633","","","","","47","33","30","Stimuli/Experimental_stims/body_parts/mika-korhonen-Xodzxosar18-unsplash.jpg","","","","","","","","","","","","","","","","","","","","","","","","","","","","","","","","","","","","","","","","","","","","","","","","","","","","","","","","","","","","","","","","",""
"","rating","","html-slider-response","39","158561","0.0-1.0-36.0","40","39660","Male","3338","","","","","25","34","21","Stimuli/Experimental_stims/faces/leilani-angel-K84vnnzxmTQ-unsplash.jpg","","","","","","","","","","","","","","","","","","","","","","","","","","","","","","","","","","","","","","","","","","","","","","","","","","","","","","","","","","","","","","","","",""
"","rating","","html-slider-response","40","163032","0.0-1.0-37.0","40","39660","Male","4460","","","","","10","35","34","Stimuli/Experimental_stims/body_parts/wagner-santos-mBWMvIuVnso-unsplash.jpg","","","","","","","","","","","","","","","","","","","","","","","","","","","","","","","","","","","","","","","","","","","","","","","","","","","","","","","","","","","","","","","","",""
"","rating","","html-slider-response","41","166220","0.0-1.0-38.0","40","39660","Male","3178","","","","","54","36","35","Stimuli/Experimental_stims/body_parts/wc-so-KH4AAPjb-tI-unsplash.jpg","","","","","","","","","","","","","","","","","","","","","","","","","","","","","","","","","","","","","","","","","","","","","","","","","","","","","","","","","","","","","","","","",""
"","rating","","html-slider-response","42","169920","0.0-1.0-39.0","40","39660","Male","3692","","","","","10","37","15","Stimuli/Experimental_stims/faces/erik-lucatero-d2MSDujJl2g-unsplash.jpg","","","","","","","","","","","","","","","","","","","","","","","","","","","","","","","","","","","","","","","","","","","","","","","","","","","","","","","","","","","","","","","","",""
"","rating","","html-slider-response","43","173228","0.0-1.0-40.0","40","39660","Male","3298","","","","","50","38","1","Stimuli/Experimental_stims/outdoor_scenes/ashim-d-silva-S2Q5mdOrrVc-unsplash.jpg","","","","","","","","","","","","","","","","","","","","","","","","","","","","","","","","","","","","","","","","","","","","","","","","","","","","","","","","","","","","","","","","",""
"","rating","","html-slider-response","44","175730","0.0-1.0-41.0","40","39660","Male","2493","","","","","21","39","22","Stimuli/Experimental_stims/faces/ravi-patel-VMGAbeeJTKo-unsplash.jpg","","","","","","","","","","","","","","","","","","","","","","","","","","","","","","","","","","","","","","","","","","","","","","","","","","","","","","","","","","","","","","","","",""
"","rating","","html-slider-response","45","179574","0.0-1.0-42.0","40","39660","Male","3837","","","","","24","40","26","Stimuli/Experimental_stims/body_parts/engin-akyurt-x_3gyC42btc-unsplash.jpg","","","","","","","","","","","","","","","","","","","","","","","","","","","","","","","","","","","","","","","","","","","","","","","","","","","","","","","","","","","","","","","","",""
"","rating","","html-slider-response","46","182032","0.0-1.0-43.0","40","39660","Male","2448","","","","","86","41","0","Stimuli/Experimental_stims/outdoor_scenes/aleksandra-boguslawska-MS7KD9Ti7FQ-unsplash.jpg","","","","","","","","","","","","","","","","","","","","","","","","","","","","","","","","","","","","","","","","","","","","","","","","","","","","","","","","","","","","","","","","",""
"","rating","","html-slider-response","47","186132","0.0-1.0-44.0","40","39660","Male","4089","","","","","51","42","43","Stimuli/Experimental_stims/objects/jonathan-greenaway-Y4hGgeiFn3s-unsplash.jpg","","","","","","","","","","","","","","","","","","","","","","","","","","","","","","","","","","","","","","","","","","","","","","","","","","","","","","","","","","","","","","","","",""
"","rating","","html-slider-response","48","190153","0.0-1.0-45.0","40","39660","Male","4012","","","","","50","43","32","Stimuli/Experimental_stims/body_parts/towfiqu-barbhuiya-3AsiVDsZnHg-unsplash.jpg","","","","","","","","","","","","","","","","","","","","","","","","","","","","","","","","","","","","","","","","","","","","","","","","","","","","","","","","","","","","","","","","",""
"","rating","","html-slider-response","49","192985","0.0-1.0-46.0","40","39660","Male","2820","","","","","53","44","17","Stimuli/Experimental_stims/faces/good-faces-xmSWVeGEnJw-unsplash.jpg","","","","","","","","","","","","","","","","","","","","","","","","","","","","","","","","","","","","","","","","","","","","","","","","","","","","","","","","","","","","","","","","",""
"","rating","","html-slider-response","50","195288","0.0-1.0-47.0","40","39660","Male","2296","","","","","92","45","6","Stimuli/Experimental_stims/outdoor_scenes/meng-ji-8BH_M-53CyA-unsplash.jpg","","","","","","","","","","","","","","","","","","","","","","","","","","","","","","","","","","","","","","","","","","","","","","","","","","","","","","","","","","","","","","","","",""
"","rating","","html-slider-response","51","198797","0.0-1.0-48.0","40","39660","Male","3498","","","","","43","46","33","Stimuli/Experimental_stims/body_parts/tucker-good-36skLT5jZcc-unsplash.jpg","","","","","","","","","","","","","","","","","","","","","","","","","","","","","","","","","","","","","","","","","","","","","","","","","","","","","","","","","","","","","","","","",""
"","rating","","html-slider-response","52","201507","0.0-1.0-49.0","40","39660","Male","2700","","","","","71","47","12","Stimuli/Experimental_stims/faces/aiony-haust-jmATI5Q_YgY-unsplash.jpg","","","","","","","","","","","","","","","","","","","","","","","","","","","","","","","","","","","","","","","","","","","","","","","","","","","","","","","","","","","","","","","","",""
"","localizer_instructions","","instructions","53","247931","0.0-2.0-0.0-0.0","40","39660","Male","46352","","[{""page_index"":0,""viewing_time"":30469},{""page_index"":1,""viewing_time"":14290},{""page_index"":2,""viewing_time"":1593}]","","","","","","","","","","","","","","","","","","","","","","","","","","","","","","","","","","","","","","","","","","","","","","","","","","","","","","","","","","","","","","","","","","","","","","",""
"","localizer_comprehension_check","","survey-multi-choice","54","274275","0.0-2.0-0.0-1.0","40","39660","Male","26336","{""Q0"":""True"",""Q1"":""K"",""Q2"":""D""}","","0","","","","","","","","","","","","","","","","","","","","","","","","","","","","","","","","","","","","","","","","","","","","","","","","","","","","","","","","","","","","","","","","","","","","","",""
"","","","html-keyboard-response","55","278940","0.0-2.0-1.0","40","39660","Male","4657","","","","68","","","","","","","","","","","","","","","","","","","","","","","","","","","","","","","","","","","","","","","","","","","","","","","","","","","","","","","","","","","","","","","","","","","","",""
"","localizer","","html-keyboard-response","56","279350","0.0-2.0-2.0-0.0","40","39660","Male","NaN","","","","null","NaN","0","","Stimuli/Practice_stims/Localizer/annie-spratt-g9KFpAfQ5bc-unsplash.jpg","278940","0","NaN","","0","1","0","400","0","410","0","","","","","","","","","","","","","","","","","","","","","","","","","","","","","","","","","","","","","","","","","","","","","","","","","","","","","",""
"","iti_localizer","","html-keyboard-response","57","279660","0.0-2.0-2.0-1.0","40","39660","Male","null","","","","null","","0","","","279350","0","","","","","","300","400","310","410","300","","","","","","","","","","","","","","","","","","","","","","","","","","","","","","","","","","","","","","","","","","","","","","","","","","","","",""
"","localizer","","html-keyboard-response","58","280081","0.0-2.0-2.1-0.1","40","39660","Male","NaN","","","","null","NaN","0","","Stimuli/Practice_stims/Localizer/annie-spratt-g9KFpAfQ5bc-unsplash.jpg","279660","0","NaN","","0","1","0","400","700","421","720","","","","","","","","","","","","","","","","","","","","","","","","","","","","","","","","","","","","","","","","","","","","","","","","","","","","","",""
"","iti_localizer","","html-keyboard-response","59","280390","0.0-2.0-2.1-1.1","40","39660","Male","null","","","","null","","0","","","280081","0","","","","","","300","1100","309","1141","300","","","","","","","","","","","","","","","","","","","","","","","","","","","","","","","","","","","","","","","","","","","","","","","","","","","","",""
"","localizer","","html-keyboard-response","60","280800","0.0-2.0-2.2-0.2","40","39660","Male","NaN","","","","null","NaN","0","","Stimuli/Practice_stims/Localizer/annie-spratt-g9KFpAfQ5bc-unsplash.jpg","280390","0","NaN","","0","1","0","400","1400","410","1450","","","","","","","","","","","","","","","","","","","","","","","","","","","","","","","","","","","","","","","","","","","","","","","","","","","","","",""
"","iti_localizer","","html-keyboard-response","61","281111","0.0-2.0-2.2-1.2","40","39660","Male","null","","","","null","","0","","","280800","0","","","","","","300","1800","311","1860","300","","","","","","","","","","","","","","","","","","","","","","","","","","","","","","","","","","","","","","","","","","","","","","","","","","","","",""
"","localizer","","html-keyboard-response","62","281521","0.0-2.0-2.3-0.3","40","39660","Male","15","","","","68","0","0","","Stimuli/Practice_stims/Localizer/annie-spratt-g9KFpAfQ5bc-unsplash.jpg","281111","0","NaN","","0","0","1","400","2100","410","2171","","","","","","","","","","","","","","","","","","","","","","","","","","","","","","","","","","","","","","","","","","","","","","","","","","","","","",""
"","iti_localizer","","html-keyboard-response","63","281833","0.0-2.0-2.3-1.3","40","39660","Male","null","","","","null","","0","","","281521","0","","","","","","300","2500","312","2581","300","","","","","","","","","","","","","","","","","","","","","","","","","","","","","","","","","","","","","","","","","","","","","","","","","","","","",""
"","localizer","","html-keyboard-response","64","282246","0.0-2.0-3.0-0.0","40","39660","Male","129","","","","68","0","1","","Stimuli/Practice_stims/Localizer/becca-tapert-sY5RjMB1KkE-unsplash.jpg","281833","0","NaN","","0","0","1","400","2800","413","2893","","","","","","","","","","","","","","","","","","","","","","","","","","","","","","","","","","","","","","","","","","","","","","","","","","","","","",""
"","iti_localizer","","html-keyboard-response","65","282557","0.0-2.0-3.0-1.0","40","39660","Male","null","","","","null","","1","","","282246","0","","","","","","300","3200","311","3306","300","","","","","","","","","","","","","","","","","","","","","","","","","","","","","","","","","","","","","","","","","","","","","","","","","","","","",""
"","localizer","","html-keyboard-response","66","282969","0.0-2.0-4.0-0.0","40","39660","Male","NaN","","","","null","NaN","2","","Stimuli/Practice_stims/Localizer/charl-durand-bsfXvI25iNg-unsplash.jpg","282557","0","NaN","","1","1","0","400","3500","412","3617","","","","","","","","","","","","","","","","","","","","","","","","","","","","","","","","","","","","","","","","","","","","","","","","","","","","","",""
"","iti_localizer","","html-keyboard-response","67","283280","0.0-2.0-4.0-1.0","40","39660","Male","null","","","","null","","2","","","282969","0","","","","","","300","3900","311","4029","300","","","","","","","","","","","","","","","","","","","","","","","","","","","","","","","","","","","","","","","","","","","","","","","","","","","","",""
"","localizer","","html-keyboard-response","68","283691","0.0-2.0-4.1-0.1","40","39660","Male","332","","","","75","1","2","","Stimuli/Practice_stims/Localizer/charl-durand-bsfXvI25iNg-unsplash.jpg","283280","0","NaN","","1","0","1","400","4200","411","4340","","","","","","","","","","","","","","","","","","","","","","","","","","","","","","","","","","","","","","","","","","","","","","","","","","","","","",""
"","iti_localizer","","html-keyboard-response","69","284002","0.0-2.0-4.1-1.1","40","39660","Male","null","","","","null","","2","","","283691","0","","","","","","300","4600","311","4751","300","","","","","","","","","","","","","","","","","","","","","","","","","","","","","","","","","","","","","","","","","","","","","","","","","","","","",""
"","localizer","","html-keyboard-response","70","284414","0.0-2.0-5.0-0.0","40","39660","Male","NaN","","","","null","NaN","3","","Stimuli/Practice_stims/Localizer/nizar-albusaidy-B2r2SWAf5CE-unsplash.jpg","284002","0","NaN","","0","1","0","400","4900","412","5062","","","","","","","","","","","","","","","","","","","","","","","","","","","","","","","","","","","","","","","","","","","","","","","","","","","","","",""
"","iti_localizer","","html-keyboard-response","71","284722","0.0-2.0-5.0-1.0","40","39660","Male","null","","","","null","","3","","","284414","0","","","","","","300","5300","308","5474","300","","","","","","","","","","","","","","","","","","","","","","","","","","","","","","","","","","","","","","","","","","","","","","","","","","","","",""
"","localizer","","html-keyboard-response","72","285133","0.0-2.0-5.1-0.1","40","39660","Male","NaN","","","","null","NaN","3","","Stimuli/Practice_stims/Localizer/nizar-albusaidy-B2r2SWAf5CE-unsplash.jpg","284722","0","NaN","","0","1","0","400","5600","411","5782","","","","","","","","","","","","","","","","","","","","","","","","","","","","","","","","","","","","","","","","","","","","","","","","","","","","","",""
"","iti_localizer","","html-keyboard-response","73","285443","0.0-2.0-5.1-1.1","40","39660","Male","null","","","","null","","3","","","285133","0","","","","","","300","6000","310","6193","300","","","","","","","","","","","","","","","","","","","","","","","","","","","","","","","","","","","","","","","","","","","","","","","","","","","","",""
"","localizer","","html-keyboard-response","74","285854","0.0-2.0-5.2-0.2","40","39660","Male","NaN","","","","null","NaN","3","","Stimuli/Practice_stims/Localizer/nizar-albusaidy-B2r2SWAf5CE-unsplash.jpg","285443","0","NaN","","0","1","0","400","6300","411","6503","","","","","","","","","","","","","","","","","","","","","","","","","","","","","","","","","","","","","","","","","","","","","","","","","","","","","",""
"","iti_localizer","","html-keyboard-response","75","286162","0.0-2.0-5.2-1.2","40","39660","Male","null","","","","null","","3","","","285854","0","","","","","","300","6700","308","6914","300","","","","","","","","","","","","","","","","","","","","","","","","","","","","","","","","","","","","","","","","","","","","","","","","","","","","",""
"","localizer","","html-keyboard-response","76","286571","0.0-2.0-5.3-0.3","40","39660","Male","NaN","","","","null","NaN","3","","Stimuli/Practice_stims/Localizer/nizar-albusaidy-B2r2SWAf5CE-unsplash.jpg","286162","0","NaN","","0","1","0","400","7000","409","7222","","","","","","","","","","","","","","","","","","","","","","","","","","","","","","","","","","","","","","","","","","","","","","","","","","","","","",""
"","iti_localizer","","html-keyboard-response","77","286882","0.0-2.0-5.3-1.3","40","39660","Male","null","","","","null","","3","","","286571","0","","","","","","300","7400","311","7631","300","","","","","","","","","","","","","","","","","","","","","","","","","","","","","","","","","","","","","","","","","","","","","","","","","","","","",""
"","localizer","","html-keyboard-response","78","287291","0.0-2.0-5.4-0.4","40","39660","Male","177","","","","68","0","3","","Stimuli/Practice_stims/Localizer/nizar-albusaidy-B2r2SWAf5CE-unsplash.jpg","286882","0","NaN","","0","0","1","400","7700","409","7942","","","","","","","","","","","","","","","","","","","","","","","","","","","","","","","","","","","","","","","","","","","","","","","","","","","","","",""
"","iti_localizer","","html-keyboard-response","79","287600","0.0-2.0-5.4-1.4","40","39660","Male","null","","","","null","","3","","","287291","0","","","","","","300","8100","309","8351","300","","","","","","","","","","","","","","","","","","","","","","","","","","","","","","","","","","","","","","","","","","","","","","","","","","","","",""
"","localizer","","html-keyboard-response","80","288009","0.0-2.0-6.0-0.0","40","39660","Male","NaN","","","","null","NaN","4","","Stimuli/Practice_stims/Localizer/randy-fath-epf1tdtIIkM-unsplash.jpg","287600","0","NaN","","1","1","0","400","8400","409","8660","","","","","","","","","","","","","","","","","","","","","","","","","","","","","","","","","","","","","","","","","","","","","","","","","","","","","",""
"","iti_localizer","","html-keyboard-response","81","288318","0.0-2.0-6.0-1.0","40","39660","Male","null","","","","null","","4","","","288009","0","","","","","","300","8800","309","9069","300","","","","","","","","","","","","","","","","","","","","","","","","","","","","","","","","","","","","","","","","","","","","","","","","","","","","",""
"","localizer","","html-keyboard-response","82","288729","0.0-2.0-6.1-0.1","40","39660","Male","NaN","","","","null","NaN","4","","Stimuli/Practice_stims/Localizer/randy-fath-epf1tdtIIkM-unsplash.jpg","288318","0","NaN","","1","1","0","400","9100","411","9378","","","","","","","","","","","","","","","","","","","","","","","","","","","","","","","","","","","","","","","","","","","","","","","","","","","","","",""
"","iti_localizer","","html-keyboard-response","83","289067","0.0-2.0-6.1-1.1","40","39660","Male","null","","","","null","","4","","","288729","0","","","","","","300","9500","338","9789","300","","","","","","","","","","","","","","","","","","","","","","","","","","","","","","","","","","","","","","","","","","","","","","","","","","","","",""
"","localizer","","html-keyboard-response","84","289478","0.0-2.0-6.2-0.2","40","39660","Male","NaN","","","","null","NaN","4","","Stimuli/Practice_stims/Localizer/randy-fath-epf1tdtIIkM-unsplash.jpg","289067","0","NaN","","1","1","0","400","9800","411","10127","","","","","","","","","","","","","","","","","","","","","","","","","","","","","","","","","","","","","","","","","","","","","","","","","","","","","",""
"","iti_localizer","","html-keyboard-response","85","289814","0.0-2.0-6.2-1.2","40","39660","Male","null","","","","null","","4","","","289478","0","","","","","","300","10200","336","10538","300","","","","","","","","","","","","","","","","","","","","","","","","","","","","","","","","","","","","","","","","","","","","","","","","","","","","",""
"","localizer","","html-keyboard-response","86","290230","0.0-2.0-6.3-0.3","40","39660","Male","NaN","","","","null","NaN","4","","Stimuli/Practice_stims/Localizer/randy-fath-epf1tdtIIkM-unsplash.jpg","289814","0","NaN","","1","1","0","400","10500","416","10874","","","","","","","","","","","","","","","","","","","","","","","","","","","","","","","","","","","","","","","","","","","","","","","","","","","","","",""
"","iti_localizer","","html-keyboard-response","87","290540","0.0-2.0-6.3-1.3","40","39660","Male","null","","","","null","","4","","","290230","0","","","","","","300","10900","310","11290","300","","","","","","","","","","","","","","","","","","","","","","","","","","","","","","","","","","","","","","","","","","","","","","","","","","","","",""
"","localizer","","html-keyboard-response","88","290950","0.0-2.0-6.4-0.4","40","39660","Male","NaN","","","","null","NaN","4","","Stimuli/Practice_stims/Localizer/randy-fath-epf1tdtIIkM-unsplash.jpg","290540","0","NaN","","1","1","0","400","11200","410","11600","","","","","","","","","","","","","","","","","","","","","","","","","","","","","","","","","","","","","","","","","","","","","","","","","","","","","",""
"","iti_localizer","","html-keyboard-response","89","291261","0.0-2.0-6.4-1.4","40","39660","Male","null","","","","null","","4","","","290950","0","","","","","","300","11600","311","12010","300","","","","","","","","","","","","","","","","","","","","","","","","","","","","","","","","","","","","","","","","","","","","","","","","","","","","",""
"","localizer","","html-keyboard-response","90","291672","0.0-2.0-6.5-0.5","40","39660","Male","NaN","","","","null","NaN","4","","Stimuli/Practice_stims/Localizer/randy-fath-epf1tdtIIkM-unsplash.jpg","291261","0","NaN","","1","1","0","400","11900","411","12321","","","","","","","","","","","","","","","","","","","","","","","","","","","","","","","","","","","","","","","","","","","","","","","","","","","","","",""
"","iti_localizer","","html-keyboard-response","91","291981","0.0-2.0-6.5-1.5","40","39660","Male","null","","","","null","","4","","","291672","0","","","","","","300","12300","309","12732","300","","","","","","","","","","","","","","","","","","","","","","","","","","","","","","","","","","","","","","","","","","","","","","","","","","","","",""
"","localizer","","html-keyboard-response","92","292390","0.0-2.0-6.6-0.6","40","39660","Male","NaN","","","","null","NaN","4","","Stimuli/Practice_stims/Localizer/randy-fath-epf1tdtIIkM-unsplash.jpg","291981","0","NaN","","1","1","0","400","12600","409","13041","","","","","","","","","","","","","","","","","","","","","","","","","","","","","","","","","","","","","","","","","","","","","","","","","","","","","",""
"","iti_localizer","","html-keyboard-response","93","292701","0.0-2.0-6.6-1.6","40","39660","Male","null","","","","null","","4","","","292390","0","","","","","","300","13000","311","13450","300","","","","","","","","","","","","","","","","","","","","","","","","","","","","","","","","","","","","","","","","","","","","","","","","","","","","",""
"","localizer","","html-keyboard-response","94","293111","0.0-2.0-6.7-0.7","40","39660","Male","NaN","","","","null","NaN","4","","Stimuli/Practice_stims/Localizer/randy-fath-epf1tdtIIkM-unsplash.jpg","292701","0","NaN","","1","1","0","400","13300","410","13761","","","","","","","","","","","","","","","","","","","","","","","","","","","","","","","","","","","","","","","","","","","","","","","","","","","","","",""
"","iti_localizer","","html-keyboard-response","95","293422","0.0-2.0-6.7-1.7","40","39660","Male","null","","","","null","","4","","","293111","0","","","","","","300","13700","311","14171","300","","","","","","","","","","","","","","","","","","","","","","","","","","","","","","","","","","","","","","","","","","","","","","","","","","","","",""
"","localizer","","html-keyboard-response","96","293831","0.0-2.0-6.8-0.8","40","39660","Male","NaN","","","","null","NaN","4","","Stimuli/Practice_stims/Localizer/randy-fath-epf1tdtIIkM-unsplash.jpg","293422","0","NaN","","1","1","0","400","14000","409","14482","","","","","","","","","","","","","","","","","","","","","","","","","","","","","","","","","","","","","","","","","","","","","","","","","","","","","",""
"","iti_localizer","","html-keyboard-response","97","294140","0.0-2.0-6.8-1.8","40","39660","Male","null","","","","null","","4","","","293831","0","","","","","","300","14400","309","14891","300","","","","","","","","","","","","","","","","","","","","","","","","","","","","","","","","","","","","","","","","","","","","","","","","","","","","",""
"","localizer","","html-keyboard-response","98","294553","0.0-2.0-6.9-0.9","40","39660","Male","NaN","","","","null","NaN","4","","Stimuli/Practice_stims/Localizer/randy-fath-epf1tdtIIkM-unsplash.jpg","294140","0","NaN","","1","1","0","400","14700","413","15200","","","","","","","","","","","","","","","","","","","","","","","","","","","","","","","","","","","","","","","","","","","","","","","","","","","","","",""
"","iti_localizer","","html-keyboard-response","99","294862","0.0-2.0-6.9-1.9","40","39660","Male","null","","","","null","","4","","","294553","0","","","","","","300","15100","309","15613","300","","","","","","","","","","","","","","","","","","","","","","","","","","","","","","","","","","","","","","","","","","","","","","","","","","","","",""
"","localizer","","html-keyboard-response","100","295273","0.0-2.0-6.10-0.10","40","39660","Male","NaN","","","","null","NaN","4","","Stimuli/Practice_stims/Localizer/randy-fath-epf1tdtIIkM-unsplash.jpg","294862","0","NaN","","1","1","0","400","15400","411","15922","","","","","","","","","","","","","","","","","","","","","","","","","","","","","","","","","","","","","","","","","","","","","","","","","","","","","",""
"","iti_localizer","","html-keyboard-response","101","295582","0.0-2.0-6.10-1.10","40","39660","Male","null","","","","null","","4","","","295273","0","","","","","","300","15800","309","16333","300","","","","","","","","","","","","","","","","","","","","","","","","","","","","","","","","","","","","","","","","","","","","","","","","","","","","",""
"","localizer","","html-keyboard-response","102","296007","0.0-2.0-6.11-0.11","40","39660","Male","NaN","","","","null","NaN","4","","Stimuli/Practice_stims/Localizer/randy-fath-epf1tdtIIkM-unsplash.jpg","295582","0","NaN","","1","1","0","400","16100","425","16642","","","","","","","","","","","","","","","","","","","","","","","","","","","","","","","","","","","","","","","","","","","","","","","","","","","","","",""
"","iti_localizer","","html-keyboard-response","103","296317","0.0-2.0-6.11-1.11","40","39660","Male","null","","","","null","","4","","","296007","0","","","","","","300","16500","310","17067","300","","","","","","","","","","","","","","","","","","","","","","","","","","","","","","","","","","","","","","","","","","","","","","","","","","","","",""
"","localizer","","html-keyboard-response","104","296727","0.0-2.0-6.12-0.12","40","39660","Male","394","","","","75","1","4","","Stimuli/Practice_stims/Localizer/randy-fath-epf1tdtIIkM-unsplash.jpg","296317","0","NaN","","1","0","1","400","16800","410","17377","","","","","","","","","","","","","","","","","","","","","","","","","","","","","","","","","","","","","","","","","","","","","","","","","","","","","",""
"","iti_localizer","","html-keyboard-response","105","297037","0.0-2.0-6.12-1.12","40","39660","Male","null","","","","null","","4","","","296727","0","","","","","","300","17200","310","17787","300","","","","","","","","","","","","","","","","","","","","","","","","","","","","","","","","","","","","","","","","","","","","","","","","","","","","",""
"","localizer","","html-keyboard-response","106","297449","0.0-2.0-7.0-0.0","40","39660","Male","NaN","","","","null","NaN","5","","Stimuli/Practice_stims/Localizer/yassine-khalfalli-adsQ9d_Cx0c-unsplash.jpg","297037","0","NaN","","0","1","0","400","17500","412","18097","","","","","","","","","","","","","","","","","","","","","","","","","","","","","","","","","","","","","","","","","","","","","","","","","","","","","",""
"","iti_localizer","","html-keyboard-response","107","297757","0.0-2.0-7.0-1.0","40","39660","Male","null","","","","null","","5","","","297449","0","","","","","","300","17900","308","18509","300","","","","","","","","","","","","","","","","","","","","","","","","","","","","","","","","","","","","","","","","","","","","","","","","","","","","",""
"","localizer","","html-keyboard-response","108","298166","0.0-2.0-7.1-0.1","40","39660","Male","391","","","","68","0","5","","Stimuli/Practice_stims/Localizer/yassine-khalfalli-adsQ9d_Cx0c-unsplash.jpg","297757","0","NaN","","0","0","1","400","18200","409","18817","","","","","","","","","","","","","","","","","","","","","","","","","","","","","","","","","","","","","","","","","","","","","","","","","","","","","",""
"","iti_localizer","","html-keyboard-response","109","298475","0.0-2.0-7.1-1.1","40","39660","Male","null","","","","null","","5","","","298166","0","","","","","","300","18600","309","19226","300","","","","","","","","","","","","","","","","","","","","","","","","","","","","","","","","","","","","","","","","","","","","","","","","","","","","",""
"","practice_over","","html-keyboard-response","110","300361","0.0-2.0-7.1-2.1-0.1","40","39660","Male","1878","","","","68","","","","","","","","","","","","","","","","","","","","","","","","","","","","","","","","","","","","","","","","","","","","","","","","","","","","","","","","","","","","","","","","","","","","",""
"","start_run","","html-keyboard-response","111","302137","0.0-2.0-7.1-2.1-1.1","40","39660","Male","1769","","","","84","","","","","","","","","","","","","","","","","","","","","","","","","","","","","","","","","","","","","","","","","","","","","","","","","","","","","","","","","","","","","","","","","","","","",""
"","localizer","","html-keyboard-response","112","302547","0.0-2.0-8.0-0.0","40","39660","Male","NaN","","","","null","NaN","6","","Stimuli/Experimental_stims/localizer/faces/christina-wocintechchat-com-0Zx1bDv5BNY-unsplash.jpg","302137","1","faces","","0","1","0","400","0","410","0","","","","","","","","","","","","","","","","","","","","","","","","","","","","","","","","","","","","","","","","","","","","","","","","","","","","","",""
"","iti_localizer","","html-keyboard-response","113","302857","0.0-2.0-8.0-1.0","40","39660","Male","null","","","","null","","6","","","302547","1","","","","","","300","400","310","410","300","","","","","","","","","","","","","","","","","","","","","","","","","","","","","","","","","","","","","","","","","","","","","","","","","","","","",""
"","localizer","","html-keyboard-response","114","303268","0.0-2.0-9.0-0.0","40","39660","Male","140","","","","68","0","7","","Stimuli/Experimental_stims/localizer/faces/jeffery-erhunse-BQMZ5ligqps-unsplash.jpg","302857","1","faces","","0","0","1","400","700","411","720","","","","","","","","","","","","","","","","","","","","","","","","","","","","","","","","","","","","","","","","","","","","","","","","","","","","","",""
"","iti_localizer","","html-keyboard-response","115","303579","0.0-2.0-9.0-1.0","40","39660","Male","null","","","","null","","7","","","303268","1","","","","","","300","1100","311","1131","300","","","","","","","","","","","","","","","","","","","","","","","","","","","","","","","","","","","","","","","","","","","","","","","","","","","","",""
"","localizer","","html-keyboard-response","116","304018","0.0-2.0-10.0-0.0","40","39660","Male","37","","","","68","0","8","","Stimuli/Experimental_stims/localizer/faces/matheus-ferrero-W7b3eDUb_2I-unsplash.jpg","303579","1","faces","","0","0","1","400","1400","439","1442","","","","","","","","","","","","","","","","","","","","","","","","","","","","","","","","","","","","","","","","","","","","","","","","","","","","","",""
"","iti_localizer","","html-keyboard-response","117","304325","0.0-2.0-10.0-1.0","40","39660","Male","null","","","","null","","8","","","304018","1","","","","","","300","1800","307","1881","300","","","","","","","","","","","","","","","","","","","","","","","","","","","","","","","","","","","","","","","","","","","","","","","","","","","","",""
"","localizer","","html-keyboard-response","118","304735","0.0-2.0-11.0-0.0","40","39660","Male","NaN","","","","null","NaN","9","","Stimuli/Experimental_stims/localizer/faces/jurica-koletic-7YVZYZeITc8-unsplash.jpg","304325","1","faces","","1","1","0","400","2100","410","2188","","","","","","","","","","","","","","","","","","","","","","","","","","","","","","","","","","","","","","","","","","","","","","","","","","","","","",""
"","iti_localizer","","html-keyboard-response","119","305046","0.0-2.0-11.0-1.0","40","39660","Male","null","","","","null","","9","","","304735","1","","","","","","300","2500","311","2598","300","","","","","","","","","","","","","","","","","","","","","","","","","","","","","","","","","","","","","","","","","","","","","","","","","","","","",""
"","localizer","","html-keyboard-response","120","305456","0.0-2.0-12.0-0.0","40","39660","Male","NaN","","","","null","NaN","10","","Stimuli/Experimental_stims/localizer/faces/drew-hays-agGIKYs4mYs-unsplash.jpg","305046","1","faces","","0","1","0","400","2800","410","2909","","","","","","","","","","","","","","","","","","","","","","","","","","","","","","","","","","","","","","","","","","","","","","","","","","","","","",""
"","iti_localizer","","html-keyboard-response","121","305783","0.0-2.0-12.0-1.0","40","39660","Male","null","","","","null","","10","","","305456","1","","","","","","300","3200","327","3319","300","","","","","","","","","","","","","","","","","","","","","","","","","","","","","","","","","","","","","","","","","","","","","","","","","","","","",""
"","localizer","","html-keyboard-response","122","306191","0.0-2.0-13.0-0.0","40","39660","Male","NaN","","","","null","NaN","11","","Stimuli/Experimental_stims/localizer/faces/rui-silvestre-hAMJpesMeDE-unsplash.jpg","305783","1","faces","","0","1","0","400","3500","408","3646","","","","","","","","","","","","","","","","","","","","","","","","","","","","","","","","","","","","","","","","","","","","","","","","","","","","","",""
"","iti_localizer","","html-keyboard-response","123","306499","0.0-2.0-13.0-1.0","40","39660","Male","null","","","","null","","11","","","306191","1","","","","","","300","3900","308","4054","300","","","","","","","","","","","","","","","","","","","","","","","","","","","","","","","","","","","","","","","","","","","","","","","","","","","","",""
"","localizer","","html-keyboard-response","124","306910","0.0-2.0-14.0-0.0","40","39660","Male","NaN","","","","null","NaN","12","","Stimuli/Experimental_stims/localizer/faces/sean-kong--1B_y4wGs-s-unsplash.jpg","306499","1","faces","","0","1","0","400","4200","411","4362","","","","","","","","","","","","","","","","","","","","","","","","","","","","","","","","","","","","","","","","","","","","","","","","","","","","","",""
"","iti_localizer","","html-keyboard-response","125","307218","0.0-2.0-14.0-1.0","40","39660","Male","null","","","","null","","12","","","306910","1","","","","","","300","4600","308","4773","300","","","","","","","","","","","","","","","","","","","","","","","","","","","","","","","","","","","","","","","","","","","","","","","","","","","","",""
"","localizer","","html-keyboard-response","126","307629","0.0-2.0-15.0-0.0","40","39660","Male","NaN","","","","null","NaN","13","","Stimuli/Experimental_stims/localizer/faces/vince-fleming-j3lf-Jn6deo-unsplash.jpg","307218","1","faces","","0","1","0","400","4900","411","5081","","","","","","","","","","","","","","","","","","","","","","","","","","","","","","","","","","","","","","","","","","","","","","","","","","","","","",""
"","iti_localizer","","html-keyboard-response","127","307940","0.0-2.0-15.0-1.0","40","39660","Male","null","","","","null","","13","","","307629","1","","","","","","300","5300","311","5492","300","","","","","","","","","","","","","","","","","","","","","","","","","","","","","","","","","","","","","","","","","","","","","","","","","","","","",""
"","localizer","","html-keyboard-response","128","308351","0.0-2.0-16.0-0.0","40","39660","Male","NaN","","","","null","NaN","14","","Stimuli/Experimental_stims/localizer/faces/tyler-nix-ZGa9d1a_4tA-unsplash.jpg","307940","1","faces","","0","1","0","400","5600","411","5803","","","","","","","","","","","","","","","","","","","","","","","","","","","","","","","","","","","","","","","","","","","","","","","","","","","","","",""
"","iti_localizer","","html-keyboard-response","129","308661","0.0-2.0-16.0-1.0","40","39660","Male","null","","","","null","","14","","","308351","1","","","","","","300","6000","310","6214","300","","","","","","","","","","","","","","","","","","","","","","","","","","","","","","","","","","","","","","","","","","","","","","","","","","","","",""
"","localizer","","html-keyboard-response","130","309069","0.0-2.0-17.0-0.0","40","39660","Male","NaN","","","","null","NaN","15","","Stimuli/Experimental_stims/localizer/faces/abstral-official-cyOKLSgkgCE-unsplash.jpg","308661","1","faces","","0","1","0","400","6300","408","6524","","","","","","","","","","","","","","","","","","","","","","","","","","","","","","","","","","","","","","","","","","","","","","","","","","","","","",""
"","iti_localizer","","html-keyboard-response","131","309377","0.0-2.0-17.0-1.0","40","39660","Male","null","","","","null","","15","","","309069","1","","","","","","300","6700","308","6932","300","","","","","","","","","","","","","","","","","","","","","","","","","","","","","","","","","","","","","","","","","","","","","","","","","","","","",""
"","localizer","","html-keyboard-response","132","309786","0.0-2.0-18.0-0.0","40","39660","Male","NaN","","","","null","NaN","16","","Stimuli/Experimental_stims/localizer/faces/ethan-haddox-__ng3cRXmFE-unsplash.jpg","309377","1","faces","","0","1","0","400","7000","409","7240","","","","","","","","","","","","","","","","","","","","","","","","","","","","","","","","","","","","","","","","","","","","","","","","","","","","","",""
"","iti_localizer","","html-keyboard-response","133","310096","0.0-2.0-18.0-1.0","40","39660","Male","null","","","","null","","16","","","309786","1","","","","","","300","7400","310","7649","300","","","","","","","","","","","","","","","","","","","","","","","","","","","","","","","","","","","","","","","","","","","","","","","","","","","","",""
"","localizer","","html-keyboard-response","134","310507","0.0-2.0-19.0-0.0","40","39660","Male","NaN","","","","null","NaN","17","","Stimuli/Experimental_stims/localizer/faces/foto-sushi-6anudmpILw4-unsplash.jpg","310096","1","faces","","0","1","0","400","7700","411","7959","","","","","","","","","","","","","","","","","","","","","","","","","","","","","","","","","","","","","","","","","","","","","","","","","","","","","",""
"","iti_localizer","","html-keyboard-response","135","310816","0.0-2.0-19.0-1.0","40","39660","Male","null","","","","null","","17","","","310507","1","","","","","","300","8100","309","8370","300","","","","","","","","","","","","","","","","","","","","","","","","","","","","","","","","","","","","","","","","","","","","","","","","","","","","",""
"","localizer","","html-keyboard-response","136","311227","0.0-2.0-20.0-0.0","40","39660","Male","161","","","","68","0","18","","Stimuli/Experimental_stims/localizer/faces/christian-ferrer-8vT-DgHZDG4-unsplash.jpg","310816","1","faces","","0","0","1","400","8400","411","8679","","","","","","","","","","","","","","","","","","","","","","","","","","","","","","","","","","","","","","","","","","","","","","","","","","","","","",""
"","iti_localizer","","html-keyboard-response","137","311537","0.0-2.0-20.0-1.0","40","39660","Male","null","","","","null","","18","","","311227","1","","","","","","300","8800","310","9090","300","","","","","","","","","","","","","","","","","","","","","","","","","","","","","","","","","","","","","","","","","","","","","","","","","","","","",""
"","localizer","","html-keyboard-response","138","311952","0.0-2.0-21.0-0.0","40","39660","Male","302","","","","68","0","19","","Stimuli/Experimental_stims/localizer/faces/stephanie-nakagawa-ADSKIn0ScDg-unsplash.jpg","311537","1","faces","","0","0","1","400","9100","415","9400","","","","","","","","","","","","","","","","","","","","","","","","","","","","","","","","","","","","","","","","","","","","","","","","","","","","","",""
"","iti_localizer","","html-keyboard-response","139","312263","0.0-2.0-21.0-1.0","40","39660","Male","null","","","","null","","19","","","311952","1","","","","","","300","9500","311","9815","300","","","","","","","","","","","","","","","","","","","","","","","","","","","","","","","","","","","","","","","","","","","","","","","","","","","","",""
"","localizer","","html-keyboard-response","140","312676","0.0-2.0-22.0-0.0","40","39660","Male","NaN","","","","null","NaN","20","","Stimuli/Experimental_stims/localizer/faces/toa-heftiba-2O1EUSTRBrY-unsplash.jpg","312263","1","faces","","1","1","0","400","9800","413","10126","","","","","","","","","","","","","","","","","","","","","","","","","","","","","","","","","","","","","","","","","","","","","","","","","","","","","",""
"","iti_localizer","","html-keyboard-response","141","312986","0.0-2.0-22.0-1.0","40","39660","Male","null","","","","null","","20","","","312676","1","","","","","","300","10200","310","10539","300","","","","","","","","","","","","","","","","","","","","","","","","","","","","","","","","","","","","","","","","","","","","","","","","","","","","",""
"","localizer","","html-keyboard-response","142","313395","0.0-2.0-23.0-0.0","40","39660","Male","NaN","","","","null","NaN","21","","Stimuli/Experimental_stims/localizer/faces/darshan-patel-QJEVpydulGs-unsplash.jpg","312986","1","faces","","0","1","0","400","10500","409","10849","","","","","","","","","","","","","","","","","","","","","","","","","","","","","","","","","","","","","","","","","","","","","","","","","","","","","",""
"","iti_localizer","","html-keyboard-response","143","313704","0.0-2.0-23.0-1.0","40","39660","Male","null","","","","null","","21","","","313395","1","","","","","","300","10900","309","11258","300","","","","","","","","","","","","","","","","","","","","","","","","","","","","","","","","","","","","","","","","","","","","","","","","","","","","",""
"","localizer","","html-keyboard-response","144","314113","0.0-2.0-24.0-0.0","40","39660","Male","NaN","","","","null","NaN","22","","Stimuli/Experimental_stims/localizer/faces/mubariz-mehdizadeh-o-wlIFT4zE4-unsplash.jpg","313704","1","faces","","0","1","0","400","11200","409","11567","","","","","","","","","","","","","","","","","","","","","","","","","","","","","","","","","","","","","","","","","","","","","","","","","","","","","",""
"","iti_localizer","","html-keyboard-response","145","314423","0.0-2.0-24.0-1.0","40","39660","Male","null","","","","null","","22","","","314113","1","","","","","","300","11600","310","11976","300","","","","","","","","","","","","","","","","","","","","","","","","","","","","","","","","","","","","","","","","","","","","","","","","","","","","",""
"","localizer","","html-keyboard-response","146","314834","0.0-2.0-25.0-0.0","40","39660","Male","NaN","","","","null","NaN","23","","Stimuli/Experimental_stims/localizer/faces/midas-hofstra-tidSLv-UaNs-unsplash.jpg","314423","1","faces","","0","1","0","400","11900","411","12286","","","","","","","","","","","","","","","","","","","","","","","","","","","","","","","","","","","","","","","","","","","","","","","","","","","","","",""
"","iti_localizer","","html-keyboard-response","147","315152","0.0-2.0-25.0-1.0","40","39660","Male","null","","","","null","","23","","","314834","1","","","","","","300","12300","318","12697","300","","","","","","","","","","","","","","","","","","","","","","","","","","","","","","","","","","","","","","","","","","","","","","","","","","","","",""
"","localizer","","html-keyboard-response","148","315561","0.0-2.0-26.0-0.0","40","39660","Male","400","","","","68","0","24","","Stimuli/Experimental_stims/localizer/faces/toa-heftiba-O3ymvT7Wf9U-unsplash.jpg","315152","1","faces","","0","0","1","400","12600","409","13015","","","","","","","","","","","","","","","","","","","","","","","","","","","","","","","","","","","","","","","","","","","","","","","","","","","","","",""
"","iti_localizer","","html-keyboard-response","149","315869","0.0-2.0-26.0-1.0","40","39660","Male","null","","","","null","","24","","","315561","1","","","","","","300","13000","308","13424","300","","","","","","","","","","","","","","","","","","","","","","","","","","","","","","","","","","","","","","","","","","","","","","","","","","","","",""
"","localizer","","html-keyboard-response","150","316279","0.0-2.0-27.0-0.0","40","39660","Male","359","","","","68","0","25","","Stimuli/Experimental_stims/localizer/faces/katsiaryna-endruszkiewicz-BteCp6aq4GI-unsplash.jpg","315869","1","faces","","0","0","1","400","13300","410","13732","","","","","","","","","","","","","","","","","","","","","","","","","","","","","","","","","","","","","","","","","","","","","","","","","","","","","",""
"","iti_localizer","","html-keyboard-response","151","330287","0.0-2.0-27.0-1.0","40","39660","Male","null","","","","null","","25","","","316279","1","","","","","","14000","13700","14008","14142","14000","","","","","","","","","","","","","","","","","","","","","","","","","","","","","","","","","","","","","","","","","","","","","","","","","","","","",""
"","localizer","","html-keyboard-response","152","330696","0.0-2.0-28.0-0.0","40","39660","Male","NaN","","","","null","NaN","26","","Stimuli/Experimental_stims/localizer/outdoor_scenes/jaanus-jagomagi-FddgewYQF2M-unsplash.jpg","330287","1","outdoor_scenes","","0","1","0","400","27700","409","28150","","","","","","","","","","","","","","","","","","","","","","","","","","","","","","","","","","","","","","","","","","","","","","","","","","","","","",""
"","iti_localizer","","html-keyboard-response","153","331005","0.0-2.0-28.0-1.0","40","39660","Male","null","","","","null","","26","","","330696","1","","","","","","300","28100","309","28559","300","","","","","","","","","","","","","","","","","","","","","","","","","","","","","","","","","","","","","","","","","","","","","","","","","","","","",""
"","localizer","","html-keyboard-response","154","331417","0.0-2.0-29.0-0.0","40","39660","Male","NaN","","","","null","NaN","27","","Stimuli/Experimental_stims/localizer/outdoor_scenes/v2osk-1Z2niiBPg5A-unsplash.jpg","331005","1","outdoor_scenes","","1","1","0","400","28400","412","28868","","","","","","","","","","","","","","","","","","","","","","","","","","","","","","","","","","","","","","","","","","","","","","","","","","","","","",""
"","iti_localizer","","html-keyboard-response","155","331728","0.0-2.0-29.0-1.0","40","39660","Male","null","","","","null","","27","","","331417","1","","","","","","300","28800","311","29280","300","","","","","","","","","","","","","","","","","","","","","","","","","","","","","","","","","","","","","","","","","","","","","","","","","","","","",""
"","localizer","","html-keyboard-response","156","332138","0.0-2.0-30.0-0.0","40","39660","Male","NaN","","","","null","NaN","28","","Stimuli/Experimental_stims/localizer/outdoor_scenes/wai-siew-mTFyV8oNDzU-unsplash.jpg","331728","1","outdoor_scenes","","0","1","0","400","29100","410","29591","","","","","","","","","","","","","","","","","","","","","","","","","","","","","","","","","","","","","","","","","","","","","","","","","","","","","",""
"","iti_localizer","","html-keyboard-response","157","332451","0.0-2.0-30.0-1.0","40","39660","Male","null","","","","null","","28","","","332138","1","","","","","","300","29500","313","30001","300","","","","","","","","","","","","","","","","","","","","","","","","","","","","","","","","","","","","","","","","","","","","","","","","","","","","",""
"","localizer","","html-keyboard-response","158","332862","0.0-2.0-31.0-0.0","40","39660","Male","313","","","","68","0","29","","Stimuli/Experimental_stims/localizer/outdoor_scenes/jay-cai-F_laX9E8CUo-unsplash.jpg","332451","1","outdoor_scenes","","0","0","1","400","29800","411","30314","","","","","","","","","","","","","","","","","","","","","","","","","","","","","","","","","","","","","","","","","","","","","","","","","","","","","",""
"","iti_localizer","","html-keyboard-response","159","333170","0.0-2.0-31.0-1.0","40","39660","Male","null","","","","null","","29","","","332862","1","","","","","","300","30200","308","30725","300","","","","","","","","","","","","","","","","","","","","","","","","","","","","","","","","","","","","","","","","","","","","","","","","","","","","",""
"","localizer","","html-keyboard-response","160","333579","0.0-2.0-32.0-0.0","40","39660","Male","22","","","","68","0","30","","Stimuli/Experimental_stims/localizer/outdoor_scenes/jeremy-cai-ucYWe5mzTMU-unsplash.jpg","333170","1","outdoor_scenes","","0","0","1","400","30500","409","31033","","","","","","","","","","","","","","","","","","","","","","","","","","","","","","","","","","","","","","","","","","","","","","","","","","","","","",""
"","iti_localizer","","html-keyboard-response","161","333888","0.0-2.0-32.0-1.0","40","39660","Male","null","","","","null","","30","","","333579","1","","","","","","300","30900","309","31442","300","","","","","","","","","","","","","","","","","","","","","","","","","","","","","","","","","","","","","","","","","","","","","","","","","","","","",""
"","localizer","","html-keyboard-response","162","334296","0.0-2.0-33.0-0.0","40","39660","Male","138","","","","68","0","31","","Stimuli/Experimental_stims/localizer/outdoor_scenes/erol-ahmed-d3pTF3r_hwY-unsplash.jpg","333888","1","outdoor_scenes","","0","0","1","400","31200","408","31751","","","","","","","","","","","","","","","","","","","","","","","","","","","","","","","","","","","","","","","","","","","","","","","","","","","","","",""
"","iti_localizer","","html-keyboard-response","163","334606","0.0-2.0-33.0-1.0","40","39660","Male","null","","","","null","","31","","","334296","1","","","","","","300","31600","310","32159","300","","","","","","","","","","","","","","","","","","","","","","","","","","","","","","","","","","","","","","","","","","","","","","","","","","","","",""
"","localizer","","html-keyboard-response","164","335017","0.0-2.0-34.0-0.0","40","39660","Male","203","","","","68","0","32","","Stimuli/Experimental_stims/localizer/outdoor_scenes/quino-al-vmZ2DehWQ3Q-unsplash.jpg","334606","1","outdoor_scenes","","0","0","1","400","31900","411","32469","","","","","","","","","","","","","","","","","","","","","","","","","","","","","","","","","","","","","","","","","","","","","","","","","","","","","",""
"","iti_localizer","","html-keyboard-response","165","335333","0.0-2.0-34.0-1.0","40","39660","Male","null","","","","null","","32","","","335017","1","","","","","","300","32300","316","32880","300","","","","","","","","","","","","","","","","","","","","","","","","","","","","","","","","","","","","","","","","","","","","","","","","","","","","",""
"","localizer","","html-keyboard-response","166","335743","0.0-2.0-35.0-0.0","40","39660","Male","76","","","","68","0","33","","Stimuli/Experimental_stims/localizer/outdoor_scenes/kenneth-thewissen-D76DklsG-5U-unsplash.jpg","335333","1","outdoor_scenes","","0","0","1","400","32600","410","33196","","","","","","","","","","","","","","","","","","","","","","","","","","","","","","","","","","","","","","","","","","","","","","","","","","","","","",""
"","iti_localizer","","html-keyboard-response","167","336053","0.0-2.0-35.0-1.0","40","39660","Male","null","","","","null","","33","","","335743","1","","","","","","300","33000","310","33606","300","","","","","","","","","","","","","","","","","","","","","","","","","","","","","","","","","","","","","","","","","","","","","","","","","","","","",""
"","localizer","","html-keyboard-response","168","336464","0.0-2.0-36.0-0.0","40","39660","Male","NaN","","","","null","NaN","34","","Stimuli/Experimental_stims/localizer/outdoor_scenes/johny-goerend-U_diPCXCBxU-unsplash.jpg","336053","1","outdoor_scenes","","0","1","0","400","33300","411","33916","","","","","","","","","","","","","","","","","","","","","","","","","","","","","","","","","","","","","","","","","","","","","","","","","","","","","",""
"","iti_localizer","","html-keyboard-response","169","336772","0.0-2.0-36.0-1.0","40","39660","Male","null","","","","null","","34","","","336464","1","","","","","","300","33700","308","34327","300","","","","","","","","","","","","","","","","","","","","","","","","","","","","","","","","","","","","","","","","","","","","","","","","","","","","",""
"","localizer","","html-keyboard-response","170","337185","0.0-2.0-37.0-0.0","40","39660","Male","310","","","","68","0","35","","Stimuli/Experimental_stims/localizer/outdoor_scenes/ken-cheung-KonWFWUaAuk-unsplash.jpg","336772","1","outdoor_scenes","","0","0","1","400","34000","413","34635","","","","","","","","","","","","","","","","","","","","","","","","","","","","","","","","","","","","","","","","","","","","","","","","","","","","","",""
"","iti_localizer","","html-keyboard-response","171","337495","0.0-2.0-37.0-1.0","40","39660","Male","null","","","","null","","35","","","337185","1","","","","","","300","34400","310","35048","300","","","","","","","","","","","","","","","","","","","","","","","","","","","","","","","","","","","","","","","","","","","","","","","","","","","","",""
"","localizer","","html-keyboard-response","172","337907","0.0-2.0-38.0-0.0","40","39660","Male","127","","","","68","0","36","","Stimuli/Experimental_stims/localizer/outdoor_scenes/alessio-furlan-Vw3a0HgE7AM-unsplash.jpg","337495","1","outdoor_scenes","","0","0","1","400","34700","412","35358","","","","","","","","","","","","","","","","","","","","","","","","","","","","","","","","","","","","","","","","","","","","","","","","","","","","","",""
"","iti_localizer","","html-keyboard-response","173","338216","0.0-2.0-38.0-1.0","40","39660","Male","null","","","","null","","36","","","337907","1","","","","","","300","35100","309","35770","300","","","","","","","","","","","","","","","","","","","","","","","","","","","","","","","","","","","","","","","","","","","","","","","","","","","","",""
"","localizer","","html-keyboard-response","174","338625","0.0-2.0-39.0-0.0","40","39660","Male","NaN","","","","null","NaN","37","","Stimuli/Experimental_stims/localizer/outdoor_scenes/ricardo-gomez-angel-dTSaC-S-7fs-unsplash.jpg","338216","1","outdoor_scenes","","0","1","0","400","35400","409","36079","","","","","","","","","","","","","","","","","","","","","","","","","","","","","","","","","","","","","","","","","","","","","","","","","","","","","",""
"","iti_localizer","","html-keyboard-response","175","338933","0.0-2.0-39.0-1.0","40","39660","Male","null","","","","null","","37","","","338625","1","","","","","","300","35800","308","36488","300","","","","","","","","","","","","","","","","","","","","","","","","","","","","","","","","","","","","","","","","","","","","","","","","","","","","",""
"","localizer","","html-keyboard-response","176","339361","0.0-2.0-40.0-0.0","40","39660","Male","NaN","","","","null","NaN","38","","Stimuli/Experimental_stims/localizer/outdoor_scenes/samuel-ferrara-IEHPDNk2-8w-unsplash.jpg","338933","1","outdoor_scenes","","0","1","0","400","36100","428","36796","","","","","","","","","","","","","","","","","","","","","","","","","","","","","","","","","","","","","","","","","","","","","","","","","","","","","",""
"","iti_localizer","","html-keyboard-response","177","339672","0.0-2.0-40.0-1.0","40","39660","Male","null","","","","null","","38","","","339361","1","","","","","","300","36500","311","37224","300","","","","","","","","","","","","","","","","","","","","","","","","","","","","","","","","","","","","","","","","","","","","","","","","","","","","",""
"","localizer","","html-keyboard-response","178","340083","0.0-2.0-41.0-0.0","40","39660","Male","235","","","","68","0","39","","Stimuli/Experimental_stims/localizer/outdoor_scenes/pietro-de-grandi-T7K4aEPoGGk-unsplash.jpg","339672","1","outdoor_scenes","","0","0","1","400","36800","411","37535","","","","","","","","","","","","","","","","","","","","","","","","","","","","","","","","","","","","","","","","","","","","","","","","","","","","","",""
"","iti_localizer","","html-keyboard-response","179","340392","0.0-2.0-41.0-1.0","40","39660","Male","null","","","","null","","39","","","340083","1","","","","","","300","37200","309","37946","300","","","","","","","","","","","","","","","","","","","","","","","","","","","","","","","","","","","","","","","","","","","","","","","","","","","","",""
"","localizer","","html-keyboard-response","180","340802","0.0-2.0-42.0-0.0","40","39660","Male","83","","","","68","0","40","","Stimuli/Experimental_stims/localizer/outdoor_scenes/tomasz-filipek-CUWC-6MRcNg-unsplash.jpg","340392","1","outdoor_scenes","","0","0","1","400","37500","410","38255","","","","","","","","","","","","","","","","","","","","","","","","","","","","","","","","","","","","","","","","","","","","","","","","","","","","","",""
"","iti_localizer","","html-keyboard-response","181","341113","0.0-2.0-42.0-1.0","40","39660","Male","null","","","","null","","40","","","340802","1","","","","","","300","37900","311","38665","300","","","","","","","","","","","","","","","","","","","","","","","","","","","","","","","","","","","","","","","","","","","","","","","","","","","","",""
"","localizer","","html-keyboard-response","182","341524","0.0-2.0-43.0-0.0","40","39660","Male","31","","","","68","0","41","","Stimuli/Experimental_stims/localizer/outdoor_scenes/cayetano-gil-rguHxZmOF5U-unsplash.jpg","341113","1","outdoor_scenes","","0","0","1","400","38200","411","38976","","","","","","","","","","","","","","","","","","","","","","","","","","","","","","","","","","","","","","","","","","","","","","","","","","","","","",""
"","iti_localizer","","html-keyboard-response","183","341834","0.0-2.0-43.0-1.0","40","39660","Male","null","","","","null","","41","","","341524","1","","","","","","300","38600","310","39387","300","","","","","","","","","","","","","","","","","","","","","","","","","","","","","","","","","","","","","","","","","","","","","","","","","","","","",""
"","localizer","","html-keyboard-response","184","342244","0.0-2.0-44.0-0.0","40","39660","Male","40","","","","68","0","42","","Stimuli/Experimental_stims/localizer/outdoor_scenes/nikola-majksner-hXNGeAFOgT4-unsplash.jpg","341834","1","outdoor_scenes","","0","0","1","400","38900","410","39697","","","","","","","","","","","","","","","","","","","","","","","","","","","","","","","","","","","","","","","","","","","","","","","","","","","","","",""
"","iti_localizer","","html-keyboard-response","185","342555","0.0-2.0-44.0-1.0","40","39660","Male","null","","","","null","","42","","","342244","1","","","","","","300","39300","311","40107","300","","","","","","","","","","","","","","","","","","","","","","","","","","","","","","","","","","","","","","","","","","","","","","","","","","","","",""
"","localizer","","html-keyboard-response","186","342967","0.0-2.0-45.0-0.0","40","39660","Male","NaN","","","","null","NaN","43","","Stimuli/Experimental_stims/localizer/outdoor_scenes/wil-stewart-pHANr-CpbYM-unsplash.jpg","342555","1","outdoor_scenes","","1","1","0","400","39600","412","40418","","","","","","","","","","","","","","","","","","","","","","","","","","","","","","","","","","","","","","","","","","","","","","","","","","","","","",""
"","iti_localizer","","html-keyboard-response","187","343279","0.0-2.0-45.0-1.0","40","39660","Male","null","","","","null","","43","","","342967","1","","","","","","300","40000","312","40830","300","","","","","","","","","","","","","","","","","","","","","","","","","","","","","","","","","","","","","","","","","","","","","","","","","","","","",""
"","localizer","","html-keyboard-response","188","343691","0.0-2.0-46.0-0.0","40","39660","Male","NaN","","","","null","NaN","44","","Stimuli/Experimental_stims/localizer/outdoor_scenes/chang-qing-2YQoKbyGvDc-unsplash.jpg","343279","1","outdoor_scenes","","0","1","0","400","40300","412","41142","","","","","","","","","","","","","","","","","","","","","","","","","","","","","","","","","","","","","","","","","","","","","","","","","","","","","",""
"","iti_localizer","","html-keyboard-response","189","344000","0.0-2.0-46.0-1.0","40","39660","Male","null","","","","null","","44","","","343691","1","","","","","","300","40700","309","41554","300","","","","","","","","","","","","","","","","","","","","","","","","","","","","","","","","","","","","","","","","","","","","","","","","","","","","",""
"","localizer","","html-keyboard-response","190","344412","0.0-2.0-47.0-0.0","40","39660","Male","NaN","","","","null","NaN","45","","Stimuli/Experimental_stims/localizer/outdoor_scenes/solotravelgoals-7kLufxYoqWk-unsplash.jpg","344000","1","outdoor_scenes","","0","1","0","400","41000","412","41863","","","","","","","","","","","","","","","","","","","","","","","","","","","","","","","","","","","","","","","","","","","","","","","","","","","","","",""
"","iti_localizer","","html-keyboard-response","191","358426","0.0-2.0-47.0-1.0","40","39660","Male","null","","","","null","","45","","","344412","1","","","","","","14000","41400","14014","42275","14000","","","","","","","","","","","","","","","","","","","","","","","","","","","","","","","","","","","","","","","","","","","","","","","","","","","","",""
"","localizer","","html-keyboard-response","192","358838","0.0-2.0-48.0-0.0","40","39660","Male","NaN","","","","null","NaN","46","","Stimuli/Experimental_stims/localizer/body_parts/jeremy-bishop-mLd3hAaH2ns-unsplash.jpg","358426","1","body_parts","","0","1","0","400","55400","412","56289","","","","","","","","","","","","","","","","","","","","","","","","","","","","","","","","","","","","","","","","","","","","","","","","","","","","","",""
"","iti_localizer","","html-keyboard-response","193","359202","0.0-2.0-48.0-1.0","40","39660","Male","null","","","","null","","46","","","358838","1","","","","","","300","55800","364","56701","300","","","","","","","","","","","","","","","","","","","","","","","","","","","","","","","","","","","","","","","","","","","","","","","","","","","","",""
"","localizer","","html-keyboard-response","194","359611","0.0-2.0-49.0-0.0","40","39660","Male","NaN","","","","null","NaN","47","","Stimuli/Experimental_stims/localizer/body_parts/lilartsy-1KkhQ8uL28g-unsplash.jpg","359202","1","body_parts","","0","1","0","400","56100","409","57065","","","","","","","","","","","","","","","","","","","","","","","","","","","","","","","","","","","","","","","","","","","","","","","","","","","","","",""
"","iti_localizer","","html-keyboard-response","195","359919","0.0-2.0-49.0-1.0","40","39660","Male","null","","","","null","","47","","","359611","1","","","","","","300","56500","308","57474","300","","","","","","","","","","","","","","","","","","","","","","","","","","","","","","","","","","","","","","","","","","","","","","","","","","","","",""
"","localizer","","html-keyboard-response","196","360329","0.0-2.0-50.0-0.0","40","39660","Male","341","","","","68","0","48","","Stimuli/Experimental_stims/localizer/body_parts/toa-heftiba-qxvWnfHb3-M-unsplash.jpg","359919","1","body_parts","","0","0","1","400","56800","410","57782","","","","","","","","","","","","","","","","","","","","","","","","","","","","","","","","","","","","","","","","","","","","","","","","","","","","","",""
"","iti_localizer","","html-keyboard-response","197","360640","0.0-2.0-50.0-1.0","40","39660","Male","null","","","","null","","48","","","360329","1","","","","","","300","57200","311","58192","300","","","","","","","","","","","","","","","","","","","","","","","","","","","","","","","","","","","","","","","","","","","","","","","","","","","","",""
"","localizer","","html-keyboard-response","198","361049","0.0-2.0-51.0-0.0","40","39660","Male","394","","","","68","0","49","","Stimuli/Experimental_stims/localizer/body_parts/callum-skelton-3KLMq7y46nA-unsplash.jpg","360640","1","body_parts","","1","0","0","400","57500","409","58503","","","","","","","","","","","","","","","","","","","","","","","","","","","","","","","","","","","","","","","","","","","","","","","","","","","","","",""
"","iti_localizer","","html-keyboard-response","199","361358","0.0-2.0-51.0-1.0","40","39660","Male","null","","","","null","","49","","","361049","1","","","","","","300","57900","309","58912","300","","","","","","","","","","","","","","","","","","","","","","","","","","","","","","","","","","","","","","","","","","","","","","","","","","","","",""
"","localizer","","html-keyboard-response","200","361769","0.0-2.0-52.0-0.0","40","39660","Male","NaN","","","","null","NaN","50","","Stimuli/Experimental_stims/localizer/body_parts/ant-rozetsky-bXQd8JXx0vs-unsplash.jpg","361358","1","body_parts","","0","1","0","400","58200","411","59221","","","","","","","","","","","","","","","","","","","","","","","","","","","","","","","","","","","","","","","","","","","","","","","","","","","","","",""
"","iti_localizer","","html-keyboard-response","201","362079","0.0-2.0-52.0-1.0","40","39660","Male","null","","","","null","","50","","","361769","1","","","","","","300","58600","310","59632","300","","","","","","","","","","","","","","","","","","","","","","","","","","","","","","","","","","","","","","","","","","","","","","","","","","","","",""
"","localizer","","html-keyboard-response","202","362490","0.0-2.0-53.0-0.0","40","39660","Male","NaN","","","","null","NaN","51","","Stimuli/Experimental_stims/localizer/body_parts/boyd-christiansen-uVj7kewrZ-o-unsplash.jpg","362079","1","body_parts","","0","1","0","400","58900","411","59942","","","","","","","","","","","","","","","","","","","","","","","","","","","","","","","","","","","","","","","","","","","","","","","","","","","","","",""
"","iti_localizer","","html-keyboard-response","203","362798","0.0-2.0-53.0-1.0","40","39660","Male","null","","","","null","","51","","","362490","1","","","","","","300","59300","308","60353","300","","","","","","","","","","","","","","","","","","","","","","","","","","","","","","","","","","","","","","","","","","","","","","","","","","","","",""
"","localizer","","html-keyboard-response","204","363207","0.0-2.0-54.0-0.0","40","39660","Male","NaN","","","","null","NaN","52","","Stimuli/Experimental_stims/localizer/body_parts/helen-ast-l2iY5Sh0mTg-unsplash.jpg","362798","1","body_parts","","0","1","0","400","59600","409","60661","","","","","","","","","","","","","","","","","","","","","","","","","","","","","","","","","","","","","","","","","","","","","","","","","","","","","",""
"","iti_localizer","","html-keyboard-response","205","363516","0.0-2.0-54.0-1.0","40","39660","Male","null","","","","null","","52","","","363207","1","","","","","","300","60000","309","61070","300","","","","","","","","","","","","","","","","","","","","","","","","","","","","","","","","","","","","","","","","","","","","","","","","","","","","",""
"","localizer","","html-keyboard-response","206","363927","0.0-2.0-55.0-0.0","40","39660","Male","NaN","","","","null","NaN","53","","Stimuli/Experimental_stims/localizer/body_parts/pure-julia-E9Q4bqYHtIM-unsplash.jpg","363516","1","body_parts","","0","1","0","400","60300","411","61379","","","","","","","","","","","","","","","","","","","","","","","","","","","","","","","","","","","","","","","","","","","","","","","","","","","","","",""
"","iti_localizer","","html-keyboard-response","207","364238","0.0-2.0-55.0-1.0","40","39660","Male","null","","","","null","","53","","","363927","1","","","","","","300","60700","311","61790","300","","","","","","","","","","","","","","","","","","","","","","","","","","","","","","","","","","","","","","","","","","","","","","","","","","","","",""
"","localizer","","html-keyboard-response","208","364648","0.0-2.0-56.0-0.0","40","39660","Male","NaN","","","","null","NaN","54","","Stimuli/Experimental_stims/localizer/body_parts/sina-rezakhani-d1gQi0Jl05U-unsplash (1).jpg","364238","1","body_parts","","0","1","0","400","61000","410","62101","","","","","","","","","","","","","","","","","","","","","","","","","","","","","","","","","","","","","","","","","","","","","","","","","","","","","",""
"","iti_localizer","","html-keyboard-response","209","364957","0.0-2.0-56.0-1.0","40","39660","Male","null","","","","null","","54","","","364648","1","","","","","","300","61400","309","62511","300","","","","","","","","","","","","","","","","","","","","","","","","","","","","","","","","","","","","","","","","","","","","","","","","","","","","",""
"","localizer","","html-keyboard-response","210","365365","0.0-2.0-57.0-0.0","40","39660","Male","365","","","","68","0","55","","Stimuli/Experimental_stims/localizer/body_parts/megan-menegay-UojxG_BJxnI-unsplash.jpg","364957","1","body_parts","","0","0","1","400","61700","408","62820","","","","","","","","","","","","","","","","","","","","","","","","","","","","","","","","","","","","","","","","","","","","","","","","","","","","","",""
"","iti_localizer","","html-keyboard-response","211","365674","0.0-2.0-57.0-1.0","40","39660","Male","null","","","","null","","55","","","365365","1","","","","","","300","62100","309","63228","300","","","","","","","","","","","","","","","","","","","","","","","","","","","","","","","","","","","","","","","","","","","","","","","","","","","","",""
"","localizer","","html-keyboard-response","212","366083","0.0-2.0-58.0-0.0","40","39660","Male","NaN","","","","null","NaN","56","","Stimuli/Experimental_stims/localizer/body_parts/sincerely-media-7TBFwUQA6Xk-unsplash.jpg","365674","1","body_parts","","0","1","0","400","62400","409","63537","","","","","","","","","","","","","","","","","","","","","","","","","","","","","","","","","","","","","","","","","","","","","","","","","","","","","",""
"","iti_localizer","","html-keyboard-response","213","366393","0.0-2.0-58.0-1.0","40","39660","Male","null","","","","null","","56","","","366083","1","","","","","","300","62800","310","63946","300","","","","","","","","","","","","","","","","","","","","","","","","","","","","","","","","","","","","","","","","","","","","","","","","","","","","",""
"","localizer","","html-keyboard-response","214","366803","0.0-2.0-59.0-0.0","40","39660","Male","NaN","","","","null","NaN","57","","Stimuli/Experimental_stims/localizer/body_parts/sincerely-media-pdynOoM7xmA-unsplash.jpg","366393","1","body_parts","","0","1","0","400","63100","410","64256","","","","","","","","","","","","","","","","","","","","","","","","","","","","","","","","","","","","","","","","","","","","","","","","","","","","","",""
"","iti_localizer","","html-keyboard-response","215","367113","0.0-2.0-59.0-1.0","40","39660","Male","null","","","","null","","57","","","366803","1","","","","","","300","63500","310","64666","300","","","","","","","","","","","","","","","","","","","","","","","","","","","","","","","","","","","","","","","","","","","","","","","","","","","","",""
"","localizer","","html-keyboard-response","216","367525","0.0-2.0-60.0-0.0","40","39660","Male","NaN","","","","null","NaN","58","","Stimuli/Experimental_stims/localizer/body_parts/adrien-king-XzBluXxBoyQ-unsplash.jpg","367113","1","body_parts","","0","1","0","400","63800","412","64976","","","","","","","","","","","","","","","","","","","","","","","","","","","","","","","","","","","","","","","","","","","","","","","","","","","","","",""
"","iti_localizer","","html-keyboard-response","217","367833","0.0-2.0-60.0-1.0","40","39660","Male","null","","","","null","","58","","","367525","1","","","","","","300","64200","308","65388","300","","","","","","","","","","","","","","","","","","","","","","","","","","","","","","","","","","","","","","","","","","","","","","","","","","","","",""
"","localizer","","html-keyboard-response","218","368243","0.0-2.0-61.0-0.0","40","39660","Male","NaN","","","","null","NaN","59","","Stimuli/Experimental_stims/localizer/body_parts/nattalia-nunez-MB9sdDfZMSg-unsplash.jpg","367833","1","body_parts","","1","1","0","400","64500","410","65696","","","","","","","","","","","","","","","","","","","","","","","","","","","","","","","","","","","","","","","","","","","","","","","","","","","","","",""
"","iti_localizer","","html-keyboard-response","219","368552","0.0-2.0-61.0-1.0","40","39660","Male","null","","","","null","","59","","","368243","1","","","","","","300","64900","309","66106","300","","","","","","","","","","","","","","","","","","","","","","","","","","","","","","","","","","","","","","","","","","","","","","","","","","","","",""
"","localizer","","html-keyboard-response","220","368963","0.0-2.0-62.0-0.0","40","39660","Male","218","","","","68","0","60","","Stimuli/Experimental_stims/localizer/body_parts/louis-hansel-FjKTMRTQYAs-unsplash.jpg","368552","1","body_parts","","0","0","1","400","65200","411","66415","","","","","","","","","","","","","","","","","","","","","","","","","","","","","","","","","","","","","","","","","","","","","","","","","","","","","",""
"","iti_localizer","","html-keyboard-response","221","369272","0.0-2.0-62.0-1.0","40","39660","Male","null","","","","null","","60","","","368963","1","","","","","","300","65600","309","66826","300","","","","","","","","","","","","","","","","","","","","","","","","","","","","","","","","","","","","","","","","","","","","","","","","","","","","",""
"","localizer","","html-keyboard-response","222","369681","0.0-2.0-63.0-0.0","40","39660","Male","297","","","","68","0","61","","Stimuli/Experimental_stims/localizer/body_parts/jonathan-borba-hTwH8QFkPMs-unsplash.jpg","369272","1","body_parts","","0","0","1","400","65900","409","67135","","","","","","","","","","","","","","","","","","","","","","","","","","","","","","","","","","","","","","","","","","","","","","","","","","","","","",""
"","iti_localizer","","html-keyboard-response","223","369992","0.0-2.0-63.0-1.0","40","39660","Male","null","","","","null","","61","","","369681","1","","","","","","300","66300","311","67544","300","","","","","","","","","","","","","","","","","","","","","","","","","","","","","","","","","","","","","","","","","","","","","","","","","","","","",""
"","localizer","","html-keyboard-response","224","370402","0.0-2.0-64.0-0.0","40","39660","Male","NaN","","","","null","NaN","62","","Stimuli/Experimental_stims/localizer/body_parts/hu-chen-tCbTGNwrFNM-unsplash.jpg","369992","1","body_parts","","0","1","0","400","66600","410","67855","","","","","","","","","","","","","","","","","","","","","","","","","","","","","","","","","","","","","","","","","","","","","","","","","","","","","",""
"","iti_localizer","","html-keyboard-response","225","370711","0.0-2.0-64.0-1.0","40","39660","Male","null","","","","null","","62","","","370402","1","","","","","","300","67000","309","68265","300","","","","","","","","","","","","","","","","","","","","","","","","","","","","","","","","","","","","","","","","","","","","","","","","","","","","",""
"","localizer","","html-keyboard-response","226","371121","0.0-2.0-65.0-0.0","40","39660","Male","NaN","","","","null","NaN","63","","Stimuli/Experimental_stims/localizer/body_parts/danie-franco-jyyNiSEcCl4-unsplash.jpg","370711","1","body_parts","","0","1","0","400","67300","410","68574","","","","","","","","","","","","","","","","","","","","","","","","","","","","","","","","","","","","","","","","","","","","","","","","","","","","","",""
"","iti_localizer","","html-keyboard-response","227","371432","0.0-2.0-65.0-1.0","40","39660","Male","null","","","","null","","63","","","371121","1","","","","","","300","67700","311","68984","300","","","","","","","","","","","","","","","","","","","","","","","","","","","","","","","","","","","","","","","","","","","","","","","","","","","","",""
"","localizer","","html-keyboard-response","228","371849","0.0-2.0-66.0-0.0","40","39660","Male","NaN","","","","null","NaN","64","","Stimuli/Experimental_stims/localizer/body_parts/natalie-grainger-8uB5kFKWWkk-unsplash.jpg","371432","1","body_parts","","0","1","0","400","68000","417","69295","","","","","","","","","","","","","","","","","","","","","","","","","","","","","","","","","","","","","","","","","","","","","","","","","","","","","",""
"","iti_localizer","","html-keyboard-response","229","372160","0.0-2.0-66.0-1.0","40","39660","Male","null","","","","null","","64","","","371849","1","","","","","","300","68400","311","69712","300","","","","","","","","","","","","","","","","","","","","","","","","","","","","","","","","","","","","","","","","","","","","","","","","","","","","",""
"","localizer","","html-keyboard-response","230","372569","0.0-2.0-67.0-0.0","40","39660","Male","NaN","","","","null","NaN","65","","Stimuli/Experimental_stims/localizer/body_parts/apostolos-vamvouras-g5wKHRu2QW0-unsplash.jpg","372160","1","body_parts","","0","1","0","400","68700","409","70023","","","","","","","","","","","","","","","","","","","","","","","","","","","","","","","","","","","","","","","","","","","","","","","","","","","","","",""
"","iti_localizer","","html-keyboard-response","231","386578","0.0-2.0-67.0-1.0","40","39660","Male","null","","","","null","","65","","","372569","1","","","","","","14000","69100","14009","70432","14000","","","","","","","","","","","","","","","","","","","","","","","","","","","","","","","","","","","","","","","","","","","","","","","","","","","","",""
"","localizer","","html-keyboard-response","232","386988","0.0-2.0-68.0-0.0","40","39660","Male","NaN","","","","null","NaN","66","","Stimuli/Experimental_stims/localizer/objects/quaritsch-photography-lZ8onQ1wuY8-unsplash.jpg","386578","1","objects","","1","1","0","400","83100","410","84441","","","","","","","","","","","","","","","","","","","","","","","","","","","","","","","","","","","","","","","","","","","","","","","","","","","","","",""
"","iti_localizer","","html-keyboard-response","233","387298","0.0-2.0-68.0-1.0","40","39660","Male","null","","","","null","","66","","","386988","1","","","","","","300","83500","310","84851","300","","","","","","","","","","","","","","","","","","","","","","","","","","","","","","","","","","","","","","","","","","","","","","","","","","","","",""
"","localizer","","html-keyboard-response","234","387709","0.0-2.0-69.0-0.0","40","39660","Male","252","","","","75","1","67","","Stimuli/Experimental_stims/localizer/objects/ana-9GmAaEMMKho-unsplash.jpg","387298","1","objects","","0","0","0","400","83800","411","85161","","","","","","","","","","","","","","","","","","","","","","","","","","","","","","","","","","","","","","","","","","","","","","","","","","","","","",""
"","iti_localizer","","html-keyboard-response","235","388018","0.0-2.0-69.0-1.0","40","39660","Male","null","","","","null","","67","","","387709","1","","","","","","300","84200","309","85572","300","","","","","","","","","","","","","","","","","","","","","","","","","","","","","","","","","","","","","","","","","","","","","","","","","","","","",""
"","localizer","","html-keyboard-response","236","388431","0.0-2.0-70.0-0.0","40","39660","Male","NaN","","","","null","NaN","68","","Stimuli/Experimental_stims/localizer/objects/nordwood-themes-nDd3dIkkOLo-unsplash.jpg","388018","1","objects","","0","1","0","400","84500","413","85881","","","","","","","","","","","","","","","","","","","","","","","","","","","","","","","","","","","","","","","","","","","","","","","","","","","","","",""
"","iti_localizer","","html-keyboard-response","237","388741","0.0-2.0-70.0-1.0","40","39660","Male","null","","","","null","","68","","","388431","1","","","","","","300","84900","310","86294","300","","","","","","","","","","","","","","","","","","","","","","","","","","","","","","","","","","","","","","","","","","","","","","","","","","","","",""
"","localizer","","html-keyboard-response","238","389150","0.0-2.0-71.0-0.0","40","39660","Male","NaN","","","","null","NaN","69","","Stimuli/Experimental_stims/localizer/objects/kelly-jean-cKjbI0Y00X0-unsplash.jpg","388741","1","objects","","0","1","0","400","85200","409","86604","","","","","","","","","","","","","","","","","","","","","","","","","","","","","","","","","","","","","","","","","","","","","","","","","","","","","",""
"","iti_localizer","","html-keyboard-response","239","389461","0.0-2.0-71.0-1.0","40","39660","Male","null","","","","null","","69","","","389150","1","","","","","","300","85600","311","87013","300","","","","","","","","","","","","","","","","","","","","","","","","","","","","","","","","","","","","","","","","","","","","","","","","","","","","",""
"","localizer","","html-keyboard-response","240","389871","0.0-2.0-72.0-0.0","40","39660","Male","377","","","","68","0","70","","Stimuli/Experimental_stims/localizer/objects/florian-klauer-nptLmg6jqDo-unsplash.jpg","389461","1","objects","","0","0","1","400","85900","410","87324","","","","","","","","","","","","","","","","","","","","","","","","","","","","","","","","","","","","","","","","","","","","","","","","","","","","","",""
"","iti_localizer","","html-keyboard-response","241","390181","0.0-2.0-72.0-1.0","40","39660","Male","null","","","","null","","70","","","389871","1","","","","","","300","86300","310","87734","300","","","","","","","","","","","","","","","","","","","","","","","","","","","","","","","","","","","","","","","","","","","","","","","","","","","","",""
"","localizer","","html-keyboard-response","242","390614","0.0-2.0-73.0-0.0","40","39660","Male","349","","","","68","0","71","","Stimuli/Experimental_stims/localizer/objects/nicolas-hippert-SVgX47QIUlc-unsplash.jpg","390181","1","objects","","0","0","1","400","86600","433","88044","","","","","","","","","","","","","","","","","","","","","","","","","","","","","","","","","","","","","","","","","","","","","","","","","","","","","",""
"","iti_localizer","","html-keyboard-response","243","390924","0.0-2.0-73.0-1.0","40","39660","Male","null","","","","null","","71","","","390614","1","","","","","","300","87000","310","88477","300","","","","","","","","","","","","","","","","","","","","","","","","","","","","","","","","","","","","","","","","","","","","","","","","","","","","",""
"","localizer","","html-keyboard-response","244","391333","0.0-2.0-74.0-0.0","40","39660","Male","NaN","","","","null","NaN","72","","Stimuli/Experimental_stims/localizer/objects/florian-klauer-mk7D-4UCfmg-unsplash.jpg","390924","1","objects","","0","1","0","400","87300","409","88787","","","","","","","","","","","","","","","","","","","","","","","","","","","","","","","","","","","","","","","","","","","","","","","","","","","","","",""
"","iti_localizer","","html-keyboard-response","245","391643","0.0-2.0-74.0-1.0","40","39660","Male","null","","","","null","","72","","","391333","1","","","","","","300","87700","310","89196","300","","","","","","","","","","","","","","","","","","","","","","","","","","","","","","","","","","","","","","","","","","","","","","","","","","","","",""
"","localizer","","html-keyboard-response","246","392053","0.0-2.0-75.0-0.0","40","39660","Male","NaN","","","","null","NaN","73","","Stimuli/Experimental_stims/localizer/objects/alex-lvrs-2zDw14yCYqk-unsplash.jpg","391643","1","objects","","0","1","0","400","88000","410","89506","","","","","","","","","","","","","","","","","","","","","","","","","","","","","","","","","","","","","","","","","","","","","","","","","","","","","",""
"","iti_localizer","","html-keyboard-response","247","392364","0.0-2.0-75.0-1.0","40","39660","Male","null","","","","null","","73","","","392053","1","","","","","","300","88400","311","89916","300","","","","","","","","","","","","","","","","","","","","","","","","","","","","","","","","","","","","","","","","","","","","","","","","","","","","",""
