"success","ttype","start_time","trial_type","trial_index","time_elapsed","internal_node_id","age","PID","gender","rt","responses","view_history","repeat_instructions","key_press","response","index","stimulus_index","path","start_time_elapsed","run","task","isi","is_odd_ball","no_response","acc","duration","onset","duration_time_elapsed","onset_time_elapsed","trial_duration","left_chosen","chosen_stimulus","unchosen_stimulus","chosen_category","unchosen_category","chosen_rating","unchosen_rating","chosen_path","unchosen_path","pair_id","practice","scramble_screen_time","scramble_instructed_side","stim_type","iti","block","left_stimulus","right_stimulus","left_category","right_category","left_path","right_path","left_rating","right_rating","scramble_acc","scramble_no_response","warning","missed_checkup","stimulus_id","item_id","outcome","response_rt","deliberation_reward_tally","choice_type","gain_left","left_item_id","right_item_id","higher_outcome_chosen","chosen_left","old_pair","pair_type","old_response","pair_acc","reward_type","outcome_response","outcome_rt","outcome_acc","category","choice","deliberated_stim","old_rating","new_rating","total_reward_tally"
"true","full_screen","d08172023hr1553","fullscreen","0","12157","0.0-0.0-0.0","34","88358","male","","","","","","","","","","","","","","","","","","","","","","","","","","","","","","","","","","","","","","","","","","","","","","","","","","","","","","","","","","","","","","","","","","","","","","","","","",""
"","get_id","","survey-text","1","17006","0.0-0.0-1.0","34","88358","male","4847","{""Q0"":""34"",""Q1"":""male""}","","","","","","","","","","","","","","","","","","","","","","","","","","","","","","","","","","","","","","","","","","","","","","","","","","","","","","","","","","","","","","","","","","","","","","","",""
"","ratings_instructions","","instructions","2","25811","0.0-1.0-0.0-0.0","34","88358","male","8311","","[{""page_index"":0,""viewing_time"":5679},{""page_index"":1,""viewing_time"":2631}]","","","","","","","","","","","","","","","","","","","","","","","","","","","","","","","","","","","","","","","","","","","","","","","","","","","","","","","","","","","","","","","","","","","","","","",""
"","rating_comprehension_check","","survey-multi-choice","3","30473","0.0-1.0-0.0-1.0","34","88358","male","4659","{""Q0"":""True"",""Q1"":""Mouse""}","","0","","","","","","","","","","","","","","","","","","","","","","","","","","","","","","","","","","","","","","","","","","","","","","","","","","","","","","","","","","","","","","","","","","","","","",""
"","","","html-keyboard-response","4","33271","0.0-1.0-1.0","34","88358","male","2795","","","","68","","","","","","","","","","","","","","","","","","","","","","","","","","","","","","","","","","","","","","","","","","","","","","","","","","","","","","","","","","","","","","","","","","","","",""
"","rating","","html-slider-response","5","37256","0.0-1.0-2.0","34","88358","male","3982","","","","","93","0","11","Stimuli/Experimental_stims/outdoor_scenes/stephen-leonardi-gyIRjKPXupE-unsplash.jpg","","","","","","","","","","","","","","","","","","","","","","","","","","","","","","","","","","","","","","","","","","","","","","","","","","","","","","","","","","","","","","","","",""
"","rating","","html-slider-response","6","44182","0.0-1.0-3.0","34","88358","male","6923","","","","","69","1","37","Stimuli/Experimental_stims/objects/alexander-andrews-VLGWE_SumrA-unsplash.jpg","","","","","","","","","","","","","","","","","","","","","","","","","","","","","","","","","","","","","","","","","","","","","","","","","","","","","","","","","","","","","","","","",""
"","rating","","html-slider-response","7","50110","0.0-1.0-4.0","34","88358","male","5925","","","","","57","2","43","Stimuli/Experimental_stims/objects/jonathan-greenaway-Y4hGgeiFn3s-unsplash.jpg","","","","","","","","","","","","","","","","","","","","","","","","","","","","","","","","","","","","","","","","","","","","","","","","","","","","","","","","","","","","","","","","",""
"","rating","","html-slider-response","8","53323","0.0-1.0-5.0","34","88358","male","3210","","","","","53","3","45","Stimuli/Experimental_stims/objects/leohoho-rngTKHXumy0-unsplash.jpg","","","","","","","","","","","","","","","","","","","","","","","","","","","","","","","","","","","","","","","","","","","","","","","","","","","","","","","","","","","","","","","","",""
"","rating","","html-slider-response","9","56519","0.0-1.0-6.0","34","88358","male","3193","","","","","66","4","1","Stimuli/Experimental_stims/outdoor_scenes/ashim-d-silva-S2Q5mdOrrVc-unsplash.jpg","","","","","","","","","","","","","","","","","","","","","","","","","","","","","","","","","","","","","","","","","","","","","","","","","","","","","","","","","","","","","","","","",""
"","rating","","html-slider-response","10","59316","0.0-1.0-7.0","34","88358","male","2794","","","","","68","5","4","Stimuli/Experimental_stims/outdoor_scenes/jarrett-kow-1ZOyYPOBn7I-unsplash.jpg","","","","","","","","","","","","","","","","","","","","","","","","","","","","","","","","","","","","","","","","","","","","","","","","","","","","","","","","","","","","","","","","",""
"","rating","","html-slider-response","11","63795","0.0-1.0-8.0","34","88358","male","4476","","","","","49","6","35","Stimuli/Experimental_stims/body_parts/wc-so-KH4AAPjb-tI-unsplash.jpg","","","","","","","","","","","","","","","","","","","","","","","","","","","","","","","","","","","","","","","","","","","","","","","","","","","","","","","","","","","","","","","","",""
"","rating","","html-slider-response","12","68546","0.0-1.0-9.0","34","88358","male","4747","","","","","49","7","24","Stimuli/Experimental_stims/body_parts/clay-banks-LjqARJaJotc-unsplash.jpg","","","","","","","","","","","","","","","","","","","","","","","","","","","","","","","","","","","","","","","","","","","","","","","","","","","","","","","","","","","","","","","","",""
"","rating","","html-slider-response","13","71588","0.0-1.0-10.0","34","88358","male","3040","","","","","88","8","6","Stimuli/Experimental_stims/outdoor_scenes/meng-ji-8BH_M-53CyA-unsplash.jpg","","","","","","","","","","","","","","","","","","","","","","","","","","","","","","","","","","","","","","","","","","","","","","","","","","","","","","","","","","","","","","","","",""
"","rating","","html-slider-response","14","76703","0.0-1.0-11.0","34","88358","male","5112","","","","","100","9","3","Stimuli/Experimental_stims/outdoor_scenes/henry-be-NLF6hTe4PAg-unsplash.jpg","","","","","","","","","","","","","","","","","","","","","","","","","","","","","","","","","","","","","","","","","","","","","","","","","","","","","","","","","","","","","","","","",""
"","rating","","html-slider-response","15","80273","0.0-1.0-12.0","34","88358","male","3567","","","","","100","10","5","Stimuli/Experimental_stims/outdoor_scenes/jeff-king-bJHWJeiHfHc-unsplash.jpg","","","","","","","","","","","","","","","","","","","","","","","","","","","","","","","","","","","","","","","","","","","","","","","","","","","","","","","","","","","","","","","","",""
"","rating","","html-slider-response","16","83885","0.0-1.0-13.0","34","88358","male","3609","","","","","50","11","25","Stimuli/Experimental_stims/body_parts/engin-akyurt-Q2rfH3GW39c-unsplash.jpg","","","","","","","","","","","","","","","","","","","","","","","","","","","","","","","","","","","","","","","","","","","","","","","","","","","","","","","","","","","","","","","","",""
"","rating","","html-slider-response","17","86436","0.0-1.0-14.0","34","88358","male","2547","","","","","50","12","21","Stimuli/Experimental_stims/faces/leilani-angel-K84vnnzxmTQ-unsplash.jpg","","","","","","","","","","","","","","","","","","","","","","","","","","","","","","","","","","","","","","","","","","","","","","","","","","","","","","","","","","","","","","","","",""
"","rating","","html-slider-response","18","90093","0.0-1.0-15.0","34","88358","male","3655","","","","","50","13","40","Stimuli/Experimental_stims/objects/fabian-blank-pElSkGRA2NU-unsplash.jpg","","","","","","","","","","","","","","","","","","","","","","","","","","","","","","","","","","","","","","","","","","","","","","","","","","","","","","","","","","","","","","","","",""
"","rating","","html-slider-response","19","92407","0.0-1.0-16.0","34","88358","male","2311","","","","","50","14","46","Stimuli/Experimental_stims/objects/mockup-graphics-PNsj6RiHAF4-unsplash.jpg","","","","","","","","","","","","","","","","","","","","","","","","","","","","","","","","","","","","","","","","","","","","","","","","","","","","","","","","","","","","","","","","",""
"","rating","","html-slider-response","20","97478","0.0-1.0-17.0","34","88358","male","5068","","","","","50","15","34","Stimuli/Experimental_stims/body_parts/wagner-santos-mBWMvIuVnso-unsplash.jpg","","","","","","","","","","","","","","","","","","","","","","","","","","","","","","","","","","","","","","","","","","","","","","","","","","","","","","","","","","","","","","","","",""
"","rating","","html-slider-response","21","100948","0.0-1.0-18.0","34","88358","male","3467","","","","","50","16","32","Stimuli/Experimental_stims/body_parts/towfiqu-barbhuiya-3AsiVDsZnHg-unsplash.jpg","","","","","","","","","","","","","","","","","","","","","","","","","","","","","","","","","","","","","","","","","","","","","","","","","","","","","","","","","","","","","","","","",""
"","rating","","html-slider-response","22","104093","0.0-1.0-19.0","34","88358","male","3142","","","","","50","17","18","Stimuli/Experimental_stims/faces/jessica-radanavong-mrYkTuAesKE-unsplash.jpg","","","","","","","","","","","","","","","","","","","","","","","","","","","","","","","","","","","","","","","","","","","","","","","","","","","","","","","","","","","","","","","","",""
"","rating","","html-slider-response","23","109395","0.0-1.0-20.0","34","88358","male","5298","","","","","51","18","22","Stimuli/Experimental_stims/faces/ravi-patel-VMGAbeeJTKo-unsplash.jpg","","","","","","","","","","","","","","","","","","","","","","","","","","","","","","","","","","","","","","","","","","","","","","","","","","","","","","","","","","","","","","","","",""
"","rating","","html-slider-response","24","111840","0.0-1.0-21.0","34","88358","male","2443","","","","","50","19","33","Stimuli/Experimental_stims/body_parts/tucker-good-36skLT5jZcc-unsplash.jpg","","","","","","","","","","","","","","","","","","","","","","","","","","","","","","","","","","","","","","","","","","","","","","","","","","","","","","","","","","","","","","","","",""
"","rating","","html-slider-response","25","114589","0.0-1.0-22.0","34","88358","male","2746","","","","","50","20","47","Stimuli/Experimental_stims/objects/ronaldo-arthur-vidal-Cdz_lvnl37k-unsplash.jpg","","","","","","","","","","","","","","","","","","","","","","","","","","","","","","","","","","","","","","","","","","","","","","","","","","","","","","","","","","","","","","","","",""
"","rating","","html-slider-response","26","117965","0.0-1.0-23.0","34","88358","male","3374","","","","","50","21","20","Stimuli/Experimental_stims/faces/justin-chen-J7Cf1Gch49E-unsplash.jpg","","","","","","","","","","","","","","","","","","","","","","","","","","","","","","","","","","","","","","","","","","","","","","","","","","","","","","","","","","","","","","","","",""
"","rating","","html-slider-response","27","122939","0.0-1.0-24.0","34","88358","male","4971","","","","","64","22","19","Stimuli/Experimental_stims/faces/joel-mott-LaK153ghdig-unsplash.jpg","","","","","","","","","","","","","","","","","","","","","","","","","","","","","","","","","","","","","","","","","","","","","","","","","","","","","","","","","","","","","","","","",""
"","rating","","html-slider-response","28","125798","0.0-1.0-25.0","34","88358","male","2855","","","","","50","23","42","Stimuli/Experimental_stims/objects/jess-bailey-nOeVi8DsN8U-unsplash.jpg","","","","","","","","","","","","","","","","","","","","","","","","","","","","","","","","","","","","","","","","","","","","","","","","","","","","","","","","","","","","","","","","",""
"","rating","","html-slider-response","29","128582","0.0-1.0-26.0","34","88358","male","2781","","","","","50","24","26","Stimuli/Experimental_stims/body_parts/engin-akyurt-x_3gyC42btc-unsplash.jpg","","","","","","","","","","","","","","","","","","","","","","","","","","","","","","","","","","","","","","","","","","","","","","","","","","","","","","","","","","","","","","","","",""
"","rating","","html-slider-response","30","131042","0.0-1.0-27.0","34","88358","male","2457","","","","","51","25","36","Stimuli/Experimental_stims/objects/alexander-andrews-JYGnB9gTCls-unsplash.jpg","","","","","","","","","","","","","","","","","","","","","","","","","","","","","","","","","","","","","","","","","","","","","","","","","","","","","","","","","","","","","","","","",""
"","rating","","html-slider-response","31","133438","0.0-1.0-28.0","34","88358","male","2394","","","","","50","26","41","Stimuli/Experimental_stims/objects/insung-yoon-w2JtIQQXoRU-unsplash.jpg","","","","","","","","","","","","","","","","","","","","","","","","","","","","","","","","","","","","","","","","","","","","","","","","","","","","","","","","","","","","","","","","",""
"","rating","","html-slider-response","32","137199","0.0-1.0-29.0","34","88358","male","3758","","","","","62","27","0","Stimuli/Experimental_stims/outdoor_scenes/aleksandra-boguslawska-MS7KD9Ti7FQ-unsplash.jpg","","","","","","","","","","","","","","","","","","","","","","","","","","","","","","","","","","","","","","","","","","","","","","","","","","","","","","","","","","","","","","","","",""
"","rating","","html-slider-response","33","143410","0.0-1.0-30.0","34","88358","male","6207","","","","","67","28","29","Stimuli/Experimental_stims/body_parts/manuel-schinner-ZwjFuJ7ebpk-unsplash.jpg","","","","","","","","","","","","","","","","","","","","","","","","","","","","","","","","","","","","","","","","","","","","","","","","","","","","","","","","","","","","","","","","",""
"","rating","","html-slider-response","34","146398","0.0-1.0-31.0","34","88358","male","2985","","","","","50","29","39","Stimuli/Experimental_stims/objects/charlesdeluvio-1-nx1QR5dTE-unsplash.jpg","","","","","","","","","","","","","","","","","","","","","","","","","","","","","","","","","","","","","","","","","","","","","","","","","","","","","","","","","","","","","","","","",""
"","rating","","html-slider-response","35","154207","0.0-1.0-32.0","34","88358","male","7807","","","","","81","30","27","Stimuli/Experimental_stims/body_parts/heike-mintel-i_Gns0ELnLw-unsplash.jpg","","","","","","","","","","","","","","","","","","","","","","","","","","","","","","","","","","","","","","","","","","","","","","","","","","","","","","","","","","","","","","","","",""
"","rating","","html-slider-response","36","157266","0.0-1.0-33.0","34","88358","male","3056","","","","","67","31","16","Stimuli/Experimental_stims/faces/freddy-kearney-o-ioeoATbIM-unsplash.jpg","","","","","","","","","","","","","","","","","","","","","","","","","","","","","","","","","","","","","","","","","","","","","","","","","","","","","","","","","","","","","","","","",""
"","rating","","html-slider-response","37","159248","0.0-1.0-34.0","34","88358","male","1979","","","","","61","32","8","Stimuli/Experimental_stims/outdoor_scenes/samsommer-vddccTqwal8-unsplash.jpg","","","","","","","","","","","","","","","","","","","","","","","","","","","","","","","","","","","","","","","","","","","","","","","","","","","","","","","","","","","","","","","","",""
"","rating","","html-slider-response","38","161765","0.0-1.0-35.0","34","88358","male","2514","","","","","60","33","38","Stimuli/Experimental_stims/objects/art-lasovsky-8XddFc6NkBY-unsplash.jpg","","","","","","","","","","","","","","","","","","","","","","","","","","","","","","","","","","","","","","","","","","","","","","","","","","","","","","","","","","","","","","","","",""
"","rating","","html-slider-response","39","164497","0.0-1.0-36.0","34","88358","male","2729","","","","","50","34","30","Stimuli/Experimental_stims/body_parts/mika-korhonen-Xodzxosar18-unsplash.jpg","","","","","","","","","","","","","","","","","","","","","","","","","","","","","","","","","","","","","","","","","","","","","","","","","","","","","","","","","","","","","","","","",""
"","rating","","html-slider-response","40","171416","0.0-1.0-37.0","34","88358","male","6916","","","","","73","35","23","Stimuli/Experimental_stims/faces/rikonavt-HQjfrvdTfak-unsplash.jpg","","","","","","","","","","","","","","","","","","","","","","","","","","","","","","","","","","","","","","","","","","","","","","","","","","","","","","","","","","","","","","","","",""
"","rating","","html-slider-response","41","174015","0.0-1.0-38.0","34","88358","male","2596","","","","","77","36","10","Stimuli/Experimental_stims/outdoor_scenes/shannon-kunkle-dM8INmkyDas-unsplash.jpg","","","","","","","","","","","","","","","","","","","","","","","","","","","","","","","","","","","","","","","","","","","","","","","","","","","","","","","","","","","","","","","","",""
"","rating","","html-slider-response","42","181351","0.0-1.0-39.0","34","88358","male","7333","","","","","75","37","12","Stimuli/Experimental_stims/faces/aiony-haust-jmATI5Q_YgY-unsplash.jpg","","","","","","","","","","","","","","","","","","","","","","","","","","","","","","","","","","","","","","","","","","","","","","","","","","","","","","","","","","","","","","","","",""
"","rating","","html-slider-response","43","186427","0.0-1.0-40.0","34","88358","male","5073","","","","","64","38","31","Stimuli/Experimental_stims/body_parts/sincerely-media-VN6DbKajo5s-unsplash.jpg","","","","","","","","","","","","","","","","","","","","","","","","","","","","","","","","","","","","","","","","","","","","","","","","","","","","","","","","","","","","","","","","",""
"","rating","","html-slider-response","44","189650","0.0-1.0-41.0","34","88358","male","3220","","","","","70","39","7","Stimuli/Experimental_stims/outdoor_scenes/petr-vysohlid-9fqwGqGLUxc-unsplash.jpg","","","","","","","","","","","","","","","","","","","","","","","","","","","","","","","","","","","","","","","","","","","","","","","","","","","","","","","","","","","","","","","","",""
"","rating","","html-slider-response","45","192942","0.0-1.0-42.0","34","88358","male","3289","","","","","74","40","15","Stimuli/Experimental_stims/faces/erik-lucatero-d2MSDujJl2g-unsplash.jpg","","","","","","","","","","","","","","","","","","","","","","","","","","","","","","","","","","","","","","","","","","","","","","","","","","","","","","","","","","","","","","","","",""
"","rating","","html-slider-response","46","196753","0.0-1.0-43.0","34","88358","male","3808","","","","","79","41","28","Stimuli/Experimental_stims/body_parts/ira-vishnevskaya-8DQAvdCby1I-unsplash.jpg","","","","","","","","","","","","","","","","","","","","","","","","","","","","","","","","","","","","","","","","","","","","","","","","","","","","","","","","","","","","","","","","",""
"","rating","","html-slider-response","47","200575","0.0-1.0-44.0","34","88358","male","3819","","","","","64","42","9","Stimuli/Experimental_stims/outdoor_scenes/sergey-pesterev-y-b_FOmJXdg-unsplash.jpg","","","","","","","","","","","","","","","","","","","","","","","","","","","","","","","","","","","","","","","","","","","","","","","","","","","","","","","","","","","","","","","","",""
"","rating","","html-slider-response","48","204878","0.0-1.0-45.0","34","88358","male","4299","","","","","100","43","2","Stimuli/Experimental_stims/outdoor_scenes/bruno-van-der-kraan-qez8mNJ3ilU-unsplash.jpg","","","","","","","","","","","","","","","","","","","","","","","","","","","","","","","","","","","","","","","","","","","","","","","","","","","","","","","","","","","","","","","","",""
"","rating","","html-slider-response","49","208652","0.0-1.0-46.0","34","88358","male","3770","","","","","51","44","17","Stimuli/Experimental_stims/faces/good-faces-xmSWVeGEnJw-unsplash.jpg","","","","","","","","","","","","","","","","","","","","","","","","","","","","","","","","","","","","","","","","","","","","","","","","","","","","","","","","","","","","","","","","",""
"","rating","","html-slider-response","50","215167","0.0-1.0-47.0","34","88358","male","6511","","","","","32","45","44","Stimuli/Experimental_stims/objects/kuiye-chen-NuOGFo4PudE-unsplash.jpg","","","","","","","","","","","","","","","","","","","","","","","","","","","","","","","","","","","","","","","","","","","","","","","","","","","","","","","","","","","","","","","","",""
"","rating","","html-slider-response","51","219254","0.0-1.0-48.0","34","88358","male","4084","","","","","50","46","13","Stimuli/Experimental_stims/faces/daniel-rigdon-dXmXKPP2L4E-unsplash.jpg","","","","","","","","","","","","","","","","","","","","","","","","","","","","","","","","","","","","","","","","","","","","","","","","","","","","","","","","","","","","","","","","",""
"","rating","","html-slider-response","52","222543","0.0-1.0-49.0","34","88358","male","3286","","","","","84","47","14","Stimuli/Experimental_stims/faces/david-siglin-UuW4psOb388-unsplash.jpg","","","","","","","","","","","","","","","","","","","","","","","","","","","","","","","","","","","","","","","","","","","","","","","","","","","","","","","","","","","","","","","","",""
"","localizer_instructions","","instructions","53","261142","0.0-2.0-0.0-0.0","34","88358","male","38574","","[{""page_index"":0,""viewing_time"":23438},{""page_index"":1,""viewing_time"":13536},{""page_index"":2,""viewing_time"":1600}]","","","","","","","","","","","","","","","","","","","","","","","","","","","","","","","","","","","","","","","","","","","","","","","","","","","","","","","","","","","","","","","","","","","","","","",""
"","localizer_comprehension_check","","survey-multi-choice","54","272470","0.0-2.0-0.0-1.0","34","88358","male","11325","{""Q0"":""True"",""Q1"":""K"",""Q2"":""D""}","","0","","","","","","","","","","","","","","","","","","","","","","","","","","","","","","","","","","","","","","","","","","","","","","","","","","","","","","","","","","","","","","","","","","","","","",""
"","","","html-keyboard-response","55","274645","0.0-2.0-1.0","34","88358","male","2172","","","","68","","","","","","","","","","","","","","","","","","","","","","","","","","","","","","","","","","","","","","","","","","","","","","","","","","","","","","","","","","","","","","","","","","","","",""
"","localizer","","html-keyboard-response","56","275049","0.0-2.0-2.0-0.0","34","88358","male","NaN","","","","null","NaN","0","","Stimuli/Practice_stims/Localizer/annie-spratt-g9KFpAfQ5bc-unsplash.jpg","274645","0","NaN","","0","1","0","400","0","404","0","","","","","","","","","","","","","","","","","","","","","","","","","","","","","","","","","","","","","","","","","","","","","","","","","","","","","",""
"","iti_localizer","","html-keyboard-response","57","275353","0.0-2.0-2.0-1.0","34","88358","male","null","","","","null","","0","","","275049","0","","","","","","300","400","304","404","300","","","","","","","","","","","","","","","","","","","","","","","","","","","","","","","","","","","","","","","","","","","","","","","","","","","","",""
"","localizer","","html-keyboard-response","58","275757","0.0-2.0-2.1-0.1","34","88358","male","361","","","","68","0","0","","Stimuli/Practice_stims/Localizer/annie-spratt-g9KFpAfQ5bc-unsplash.jpg","275353","0","NaN","","0","0","1","400","700","404","708","","","","","","","","","","","","","","","","","","","","","","","","","","","","","","","","","","","","","","","","","","","","","","","","","","","","","",""
"","iti_localizer","","html-keyboard-response","59","276061","0.0-2.0-2.1-1.1","34","88358","male","null","","","","null","","0","","","275757","0","","","","","","300","1100","304","1112","300","","","","","","","","","","","","","","","","","","","","","","","","","","","","","","","","","","","","","","","","","","","","","","","","","","","","",""
"","localizer","","html-keyboard-response","60","276465","0.0-2.0-3.0-0.0","34","88358","male","NaN","","","","null","NaN","1","","Stimuli/Practice_stims/Localizer/becca-tapert-sY5RjMB1KkE-unsplash.jpg","276061","0","NaN","","0","1","0","400","1400","404","1416","","","","","","","","","","","","","","","","","","","","","","","","","","","","","","","","","","","","","","","","","","","","","","","","","","","","","",""
"","iti_localizer","","html-keyboard-response","61","276768","0.0-2.0-3.0-1.0","34","88358","male","null","","","","null","","1","","","276465","0","","","","","","300","1800","303","1820","300","","","","","","","","","","","","","","","","","","","","","","","","","","","","","","","","","","","","","","","","","","","","","","","","","","","","",""
"","localizer","","html-keyboard-response","62","277172","0.0-2.0-3.1-0.1","34","88358","male","NaN","","","","null","NaN","1","","Stimuli/Practice_stims/Localizer/becca-tapert-sY5RjMB1KkE-unsplash.jpg","276768","0","NaN","","0","1","0","400","2100","404","2123","","","","","","","","","","","","","","","","","","","","","","","","","","","","","","","","","","","","","","","","","","","","","","","","","","","","","",""
"","iti_localizer","","html-keyboard-response","63","277474","0.0-2.0-3.1-1.1","34","88358","male","null","","","","null","","1","","","277172","0","","","","","","300","2500","302","2527","300","","","","","","","","","","","","","","","","","","","","","","","","","","","","","","","","","","","","","","","","","","","","","","","","","","","","",""
"","localizer","","html-keyboard-response","64","277879","0.0-2.0-3.2-0.2","34","88358","male","NaN","","","","null","NaN","1","","Stimuli/Practice_stims/Localizer/becca-tapert-sY5RjMB1KkE-unsplash.jpg","277474","0","NaN","","0","1","0","400","2800","405","2829","","","","","","","","","","","","","","","","","","","","","","","","","","","","","","","","","","","","","","","","","","","","","","","","","","","","","",""
"","iti_localizer","","html-keyboard-response","65","278182","0.0-2.0-3.2-1.2","34","88358","male","null","","","","null","","1","","","277879","0","","","","","","300","3200","303","3234","300","","","","","","","","","","","","","","","","","","","","","","","","","","","","","","","","","","","","","","","","","","","","","","","","","","","","",""
"","localizer","","html-keyboard-response","66","278586","0.0-2.0-3.3-0.3","34","88358","male","76","","","","68","0","1","","Stimuli/Practice_stims/Localizer/becca-tapert-sY5RjMB1KkE-unsplash.jpg","278182","0","NaN","","0","0","1","400","3500","404","3537","","","","","","","","","","","","","","","","","","","","","","","","","","","","","","","","","","","","","","","","","","","","","","","","","","","","","",""
"","iti_localizer","","html-keyboard-response","67","278889","0.0-2.0-3.3-1.3","34","88358","male","null","","","","null","","1","","","278586","0","","","","","","300","3900","303","3941","300","","","","","","","","","","","","","","","","","","","","","","","","","","","","","","","","","","","","","","","","","","","","","","","","","","","","",""
"","localizer","","html-keyboard-response","68","279292","0.0-2.0-4.0-0.0","34","88358","male","NaN","","","","null","NaN","2","","Stimuli/Practice_stims/Localizer/charl-durand-bsfXvI25iNg-unsplash.jpg","278889","0","NaN","","1","1","0","400","4200","403","4244","","","","","","","","","","","","","","","","","","","","","","","","","","","","","","","","","","","","","","","","","","","","","","","","","","","","","",""
"","iti_localizer","","html-keyboard-response","69","279595","0.0-2.0-4.0-1.0","34","88358","male","null","","","","null","","2","","","279292","0","","","","","","300","4600","303","4647","300","","","","","","","","","","","","","","","","","","","","","","","","","","","","","","","","","","","","","","","","","","","","","","","","","","","","",""
"","localizer","","html-keyboard-response","70","279998","0.0-2.0-4.1-0.1","34","88358","male","NaN","","","","null","NaN","2","","Stimuli/Practice_stims/Localizer/charl-durand-bsfXvI25iNg-unsplash.jpg","279595","0","NaN","","1","1","0","400","4900","403","4950","","","","","","","","","","","","","","","","","","","","","","","","","","","","","","","","","","","","","","","","","","","","","","","","","","","","","",""
"","iti_localizer","","html-keyboard-response","71","280301","0.0-2.0-4.1-1.1","34","88358","male","null","","","","null","","2","","","279998","0","","","","","","300","5300","303","5353","300","","","","","","","","","","","","","","","","","","","","","","","","","","","","","","","","","","","","","","","","","","","","","","","","","","","","",""
"","localizer","","html-keyboard-response","72","280704","0.0-2.0-4.2-0.2","34","88358","male","NaN","","","","null","NaN","2","","Stimuli/Practice_stims/Localizer/charl-durand-bsfXvI25iNg-unsplash.jpg","280301","0","NaN","","1","1","0","400","5600","403","5656","","","","","","","","","","","","","","","","","","","","","","","","","","","","","","","","","","","","","","","","","","","","","","","","","","","","","",""
"","iti_localizer","","html-keyboard-response","73","281007","0.0-2.0-4.2-1.2","34","88358","male","null","","","","null","","2","","","280704","0","","","","","","300","6000","303","6059","300","","","","","","","","","","","","","","","","","","","","","","","","","","","","","","","","","","","","","","","","","","","","","","","","","","","","",""
"","localizer","","html-keyboard-response","74","281410","0.0-2.0-4.3-0.3","34","88358","male","NaN","","","","null","NaN","2","","Stimuli/Practice_stims/Localizer/charl-durand-bsfXvI25iNg-unsplash.jpg","281007","0","NaN","","1","1","0","400","6300","403","6362","","","","","","","","","","","","","","","","","","","","","","","","","","","","","","","","","","","","","","","","","","","","","","","","","","","","","",""
"","iti_localizer","","html-keyboard-response","75","281713","0.0-2.0-4.3-1.3","34","88358","male","null","","","","null","","2","","","281410","0","","","","","","300","6700","303","6765","300","","","","","","","","","","","","","","","","","","","","","","","","","","","","","","","","","","","","","","","","","","","","","","","","","","","","",""
"","localizer","","html-keyboard-response","76","282117","0.0-2.0-4.4-0.4","34","88358","male","NaN","","","","null","NaN","2","","Stimuli/Practice_stims/Localizer/charl-durand-bsfXvI25iNg-unsplash.jpg","281713","0","NaN","","1","1","0","400","7000","404","7068","","","","","","","","","","","","","","","","","","","","","","","","","","","","","","","","","","","","","","","","","","","","","","","","","","","","","",""
"","iti_localizer","","html-keyboard-response","77","282421","0.0-2.0-4.4-1.4","34","88358","male","null","","","","null","","2","","","282117","0","","","","","","300","7400","304","7472","300","","","","","","","","","","","","","","","","","","","","","","","","","","","","","","","","","","","","","","","","","","","","","","","","","","","","",""
"","localizer","","html-keyboard-response","78","282824","0.0-2.0-4.5-0.5","34","88358","male","NaN","","","","null","NaN","2","","Stimuli/Practice_stims/Localizer/charl-durand-bsfXvI25iNg-unsplash.jpg","282421","0","NaN","","1","1","0","400","7700","403","7776","","","","","","","","","","","","","","","","","","","","","","","","","","","","","","","","","","","","","","","","","","","","","","","","","","","","","",""
"","iti_localizer","","html-keyboard-response","79","283127","0.0-2.0-4.5-1.5","34","88358","male","null","","","","null","","2","","","282824","0","","","","","","300","8100","303","8179","300","","","","","","","","","","","","","","","","","","","","","","","","","","","","","","","","","","","","","","","","","","","","","","","","","","","","",""
"","localizer","","html-keyboard-response","80","283530","0.0-2.0-4.6-0.6","34","88358","male","NaN","","","","null","NaN","2","","Stimuli/Practice_stims/Localizer/charl-durand-bsfXvI25iNg-unsplash.jpg","283127","0","NaN","","1","1","0","400","8400","403","8482","","","","","","","","","","","","","","","","","","","","","","","","","","","","","","","","","","","","","","","","","","","","","","","","","","","","","",""
"","iti_localizer","","html-keyboard-response","81","283833","0.0-2.0-4.6-1.6","34","88358","male","null","","","","null","","2","","","283530","0","","","","","","300","8800","303","8885","300","","","","","","","","","","","","","","","","","","","","","","","","","","","","","","","","","","","","","","","","","","","","","","","","","","","","",""
"","localizer","","html-keyboard-response","82","284236","0.0-2.0-4.7-0.7","34","88358","male","NaN","","","","null","NaN","2","","Stimuli/Practice_stims/Localizer/charl-durand-bsfXvI25iNg-unsplash.jpg","283833","0","NaN","","1","1","0","400","9100","403","9188","","","","","","","","","","","","","","","","","","","","","","","","","","","","","","","","","","","","","","","","","","","","","","","","","","","","","",""
"","iti_localizer","","html-keyboard-response","83","284539","0.0-2.0-4.7-1.7","34","88358","male","null","","","","null","","2","","","284236","0","","","","","","300","9500","303","9591","300","","","","","","","","","","","","","","","","","","","","","","","","","","","","","","","","","","","","","","","","","","","","","","","","","","","","",""
"","localizer","","html-keyboard-response","84","284943","0.0-2.0-4.8-0.8","34","88358","male","NaN","","","","null","NaN","2","","Stimuli/Practice_stims/Localizer/charl-durand-bsfXvI25iNg-unsplash.jpg","284539","0","NaN","","1","1","0","400","9800","404","9894","","","","","","","","","","","","","","","","","","","","","","","","","","","","","","","","","","","","","","","","","","","","","","","","","","","","","",""
"","iti_localizer","","html-keyboard-response","85","285246","0.0-2.0-4.8-1.8","34","88358","male","null","","","","null","","2","","","284943","0","","","","","","300","10200","303","10298","300","","","","","","","","","","","","","","","","","","","","","","","","","","","","","","","","","","","","","","","","","","","","","","","","","","","","",""
"","localizer","","html-keyboard-response","86","285650","0.0-2.0-4.9-0.9","34","88358","male","181","","","","75","1","2","","Stimuli/Practice_stims/Localizer/charl-durand-bsfXvI25iNg-unsplash.jpg","285246","0","NaN","","1","0","1","400","10500","404","10601","","","","","","","","","","","","","","","","","","","","","","","","","","","","","","","","","","","","","","","","","","","","","","","","","","","","","",""
"","iti_localizer","","html-keyboard-response","87","285954","0.0-2.0-4.9-1.9","34","88358","male","null","","","","null","","2","","","285650","0","","","","","","300","10900","304","11005","300","","","","","","","","","","","","","","","","","","","","","","","","","","","","","","","","","","","","","","","","","","","","","","","","","","","","",""
"","localizer","","html-keyboard-response","88","286357","0.0-2.0-5.0-0.0","34","88358","male","273","","","","75","1","3","","Stimuli/Practice_stims/Localizer/nizar-albusaidy-B2r2SWAf5CE-unsplash.jpg","285954","0","NaN","","0","0","0","400","11200","403","11309","","","","","","","","","","","","","","","","","","","","","","","","","","","","","","","","","","","","","","","","","","","","","","","","","","","","","",""
"","iti_localizer","","html-keyboard-response","89","286661","0.0-2.0-5.0-1.0","34","88358","male","null","","","","null","","3","","","286357","0","","","","","","300","11600","304","11712","300","","","","","","","","","","","","","","","","","","","","","","","","","","","","","","","","","","","","","","","","","","","","","","","","","","","","",""
"","localizer","","html-keyboard-response","90","287065","0.0-2.0-6.0-0.0","34","88358","male","NaN","","","","null","NaN","4","","Stimuli/Practice_stims/Localizer/randy-fath-epf1tdtIIkM-unsplash.jpg","286661","0","NaN","","1","1","0","400","11900","404","12016","","","","","","","","","","","","","","","","","","","","","","","","","","","","","","","","","","","","","","","","","","","","","","","","","","","","","",""
"","iti_localizer","","html-keyboard-response","91","287368","0.0-2.0-6.0-1.0","34","88358","male","null","","","","null","","4","","","287065","0","","","","","","300","12300","303","12420","300","","","","","","","","","","","","","","","","","","","","","","","","","","","","","","","","","","","","","","","","","","","","","","","","","","","","",""
"","localizer","","html-keyboard-response","92","287772","0.0-2.0-6.1-0.1","34","88358","male","NaN","","","","null","NaN","4","","Stimuli/Practice_stims/Localizer/randy-fath-epf1tdtIIkM-unsplash.jpg","287368","0","NaN","","1","1","0","400","12600","404","12723","","","","","","","","","","","","","","","","","","","","","","","","","","","","","","","","","","","","","","","","","","","","","","","","","","","","","",""
"","iti_localizer","","html-keyboard-response","93","288075","0.0-2.0-6.1-1.1","34","88358","male","null","","","","null","","4","","","287772","0","","","","","","300","13000","303","13127","300","","","","","","","","","","","","","","","","","","","","","","","","","","","","","","","","","","","","","","","","","","","","","","","","","","","","",""
"","localizer","","html-keyboard-response","94","288478","0.0-2.0-6.2-0.2","34","88358","male","NaN","","","","null","NaN","4","","Stimuli/Practice_stims/Localizer/randy-fath-epf1tdtIIkM-unsplash.jpg","288075","0","NaN","","1","1","0","400","13300","403","13430","","","","","","","","","","","","","","","","","","","","","","","","","","","","","","","","","","","","","","","","","","","","","","","","","","","","","",""
"","iti_localizer","","html-keyboard-response","95","288781","0.0-2.0-6.2-1.2","34","88358","male","null","","","","null","","4","","","288478","0","","","","","","300","13700","303","13833","300","","","","","","","","","","","","","","","","","","","","","","","","","","","","","","","","","","","","","","","","","","","","","","","","","","","","",""
"","localizer","","html-keyboard-response","96","289185","0.0-2.0-6.3-0.3","34","88358","male","NaN","","","","null","NaN","4","","Stimuli/Practice_stims/Localizer/randy-fath-epf1tdtIIkM-unsplash.jpg","288781","0","NaN","","1","1","0","400","14000","404","14136","","","","","","","","","","","","","","","","","","","","","","","","","","","","","","","","","","","","","","","","","","","","","","","","","","","","","",""
"","iti_localizer","","html-keyboard-response","97","289488","0.0-2.0-6.3-1.3","34","88358","male","null","","","","null","","4","","","289185","0","","","","","","300","14400","303","14540","300","","","","","","","","","","","","","","","","","","","","","","","","","","","","","","","","","","","","","","","","","","","","","","","","","","","","",""
"","localizer","","html-keyboard-response","98","289892","0.0-2.0-6.4-0.4","34","88358","male","NaN","","","","null","NaN","4","","Stimuli/Practice_stims/Localizer/randy-fath-epf1tdtIIkM-unsplash.jpg","289488","0","NaN","","1","1","0","400","14700","404","14843","","","","","","","","","","","","","","","","","","","","","","","","","","","","","","","","","","","","","","","","","","","","","","","","","","","","","",""
"","iti_localizer","","html-keyboard-response","99","290195","0.0-2.0-6.4-1.4","34","88358","male","null","","","","null","","4","","","289892","0","","","","","","300","15100","303","15247","300","","","","","","","","","","","","","","","","","","","","","","","","","","","","","","","","","","","","","","","","","","","","","","","","","","","","",""
"","localizer","","html-keyboard-response","100","290598","0.0-2.0-6.5-0.5","34","88358","male","NaN","","","","null","NaN","4","","Stimuli/Practice_stims/Localizer/randy-fath-epf1tdtIIkM-unsplash.jpg","290195","0","NaN","","1","1","0","400","15400","403","15550","","","","","","","","","","","","","","","","","","","","","","","","","","","","","","","","","","","","","","","","","","","","","","","","","","","","","",""
"","iti_localizer","","html-keyboard-response","101","290901","0.0-2.0-6.5-1.5","34","88358","male","null","","","","null","","4","","","290598","0","","","","","","300","15800","303","15953","300","","","","","","","","","","","","","","","","","","","","","","","","","","","","","","","","","","","","","","","","","","","","","","","","","","","","",""
"","localizer","","html-keyboard-response","102","291304","0.0-2.0-6.6-0.6","34","88358","male","NaN","","","","null","NaN","4","","Stimuli/Practice_stims/Localizer/randy-fath-epf1tdtIIkM-unsplash.jpg","290901","0","NaN","","1","1","0","400","16100","403","16256","","","","","","","","","","","","","","","","","","","","","","","","","","","","","","","","","","","","","","","","","","","","","","","","","","","","","",""
"","iti_localizer","","html-keyboard-response","103","291607","0.0-2.0-6.6-1.6","34","88358","male","null","","","","null","","4","","","291304","0","","","","","","300","16500","303","16659","300","","","","","","","","","","","","","","","","","","","","","","","","","","","","","","","","","","","","","","","","","","","","","","","","","","","","",""
"","localizer","","html-keyboard-response","104","292010","0.0-2.0-6.7-0.7","34","88358","male","62","","","","75","1","4","","Stimuli/Practice_stims/Localizer/randy-fath-epf1tdtIIkM-unsplash.jpg","291607","0","NaN","","1","0","1","400","16800","403","16962","","","","","","","","","","","","","","","","","","","","","","","","","","","","","","","","","","","","","","","","","","","","","","","","","","","","","",""
"","iti_localizer","","html-keyboard-response","105","292313","0.0-2.0-6.7-1.7","34","88358","male","null","","","","null","","4","","","292010","0","","","","","","300","17200","303","17365","300","","","","","","","","","","","","","","","","","","","","","","","","","","","","","","","","","","","","","","","","","","","","","","","","","","","","",""
"","localizer","","html-keyboard-response","106","292716","0.0-2.0-7.0-0.0","34","88358","male","NaN","","","","null","NaN","5","","Stimuli/Practice_stims/Localizer/yassine-khalfalli-adsQ9d_Cx0c-unsplash.jpg","292313","0","NaN","","0","1","0","400","17500","403","17668","","","","","","","","","","","","","","","","","","","","","","","","","","","","","","","","","","","","","","","","","","","","","","","","","","","","","",""
"","iti_localizer","","html-keyboard-response","107","293019","0.0-2.0-7.0-1.0","34","88358","male","null","","","","null","","5","","","292716","0","","","","","","300","17900","303","18071","300","","","","","","","","","","","","","","","","","","","","","","","","","","","","","","","","","","","","","","","","","","","","","","","","","","","","",""
"","localizer","","html-keyboard-response","108","293423","0.0-2.0-7.1-0.1","34","88358","male","NaN","","","","null","NaN","5","","Stimuli/Practice_stims/Localizer/yassine-khalfalli-adsQ9d_Cx0c-unsplash.jpg","293019","0","NaN","","0","1","0","400","18200","404","18374","","","","","","","","","","","","","","","","","","","","","","","","","","","","","","","","","","","","","","","","","","","","","","","","","","","","","",""
"","iti_localizer","","html-keyboard-response","109","293726","0.0-2.0-7.1-1.1","34","88358","male","null","","","","null","","5","","","293423","0","","","","","","300","18600","303","18778","300","","","","","","","","","","","","","","","","","","","","","","","","","","","","","","","","","","","","","","","","","","","","","","","","","","","","",""
"","localizer","","html-keyboard-response","110","294130","0.0-2.0-7.2-0.2","34","88358","male","NaN","","","","null","NaN","5","","Stimuli/Practice_stims/Localizer/yassine-khalfalli-adsQ9d_Cx0c-unsplash.jpg","293726","0","NaN","","0","1","0","400","18900","404","19081","","","","","","","","","","","","","","","","","","","","","","","","","","","","","","","","","","","","","","","","","","","","","","","","","","","","","",""
"","iti_localizer","","html-keyboard-response","111","294434","0.0-2.0-7.2-1.2","34","88358","male","null","","","","null","","5","","","294130","0","","","","","","300","19300","304","19485","300","","","","","","","","","","","","","","","","","","","","","","","","","","","","","","","","","","","","","","","","","","","","","","","","","","","","",""
"","localizer","","html-keyboard-response","112","294837","0.0-2.0-7.3-0.3","34","88358","male","NaN","","","","null","NaN","5","","Stimuli/Practice_stims/Localizer/yassine-khalfalli-adsQ9d_Cx0c-unsplash.jpg","294434","0","NaN","","0","1","0","400","19600","403","19789","","","","","","","","","","","","","","","","","","","","","","","","","","","","","","","","","","","","","","","","","","","","","","","","","","","","","",""
"","iti_localizer","","html-keyboard-response","113","295140","0.0-2.0-7.3-1.3","34","88358","male","null","","","","null","","5","","","294837","0","","","","","","300","20000","303","20192","300","","","","","","","","","","","","","","","","","","","","","","","","","","","","","","","","","","","","","","","","","","","","","","","","","","","","",""
"","localizer","","html-keyboard-response","114","295543","0.0-2.0-7.4-0.4","34","88358","male","NaN","","","","null","NaN","5","","Stimuli/Practice_stims/Localizer/yassine-khalfalli-adsQ9d_Cx0c-unsplash.jpg","295140","0","NaN","","0","1","0","400","20300","403","20495","","","","","","","","","","","","","","","","","","","","","","","","","","","","","","","","","","","","","","","","","","","","","","","","","","","","","",""
"","iti_localizer","","html-keyboard-response","115","295848","0.0-2.0-7.4-1.4","34","88358","male","null","","","","null","","5","","","295543","0","","","","","","300","20700","305","20898","300","","","","","","","","","","","","","","","","","","","","","","","","","","","","","","","","","","","","","","","","","","","","","","","","","","","","",""
"","localizer","","html-keyboard-response","116","296251","0.0-2.0-7.5-0.5","34","88358","male","NaN","","","","null","NaN","5","","Stimuli/Practice_stims/Localizer/yassine-khalfalli-adsQ9d_Cx0c-unsplash.jpg","295848","0","NaN","","0","1","0","400","21000","403","21203","","","","","","","","","","","","","","","","","","","","","","","","","","","","","","","","","","","","","","","","","","","","","","","","","","","","","",""
"","iti_localizer","","html-keyboard-response","117","296556","0.0-2.0-7.5-1.5","34","88358","male","null","","","","null","","5","","","296251","0","","","","","","300","21400","305","21606","300","","","","","","","","","","","","","","","","","","","","","","","","","","","","","","","","","","","","","","","","","","","","","","","","","","","","",""
"","localizer","","html-keyboard-response","118","296959","0.0-2.0-7.6-0.6","34","88358","male","NaN","","","","null","NaN","5","","Stimuli/Practice_stims/Localizer/yassine-khalfalli-adsQ9d_Cx0c-unsplash.jpg","296556","0","NaN","","0","1","0","400","21700","403","21911","","","","","","","","","","","","","","","","","","","","","","","","","","","","","","","","","","","","","","","","","","","","","","","","","","","","","",""
"","iti_localizer","","html-keyboard-response","119","297263","0.0-2.0-7.6-1.6","34","88358","male","null","","","","null","","5","","","296959","0","","","","","","300","22100","304","22314","300","","","","","","","","","","","","","","","","","","","","","","","","","","","","","","","","","","","","","","","","","","","","","","","","","","","","",""
"","localizer","","html-keyboard-response","120","297666","0.0-2.0-7.7-0.7","34","88358","male","5","","","","68","0","5","","Stimuli/Practice_stims/Localizer/yassine-khalfalli-adsQ9d_Cx0c-unsplash.jpg","297263","0","NaN","","0","0","1","400","22400","403","22618","","","","","","","","","","","","","","","","","","","","","","","","","","","","","","","","","","","","","","","","","","","","","","","","","","","","","",""
"","iti_localizer","","html-keyboard-response","121","297970","0.0-2.0-7.7-1.7","34","88358","male","null","","","","null","","5","","","297666","0","","","","","","300","22800","304","23021","300","","","","","","","","","","","","","","","","","","","","","","","","","","","","","","","","","","","","","","","","","","","","","","","","","","","","",""
"","practice_over","","html-keyboard-response","122","298199","0.0-2.0-7.7-2.7-0.7","34","88358","male","227","","","","68","","","","","","","","","","","","","","","","","","","","","","","","","","","","","","","","","","","","","","","","","","","","","","","","","","","","","","","","","","","","","","","","","","","","",""
"","start_run","","html-keyboard-response","123","300088","0.0-2.0-7.7-2.7-1.7","34","88358","male","1886","","","","84","","","","","","","","","","","","","","","","","","","","","","","","","","","","","","","","","","","","","","","","","","","","","","","","","","","","","","","","","","","","","","","","","","","","",""
"","localizer","","html-keyboard-response","124","300490","0.0-2.0-8.0-0.0","34","88358","male","NaN","","","","null","NaN","6","","Stimuli/Experimental_stims/localizer/objects/jonny-caspari-wsvCC6UyKjs-unsplash.jpg","300088","1","objects","","0","1","0","400","0","402","0","","","","","","","","","","","","","","","","","","","","","","","","","","","","","","","","","","","","","","","","","","","","","","","","","","","","","",""
"","iti_localizer","","html-keyboard-response","125","300793","0.0-2.0-8.0-1.0","34","88358","male","null","","","","null","","6","","","300490","1","","","","","","300","400","303","402","300","","","","","","","","","","","","","","","","","","","","","","","","","","","","","","","","","","","","","","","","","","","","","","","","","","","","",""
"","localizer","","html-keyboard-response","126","301196","0.0-2.0-9.0-0.0","34","88358","male","NaN","","","","null","NaN","7","","Stimuli/Experimental_stims/localizer/objects/charlesdeluvio-RDjZh9dqlP4-unsplash.jpg","300793","1","objects","","0","1","0","400","700","403","705","","","","","","","","","","","","","","","","","","","","","","","","","","","","","","","","","","","","","","","","","","","","","","","","","","","","","",""
"","iti_localizer","","html-keyboard-response","127","301500","0.0-2.0-9.0-1.0","34","88358","male","null","","","","null","","7","","","301196","1","","","","","","300","1100","304","1108","300","","","","","","","","","","","","","","","","","","","","","","","","","","","","","","","","","","","","","","","","","","","","","","","","","","","","",""
"","localizer","","html-keyboard-response","128","301903","0.0-2.0-10.0-0.0","34","88358","male","201","","","","68","0","8","","Stimuli/Experimental_stims/localizer/objects/adriano-pucciarelli-Jl3S1yM8gi8-unsplash.jpg","301500","1","objects","","0","0","1","400","1400","403","1412","","","","","","","","","","","","","","","","","","","","","","","","","","","","","","","","","","","","","","","","","","","","","","","","","","","","","",""
"","iti_localizer","","html-keyboard-response","129","302207","0.0-2.0-10.0-1.0","34","88358","male","null","","","","null","","8","","","301903","1","","","","","","300","1800","304","1815","300","","","","","","","","","","","","","","","","","","","","","","","","","","","","","","","","","","","","","","","","","","","","","","","","","","","","",""
"","localizer","","html-keyboard-response","130","302610","0.0-2.0-11.0-0.0","34","88358","male","375","","","","68","0","9","","Stimuli/Experimental_stims/localizer/objects/mockup-graphics-Pj2PY-E-LfM-unsplash.jpg","302207","1","objects","","0","0","1","400","2100","403","2119","","","","","","","","","","","","","","","","","","","","","","","","","","","","","","","","","","","","","","","","","","","","","","","","","","","","","",""
"","iti_localizer","","html-keyboard-response","131","302914","0.0-2.0-11.0-1.0","34","88358","male","null","","","","null","","9","","","302610","1","","","","","","300","2500","304","2522","300","","","","","","","","","","","","","","","","","","","","","","","","","","","","","","","","","","","","","","","","","","","","","","","","","","","","",""
"","localizer","","html-keyboard-response","132","303317","0.0-2.0-12.0-0.0","34","88358","male","372","","","","68","0","10","","Stimuli/Experimental_stims/localizer/objects/chris-briggs-x9TCnxNBofE-unsplash.jpg","302914","1","objects","","0","0","1","400","2800","403","2826","","","","","","","","","","","","","","","","","","","","","","","","","","","","","","","","","","","","","","","","","","","","","","","","","","","","","",""
"","iti_localizer","","html-keyboard-response","133","303621","0.0-2.0-12.0-1.0","34","88358","male","null","","","","null","","10","","","303317","1","","","","","","300","3200","304","3229","300","","","","","","","","","","","","","","","","","","","","","","","","","","","","","","","","","","","","","","","","","","","","","","","","","","","","",""
"","localizer","","html-keyboard-response","134","304025","0.0-2.0-13.0-0.0","34","88358","male","NaN","","","","null","NaN","11","","Stimuli/Experimental_stims/localizer/objects/ignat-dolomanov-kFBDVnmskPA-unsplash.jpg","303621","1","objects","","1","1","0","400","3500","404","3533","","","","","","","","","","","","","","","","","","","","","","","","","","","","","","","","","","","","","","","","","","","","","","","","","","","","","",""
"","iti_localizer","","html-keyboard-response","135","304328","0.0-2.0-13.0-1.0","34","88358","male","null","","","","null","","11","","","304025","1","","","","","","300","3900","303","3937","300","","","","","","","","","","","","","","","","","","","","","","","","","","","","","","","","","","","","","","","","","","","","","","","","","","","","",""
"","localizer","","html-keyboard-response","136","304733","0.0-2.0-14.0-0.0","34","88358","male","NaN","","","","null","NaN","12","","Stimuli/Experimental_stims/localizer/objects/adriano-pucciarelli-BE7yaZnZX6o-unsplash.jpg","304328","1","objects","","0","1","0","400","4200","405","4240","","","","","","","","","","","","","","","","","","","","","","","","","","","","","","","","","","","","","","","","","","","","","","","","","","","","","",""
"","iti_localizer","","html-keyboard-response","137","305035","0.0-2.0-14.0-1.0","34","88358","male","null","","","","null","","12","","","304733","1","","","","","","300","4600","302","4645","300","","","","","","","","","","","","","","","","","","","","","","","","","","","","","","","","","","","","","","","","","","","","","","","","","","","","",""
"","localizer","","html-keyboard-response","138","305439","0.0-2.0-15.0-0.0","34","88358","male","NaN","","","","null","NaN","13","","Stimuli/Experimental_stims/localizer/objects/eugene-chystiakov-3neSwyntbQ8-unsplash.jpg","305035","1","objects","","0","1","0","400","4900","404","4947","","","","","","","","","","","","","","","","","","","","","","","","","","","","","","","","","","","","","","","","","","","","","","","","","","","","","",""
"","iti_localizer","","html-keyboard-response","139","305742","0.0-2.0-15.0-1.0","34","88358","male","null","","","","null","","13","","","305439","1","","","","","","300","5300","303","5351","300","","","","","","","","","","","","","","","","","","","","","","","","","","","","","","","","","","","","","","","","","","","","","","","","","","","","",""
"","localizer","","html-keyboard-response","140","306145","0.0-2.0-16.0-0.0","34","88358","male","NaN","","","","null","NaN","14","","Stimuli/Experimental_stims/localizer/objects/girl-with-red-hat-Xxg-r574pLE-unsplash.jpg","305742","1","objects","","0","1","0","400","5600","403","5654","","","","","","","","","","","","","","","","","","","","","","","","","","","","","","","","","","","","","","","","","","","","","","","","","","","","","",""
"","iti_localizer","","html-keyboard-response","141","306449","0.0-2.0-16.0-1.0","34","88358","male","null","","","","null","","14","","","306145","1","","","","","","300","6000","304","6057","300","","","","","","","","","","","","","","","","","","","","","","","","","","","","","","","","","","","","","","","","","","","","","","","","","","","","",""
"","localizer","","html-keyboard-response","142","306853","0.0-2.0-17.0-0.0","34","88358","male","NaN","","","","null","NaN","15","","Stimuli/Experimental_stims/localizer/objects/hipster-mum-XookgCxFw6Q-unsplash.jpg","306449","1","objects","","0","1","0","400","6300","404","6361","","","","","","","","","","","","","","","","","","","","","","","","","","","","","","","","","","","","","","","","","","","","","","","","","","","","","",""
"","iti_localizer","","html-keyboard-response","143","307157","0.0-2.0-17.0-1.0","34","88358","male","null","","","","null","","15","","","306853","1","","","","","","300","6700","304","6765","300","","","","","","","","","","","","","","","","","","","","","","","","","","","","","","","","","","","","","","","","","","","","","","","","","","","","",""
"","localizer","","html-keyboard-response","144","307560","0.0-2.0-18.0-0.0","34","88358","male","NaN","","","","null","NaN","16","","Stimuli/Experimental_stims/localizer/objects/quino-al-8gWEAAXJjtI-unsplash.jpg","307157","1","objects","","0","1","0","400","7000","403","7069","","","","","","","","","","","","","","","","","","","","","","","","","","","","","","","","","","","","","","","","","","","","","","","","","","","","","",""
"","iti_localizer","","html-keyboard-response","145","307865","0.0-2.0-18.0-1.0","34","88358","male","null","","","","null","","16","","","307560","1","","","","","","300","7400","305","7472","300","","","","","","","","","","","","","","","","","","","","","","","","","","","","","","","","","","","","","","","","","","","","","","","","","","","","",""
"","localizer","","html-keyboard-response","146","308268","0.0-2.0-19.0-0.0","34","88358","male","NaN","","","","null","NaN","17","","Stimuli/Experimental_stims/localizer/objects/florian-klauer-mk7D-4UCfmg-unsplash.jpg","307865","1","objects","","0","1","0","400","7700","403","7777","","","","","","","","","","","","","","","","","","","","","","","","","","","","","","","","","","","","","","","","","","","","","","","","","","","","","",""
"","iti_localizer","","html-keyboard-response","147","308572","0.0-2.0-19.0-1.0","34","88358","male","null","","","","null","","17","","","308268","1","","","","","","300","8100","304","8180","300","","","","","","","","","","","","","","","","","","","","","","","","","","","","","","","","","","","","","","","","","","","","","","","","","","","","",""
"","localizer","","html-keyboard-response","148","308976","0.0-2.0-20.0-0.0","34","88358","male","NaN","","","","null","NaN","18","","Stimuli/Experimental_stims/localizer/objects/andrew-petrov-TVJqDat4MAw-unsplash.jpg","308572","1","objects","","0","1","0","400","8400","404","8484","","","","","","","","","","","","","","","","","","","","","","","","","","","","","","","","","","","","","","","","","","","","","","","","","","","","","",""
"","iti_localizer","","html-keyboard-response","149","309279","0.0-2.0-20.0-1.0","34","88358","male","null","","","","null","","18","","","308976","1","","","","","","300","8800","303","8888","300","","","","","","","","","","","","","","","","","","","","","","","","","","","","","","","","","","","","","","","","","","","","","","","","","","","","",""
"","localizer","","html-keyboard-response","150","309683","0.0-2.0-21.0-0.0","34","88358","male","NaN","","","","null","NaN","19","","Stimuli/Experimental_stims/localizer/objects/carlos-felipe-ramirez-mesa-HW7bfB3ERSQ-unsplash.jpg","309279","1","objects","","0","1","0","400","9100","404","9191","","","","","","","","","","","","","","","","","","","","","","","","","","","","","","","","","","","","","","","","","","","","","","","","","","","","","",""
"","iti_localizer","","html-keyboard-response","151","309987","0.0-2.0-21.0-1.0","34","88358","male","null","","","","null","","19","","","309683","1","","","","","","300","9500","304","9595","300","","","","","","","","","","","","","","","","","","","","","","","","","","","","","","","","","","","","","","","","","","","","","","","","","","","","",""
"","localizer","","html-keyboard-response","152","310390","0.0-2.0-22.0-0.0","34","88358","male","NaN","","","","null","NaN","20","","Stimuli/Experimental_stims/localizer/objects/yoann-siloine-_T4w3JDm6ug-unsplash.jpg","309987","1","objects","","1","1","0","400","9800","403","9899","","","","","","","","","","","","","","","","","","","","","","","","","","","","","","","","","","","","","","","","","","","","","","","","","","","","","",""
"","iti_localizer","","html-keyboard-response","153","310693","0.0-2.0-22.0-1.0","34","88358","male","null","","","","null","","20","","","310390","1","","","","","","300","10200","303","10302","300","","","","","","","","","","","","","","","","","","","","","","","","","","","","","","","","","","","","","","","","","","","","","","","","","","","","",""
"","localizer","","html-keyboard-response","154","311096","0.0-2.0-23.0-0.0","34","88358","male","NaN","","","","null","NaN","21","","Stimuli/Experimental_stims/localizer/objects/ales-krivec-ZMZHcvIVgbg-unsplash.jpg","310693","1","objects","","0","1","0","400","10500","403","10605","","","","","","","","","","","","","","","","","","","","","","","","","","","","","","","","","","","","","","","","","","","","","","","","","","","","","",""
"","iti_localizer","","html-keyboard-response","155","311399","0.0-2.0-23.0-1.0","34","88358","male","null","","","","null","","21","","","311096","1","","","","","","300","10900","303","11008","300","","","","","","","","","","","","","","","","","","","","","","","","","","","","","","","","","","","","","","","","","","","","","","","","","","","","",""
"","localizer","","html-keyboard-response","156","311802","0.0-2.0-24.0-0.0","34","88358","male","NaN","","","","null","NaN","22","","Stimuli/Experimental_stims/localizer/objects/designecologist-hvgd0ygXuQQ-unsplash.jpg","311399","1","objects","","0","1","0","400","11200","403","11311","","","","","","","","","","","","","","","","","","","","","","","","","","","","","","","","","","","","","","","","","","","","","","","","","","","","","",""
"","iti_localizer","","html-keyboard-response","157","312119","0.0-2.0-24.0-1.0","34","88358","male","null","","","","null","","22","","","311802","1","","","","","","300","11600","317","11714","300","","","","","","","","","","","","","","","","","","","","","","","","","","","","","","","","","","","","","","","","","","","","","","","","","","","","",""
"","localizer","","html-keyboard-response","158","312523","0.0-2.0-25.0-0.0","34","88358","male","NaN","","","","null","NaN","23","","Stimuli/Experimental_stims/localizer/objects/dario-mendez-hnJ2VNZzbns-unsplash.jpg","312119","1","objects","","0","1","0","400","11900","404","12031","","","","","","","","","","","","","","","","","","","","","","","","","","","","","","","","","","","","","","","","","","","","","","","","","","","","","",""
"","iti_localizer","","html-keyboard-response","159","312826","0.0-2.0-25.0-1.0","34","88358","male","null","","","","null","","23","","","312523","1","","","","","","300","12300","303","12435","300","","","","","","","","","","","","","","","","","","","","","","","","","","","","","","","","","","","","","","","","","","","","","","","","","","","","",""
"","localizer","","html-keyboard-response","160","313229","0.0-2.0-26.0-0.0","34","88358","male","NaN","","","","null","NaN","24","","Stimuli/Experimental_stims/localizer/objects/muhammad-toqeer-NRJ9ipvz2iE-unsplash.jpg","312826","1","objects","","0","1","0","400","12600","403","12738","","","","","","","","","","","","","","","","","","","","","","","","","","","","","","","","","","","","","","","","","","","","","","","","","","","","","",""
"","iti_localizer","","html-keyboard-response","161","313532","0.0-2.0-26.0-1.0","34","88358","male","null","","","","null","","24","","","313229","1","","","","","","300","13000","303","13141","300","","","","","","","","","","","","","","","","","","","","","","","","","","","","","","","","","","","","","","","","","","","","","","","","","","","","",""
"","localizer","","html-keyboard-response","162","313936","0.0-2.0-27.0-0.0","34","88358","male","NaN","","","","null","NaN","25","","Stimuli/Experimental_stims/localizer/objects/markus-spiske-ANrVtttbNss-unsplash.jpg","313532","1","objects","","0","1","0","400","13300","404","13444","","","","","","","","","","","","","","","","","","","","","","","","","","","","","","","","","","","","","","","","","","","","","","","","","","","","","",""
"","iti_localizer","","html-keyboard-response","163","327939","0.0-2.0-27.0-1.0","34","88358","male","null","","","","null","","25","","","313936","1","","","","","","14000","13700","14003","13848","14000","","","","","","","","","","","","","","","","","","","","","","","","","","","","","","","","","","","","","","","","","","","","","","","","","","","","",""
"","localizer","","html-keyboard-response","164","328343","0.0-2.0-28.0-0.0","34","88358","male","NaN","","","","null","NaN","26","","Stimuli/Experimental_stims/localizer/body_parts/jan-romero-DL4DDQb8yjc-unsplash.jpg","327939","1","body_parts","","0","1","0","400","27700","404","27851","","","","","","","","","","","","","","","","","","","","","","","","","","","","","","","","","","","","","","","","","","","","","","","","","","","","","",""
"","iti_localizer","","html-keyboard-response","165","328647","0.0-2.0-28.0-1.0","34","88358","male","null","","","","null","","26","","","328343","1","","","","","","300","28100","304","28255","300","","","","","","","","","","","","","","","","","","","","","","","","","","","","","","","","","","","","","","","","","","","","","","","","","","","","",""
"","localizer","","html-keyboard-response","166","329059","0.0-2.0-29.0-0.0","34","88358","male","NaN","","","","null","NaN","27","","Stimuli/Experimental_stims/localizer/body_parts/juja-han-Z8-6EI2tYtw-unsplash.jpg","328647","1","body_parts","","0","1","0","400","28400","412","28559","","","","","","","","","","","","","","","","","","","","","","","","","","","","","","","","","","","","","","","","","","","","","","","","","","","","","",""
"","iti_localizer","","html-keyboard-response","167","329362","0.0-2.0-29.0-1.0","34","88358","male","null","","","","null","","27","","","329059","1","","","","","","300","28800","303","28971","300","","","","","","","","","","","","","","","","","","","","","","","","","","","","","","","","","","","","","","","","","","","","","","","","","","","","",""
"","localizer","","html-keyboard-response","168","329766","0.0-2.0-30.0-0.0","34","88358","male","118","","","","68","0","28","","Stimuli/Experimental_stims/localizer/body_parts/kai-wenzel-zYDJOxjaZrQ-unsplash.jpg","329362","1","body_parts","","1","0","0","400","29100","404","29274","","","","","","","","","","","","","","","","","","","","","","","","","","","","","","","","","","","","","","","","","","","","","","","","","","","","","",""
"","iti_localizer","","html-keyboard-response","169","330070","0.0-2.0-30.0-1.0","34","88358","male","null","","","","null","","28","","","329766","1","","","","","","300","29500","304","29678","300","","","","","","","","","","","","","","","","","","","","","","","","","","","","","","","","","","","","","","","","","","","","","","","","","","","","",""
"","localizer","","html-keyboard-response","170","330473","0.0-2.0-31.0-0.0","34","88358","male","339","","","","75","1","29","","Stimuli/Experimental_stims/localizer/body_parts/igordoon-primus-CdyHqfrbGIs-unsplash.jpg","330070","1","body_parts","","0","0","0","400","29800","403","29982","","","","","","","","","","","","","","","","","","","","","","","","","","","","","","","","","","","","","","","","","","","","","","","","","","","","","",""
"","iti_localizer","","html-keyboard-response","171","330776","0.0-2.0-31.0-1.0","34","88358","male","null","","","","null","","29","","","330473","1","","","","","","300","30200","303","30385","300","","","","","","","","","","","","","","","","","","","","","","","","","","","","","","","","","","","","","","","","","","","","","","","","","","","","",""
"","localizer","","html-keyboard-response","172","331180","0.0-2.0-32.0-0.0","34","88358","male","NaN","","","","null","NaN","30","","Stimuli/Experimental_stims/localizer/body_parts/nick-page-WTNmgJtwzGI-unsplash.jpg","330776","1","body_parts","","0","1","0","400","30500","404","30688","","","","","","","","","","","","","","","","","","","","","","","","","","","","","","","","","","","","","","","","","","","","","","","","","","","","","",""
"","iti_localizer","","html-keyboard-response","173","331483","0.0-2.0-32.0-1.0","34","88358","male","null","","","","null","","30","","","331180","1","","","","","","300","30900","303","31092","300","","","","","","","","","","","","","","","","","","","","","","","","","","","","","","","","","","","","","","","","","","","","","","","","","","","","",""
"","localizer","","html-keyboard-response","174","331886","0.0-2.0-33.0-0.0","34","88358","male","NaN","","","","null","NaN","31","","Stimuli/Experimental_stims/localizer/body_parts/callum-skelton-3KLMq7y46nA-unsplash.jpg","331483","1","body_parts","","0","1","0","400","31200","403","31395","","","","","","","","","","","","","","","","","","","","","","","","","","","","","","","","","","","","","","","","","","","","","","","","","","","","","",""
"","iti_localizer","","html-keyboard-response","175","332190","0.0-2.0-33.0-1.0","34","88358","male","null","","","","null","","31","","","331886","1","","","","","","300","31600","304","31798","300","","","","","","","","","","","","","","","","","","","","","","","","","","","","","","","","","","","","","","","","","","","","","","","","","","","","",""
"","localizer","","html-keyboard-response","176","332594","0.0-2.0-34.0-0.0","34","88358","male","NaN","","","","null","NaN","32","","Stimuli/Experimental_stims/localizer/body_parts/anelya-okapova-V69kmOyZ3SU-unsplash.jpg","332190","1","body_parts","","0","1","0","400","31900","404","32102","","","","","","","","","","","","","","","","","","","","","","","","","","","","","","","","","","","","","","","","","","","","","","","","","","","","","",""
"","iti_localizer","","html-keyboard-response","177","332897","0.0-2.0-34.0-1.0","34","88358","male","null","","","","null","","32","","","332594","1","","","","","","300","32300","303","32506","300","","","","","","","","","","","","","","","","","","","","","","","","","","","","","","","","","","","","","","","","","","","","","","","","","","","","",""
"","localizer","","html-keyboard-response","178","333300","0.0-2.0-35.0-0.0","34","88358","male","NaN","","","","null","NaN","33","","Stimuli/Experimental_stims/localizer/body_parts/jeremy-yap-TfJEi17kA0w-unsplash.jpg","332897","1","body_parts","","0","1","0","400","32600","403","32809","","","","","","","","","","","","","","","","","","","","","","","","","","","","","","","","","","","","","","","","","","","","","","","","","","","","","",""
"","iti_localizer","","html-keyboard-response","179","333603","0.0-2.0-35.0-1.0","34","88358","male","null","","","","null","","33","","","333300","1","","","","","","300","33000","303","33212","300","","","","","","","","","","","","","","","","","","","","","","","","","","","","","","","","","","","","","","","","","","","","","","","","","","","","",""
"","localizer","","html-keyboard-response","180","334007","0.0-2.0-36.0-0.0","34","88358","male","NaN","","","","null","NaN","34","","Stimuli/Experimental_stims/localizer/body_parts/debby-hudson--B_757qSA4k-unsplash.jpg","333603","1","body_parts","","0","1","0","400","33300","404","33515","","","","","","","","","","","","","","","","","","","","","","","","","","","","","","","","","","","","","","","","","","","","","","","","","","","","","",""
"","iti_localizer","","html-keyboard-response","181","334310","0.0-2.0-36.0-1.0","34","88358","male","null","","","","null","","34","","","334007","1","","","","","","300","33700","303","33919","300","","","","","","","","","","","","","","","","","","","","","","","","","","","","","","","","","","","","","","","","","","","","","","","","","","","","",""
"","localizer","","html-keyboard-response","182","334713","0.0-2.0-37.0-0.0","34","88358","male","NaN","","","","null","NaN","35","","Stimuli/Experimental_stims/localizer/body_parts/danie-franco-jyyNiSEcCl4-unsplash.jpg","334310","1","body_parts","","0","1","0","400","34000","403","34222","","","","","","","","","","","","","","","","","","","","","","","","","","","","","","","","","","","","","","","","","","","","","","","","","","","","","",""
"","iti_localizer","","html-keyboard-response","183","335017","0.0-2.0-37.0-1.0","34","88358","male","null","","","","null","","35","","","334713","1","","","","","","300","34400","304","34625","300","","","","","","","","","","","","","","","","","","","","","","","","","","","","","","","","","","","","","","","","","","","","","","","","","","","","",""
"","localizer","","html-keyboard-response","184","335421","0.0-2.0-38.0-0.0","34","88358","male","NaN","","","","null","NaN","36","","Stimuli/Experimental_stims/localizer/body_parts/toan-nguyen-VIeLuUFzesg-unsplash.jpg","335017","1","body_parts","","0","1","0","400","34700","404","34929","","","","","","","","","","","","","","","","","","","","","","","","","","","","","","","","","","","","","","","","","","","","","","","","","","","","","",""
"","iti_localizer","","html-keyboard-response","185","335724","0.0-2.0-38.0-1.0","34","88358","male","null","","","","null","","36","","","335421","1","","","","","","300","35100","303","35333","300","","","","","","","","","","","","","","","","","","","","","","","","","","","","","","","","","","","","","","","","","","","","","","","","","","","","",""
"","localizer","","html-keyboard-response","186","336128","0.0-2.0-39.0-0.0","34","88358","male","NaN","","","","null","NaN","37","","Stimuli/Experimental_stims/localizer/body_parts/femme-spirit-RGYBDUHYbyM-unsplash.jpg","335724","1","body_parts","","0","1","0","400","35400","404","35636","","","","","","","","","","","","","","","","","","","","","","","","","","","","","","","","","","","","","","","","","","","","","","","","","","","","","",""
"","iti_localizer","","html-keyboard-response","187","336432","0.0-2.0-39.0-1.0","34","88358","male","null","","","","null","","37","","","336128","1","","","","","","300","35800","304","36040","300","","","","","","","","","","","","","","","","","","","","","","","","","","","","","","","","","","","","","","","","","","","","","","","","","","","","",""
"","localizer","","html-keyboard-response","188","336836","0.0-2.0-40.0-0.0","34","88358","male","NaN","","","","null","NaN","38","","Stimuli/Experimental_stims/localizer/body_parts/sincerely-media-QyzlAZjm0r0-unsplash.jpg","336432","1","body_parts","","0","1","0","400","36100","404","36344","","","","","","","","","","","","","","","","","","","","","","","","","","","","","","","","","","","","","","","","","","","","","","","","","","","","","",""
"","iti_localizer","","html-keyboard-response","189","337139","0.0-2.0-40.0-1.0","34","88358","male","null","","","","null","","38","","","336836","1","","","","","","300","36500","303","36748","300","","","","","","","","","","","","","","","","","","","","","","","","","","","","","","","","","","","","","","","","","","","","","","","","","","","","",""
"","localizer","","html-keyboard-response","190","337542","0.0-2.0-41.0-0.0","34","88358","male","NaN","","","","null","NaN","39","","Stimuli/Experimental_stims/localizer/body_parts/betzy-arosemena-YHdgnygtVCQ-unsplash.jpg","337139","1","body_parts","","0","1","0","400","36800","403","37051","","","","","","","","","","","","","","","","","","","","","","","","","","","","","","","","","","","","","","","","","","","","","","","","","","","","","",""
"","iti_localizer","","html-keyboard-response","191","337845","0.0-2.0-41.0-1.0","34","88358","male","null","","","","null","","39","","","337542","1","","","","","","300","37200","303","37454","300","","","","","","","","","","","","","","","","","","","","","","","","","","","","","","","","","","","","","","","","","","","","","","","","","","","","",""
"","localizer","","html-keyboard-response","192","338248","0.0-2.0-42.0-0.0","34","88358","male","NaN","","","","null","NaN","40","","Stimuli/Experimental_stims/localizer/body_parts/nihal-karkala-LlOfbQD-IJ0-unsplash.jpg","337845","1","body_parts","","0","1","0","400","37500","403","37757","","","","","","","","","","","","","","","","","","","","","","","","","","","","","","","","","","","","","","","","","","","","","","","","","","","","","",""
"","iti_localizer","","html-keyboard-response","193","338552","0.0-2.0-42.0-1.0","34","88358","male","null","","","","null","","40","","","338248","1","","","","","","300","37900","304","38160","300","","","","","","","","","","","","","","","","","","","","","","","","","","","","","","","","","","","","","","","","","","","","","","","","","","","","",""
"","localizer","","html-keyboard-response","194","338955","0.0-2.0-43.0-0.0","34","88358","male","NaN","","","","null","NaN","41","","Stimuli/Experimental_stims/localizer/body_parts/nattalia-nunez-MB9sdDfZMSg-unsplash.jpg","338552","1","body_parts","","0","1","0","400","38200","403","38464","","","","","","","","","","","","","","","","","","","","","","","","","","","","","","","","","","","","","","","","","","","","","","","","","","","","","",""
"","iti_localizer","","html-keyboard-response","195","339258","0.0-2.0-43.0-1.0","34","88358","male","null","","","","null","","41","","","338955","1","","","","","","300","38600","303","38867","300","","","","","","","","","","","","","","","","","","","","","","","","","","","","","","","","","","","","","","","","","","","","","","","","","","","","",""
"","localizer","","html-keyboard-response","196","339661","0.0-2.0-44.0-0.0","34","88358","male","NaN","","","","null","NaN","42","","Stimuli/Experimental_stims/localizer/body_parts/xavier-foucrier-dLZUNHsT8vo-unsplash.jpg","339258","1","body_parts","","0","1","0","400","38900","403","39170","","","","","","","","","","","","","","","","","","","","","","","","","","","","","","","","","","","","","","","","","","","","","","","","","","","","","",""
"","iti_localizer","","html-keyboard-response","197","339965","0.0-2.0-44.0-1.0","34","88358","male","null","","","","null","","42","","","339661","1","","","","","","300","39300","304","39573","300","","","","","","","","","","","","","","","","","","","","","","","","","","","","","","","","","","","","","","","","","","","","","","","","","","","","",""
"","localizer","","html-keyboard-response","198","340370","0.0-2.0-45.0-0.0","34","88358","male","NaN","","","","null","NaN","43","","Stimuli/Experimental_stims/localizer/body_parts/i-am_nah--S4OsO0c6Ts-unsplash.jpg","339965","1","body_parts","","0","1","0","400","39600","405","39877","","","","","","","","","","","","","","","","","","","","","","","","","","","","","","","","","","","","","","","","","","","","","","","","","","","","","",""
"","iti_localizer","","html-keyboard-response","199","340676","0.0-2.0-45.0-1.0","34","88358","male","null","","","","null","","43","","","340370","1","","","","","","300","40000","306","40282","300","","","","","","","","","","","","","","","","","","","","","","","","","","","","","","","","","","","","","","","","","","","","","","","","","","","","",""
"","localizer","","html-keyboard-response","200","341080","0.0-2.0-46.0-0.0","34","88358","male","NaN","","","","null","NaN","44","","Stimuli/Experimental_stims/localizer/body_parts/megan-menegay-UojxG_BJxnI-unsplash.jpg","340676","1","body_parts","","0","1","0","400","40300","404","40588","","","","","","","","","","","","","","","","","","","","","","","","","","","","","","","","","","","","","","","","","","","","","","","","","","","","","",""
"","iti_localizer","","html-keyboard-response","201","341383","0.0-2.0-46.0-1.0","34","88358","male","null","","","","null","","44","","","341080","1","","","","","","300","40700","303","40992","300","","","","","","","","","","","","","","","","","","","","","","","","","","","","","","","","","","","","","","","","","","","","","","","","","","","","",""
"","localizer","","html-keyboard-response","202","341787","0.0-2.0-47.0-0.0","34","88358","male","NaN","","","","null","NaN","45","","Stimuli/Experimental_stims/localizer/body_parts/priscilla-du-preez-e6fcNpur53A-unsplash.jpg","341383","1","body_parts","","1","1","0","400","41000","404","41295","","","","","","","","","","","","","","","","","","","","","","","","","","","","","","","","","","","","","","","","","","","","","","","","","","","","","",""
"","iti_localizer","","html-keyboard-response","203","355799","0.0-2.0-47.0-1.0","34","88358","male","null","","","","null","","45","","","341787","1","","","","","","14000","41400","14012","41699","14000","","","","","","","","","","","","","","","","","","","","","","","","","","","","","","","","","","","","","","","","","","","","","","","","","","","","",""
"","localizer","","html-keyboard-response","204","356202","0.0-2.0-48.0-0.0","34","88358","male","NaN","","","","null","NaN","46","","Stimuli/Experimental_stims/localizer/faces/jake-nackos-IF9TK5Uy-KI-unsplash.jpg","355799","1","faces","","0","1","0","400","55400","403","55711","","","","","","","","","","","","","","","","","","","","","","","","","","","","","","","","","","","","","","","","","","","","","","","","","","","","","",""
"","iti_localizer","","html-keyboard-response","205","356505","0.0-2.0-48.0-1.0","34","88358","male","null","","","","null","","46","","","356202","1","","","","","","300","55800","303","56114","300","","","","","","","","","","","","","","","","","","","","","","","","","","","","","","","","","","","","","","","","","","","","","","","","","","","","",""
"","localizer","","html-keyboard-response","206","356923","0.0-2.0-49.0-0.0","34","88358","male","NaN","","","","null","NaN","47","","Stimuli/Experimental_stims/localizer/faces/ethan-haddox-__ng3cRXmFE-unsplash.jpg","356505","1","faces","","0","1","0","400","56100","418","56417","","","","","","","","","","","","","","","","","","","","","","","","","","","","","","","","","","","","","","","","","","","","","","","","","","","","","",""
"","iti_localizer","","html-keyboard-response","207","357225","0.0-2.0-49.0-1.0","34","88358","male","null","","","","null","","47","","","356923","1","","","","","","300","56500","302","56835","300","","","","","","","","","","","","","","","","","","","","","","","","","","","","","","","","","","","","","","","","","","","","","","","","","","","","",""
"","localizer","","html-keyboard-response","208","357628","0.0-2.0-50.0-0.0","34","88358","male","NaN","","","","null","NaN","48","","Stimuli/Experimental_stims/localizer/faces/samuel-dixon--fQ5XNOcqFQ-unsplash.jpg","357225","1","faces","","1","1","0","400","56800","403","57137","","","","","","","","","","","","","","","","","","","","","","","","","","","","","","","","","","","","","","","","","","","","","","","","","","","","","",""
"","iti_localizer","","html-keyboard-response","209","357932","0.0-2.0-50.0-1.0","34","88358","male","null","","","","null","","48","","","357628","1","","","","","","300","57200","304","57540","300","","","","","","","","","","","","","","","","","","","","","","","","","","","","","","","","","","","","","","","","","","","","","","","","","","","","",""
"","localizer","","html-keyboard-response","210","358336","0.0-2.0-51.0-0.0","34","88358","male","NaN","","","","null","NaN","49","","Stimuli/Experimental_stims/localizer/faces/jakob-owens-lkMJcGDZLVs-unsplash.jpg","357932","1","faces","","0","1","0","400","57500","404","57844","","","","","","","","","","","","","","","","","","","","","","","","","","","","","","","","","","","","","","","","","","","","","","","","","","","","","",""
"","iti_localizer","","html-keyboard-response","211","358640","0.0-2.0-51.0-1.0","34","88358","male","null","","","","null","","49","","","358336","1","","","","","","300","57900","304","58248","300","","","","","","","","","","","","","","","","","","","","","","","","","","","","","","","","","","","","","","","","","","","","","","","","","","","","",""
"","localizer","","html-keyboard-response","212","359043","0.0-2.0-52.0-0.0","34","88358","male","NaN","","","","null","NaN","50","","Stimuli/Experimental_stims/localizer/faces/joseph-gonzalez-iFgRcqHznqg-unsplash.jpg","358640","1","faces","","0","1","0","400","58200","403","58552","","","","","","","","","","","","","","","","","","","","","","","","","","","","","","","","","","","","","","","","","","","","","","","","","","","","","",""
"","iti_localizer","","html-keyboard-response","213","359349","0.0-2.0-52.0-1.0","34","88358","male","null","","","","null","","50","","","359043","1","","","","","","300","58600","306","58955","300","","","","","","","","","","","","","","","","","","","","","","","","","","","","","","","","","","","","","","","","","","","","","","","","","","","","",""
"","localizer","","html-keyboard-response","214","359752","0.0-2.0-53.0-0.0","34","88358","male","NaN","","","","null","NaN","51","","Stimuli/Experimental_stims/localizer/faces/tyler-nix-ZGa9d1a_4tA-unsplash.jpg","359349","1","faces","","0","1","0","400","58900","403","59261","","","","","","","","","","","","","","","","","","","","","","","","","","","","","","","","","","","","","","","","","","","","","","","","","","","","","",""
"","iti_localizer","","html-keyboard-response","215","360056","0.0-2.0-53.0-1.0","34","88358","male","null","","","","null","","51","","","359752","1","","","","","","300","59300","304","59664","300","","","","","","","","","","","","","","","","","","","","","","","","","","","","","","","","","","","","","","","","","","","","","","","","","","","","",""
"","localizer","","html-keyboard-response","216","360460","0.0-2.0-54.0-0.0","34","88358","male","NaN","","","","null","NaN","52","","Stimuli/Experimental_stims/localizer/faces/allef-vinicius-C_1jjFJioWg-unsplash.jpg","360056","1","faces","","0","1","0","400","59600","404","59968","","","","","","","","","","","","","","","","","","","","","","","","","","","","","","","","","","","","","","","","","","","","","","","","","","","","","",""
"","iti_localizer","","html-keyboard-response","217","360763","0.0-2.0-54.0-1.0","34","88358","male","null","","","","null","","52","","","360460","1","","","","","","300","60000","303","60372","300","","","","","","","","","","","","","","","","","","","","","","","","","","","","","","","","","","","","","","","","","","","","","","","","","","","","",""
"","localizer","","html-keyboard-response","218","361166","0.0-2.0-55.0-0.0","34","88358","male","NaN","","","","null","NaN","53","","Stimuli/Experimental_stims/localizer/faces/midas-hofstra-tidSLv-UaNs-unsplash.jpg","360763","1","faces","","0","1","0","400","60300","403","60675","","","","","","","","","","","","","","","","","","","","","","","","","","","","","","","","","","","","","","","","","","","","","","","","","","","","","",""
"","iti_localizer","","html-keyboard-response","219","361470","0.0-2.0-55.0-1.0","34","88358","male","null","","","","null","","53","","","361166","1","","","","","","300","60700","304","61078","300","","","","","","","","","","","","","","","","","","","","","","","","","","","","","","","","","","","","","","","","","","","","","","","","","","","","",""
"","localizer","","html-keyboard-response","220","361873","0.0-2.0-56.0-0.0","34","88358","male","NaN","","","","null","NaN","54","","Stimuli/Experimental_stims/localizer/faces/elijah-hiett-umfpFoKxIVg-unsplash.jpg","361470","1","faces","","0","1","0","400","61000","403","61382","","","","","","","","","","","","","","","","","","","","","","","","","","","","","","","","","","","","","","","","","","","","","","","","","","","","","",""
"","iti_localizer","","html-keyboard-response","221","362176","0.0-2.0-56.0-1.0","34","88358","male","null","","","","null","","54","","","361873","1","","","","","","300","61400","303","61785","300","","","","","","","","","","","","","","","","","","","","","","","","","","","","","","","","","","","","","","","","","","","","","","","","","","","","",""
"","localizer","","html-keyboard-response","222","362580","0.0-2.0-57.0-0.0","34","88358","male","NaN","","","","null","NaN","55","","Stimuli/Experimental_stims/localizer/faces/austin-wade-X6Uj51n5CE8-unsplash.jpg","362176","1","faces","","0","1","0","400","61700","404","62088","","","","","","","","","","","","","","","","","","","","","","","","","","","","","","","","","","","","","","","","","","","","","","","","","","","","","",""
"","iti_localizer","","html-keyboard-response","223","362883","0.0-2.0-57.0-1.0","34","88358","male","null","","","","null","","55","","","362580","1","","","","","","300","62100","303","62492","300","","","","","","","","","","","","","","","","","","","","","","","","","","","","","","","","","","","","","","","","","","","","","","","","","","","","",""
"","localizer","","html-keyboard-response","224","363286","0.0-2.0-58.0-0.0","34","88358","male","NaN","","","","null","NaN","56","","Stimuli/Experimental_stims/localizer/faces/mathias-huysmans-U4JDjYmjn1g-unsplash.jpg","362883","1","faces","","0","1","0","400","62400","403","62795","","","","","","","","","","","","","","","","","","","","","","","","","","","","","","","","","","","","","","","","","","","","","","","","","","","","","",""
"","iti_localizer","","html-keyboard-response","225","363589","0.0-2.0-58.0-1.0","34","88358","male","null","","","","null","","56","","","363286","1","","","","","","300","62800","303","63198","300","","","","","","","","","","","","","","","","","","","","","","","","","","","","","","","","","","","","","","","","","","","","","","","","","","","","",""
"","localizer","","html-keyboard-response","226","363993","0.0-2.0-59.0-0.0","34","88358","male","NaN","","","","null","NaN","57","","Stimuli/Experimental_stims/localizer/faces/ian-dooley-d1UPkiFd04A-unsplash.jpg","363589","1","faces","","0","1","0","400","63100","404","63501","","","","","","","","","","","","","","","","","","","","","","","","","","","","","","","","","","","","","","","","","","","","","","","","","","","","","",""
"","iti_localizer","","html-keyboard-response","227","364296","0.0-2.0-59.0-1.0","34","88358","male","null","","","","null","","57","","","363993","1","","","","","","300","63500","303","63905","300","","","","","","","","","","","","","","","","","","","","","","","","","","","","","","","","","","","","","","","","","","","","","","","","","","","","",""
"","localizer","","html-keyboard-response","228","364700","0.0-2.0-60.0-0.0","34","88358","male","NaN","","","","null","NaN","58","","Stimuli/Experimental_stims/localizer/faces/icons8-team-6LZuSzSwso0-unsplash.jpg","364296","1","faces","","0","1","0","400","63800","404","64208","","","","","","","","","","","","","","","","","","","","","","","","","","","","","","","","","","","","","","","","","","","","","","","","","","","","","",""
"","iti_localizer","","html-keyboard-response","229","365003","0.0-2.0-60.0-1.0","34","88358","male","null","","","","null","","58","","","364700","1","","","","","","300","64200","303","64612","300","","","","","","","","","","","","","","","","","","","","","","","","","","","","","","","","","","","","","","","","","","","","","","","","","","","","",""
"","localizer","","html-keyboard-response","230","365407","0.0-2.0-61.0-0.0","34","88358","male","NaN","","","","null","NaN","59","","Stimuli/Experimental_stims/localizer/faces/alexis-chloe-TYDkKEgc0Fg-unsplash.jpg","365003","1","faces","","0","1","0","400","64500","404","64915","","","","","","","","","","","","","","","","","","","","","","","","","","","","","","","","","","","","","","","","","","","","","","","","","","","","","",""
"","iti_localizer","","html-keyboard-response","231","365710","0.0-2.0-61.0-1.0","34","88358","male","null","","","","null","","59","","","365407","1","","","","","","300","64900","303","65319","300","","","","","","","","","","","","","","","","","","","","","","","","","","","","","","","","","","","","","","","","","","","","","","","","","","","","",""
"","localizer","","html-keyboard-response","232","366115","0.0-2.0-62.0-0.0","34","88358","male","NaN","","","","null","NaN","60","","Stimuli/Experimental_stims/localizer/faces/prince-akachi-LWkFHEGpleE-unsplash.jpg","365710","1","faces","","0","1","0","400","65200","405","65622","","","","","","","","","","","","","","","","","","","","","","","","","","","","","","","","","","","","","","","","","","","","","","","","","","","","","",""
"","iti_localizer","","html-keyboard-response","233","366418","0.0-2.0-62.0-1.0","34","88358","male","null","","","","null","","60","","","366115","1","","","","","","300","65600","303","66027","300","","","","","","","","","","","","","","","","","","","","","","","","","","","","","","","","","","","","","","","","","","","","","","","","","","","","",""
"","localizer","","html-keyboard-response","234","366823","0.0-2.0-63.0-0.0","34","88358","male","NaN","","","","null","NaN","61","","Stimuli/Experimental_stims/localizer/faces/katsiaryna-endruszkiewicz-BteCp6aq4GI-unsplash.jpg","366418","1","faces","","1","1","0","400","65900","405","66330","","","","","","","","","","","","","","","","","","","","","","","","","","","","","","","","","","","","","","","","","","","","","","","","","","","","","",""
"","iti_localizer","","html-keyboard-response","235","367126","0.0-2.0-63.0-1.0","34","88358","male","null","","","","null","","61","","","366823","1","","","","","","300","66300","303","66735","300","","","","","","","","","","","","","","","","","","","","","","","","","","","","","","","","","","","","","","","","","","","","","","","","","","","","",""
"","localizer","","html-keyboard-response","236","367529","0.0-2.0-64.0-0.0","34","88358","male","8","","","","68","0","62","","Stimuli/Experimental_stims/localizer/faces/hassan-khan-EGVccebWodM-unsplash.jpg","367126","1","faces","","0","0","1","400","66600","403","67038","","","","","","","","","","","","","","","","","","","","","","","","","","","","","","","","","","","","","","","","","","","","","","","","","","","","","",""
"","iti_localizer","","html-keyboard-response","237","367832","0.0-2.0-64.0-1.0","34","88358","male","null","","","","null","","62","","","367529","1","","","","","","300","67000","303","67441","300","","","","","","","","","","","","","","","","","","","","","","","","","","","","","","","","","","","","","","","","","","","","","","","","","","","","",""
"","localizer","","html-keyboard-response","238","368235","0.0-2.0-65.0-0.0","34","88358","male","70","","","","68","0","63","","Stimuli/Experimental_stims/localizer/faces/linkedin-sales-solutions-pAtA8xe_iVM-unsplash.jpg","367832","1","faces","","0","0","1","400","67300","403","67744","","","","","","","","","","","","","","","","","","","","","","","","","","","","","","","","","","","","","","","","","","","","","","","","","","","","","",""
"","iti_localizer","","html-keyboard-response","239","368538","0.0-2.0-65.0-1.0","34","88358","male","null","","","","null","","63","","","368235","1","","","","","","300","67700","303","68147","300","","","","","","","","","","","","","","","","","","","","","","","","","","","","","","","","","","","","","","","","","","","","","","","","","","","","",""
"","localizer","","html-keyboard-response","240","368942","0.0-2.0-66.0-0.0","34","88358","male","131","","","","68","0","64","","Stimuli/Experimental_stims/localizer/faces/philip-martin-5aGUyCW_PJw-unsplash.jpg","368538","1","faces","","0","0","1","400","68000","404","68450","","","","","","","","","","","","","","","","","","","","","","","","","","","","","","","","","","","","","","","","","","","","","","","","","","","","","",""
"","iti_localizer","","html-keyboard-response","241","369245","0.0-2.0-66.0-1.0","34","88358","male","null","","","","null","","64","","","368942","1","","","","","","300","68400","303","68854","300","","","","","","","","","","","","","","","","","","","","","","","","","","","","","","","","","","","","","","","","","","","","","","","","","","","","",""
"","localizer","","html-keyboard-response","242","369649","0.0-2.0-67.0-0.0","34","88358","male","304","","","","68","0","65","","Stimuli/Experimental_stims/localizer/faces/christina-wocintechchat-com-0Zx1bDv5BNY-unsplash.jpg","369245","1","faces","","0","0","1","400","68700","404","69157","","","","","","","","","","","","","","","","","","","","","","","","","","","","","","","","","","","","","","","","","","","","","","","","","","","","","",""
"","iti_localizer","","html-keyboard-response","243","383652","0.0-2.0-67.0-1.0","34","88358","male","null","","","","null","","65","","","369649","1","","","","","","14000","69100","14003","69561","14000","","","","","","","","","","","","","","","","","","","","","","","","","","","","","","","","","","","","","","","","","","","","","","","","","","","","",""
"","localizer","","html-keyboard-response","244","384055","0.0-2.0-68.0-0.0","34","88358","male","NaN","","","","null","NaN","66","","Stimuli/Experimental_stims/localizer/body_parts/bady-abbas-N-VEeMnm7gE-unsplash.jpg","383652","1","body_parts","","0","1","0","400","83100","403","83564","","","","","","","","","","","","","","","","","","","","","","","","","","","","","","","","","","","","","","","","","","","","","","","","","","","","","",""
"","iti_localizer","","html-keyboard-response","245","384358","0.0-2.0-68.0-1.0","34","88358","male","null","","","","null","","66","","","384055","1","","","","","","300","83500","303","83967","300","","","","","","","","","","","","","","","","","","","","","","","","","","","","","","","","","","","","","","","","","","","","","","","","","","","","",""
"","localizer","","html-keyboard-response","246","384762","0.0-2.0-69.0-0.0","34","88358","male","393","","","","68","0","67","","Stimuli/Experimental_stims/localizer/body_parts/hu-chen-tCbTGNwrFNM-unsplash.jpg","384358","1","body_parts","","0","0","1","400","83800","404","84270","","","","","","","","","","","","","","","","","","","","","","","","","","","","","","","","","","","","","","","","","","","","","","","","","","","","","",""
"","iti_localizer","","html-keyboard-response","247","385065","0.0-2.0-69.0-1.0","34","88358","male","null","","","","null","","67","","","384762","1","","","","","","300","84200","303","84674","300","","","","","","","","","","","","","","","","","","","","","","","","","","","","","","","","","","","","","","","","","","","","","","","","","","","","",""
