"success","ttype","start_time","trial_type","trial_index","time_elapsed","internal_node_id","age","PID","gender","rt","responses","view_history","repeat_instructions","key_press","response","index","stimulus_index","path","missed_checkup","start_time_elapsed","run","task","isi","is_odd_ball","no_response","acc","duration","onset","duration_time_elapsed","onset_time_elapsed","trial_duration","left_chosen","chosen_stimulus","unchosen_stimulus","chosen_category","unchosen_category","chosen_rating","unchosen_rating","chosen_path","unchosen_path","pair_id","practice","scramble_screen_time","scramble_instructed_side","stim_type","iti","block","left_stimulus","right_stimulus","left_category","right_category","left_path","right_path","left_rating","right_rating","scramble_acc","scramble_no_response","warning","stimulus_id","item_id","outcome","response_rt","deliberation_reward_tally","choice_type","gain_left","left_item_id","right_item_id","higher_outcome_chosen","chosen_left","old_pair","pair_type","old_response","pair_acc","reward_type","outcome_response","outcome_rt","outcome_acc","category","choice","deliberated_stim","old_rating","new_rating","total_reward_tally"
"true","full_screen","d08172023hr1510","fullscreen","0","22030","0.0-0.0-0.0","23","53808","female","","","","","","","","","","","","","","","","","","","","","","","","","","","","","","","","","","","","","","","","","","","","","","","","","","","","","","","","","","","","","","","","","","","","","","","","","",""
"","get_id","","survey-text","1","30110","0.0-0.0-1.0","23","53808","female","8072","{""Q0"":""23"",""Q1"":""female""}","","","","","","","","","","","","","","","","","","","","","","","","","","","","","","","","","","","","","","","","","","","","","","","","","","","","","","","","","","","","","","","","","","","","","","","",""
"","ratings_instructions","","instructions","2","40658","0.0-1.0-0.0-0.0","23","53808","female","7033","","[{""page_index"":0,""viewing_time"":4286},{""page_index"":1,""viewing_time"":2745}]","","","","","","","","","","","","","","","","","","","","","","","","","","","","","","","","","","","","","","","","","","","","","","","","","","","","","","","","","","","","","","","","","","","","","","",""
"","rating_comprehension_check","","survey-multi-choice","3","45349","0.0-1.0-0.0-1.0","23","53808","female","4682","{""Q0"":""True"",""Q1"":""Mouse""}","","0","","","","","","","","","","","","","","","","","","","","","","","","","","","","","","","","","","","","","","","","","","","","","","","","","","","","","","","","","","","","","","","","","","","","","",""
"","","","html-keyboard-response","4","48827","0.0-1.0-1.0","23","53808","female","3468","","","","68","","","","","","","","","","","","","","","","","","","","","","","","","","","","","","","","","","","","","","","","","","","","","","","","","","","","","","","","","","","","","","","","","","","","",""
"","rating","","html-slider-response","5","53023","0.0-1.0-2.0","23","53808","female","4187","","","","","100","0","38","Stimuli/Experimental_stims/objects/art-lasovsky-8XddFc6NkBY-unsplash.jpg","","","","","","","","","","","","","","","","","","","","","","","","","","","","","","","","","","","","","","","","","","","","","","","","","","","","","","","","","","","","","","","","",""
"","rating","","html-slider-response","6","58691","0.0-1.0-3.0","23","53808","female","5662","","","","","100","1","24","Stimuli/Experimental_stims/body_parts/clay-banks-LjqARJaJotc-unsplash.jpg","","","","","","","","","","","","","","","","","","","","","","","","","","","","","","","","","","","","","","","","","","","","","","","","","","","","","","","","","","","","","","","","",""
"","rating","","html-slider-response","7","62650","0.0-1.0-4.0","23","53808","female","3952","","","","","100","2","13","Stimuli/Experimental_stims/faces/daniel-rigdon-dXmXKPP2L4E-unsplash.jpg","","","","","","","","","","","","","","","","","","","","","","","","","","","","","","","","","","","","","","","","","","","","","","","","","","","","","","","","","","","","","","","","",""
"","rating","","html-slider-response","8","64832","0.0-1.0-5.0","23","53808","female","2175","","","","","99","3","2","Stimuli/Experimental_stims/outdoor_scenes/bruno-van-der-kraan-qez8mNJ3ilU-unsplash.jpg","","","","","","","","","","","","","","","","","","","","","","","","","","","","","","","","","","","","","","","","","","","","","","","","","","","","","","","","","","","","","","","","",""
"","rating","","html-slider-response","9","67515","0.0-1.0-6.0","23","53808","female","2676","","","","","100","4","36","Stimuli/Experimental_stims/objects/alexander-andrews-JYGnB9gTCls-unsplash.jpg","","","","","","","","","","","","","","","","","","","","","","","","","","","","","","","","","","","","","","","","","","","","","","","","","","","","","","","","","","","","","","","","",""
"","rating","","html-slider-response","10","69798","0.0-1.0-7.0","23","53808","female","2277","","","","","100","5","7","Stimuli/Experimental_stims/outdoor_scenes/petr-vysohlid-9fqwGqGLUxc-unsplash.jpg","","","","","","","","","","","","","","","","","","","","","","","","","","","","","","","","","","","","","","","","","","","","","","","","","","","","","","","","","","","","","","","","",""
"","rating","","html-slider-response","11","72218","0.0-1.0-8.0","23","53808","female","2413","","","","","100","6","28","Stimuli/Experimental_stims/body_parts/ira-vishnevskaya-8DQAvdCby1I-unsplash.jpg","","","","","","","","","","","","","","","","","","","","","","","","","","","","","","","","","","","","","","","","","","","","","","","","","","","","","","","","","","","","","","","","",""
"","rating","","html-slider-response","12","74601","0.0-1.0-9.0","23","53808","female","2377","","","","","100","7","14","Stimuli/Experimental_stims/faces/david-siglin-UuW4psOb388-unsplash.jpg","","","","","","","","","","","","","","","","","","","","","","","","","","","","","","","","","","","","","","","","","","","","","","","","","","","","","","","","","","","","","","","","",""
"","rating","","html-slider-response","13","76733","0.0-1.0-10.0","23","53808","female","2126","","","","","100","8","23","Stimuli/Experimental_stims/faces/rikonavt-HQjfrvdTfak-unsplash.jpg","","","","","","","","","","","","","","","","","","","","","","","","","","","","","","","","","","","","","","","","","","","","","","","","","","","","","","","","","","","","","","","","",""
"","rating","","html-slider-response","14","79342","0.0-1.0-11.0","23","53808","female","2603","","","","","100","9","39","Stimuli/Experimental_stims/objects/charlesdeluvio-1-nx1QR5dTE-unsplash.jpg","","","","","","","","","","","","","","","","","","","","","","","","","","","","","","","","","","","","","","","","","","","","","","","","","","","","","","","","","","","","","","","","",""
"","rating","","html-slider-response","15","81435","0.0-1.0-12.0","23","53808","female","2087","","","","","98","10","11","Stimuli/Experimental_stims/outdoor_scenes/stephen-leonardi-gyIRjKPXupE-unsplash.jpg","","","","","","","","","","","","","","","","","","","","","","","","","","","","","","","","","","","","","","","","","","","","","","","","","","","","","","","","","","","","","","","","",""
"","rating","","html-slider-response","16","83480","0.0-1.0-13.0","23","53808","female","2039","","","","","99","11","16","Stimuli/Experimental_stims/faces/freddy-kearney-o-ioeoATbIM-unsplash.jpg","","","","","","","","","","","","","","","","","","","","","","","","","","","","","","","","","","","","","","","","","","","","","","","","","","","","","","","","","","","","","","","","",""
"","rating","","html-slider-response","17","85399","0.0-1.0-14.0","23","53808","female","1913","","","","","99","12","46","Stimuli/Experimental_stims/objects/mockup-graphics-PNsj6RiHAF4-unsplash.jpg","","","","","","","","","","","","","","","","","","","","","","","","","","","","","","","","","","","","","","","","","","","","","","","","","","","","","","","","","","","","","","","","",""
"","rating","","html-slider-response","18","87863","0.0-1.0-15.0","23","53808","female","2457","","","","","100","13","20","Stimuli/Experimental_stims/faces/justin-chen-J7Cf1Gch49E-unsplash.jpg","","","","","","","","","","","","","","","","","","","","","","","","","","","","","","","","","","","","","","","","","","","","","","","","","","","","","","","","","","","","","","","","",""
"","rating","","html-slider-response","19","90096","0.0-1.0-16.0","23","53808","female","2227","","","","","100","14","18","Stimuli/Experimental_stims/faces/jessica-radanavong-mrYkTuAesKE-unsplash.jpg","","","","","","","","","","","","","","","","","","","","","","","","","","","","","","","","","","","","","","","","","","","","","","","","","","","","","","","","","","","","","","","","",""
"","rating","","html-slider-response","20","92611","0.0-1.0-17.0","23","53808","female","2508","","","","","99","15","42","Stimuli/Experimental_stims/objects/jess-bailey-nOeVi8DsN8U-unsplash.jpg","","","","","","","","","","","","","","","","","","","","","","","","","","","","","","","","","","","","","","","","","","","","","","","","","","","","","","","","","","","","","","","","",""
"","rating","","html-slider-response","21","95082","0.0-1.0-18.0","23","53808","female","2466","","","","","100","16","5","Stimuli/Experimental_stims/outdoor_scenes/jeff-king-bJHWJeiHfHc-unsplash.jpg","","","","","","","","","","","","","","","","","","","","","","","","","","","","","","","","","","","","","","","","","","","","","","","","","","","","","","","","","","","","","","","","",""
"","rating","","html-slider-response","22","97666","0.0-1.0-19.0","23","53808","female","2578","","","","","100","17","25","Stimuli/Experimental_stims/body_parts/engin-akyurt-Q2rfH3GW39c-unsplash.jpg","","","","","","","","","","","","","","","","","","","","","","","","","","","","","","","","","","","","","","","","","","","","","","","","","","","","","","","","","","","","","","","","",""
"","rating","","html-slider-response","23","99950","0.0-1.0-20.0","23","53808","female","2277","","","","","100","18","29","Stimuli/Experimental_stims/body_parts/manuel-schinner-ZwjFuJ7ebpk-unsplash.jpg","","","","","","","","","","","","","","","","","","","","","","","","","","","","","","","","","","","","","","","","","","","","","","","","","","","","","","","","","","","","","","","","",""
"","rating","","html-slider-response","24","101969","0.0-1.0-21.0","23","53808","female","2013","","","","","100","19","47","Stimuli/Experimental_stims/objects/ronaldo-arthur-vidal-Cdz_lvnl37k-unsplash.jpg","","","","","","","","","","","","","","","","","","","","","","","","","","","","","","","","","","","","","","","","","","","","","","","","","","","","","","","","","","","","","","","","",""
"","rating","","html-slider-response","25","104076","0.0-1.0-22.0","23","53808","female","2101","","","","","100","20","4","Stimuli/Experimental_stims/outdoor_scenes/jarrett-kow-1ZOyYPOBn7I-unsplash.jpg","","","","","","","","","","","","","","","","","","","","","","","","","","","","","","","","","","","","","","","","","","","","","","","","","","","","","","","","","","","","","","","","",""
"","rating","","html-slider-response","26","106033","0.0-1.0-23.0","23","53808","female","1951","","","","","100","21","31","Stimuli/Experimental_stims/body_parts/sincerely-media-VN6DbKajo5s-unsplash.jpg","","","","","","","","","","","","","","","","","","","","","","","","","","","","","","","","","","","","","","","","","","","","","","","","","","","","","","","","","","","","","","","","",""
"","rating","","html-slider-response","27","108065","0.0-1.0-24.0","23","53808","female","2026","","","","","100","22","44","Stimuli/Experimental_stims/objects/kuiye-chen-NuOGFo4PudE-unsplash.jpg","","","","","","","","","","","","","","","","","","","","","","","","","","","","","","","","","","","","","","","","","","","","","","","","","","","","","","","","","","","","","","","","",""
"","rating","","html-slider-response","28","112192","0.0-1.0-25.0","23","53808","female","4120","","","","","100","23","37","Stimuli/Experimental_stims/objects/alexander-andrews-VLGWE_SumrA-unsplash.jpg","","","","","","","","","","","","","","","","","","","","","","","","","","","","","","","","","","","","","","","","","","","","","","","","","","","","","","","","","","","","","","","","",""
"","rating","","html-slider-response","29","114951","0.0-1.0-26.0","23","53808","female","2753","","","","","100","24","10","Stimuli/Experimental_stims/outdoor_scenes/shannon-kunkle-dM8INmkyDas-unsplash.jpg","","","","","","","","","","","","","","","","","","","","","","","","","","","","","","","","","","","","","","","","","","","","","","","","","","","","","","","","","","","","","","","","",""
"","rating","","html-slider-response","30","117348","0.0-1.0-27.0","23","53808","female","2391","","","","","100","25","40","Stimuli/Experimental_stims/objects/fabian-blank-pElSkGRA2NU-unsplash.jpg","","","","","","","","","","","","","","","","","","","","","","","","","","","","","","","","","","","","","","","","","","","","","","","","","","","","","","","","","","","","","","","","",""
"","rating","","html-slider-response","31","122988","0.0-1.0-28.0","23","53808","female","5633","","","","","100","26","9","Stimuli/Experimental_stims/outdoor_scenes/sergey-pesterev-y-b_FOmJXdg-unsplash.jpg","","","","","","","","","","","","","","","","","","","","","","","","","","","","","","","","","","","","","","","","","","","","","","","","","","","","","","","","","","","","","","","","",""
"","rating","","html-slider-response","32","125448","0.0-1.0-29.0","23","53808","female","2453","","","","","100","27","41","Stimuli/Experimental_stims/objects/insung-yoon-w2JtIQQXoRU-unsplash.jpg","","","","","","","","","","","","","","","","","","","","","","","","","","","","","","","","","","","","","","","","","","","","","","","","","","","","","","","","","","","","","","","","",""
"","rating","","html-slider-response","33","127741","0.0-1.0-30.0","23","53808","female","2286","","","","","100","28","8","Stimuli/Experimental_stims/outdoor_scenes/samsommer-vddccTqwal8-unsplash.jpg","","","","","","","","","","","","","","","","","","","","","","","","","","","","","","","","","","","","","","","","","","","","","","","","","","","","","","","","","","","","","","","","",""
"","rating","","html-slider-response","34","129800","0.0-1.0-31.0","23","53808","female","2052","","","","","100","29","3","Stimuli/Experimental_stims/outdoor_scenes/henry-be-NLF6hTe4PAg-unsplash.jpg","","","","","","","","","","","","","","","","","","","","","","","","","","","","","","","","","","","","","","","","","","","","","","","","","","","","","","","","","","","","","","","","",""
"","rating","","html-slider-response","35","132075","0.0-1.0-32.0","23","53808","female","2269","","","","","99","30","27","Stimuli/Experimental_stims/body_parts/heike-mintel-i_Gns0ELnLw-unsplash.jpg","","","","","","","","","","","","","","","","","","","","","","","","","","","","","","","","","","","","","","","","","","","","","","","","","","","","","","","","","","","","","","","","",""
"","rating","","html-slider-response","36","134402","0.0-1.0-33.0","23","53808","female","2320","","","","","100","31","19","Stimuli/Experimental_stims/faces/joel-mott-LaK153ghdig-unsplash.jpg","","","","","","","","","","","","","","","","","","","","","","","","","","","","","","","","","","","","","","","","","","","","","","","","","","","","","","","","","","","","","","","","",""
"","rating","","html-slider-response","37","136611","0.0-1.0-34.0","23","53808","female","2202","","","","","99","32","45","Stimuli/Experimental_stims/objects/leohoho-rngTKHXumy0-unsplash.jpg","","","","","","","","","","","","","","","","","","","","","","","","","","","","","","","","","","","","","","","","","","","","","","","","","","","","","","","","","","","","","","","","",""
"","rating","","html-slider-response","38","138970","0.0-1.0-35.0","23","53808","female","2352","","","","","100","33","30","Stimuli/Experimental_stims/body_parts/mika-korhonen-Xodzxosar18-unsplash.jpg","","","","","","","","","","","","","","","","","","","","","","","","","","","","","","","","","","","","","","","","","","","","","","","","","","","","","","","","","","","","","","","","",""
"","rating","","html-slider-response","39","141302","0.0-1.0-36.0","23","53808","female","2326","","","","","100","34","21","Stimuli/Experimental_stims/faces/leilani-angel-K84vnnzxmTQ-unsplash.jpg","","","","","","","","","","","","","","","","","","","","","","","","","","","","","","","","","","","","","","","","","","","","","","","","","","","","","","","","","","","","","","","","",""
"","rating","","html-slider-response","40","143774","0.0-1.0-37.0","23","53808","female","2465","","","","","100","35","34","Stimuli/Experimental_stims/body_parts/wagner-santos-mBWMvIuVnso-unsplash.jpg","","","","","","","","","","","","","","","","","","","","","","","","","","","","","","","","","","","","","","","","","","","","","","","","","","","","","","","","","","","","","","","","",""
"","rating","","html-slider-response","41","146094","0.0-1.0-38.0","23","53808","female","2314","","","","","100","36","35","Stimuli/Experimental_stims/body_parts/wc-so-KH4AAPjb-tI-unsplash.jpg","","","","","","","","","","","","","","","","","","","","","","","","","","","","","","","","","","","","","","","","","","","","","","","","","","","","","","","","","","","","","","","","",""
"","rating","","html-slider-response","42","148741","0.0-1.0-39.0","23","53808","female","2642","","","","","100","37","15","Stimuli/Experimental_stims/faces/erik-lucatero-d2MSDujJl2g-unsplash.jpg","","","","","","","","","","","","","","","","","","","","","","","","","","","","","","","","","","","","","","","","","","","","","","","","","","","","","","","","","","","","","","","","",""
"","rating","","html-slider-response","43","151049","0.0-1.0-40.0","23","53808","female","2302","","","","","100","38","1","Stimuli/Experimental_stims/outdoor_scenes/ashim-d-silva-S2Q5mdOrrVc-unsplash.jpg","","","","","","","","","","","","","","","","","","","","","","","","","","","","","","","","","","","","","","","","","","","","","","","","","","","","","","","","","","","","","","","","",""
"","rating","","html-slider-response","44","152981","0.0-1.0-41.0","23","53808","female","1925","","","","","100","39","22","Stimuli/Experimental_stims/faces/ravi-patel-VMGAbeeJTKo-unsplash.jpg","","","","","","","","","","","","","","","","","","","","","","","","","","","","","","","","","","","","","","","","","","","","","","","","","","","","","","","","","","","","","","","","",""
"","rating","","html-slider-response","45","155152","0.0-1.0-42.0","23","53808","female","2164","","","","","100","40","26","Stimuli/Experimental_stims/body_parts/engin-akyurt-x_3gyC42btc-unsplash.jpg","","","","","","","","","","","","","","","","","","","","","","","","","","","","","","","","","","","","","","","","","","","","","","","","","","","","","","","","","","","","","","","","",""
"","rating","","html-slider-response","46","157234","0.0-1.0-43.0","23","53808","female","2075","","","","","100","41","0","Stimuli/Experimental_stims/outdoor_scenes/aleksandra-boguslawska-MS7KD9Ti7FQ-unsplash.jpg","","","","","","","","","","","","","","","","","","","","","","","","","","","","","","","","","","","","","","","","","","","","","","","","","","","","","","","","","","","","","","","","",""
"","rating","","html-slider-response","47","159228","0.0-1.0-44.0","23","53808","female","1989","","","","","99","42","43","Stimuli/Experimental_stims/objects/jonathan-greenaway-Y4hGgeiFn3s-unsplash.jpg","","","","","","","","","","","","","","","","","","","","","","","","","","","","","","","","","","","","","","","","","","","","","","","","","","","","","","","","","","","","","","","","",""
"","rating","","html-slider-response","48","161448","0.0-1.0-45.0","23","53808","female","2214","","","","","100","43","32","Stimuli/Experimental_stims/body_parts/towfiqu-barbhuiya-3AsiVDsZnHg-unsplash.jpg","","","","","","","","","","","","","","","","","","","","","","","","","","","","","","","","","","","","","","","","","","","","","","","","","","","","","","","","","","","","","","","","",""
"","rating","","html-slider-response","49","163543","0.0-1.0-46.0","23","53808","female","2088","","","","","99","44","17","Stimuli/Experimental_stims/faces/good-faces-xmSWVeGEnJw-unsplash.jpg","","","","","","","","","","","","","","","","","","","","","","","","","","","","","","","","","","","","","","","","","","","","","","","","","","","","","","","","","","","","","","","","",""
"","rating","","html-slider-response","50","165801","0.0-1.0-47.0","23","53808","female","2253","","","","","99","45","6","Stimuli/Experimental_stims/outdoor_scenes/meng-ji-8BH_M-53CyA-unsplash.jpg","","","","","","","","","","","","","","","","","","","","","","","","","","","","","","","","","","","","","","","","","","","","","","","","","","","","","","","","","","","","","","","","",""
"","rating","","html-slider-response","51","168059","0.0-1.0-48.0","23","53808","female","2253","","","","","99","46","33","Stimuli/Experimental_stims/body_parts/tucker-good-36skLT5jZcc-unsplash.jpg","","","","","","","","","","","","","","","","","","","","","","","","","","","","","","","","","","","","","","","","","","","","","","","","","","","","","","","","","","","","","","","","",""
"","rating","","html-slider-response","52","170167","0.0-1.0-49.0","23","53808","female","2101","","","","","100","47","12","Stimuli/Experimental_stims/faces/aiony-haust-jmATI5Q_YgY-unsplash.jpg","","","","","","","","","","","","","","","","","","","","","","","","","","","","","","","","","","","","","","","","","","","","","","","","","","","","","","","","","","","","","","","","",""
"","localizer_instructions","","instructions","53","190466","0.0-2.0-0.0-0.0","23","53808","female","20237","","[{""page_index"":0,""viewing_time"":11557},{""page_index"":1,""viewing_time"":7099},{""page_index"":2,""viewing_time"":1580}]","","","","","","","","","","","","","","","","","","","","","","","","","","","","","","","","","","","","","","","","","","","","","","","","","","","","","","","","","","","","","","","","","","","","","","",""
"","localizer_comprehension_check","","survey-multi-choice","54","199512","0.0-2.0-0.0-1.0","23","53808","female","9033","{""Q0"":""True"",""Q1"":""D"",""Q2"":""K""}","","1","","","","","","","","","","","","","","","","","","","","","","","","","","","","","","","","","","","","","","","","","","","","","","","","","","","","","","","","","","","","","","","","","","","","","",""
"","missed_instruction_checkup","","html-keyboard-response","55","203082","0.0-2.0-0.0-2.0-0.0","23","53808","female","3562","","","","68","","","","","1","","","","","","","","","","","","","","","","","","","","","","","","","","","","","","","","","","","","","","","","","","","","","","","","","","","","","","","","","","","","","","","",""
"","localizer_instructions","","instructions","56","208192","0.0-2.0-0.1-0.1","23","53808","female","5104","","[{""page_index"":0,""viewing_time"":2304},{""page_index"":1,""viewing_time"":1995},{""page_index"":2,""viewing_time"":804}]","","","","","","","","","","","","","","","","","","","","","","","","","","","","","","","","","","","","","","","","","","","","","","","","","","","","","","","","","","","","","","","","","","","","","","",""
"","localizer_comprehension_check","","survey-multi-choice","57","214739","0.0-2.0-0.1-1.1","23","53808","female","6537","{""Q0"":""True"",""Q1"":""K"",""Q2"":""D""}","","0","","","","","","","","","","","","","","","","","","","","","","","","","","","","","","","","","","","","","","","","","","","","","","","","","","","","","","","","","","","","","","","","","","","","","",""
"","","","html-keyboard-response","58","226222","0.0-2.0-1.0","23","53808","female","11476","","","","68","","","","","","","","","","","","","","","","","","","","","","","","","","","","","","","","","","","","","","","","","","","","","","","","","","","","","","","","","","","","","","","","","","","","",""
"","localizer","","html-keyboard-response","59","226642","0.0-2.0-2.0-0.0","23","53808","female","NaN","","","","null","NaN","0","","Stimuli/Practice_stims/Localizer/annie-spratt-g9KFpAfQ5bc-unsplash.jpg","","226222","0","NaN","","0","1","0","400","0","420","0","","","","","","","","","","","","","","","","","","","","","","","","","","","","","","","","","","","","","","","","","","","","","","","","","","","","",""
"","iti_localizer","","html-keyboard-response","60","226955","0.0-2.0-2.0-1.0","23","53808","female","null","","","","null","","0","","","","226642","0","","","","","","300","400","313","420","300","","","","","","","","","","","","","","","","","","","","","","","","","","","","","","","","","","","","","","","","","","","","","","","","","","","",""
"","localizer","","html-keyboard-response","61","227373","0.0-2.0-2.1-0.1","23","53808","female","NaN","","","","null","NaN","0","","Stimuli/Practice_stims/Localizer/annie-spratt-g9KFpAfQ5bc-unsplash.jpg","","226955","0","NaN","","0","1","0","400","700","418","733","","","","","","","","","","","","","","","","","","","","","","","","","","","","","","","","","","","","","","","","","","","","","","","","","","","","",""
"","iti_localizer","","html-keyboard-response","62","227687","0.0-2.0-2.1-1.1","23","53808","female","null","","","","null","","0","","","","227373","0","","","","","","300","1100","314","1151","300","","","","","","","","","","","","","","","","","","","","","","","","","","","","","","","","","","","","","","","","","","","","","","","","","","","",""
"","localizer","","html-keyboard-response","63","228104","0.0-2.0-2.2-0.2","23","53808","female","NaN","","","","null","NaN","0","","Stimuli/Practice_stims/Localizer/annie-spratt-g9KFpAfQ5bc-unsplash.jpg","","227687","0","NaN","","0","1","0","400","1400","417","1465","","","","","","","","","","","","","","","","","","","","","","","","","","","","","","","","","","","","","","","","","","","","","","","","","","","","",""
"","iti_localizer","","html-keyboard-response","64","228417","0.0-2.0-2.2-1.2","23","53808","female","null","","","","null","","0","","","","228104","0","","","","","","300","1800","313","1882","300","","","","","","","","","","","","","","","","","","","","","","","","","","","","","","","","","","","","","","","","","","","","","","","","","","","",""
"","localizer","","html-keyboard-response","65","228836","0.0-2.0-2.3-0.3","23","53808","female","NaN","","","","null","NaN","0","","Stimuli/Practice_stims/Localizer/annie-spratt-g9KFpAfQ5bc-unsplash.jpg","","228417","0","NaN","","0","1","0","400","2100","419","2195","","","","","","","","","","","","","","","","","","","","","","","","","","","","","","","","","","","","","","","","","","","","","","","","","","","","",""
"","iti_localizer","","html-keyboard-response","66","229150","0.0-2.0-2.3-1.3","23","53808","female","null","","","","null","","0","","","","228836","0","","","","","","300","2500","314","2614","300","","","","","","","","","","","","","","","","","","","","","","","","","","","","","","","","","","","","","","","","","","","","","","","","","","","",""
"","localizer","","html-keyboard-response","67","229560","0.0-2.0-2.4-0.4","23","53808","female","NaN","","","","null","NaN","0","","Stimuli/Practice_stims/Localizer/annie-spratt-g9KFpAfQ5bc-unsplash.jpg","","229150","0","NaN","","0","1","0","400","2800","410","2928","","","","","","","","","","","","","","","","","","","","","","","","","","","","","","","","","","","","","","","","","","","","","","","","","","","","",""
"","iti_localizer","","html-keyboard-response","68","229874","0.0-2.0-2.4-1.4","23","53808","female","null","","","","null","","0","","","","229560","0","","","","","","300","3200","314","3338","300","","","","","","","","","","","","","","","","","","","","","","","","","","","","","","","","","","","","","","","","","","","","","","","","","","","",""
"","localizer","","html-keyboard-response","69","230291","0.0-2.0-2.5-0.5","23","53808","female","NaN","","","","null","NaN","0","","Stimuli/Practice_stims/Localizer/annie-spratt-g9KFpAfQ5bc-unsplash.jpg","","229874","0","NaN","","0","1","0","400","3500","417","3652","","","","","","","","","","","","","","","","","","","","","","","","","","","","","","","","","","","","","","","","","","","","","","","","","","","","",""
"","iti_localizer","","html-keyboard-response","70","230605","0.0-2.0-2.5-1.5","23","53808","female","null","","","","null","","0","","","","230291","0","","","","","","300","3900","314","4069","300","","","","","","","","","","","","","","","","","","","","","","","","","","","","","","","","","","","","","","","","","","","","","","","","","","","",""
"","localizer","","html-keyboard-response","71","231015","0.0-2.0-2.6-0.6","23","53808","female","287","","","","75","1","0","","Stimuli/Practice_stims/Localizer/annie-spratt-g9KFpAfQ5bc-unsplash.jpg","","230605","0","NaN","","0","0","0","400","4200","410","4383","","","","","","","","","","","","","","","","","","","","","","","","","","","","","","","","","","","","","","","","","","","","","","","","","","","","",""
"","iti_localizer","","html-keyboard-response","72","231327","0.0-2.0-2.6-1.6","23","53808","female","null","","","","null","","0","","","","231015","0","","","","","","300","4600","312","4793","300","","","","","","","","","","","","","","","","","","","","","","","","","","","","","","","","","","","","","","","","","","","","","","","","","","","",""
"","localizer","","html-keyboard-response","73","231745","0.0-2.0-3.0-0.0","23","53808","female","NaN","","","","null","NaN","1","","Stimuli/Practice_stims/Localizer/becca-tapert-sY5RjMB1KkE-unsplash.jpg","","231327","0","NaN","","0","1","0","400","4900","418","5105","","","","","","","","","","","","","","","","","","","","","","","","","","","","","","","","","","","","","","","","","","","","","","","","","","","","",""
"","iti_localizer","","html-keyboard-response","74","232059","0.0-2.0-3.0-1.0","23","53808","female","null","","","","null","","1","","","","231745","0","","","","","","300","5300","314","5523","300","","","","","","","","","","","","","","","","","","","","","","","","","","","","","","","","","","","","","","","","","","","","","","","","","","","",""
"","localizer","","html-keyboard-response","75","232477","0.0-2.0-3.1-0.1","23","53808","female","189","","","","75","1","1","","Stimuli/Practice_stims/Localizer/becca-tapert-sY5RjMB1KkE-unsplash.jpg","","232059","0","NaN","","0","0","0","400","5600","418","5837","","","","","","","","","","","","","","","","","","","","","","","","","","","","","","","","","","","","","","","","","","","","","","","","","","","","",""
"","iti_localizer","","html-keyboard-response","76","232790","0.0-2.0-3.1-1.1","23","53808","female","null","","","","null","","1","","","","232477","0","","","","","","300","6000","313","6255","300","","","","","","","","","","","","","","","","","","","","","","","","","","","","","","","","","","","","","","","","","","","","","","","","","","","",""
"","localizer","","html-keyboard-response","77","233200","0.0-2.0-4.0-0.0","23","53808","female","341","","","","68","0","2","","Stimuli/Practice_stims/Localizer/charl-durand-bsfXvI25iNg-unsplash.jpg","","232790","0","NaN","","1","0","0","400","6300","410","6568","","","","","","","","","","","","","","","","","","","","","","","","","","","","","","","","","","","","","","","","","","","","","","","","","","","","",""
"","iti_localizer","","html-keyboard-response","78","233514","0.0-2.0-4.0-1.0","23","53808","female","null","","","","null","","2","","","","233200","0","","","","","","300","6700","314","6978","300","","","","","","","","","","","","","","","","","","","","","","","","","","","","","","","","","","","","","","","","","","","","","","","","","","","",""
"","localizer","","html-keyboard-response","79","233932","0.0-2.0-5.0-0.0","23","53808","female","NaN","","","","null","NaN","3","","Stimuli/Practice_stims/Localizer/nizar-albusaidy-B2r2SWAf5CE-unsplash.jpg","","233514","0","NaN","","0","1","0","400","7000","418","7292","","","","","","","","","","","","","","","","","","","","","","","","","","","","","","","","","","","","","","","","","","","","","","","","","","","","",""
"","iti_localizer","","html-keyboard-response","80","234247","0.0-2.0-5.0-1.0","23","53808","female","null","","","","null","","3","","","","233932","0","","","","","","300","7400","315","7710","300","","","","","","","","","","","","","","","","","","","","","","","","","","","","","","","","","","","","","","","","","","","","","","","","","","","",""
"","localizer","","html-keyboard-response","81","234663","0.0-2.0-5.1-0.1","23","53808","female","NaN","","","","null","NaN","3","","Stimuli/Practice_stims/Localizer/nizar-albusaidy-B2r2SWAf5CE-unsplash.jpg","","234247","0","NaN","","0","1","0","400","7700","416","8025","","","","","","","","","","","","","","","","","","","","","","","","","","","","","","","","","","","","","","","","","","","","","","","","","","","","",""
"","iti_localizer","","html-keyboard-response","82","234977","0.0-2.0-5.1-1.1","23","53808","female","null","","","","null","","3","","","","234663","0","","","","","","300","8100","314","8441","300","","","","","","","","","","","","","","","","","","","","","","","","","","","","","","","","","","","","","","","","","","","","","","","","","","","",""
"","localizer","","html-keyboard-response","83","235387","0.0-2.0-5.2-0.2","23","53808","female","235","","","","68","0","3","","Stimuli/Practice_stims/Localizer/nizar-albusaidy-B2r2SWAf5CE-unsplash.jpg","","234977","0","NaN","","0","0","1","400","8400","410","8755","","","","","","","","","","","","","","","","","","","","","","","","","","","","","","","","","","","","","","","","","","","","","","","","","","","","",""
"","iti_localizer","","html-keyboard-response","84","235699","0.0-2.0-5.2-1.2","23","53808","female","null","","","","null","","3","","","","235387","0","","","","","","300","8800","312","9165","300","","","","","","","","","","","","","","","","","","","","","","","","","","","","","","","","","","","","","","","","","","","","","","","","","","","",""
"","localizer","","html-keyboard-response","85","236110","0.0-2.0-6.0-0.0","23","53808","female","NaN","","","","null","NaN","4","","Stimuli/Practice_stims/Localizer/randy-fath-epf1tdtIIkM-unsplash.jpg","","235699","0","NaN","","1","1","0","400","9100","411","9477","","","","","","","","","","","","","","","","","","","","","","","","","","","","","","","","","","","","","","","","","","","","","","","","","","","","",""
"","iti_localizer","","html-keyboard-response","86","236424","0.0-2.0-6.0-1.0","23","53808","female","null","","","","null","","4","","","","236110","0","","","","","","300","9500","314","9888","300","","","","","","","","","","","","","","","","","","","","","","","","","","","","","","","","","","","","","","","","","","","","","","","","","","","",""
"","localizer","","html-keyboard-response","87","236842","0.0-2.0-6.1-0.1","23","53808","female","NaN","","","","null","NaN","4","","Stimuli/Practice_stims/Localizer/randy-fath-epf1tdtIIkM-unsplash.jpg","","236424","0","NaN","","1","1","0","400","9800","418","10202","","","","","","","","","","","","","","","","","","","","","","","","","","","","","","","","","","","","","","","","","","","","","","","","","","","","",""
"","iti_localizer","","html-keyboard-response","88","237156","0.0-2.0-6.1-1.1","23","53808","female","null","","","","null","","4","","","","236842","0","","","","","","300","10200","314","10620","300","","","","","","","","","","","","","","","","","","","","","","","","","","","","","","","","","","","","","","","","","","","","","","","","","","","",""
"","localizer","","html-keyboard-response","89","237567","0.0-2.0-6.2-0.2","23","53808","female","NaN","","","","null","NaN","4","","Stimuli/Practice_stims/Localizer/randy-fath-epf1tdtIIkM-unsplash.jpg","","237156","0","NaN","","1","1","0","400","10500","411","10934","","","","","","","","","","","","","","","","","","","","","","","","","","","","","","","","","","","","","","","","","","","","","","","","","","","","",""
"","iti_localizer","","html-keyboard-response","90","237882","0.0-2.0-6.2-1.2","23","53808","female","null","","","","null","","4","","","","237567","0","","","","","","300","10900","315","11345","300","","","","","","","","","","","","","","","","","","","","","","","","","","","","","","","","","","","","","","","","","","","","","","","","","","","",""
"","localizer","","html-keyboard-response","91","238301","0.0-2.0-6.3-0.3","23","53808","female","NaN","","","","null","NaN","4","","Stimuli/Practice_stims/Localizer/randy-fath-epf1tdtIIkM-unsplash.jpg","","237882","0","NaN","","1","1","0","400","11200","419","11660","","","","","","","","","","","","","","","","","","","","","","","","","","","","","","","","","","","","","","","","","","","","","","","","","","","","",""
"","iti_localizer","","html-keyboard-response","92","238614","0.0-2.0-6.3-1.3","23","53808","female","null","","","","null","","4","","","","238301","0","","","","","","300","11600","313","12079","300","","","","","","","","","","","","","","","","","","","","","","","","","","","","","","","","","","","","","","","","","","","","","","","","","","","",""
"","localizer","","html-keyboard-response","93","239034","0.0-2.0-6.4-0.4","23","53808","female","0","","","","68","0","4","","Stimuli/Practice_stims/Localizer/randy-fath-epf1tdtIIkM-unsplash.jpg","","238614","0","NaN","","1","0","0","400","11900","420","12392","","","","","","","","","","","","","","","","","","","","","","","","","","","","","","","","","","","","","","","","","","","","","","","","","","","","",""
"","iti_localizer","","html-keyboard-response","94","239348","0.0-2.0-6.4-1.4","23","53808","female","null","","","","null","","4","","","","239034","0","","","","","","300","12300","314","12812","300","","","","","","","","","","","","","","","","","","","","","","","","","","","","","","","","","","","","","","","","","","","","","","","","","","","",""
"","localizer","","html-keyboard-response","95","239758","0.0-2.0-7.0-0.0","23","53808","female","NaN","","","","null","NaN","5","","Stimuli/Practice_stims/Localizer/yassine-khalfalli-adsQ9d_Cx0c-unsplash.jpg","","239348","0","NaN","","0","1","0","400","12600","410","13126","","","","","","","","","","","","","","","","","","","","","","","","","","","","","","","","","","","","","","","","","","","","","","","","","","","","",""
"","iti_localizer","","html-keyboard-response","96","240073","0.0-2.0-7.0-1.0","23","53808","female","null","","","","null","","5","","","","239758","0","","","","","","300","13000","315","13536","300","","","","","","","","","","","","","","","","","","","","","","","","","","","","","","","","","","","","","","","","","","","","","","","","","","","",""
"","localizer","","html-keyboard-response","97","240491","0.0-2.0-7.1-0.1","23","53808","female","NaN","","","","null","NaN","5","","Stimuli/Practice_stims/Localizer/yassine-khalfalli-adsQ9d_Cx0c-unsplash.jpg","","240073","0","NaN","","0","1","0","400","13300","418","13851","","","","","","","","","","","","","","","","","","","","","","","","","","","","","","","","","","","","","","","","","","","","","","","","","","","","",""
"","iti_localizer","","html-keyboard-response","98","240805","0.0-2.0-7.1-1.1","23","53808","female","null","","","","null","","5","","","","240491","0","","","","","","300","13700","314","14269","300","","","","","","","","","","","","","","","","","","","","","","","","","","","","","","","","","","","","","","","","","","","","","","","","","","","",""
"","localizer","","html-keyboard-response","99","241215","0.0-2.0-7.2-0.2","23","53808","female","293","","","","68","0","5","","Stimuli/Practice_stims/Localizer/yassine-khalfalli-adsQ9d_Cx0c-unsplash.jpg","","240805","0","NaN","","0","0","1","400","14000","410","14583","","","","","","","","","","","","","","","","","","","","","","","","","","","","","","","","","","","","","","","","","","","","","","","","","","","","",""
"","iti_localizer","","html-keyboard-response","100","241529","0.0-2.0-7.2-1.2","23","53808","female","null","","","","null","","5","","","","241215","0","","","","","","300","14400","314","14993","300","","","","","","","","","","","","","","","","","","","","","","","","","","","","","","","","","","","","","","","","","","","","","","","","","","","",""
"","practice_over","","html-keyboard-response","101","242894","0.0-2.0-7.2-2.2-0.2","23","53808","female","1359","","","","68","","","","","","","","","","","","","","","","","","","","","","","","","","","","","","","","","","","","","","","","","","","","","","","","","","","","","","","","","","","","","","","","","","","","",""
"","start_run","","html-keyboard-response","102","244812","0.0-2.0-7.2-2.2-1.2","23","53808","female","1911","","","","84","","","","","","","","","","","","","","","","","","","","","","","","","","","","","","","","","","","","","","","","","","","","","","","","","","","","","","","","","","","","","","","","","","","","",""
"","localizer","","html-keyboard-response","103","245230","0.0-2.0-8.0-0.0","23","53808","female","NaN","","","","null","NaN","6","","Stimuli/Experimental_stims/localizer/faces/christina-wocintechchat-com-0Zx1bDv5BNY-unsplash.jpg","","244812","1","faces","","0","1","0","400","0","418","0","","","","","","","","","","","","","","","","","","","","","","","","","","","","","","","","","","","","","","","","","","","","","","","","","","","","",""
"","iti_localizer","","html-keyboard-response","104","245546","0.0-2.0-8.0-1.0","23","53808","female","null","","","","null","","6","","","","245230","1","","","","","","300","400","316","418","300","","","","","","","","","","","","","","","","","","","","","","","","","","","","","","","","","","","","","","","","","","","","","","","","","","","",""
"","localizer","","html-keyboard-response","105","245964","0.0-2.0-9.0-0.0","23","53808","female","NaN","","","","null","NaN","7","","Stimuli/Experimental_stims/localizer/faces/jeffery-erhunse-BQMZ5ligqps-unsplash.jpg","","245546","1","faces","","0","1","0","400","700","418","734","","","","","","","","","","","","","","","","","","","","","","","","","","","","","","","","","","","","","","","","","","","","","","","","","","","","",""
"","iti_localizer","","html-keyboard-response","106","246286","0.0-2.0-9.0-1.0","23","53808","female","null","","","","null","","7","","","","245964","1","","","","","","300","1100","322","1152","300","","","","","","","","","","","","","","","","","","","","","","","","","","","","","","","","","","","","","","","","","","","","","","","","","","","",""
"","localizer","","html-keyboard-response","107","246695","0.0-2.0-10.0-0.0","23","53808","female","150","","","","75","1","8","","Stimuli/Experimental_stims/localizer/faces/matheus-ferrero-W7b3eDUb_2I-unsplash.jpg","","246286","1","faces","","0","0","0","400","1400","409","1474","","","","","","","","","","","","","","","","","","","","","","","","","","","","","","","","","","","","","","","","","","","","","","","","","","","","",""
"","iti_localizer","","html-keyboard-response","108","247008","0.0-2.0-10.0-1.0","23","53808","female","null","","","","null","","8","","","","246695","1","","","","","","300","1800","313","1883","300","","","","","","","","","","","","","","","","","","","","","","","","","","","","","","","","","","","","","","","","","","","","","","","","","","","",""
"","localizer","","html-keyboard-response","109","247426","0.0-2.0-11.0-0.0","23","53808","female","111","","","","68","0","9","","Stimuli/Experimental_stims/localizer/faces/jurica-koletic-7YVZYZeITc8-unsplash.jpg","","247008","1","faces","","1","0","0","400","2100","418","2196","","","","","","","","","","","","","","","","","","","","","","","","","","","","","","","","","","","","","","","","","","","","","","","","","","","","",""
"","iti_localizer","","html-keyboard-response","110","247740","0.0-2.0-11.0-1.0","23","53808","female","null","","","","null","","9","","","","247426","1","","","","","","300","2500","314","2614","300","","","","","","","","","","","","","","","","","","","","","","","","","","","","","","","","","","","","","","","","","","","","","","","","","","","",""
"","localizer","","html-keyboard-response","111","248151","0.0-2.0-12.0-0.0","23","53808","female","169","","","","75","1","10","","Stimuli/Experimental_stims/localizer/faces/drew-hays-agGIKYs4mYs-unsplash.jpg","","247740","1","faces","","0","0","0","400","2800","411","2928","","","","","","","","","","","","","","","","","","","","","","","","","","","","","","","","","","","","","","","","","","","","","","","","","","","","",""
"","iti_localizer","","html-keyboard-response","112","248464","0.0-2.0-12.0-1.0","23","53808","female","null","","","","null","","10","","","","248151","1","","","","","","300","3200","313","3339","300","","","","","","","","","","","","","","","","","","","","","","","","","","","","","","","","","","","","","","","","","","","","","","","","","","","",""
"","localizer","","html-keyboard-response","113","248881","0.0-2.0-13.0-0.0","23","53808","female","NaN","","","","null","NaN","11","","Stimuli/Experimental_stims/localizer/faces/rui-silvestre-hAMJpesMeDE-unsplash.jpg","","248464","1","faces","","0","1","0","400","3500","417","3652","","","","","","","","","","","","","","","","","","","","","","","","","","","","","","","","","","","","","","","","","","","","","","","","","","","","",""
"","iti_localizer","","html-keyboard-response","114","249195","0.0-2.0-13.0-1.0","23","53808","female","null","","","","null","","11","","","","248881","1","","","","","","300","3900","314","4069","300","","","","","","","","","","","","","","","","","","","","","","","","","","","","","","","","","","","","","","","","","","","","","","","","","","","",""
"","localizer","","html-keyboard-response","115","249613","0.0-2.0-14.0-0.0","23","53808","female","NaN","","","","null","NaN","12","","Stimuli/Experimental_stims/localizer/faces/sean-kong--1B_y4wGs-s-unsplash.jpg","","249195","1","faces","","0","1","0","400","4200","418","4383","","","","","","","","","","","","","","","","","","","","","","","","","","","","","","","","","","","","","","","","","","","","","","","","","","","","",""
"","iti_localizer","","html-keyboard-response","116","249929","0.0-2.0-14.0-1.0","23","53808","female","null","","","","null","","12","","","","249613","1","","","","","","300","4600","316","4801","300","","","","","","","","","","","","","","","","","","","","","","","","","","","","","","","","","","","","","","","","","","","","","","","","","","","",""
"","localizer","","html-keyboard-response","117","250349","0.0-2.0-15.0-0.0","23","53808","female","NaN","","","","null","NaN","13","","Stimuli/Experimental_stims/localizer/faces/vince-fleming-j3lf-Jn6deo-unsplash.jpg","","249929","1","faces","","0","1","0","400","4900","420","5117","","","","","","","","","","","","","","","","","","","","","","","","","","","","","","","","","","","","","","","","","","","","","","","","","","","","",""
"","iti_localizer","","html-keyboard-response","118","250670","0.0-2.0-15.0-1.0","23","53808","female","null","","","","null","","13","","","","250349","1","","","","","","300","5300","321","5537","300","","","","","","","","","","","","","","","","","","","","","","","","","","","","","","","","","","","","","","","","","","","","","","","","","","","",""
"","localizer","","html-keyboard-response","119","251079","0.0-2.0-16.0-0.0","23","53808","female","NaN","","","","null","NaN","14","","Stimuli/Experimental_stims/localizer/faces/tyler-nix-ZGa9d1a_4tA-unsplash.jpg","","250670","1","faces","","0","1","0","400","5600","409","5858","","","","","","","","","","","","","","","","","","","","","","","","","","","","","","","","","","","","","","","","","","","","","","","","","","","","",""
"","iti_localizer","","html-keyboard-response","120","251393","0.0-2.0-16.0-1.0","23","53808","female","null","","","","null","","14","","","","251079","1","","","","","","300","6000","314","6267","300","","","","","","","","","","","","","","","","","","","","","","","","","","","","","","","","","","","","","","","","","","","","","","","","","","","",""
"","localizer","","html-keyboard-response","121","251811","0.0-2.0-17.0-0.0","23","53808","female","NaN","","","","null","NaN","15","","Stimuli/Experimental_stims/localizer/faces/abstral-official-cyOKLSgkgCE-unsplash.jpg","","251393","1","faces","","0","1","0","400","6300","418","6581","","","","","","","","","","","","","","","","","","","","","","","","","","","","","","","","","","","","","","","","","","","","","","","","","","","","",""
"","iti_localizer","","html-keyboard-response","122","252124","0.0-2.0-17.0-1.0","23","53808","female","null","","","","null","","15","","","","251811","1","","","","","","300","6700","313","6999","300","","","","","","","","","","","","","","","","","","","","","","","","","","","","","","","","","","","","","","","","","","","","","","","","","","","",""
"","localizer","","html-keyboard-response","123","252542","0.0-2.0-18.0-0.0","23","53808","female","NaN","","","","null","NaN","16","","Stimuli/Experimental_stims/localizer/faces/ethan-haddox-__ng3cRXmFE-unsplash.jpg","","252124","1","faces","","0","1","0","400","7000","418","7312","","","","","","","","","","","","","","","","","","","","","","","","","","","","","","","","","","","","","","","","","","","","","","","","","","","","",""
"","iti_localizer","","html-keyboard-response","124","252855","0.0-2.0-18.0-1.0","23","53808","female","null","","","","null","","16","","","","252542","1","","","","","","300","7400","313","7730","300","","","","","","","","","","","","","","","","","","","","","","","","","","","","","","","","","","","","","","","","","","","","","","","","","","","",""
"","localizer","","html-keyboard-response","125","253274","0.0-2.0-19.0-0.0","23","53808","female","NaN","","","","null","NaN","17","","Stimuli/Experimental_stims/localizer/faces/foto-sushi-6anudmpILw4-unsplash.jpg","","252855","1","faces","","0","1","0","400","7700","419","8043","","","","","","","","","","","","","","","","","","","","","","","","","","","","","","","","","","","","","","","","","","","","","","","","","","","","",""
"","iti_localizer","","html-keyboard-response","126","253588","0.0-2.0-19.0-1.0","23","53808","female","null","","","","null","","17","","","","253274","1","","","","","","300","8100","314","8462","300","","","","","","","","","","","","","","","","","","","","","","","","","","","","","","","","","","","","","","","","","","","","","","","","","","","",""
"","localizer","","html-keyboard-response","127","254006","0.0-2.0-20.0-0.0","23","53808","female","51","","","","68","0","18","","Stimuli/Experimental_stims/localizer/faces/christian-ferrer-8vT-DgHZDG4-unsplash.jpg","","253588","1","faces","","0","0","1","400","8400","418","8776","","","","","","","","","","","","","","","","","","","","","","","","","","","","","","","","","","","","","","","","","","","","","","","","","","","","",""
"","iti_localizer","","html-keyboard-response","128","254317","0.0-2.0-20.0-1.0","23","53808","female","null","","","","null","","18","","","","254006","1","","","","","","300","8800","311","9194","300","","","","","","","","","","","","","","","","","","","","","","","","","","","","","","","","","","","","","","","","","","","","","","","","","","","",""
"","localizer","","html-keyboard-response","129","254729","0.0-2.0-21.0-0.0","23","53808","female","298","","","","68","0","19","","Stimuli/Experimental_stims/localizer/faces/stephanie-nakagawa-ADSKIn0ScDg-unsplash.jpg","","254317","1","faces","","0","0","1","400","9100","412","9505","","","","","","","","","","","","","","","","","","","","","","","","","","","","","","","","","","","","","","","","","","","","","","","","","","","","",""
"","iti_localizer","","html-keyboard-response","130","255043","0.0-2.0-21.0-1.0","23","53808","female","null","","","","null","","19","","","","254729","1","","","","","","300","9500","314","9917","300","","","","","","","","","","","","","","","","","","","","","","","","","","","","","","","","","","","","","","","","","","","","","","","","","","","",""
"","localizer","","html-keyboard-response","131","255461","0.0-2.0-22.0-0.0","23","53808","female","NaN","","","","null","NaN","20","","Stimuli/Experimental_stims/localizer/faces/toa-heftiba-2O1EUSTRBrY-unsplash.jpg","","255043","1","faces","","1","1","0","400","9800","418","10231","","","","","","","","","","","","","","","","","","","","","","","","","","","","","","","","","","","","","","","","","","","","","","","","","","","","",""
"","iti_localizer","","html-keyboard-response","132","255775","0.0-2.0-22.0-1.0","23","53808","female","null","","","","null","","20","","","","255461","1","","","","","","300","10200","314","10649","300","","","","","","","","","","","","","","","","","","","","","","","","","","","","","","","","","","","","","","","","","","","","","","","","","","","",""
"","localizer","","html-keyboard-response","133","256194","0.0-2.0-23.0-0.0","23","53808","female","NaN","","","","null","NaN","21","","Stimuli/Experimental_stims/localizer/faces/darshan-patel-QJEVpydulGs-unsplash.jpg","","255775","1","faces","","0","1","0","400","10500","419","10963","","","","","","","","","","","","","","","","","","","","","","","","","","","","","","","","","","","","","","","","","","","","","","","","","","","","",""
"","iti_localizer","","html-keyboard-response","134","256505","0.0-2.0-23.0-1.0","23","53808","female","null","","","","null","","21","","","","256194","1","","","","","","300","10900","311","11382","300","","","","","","","","","","","","","","","","","","","","","","","","","","","","","","","","","","","","","","","","","","","","","","","","","","","",""
"","localizer","","html-keyboard-response","135","256925","0.0-2.0-24.0-0.0","23","53808","female","397","","","","68","0","22","","Stimuli/Experimental_stims/localizer/faces/mubariz-mehdizadeh-o-wlIFT4zE4-unsplash.jpg","","256505","1","faces","","0","0","1","400","11200","420","11693","","","","","","","","","","","","","","","","","","","","","","","","","","","","","","","","","","","","","","","","","","","","","","","","","","","","",""
"","iti_localizer","","html-keyboard-response","136","257239","0.0-2.0-24.0-1.0","23","53808","female","null","","","","null","","22","","","","256925","1","","","","","","300","11600","314","12113","300","","","","","","","","","","","","","","","","","","","","","","","","","","","","","","","","","","","","","","","","","","","","","","","","","","","",""
"","localizer","","html-keyboard-response","137","257657","0.0-2.0-25.0-0.0","23","53808","female","NaN","","","","null","NaN","23","","Stimuli/Experimental_stims/localizer/faces/midas-hofstra-tidSLv-UaNs-unsplash.jpg","","257239","1","faces","","0","1","0","400","11900","418","12427","","","","","","","","","","","","","","","","","","","","","","","","","","","","","","","","","","","","","","","","","","","","","","","","","","","","",""
"","iti_localizer","","html-keyboard-response","138","257963","0.0-2.0-25.0-1.0","23","53808","female","null","","","","null","","23","","","","257657","1","","","","","","300","12300","306","12845","300","","","","","","","","","","","","","","","","","","","","","","","","","","","","","","","","","","","","","","","","","","","","","","","","","","","",""
"","localizer","","html-keyboard-response","139","258378","0.0-2.0-26.0-0.0","23","53808","female","409","","","","68","0","24","","Stimuli/Experimental_stims/localizer/faces/toa-heftiba-O3ymvT7Wf9U-unsplash.jpg","","257963","1","faces","","0","0","1","400","12600","415","13151","","","","","","","","","","","","","","","","","","","","","","","","","","","","","","","","","","","","","","","","","","","","","","","","","","","","",""
"","iti_localizer","","html-keyboard-response","140","258685","0.0-2.0-26.0-1.0","23","53808","female","null","","","","null","","24","","","","258378","1","","","","","","300","13000","307","13566","300","","","","","","","","","","","","","","","","","","","","","","","","","","","","","","","","","","","","","","","","","","","","","","","","","","","",""
"","localizer","","html-keyboard-response","141","259097","0.0-2.0-27.0-0.0","23","53808","female","385","","","","68","0","25","","Stimuli/Experimental_stims/localizer/faces/katsiaryna-endruszkiewicz-BteCp6aq4GI-unsplash.jpg","","258685","1","faces","","0","0","1","400","13300","412","13873","","","","","","","","","","","","","","","","","","","","","","","","","","","","","","","","","","","","","","","","","","","","","","","","","","","","",""
"","iti_localizer","","html-keyboard-response","142","273111","0.0-2.0-27.0-1.0","23","53808","female","null","","","","null","","25","","","","259097","1","","","","","","14000","13700","14014","14285","14000","","","","","","","","","","","","","","","","","","","","","","","","","","","","","","","","","","","","","","","","","","","","","","","","","","","",""
"","localizer","","html-keyboard-response","143","273529","0.0-2.0-28.0-0.0","23","53808","female","29","","","","68","0","26","","Stimuli/Experimental_stims/localizer/outdoor_scenes/jaanus-jagomagi-FddgewYQF2M-unsplash.jpg","","273111","1","outdoor_scenes","","0","0","1","400","27700","418","28299","","","","","","","","","","","","","","","","","","","","","","","","","","","","","","","","","","","","","","","","","","","","","","","","","","","","",""
"","iti_localizer","","html-keyboard-response","144","273842","0.0-2.0-28.0-1.0","23","53808","female","null","","","","null","","26","","","","273529","1","","","","","","300","28100","313","28717","300","","","","","","","","","","","","","","","","","","","","","","","","","","","","","","","","","","","","","","","","","","","","","","","","","","","",""
"","localizer","","html-keyboard-response","145","274262","0.0-2.0-29.0-0.0","23","53808","female","148","","","","68","0","27","","Stimuli/Experimental_stims/localizer/outdoor_scenes/v2osk-1Z2niiBPg5A-unsplash.jpg","","273842","1","outdoor_scenes","","1","0","0","400","28400","420","29030","","","","","","","","","","","","","","","","","","","","","","","","","","","","","","","","","","","","","","","","","","","","","","","","","","","","",""
"","iti_localizer","","html-keyboard-response","146","274575","0.0-2.0-29.0-1.0","23","53808","female","null","","","","null","","27","","","","274262","1","","","","","","300","28800","313","29450","300","","","","","","","","","","","","","","","","","","","","","","","","","","","","","","","","","","","","","","","","","","","","","","","","","","","",""
"","localizer","","html-keyboard-response","147","274994","0.0-2.0-30.0-0.0","23","53808","female","NaN","","","","null","NaN","28","","Stimuli/Experimental_stims/localizer/outdoor_scenes/wai-siew-mTFyV8oNDzU-unsplash.jpg","","274575","1","outdoor_scenes","","0","1","0","400","29100","419","29763","","","","","","","","","","","","","","","","","","","","","","","","","","","","","","","","","","","","","","","","","","","","","","","","","","","","",""
"","iti_localizer","","html-keyboard-response","148","275308","0.0-2.0-30.0-1.0","23","53808","female","null","","","","null","","28","","","","274994","1","","","","","","300","29500","314","30182","300","","","","","","","","","","","","","","","","","","","","","","","","","","","","","","","","","","","","","","","","","","","","","","","","","","","",""
"","localizer","","html-keyboard-response","149","275718","0.0-2.0-31.0-0.0","23","53808","female","333","","","","68","0","29","","Stimuli/Experimental_stims/localizer/outdoor_scenes/jay-cai-F_laX9E8CUo-unsplash.jpg","","275308","1","outdoor_scenes","","0","0","1","400","29800","410","30496","","","","","","","","","","","","","","","","","","","","","","","","","","","","","","","","","","","","","","","","","","","","","","","","","","","","",""
"","iti_localizer","","html-keyboard-response","150","276032","0.0-2.0-31.0-1.0","23","53808","female","null","","","","null","","29","","","","275718","1","","","","","","300","30200","314","30906","300","","","","","","","","","","","","","","","","","","","","","","","","","","","","","","","","","","","","","","","","","","","","","","","","","","","",""
"","localizer","","html-keyboard-response","151","276448","0.0-2.0-32.0-0.0","23","53808","female","302","","","","68","0","30","","Stimuli/Experimental_stims/localizer/outdoor_scenes/jeremy-cai-ucYWe5mzTMU-unsplash.jpg","","276032","1","outdoor_scenes","","0","0","1","400","30500","416","31220","","","","","","","","","","","","","","","","","","","","","","","","","","","","","","","","","","","","","","","","","","","","","","","","","","","","",""
"","iti_localizer","","html-keyboard-response","152","276763","0.0-2.0-32.0-1.0","23","53808","female","null","","","","null","","30","","","","276448","1","","","","","","300","30900","315","31636","300","","","","","","","","","","","","","","","","","","","","","","","","","","","","","","","","","","","","","","","","","","","","","","","","","","","",""
"","localizer","","html-keyboard-response","153","277181","0.0-2.0-33.0-0.0","23","53808","female","387","","","","68","0","31","","Stimuli/Experimental_stims/localizer/outdoor_scenes/erol-ahmed-d3pTF3r_hwY-unsplash.jpg","","276763","1","outdoor_scenes","","0","0","1","400","31200","418","31951","","","","","","","","","","","","","","","","","","","","","","","","","","","","","","","","","","","","","","","","","","","","","","","","","","","","",""
"","iti_localizer","","html-keyboard-response","154","277495","0.0-2.0-33.0-1.0","23","53808","female","null","","","","null","","31","","","","277181","1","","","","","","300","31600","314","32369","300","","","","","","","","","","","","","","","","","","","","","","","","","","","","","","","","","","","","","","","","","","","","","","","","","","","",""
"","localizer","","html-keyboard-response","155","277914","0.0-2.0-34.0-0.0","23","53808","female","363","","","","68","0","32","","Stimuli/Experimental_stims/localizer/outdoor_scenes/quino-al-vmZ2DehWQ3Q-unsplash.jpg","","277495","1","outdoor_scenes","","0","0","1","400","31900","419","32683","","","","","","","","","","","","","","","","","","","","","","","","","","","","","","","","","","","","","","","","","","","","","","","","","","","","",""
"","iti_localizer","","html-keyboard-response","156","278228","0.0-2.0-34.0-1.0","23","53808","female","null","","","","null","","32","","","","277914","1","","","","","","300","32300","314","33102","300","","","","","","","","","","","","","","","","","","","","","","","","","","","","","","","","","","","","","","","","","","","","","","","","","","","",""
"","localizer","","html-keyboard-response","157","278646","0.0-2.0-35.0-0.0","23","53808","female","NaN","","","","null","NaN","33","","Stimuli/Experimental_stims/localizer/outdoor_scenes/kenneth-thewissen-D76DklsG-5U-unsplash.jpg","","278228","1","outdoor_scenes","","0","1","0","400","32600","418","33416","","","","","","","","","","","","","","","","","","","","","","","","","","","","","","","","","","","","","","","","","","","","","","","","","","","","",""
"","iti_localizer","","html-keyboard-response","158","278960","0.0-2.0-35.0-1.0","23","53808","female","null","","","","null","","33","","","","278646","1","","","","","","300","33000","314","33834","300","","","","","","","","","","","","","","","","","","","","","","","","","","","","","","","","","","","","","","","","","","","","","","","","","","","",""
"","localizer","","html-keyboard-response","159","279378","0.0-2.0-36.0-0.0","23","53808","female","396","","","","68","0","34","","Stimuli/Experimental_stims/localizer/outdoor_scenes/johny-goerend-U_diPCXCBxU-unsplash.jpg","","278960","1","outdoor_scenes","","0","0","1","400","33300","418","34148","","","","","","","","","","","","","","","","","","","","","","","","","","","","","","","","","","","","","","","","","","","","","","","","","","","","",""
"","iti_localizer","","html-keyboard-response","160","279692","0.0-2.0-36.0-1.0","23","53808","female","null","","","","null","","34","","","","279378","1","","","","","","300","33700","314","34566","300","","","","","","","","","","","","","","","","","","","","","","","","","","","","","","","","","","","","","","","","","","","","","","","","","","","",""
"","localizer","","html-keyboard-response","161","280110","0.0-2.0-37.0-0.0","23","53808","female","354","","","","68","0","35","","Stimuli/Experimental_stims/localizer/outdoor_scenes/ken-cheung-KonWFWUaAuk-unsplash.jpg","","279692","1","outdoor_scenes","","0","0","1","400","34000","418","34880","","","","","","","","","","","","","","","","","","","","","","","","","","","","","","","","","","","","","","","","","","","","","","","","","","","","",""
"","iti_localizer","","html-keyboard-response","162","280424","0.0-2.0-37.0-1.0","23","53808","female","null","","","","null","","35","","","","280110","1","","","","","","300","34400","314","35298","300","","","","","","","","","","","","","","","","","","","","","","","","","","","","","","","","","","","","","","","","","","","","","","","","","","","",""
"","localizer","","html-keyboard-response","163","280843","0.0-2.0-38.0-0.0","23","53808","female","NaN","","","","null","NaN","36","","Stimuli/Experimental_stims/localizer/outdoor_scenes/alessio-furlan-Vw3a0HgE7AM-unsplash.jpg","","280424","1","outdoor_scenes","","0","1","0","400","34700","419","35612","","","","","","","","","","","","","","","","","","","","","","","","","","","","","","","","","","","","","","","","","","","","","","","","","","","","",""
"","iti_localizer","","html-keyboard-response","164","281157","0.0-2.0-38.0-1.0","23","53808","female","null","","","","null","","36","","","","280843","1","","","","","","300","35100","314","36031","300","","","","","","","","","","","","","","","","","","","","","","","","","","","","","","","","","","","","","","","","","","","","","","","","","","","",""
"","localizer","","html-keyboard-response","165","281574","0.0-2.0-39.0-0.0","23","53808","female","NaN","","","","null","NaN","37","","Stimuli/Experimental_stims/localizer/outdoor_scenes/ricardo-gomez-angel-dTSaC-S-7fs-unsplash.jpg","","281157","1","outdoor_scenes","","0","1","0","400","35400","417","36345","","","","","","","","","","","","","","","","","","","","","","","","","","","","","","","","","","","","","","","","","","","","","","","","","","","","",""
"","iti_localizer","","html-keyboard-response","166","281888","0.0-2.0-39.0-1.0","23","53808","female","null","","","","null","","37","","","","281574","1","","","","","","300","35800","314","36762","300","","","","","","","","","","","","","","","","","","","","","","","","","","","","","","","","","","","","","","","","","","","","","","","","","","","",""
"","localizer","","html-keyboard-response","167","282305","0.0-2.0-40.0-0.0","23","53808","female","302","","","","68","0","38","","Stimuli/Experimental_stims/localizer/outdoor_scenes/samuel-ferrara-IEHPDNk2-8w-unsplash.jpg","","281888","1","outdoor_scenes","","0","0","1","400","36100","417","37076","","","","","","","","","","","","","","","","","","","","","","","","","","","","","","","","","","","","","","","","","","","","","","","","","","","","",""
"","iti_localizer","","html-keyboard-response","168","282620","0.0-2.0-40.0-1.0","23","53808","female","null","","","","null","","38","","","","282305","1","","","","","","300","36500","315","37493","300","","","","","","","","","","","","","","","","","","","","","","","","","","","","","","","","","","","","","","","","","","","","","","","","","","","",""
"","localizer","","html-keyboard-response","169","283032","0.0-2.0-41.0-0.0","23","53808","female","375","","","","68","0","39","","Stimuli/Experimental_stims/localizer/outdoor_scenes/pietro-de-grandi-T7K4aEPoGGk-unsplash.jpg","","282620","1","outdoor_scenes","","0","0","1","400","36800","412","37808","","","","","","","","","","","","","","","","","","","","","","","","","","","","","","","","","","","","","","","","","","","","","","","","","","","","",""
"","iti_localizer","","html-keyboard-response","170","283346","0.0-2.0-41.0-1.0","23","53808","female","null","","","","null","","39","","","","283032","1","","","","","","300","37200","314","38220","300","","","","","","","","","","","","","","","","","","","","","","","","","","","","","","","","","","","","","","","","","","","","","","","","","","","",""
"","localizer","","html-keyboard-response","171","283766","0.0-2.0-42.0-0.0","23","53808","female","NaN","","","","null","NaN","40","","Stimuli/Experimental_stims/localizer/outdoor_scenes/tomasz-filipek-CUWC-6MRcNg-unsplash.jpg","","283346","1","outdoor_scenes","","0","1","0","400","37500","420","38534","","","","","","","","","","","","","","","","","","","","","","","","","","","","","","","","","","","","","","","","","","","","","","","","","","","","",""
"","iti_localizer","","html-keyboard-response","172","284078","0.0-2.0-42.0-1.0","23","53808","female","null","","","","null","","40","","","","283766","1","","","","","","300","37900","312","38954","300","","","","","","","","","","","","","","","","","","","","","","","","","","","","","","","","","","","","","","","","","","","","","","","","","","","",""
"","localizer","","html-keyboard-response","173","284488","0.0-2.0-43.0-0.0","23","53808","female","364","","","","68","0","41","","Stimuli/Experimental_stims/localizer/outdoor_scenes/cayetano-gil-rguHxZmOF5U-unsplash.jpg","","284078","1","outdoor_scenes","","0","0","1","400","38200","410","39266","","","","","","","","","","","","","","","","","","","","","","","","","","","","","","","","","","","","","","","","","","","","","","","","","","","","",""
"","iti_localizer","","html-keyboard-response","174","284801","0.0-2.0-43.0-1.0","23","53808","female","null","","","","null","","41","","","","284488","1","","","","","","300","38600","313","39676","300","","","","","","","","","","","","","","","","","","","","","","","","","","","","","","","","","","","","","","","","","","","","","","","","","","","",""
"","localizer","","html-keyboard-response","175","285218","0.0-2.0-44.0-0.0","23","53808","female","299","","","","68","0","42","","Stimuli/Experimental_stims/localizer/outdoor_scenes/nikola-majksner-hXNGeAFOgT4-unsplash.jpg","","284801","1","outdoor_scenes","","0","0","1","400","38900","417","39989","","","","","","","","","","","","","","","","","","","","","","","","","","","","","","","","","","","","","","","","","","","","","","","","","","","","",""
"","iti_localizer","","html-keyboard-response","176","285532","0.0-2.0-44.0-1.0","23","53808","female","null","","","","null","","42","","","","285218","1","","","","","","300","39300","314","40406","300","","","","","","","","","","","","","","","","","","","","","","","","","","","","","","","","","","","","","","","","","","","","","","","","","","","",""
"","localizer","","html-keyboard-response","177","285950","0.0-2.0-45.0-0.0","23","53808","female","NaN","","","","null","NaN","43","","Stimuli/Experimental_stims/localizer/outdoor_scenes/wil-stewart-pHANr-CpbYM-unsplash.jpg","","285532","1","outdoor_scenes","","1","1","0","400","39600","418","40720","","","","","","","","","","","","","","","","","","","","","","","","","","","","","","","","","","","","","","","","","","","","","","","","","","","","",""
"","iti_localizer","","html-keyboard-response","178","286266","0.0-2.0-45.0-1.0","23","53808","female","null","","","","null","","43","","","","285950","1","","","","","","300","40000","316","41138","300","","","","","","","","","","","","","","","","","","","","","","","","","","","","","","","","","","","","","","","","","","","","","","","","","","","",""
"","localizer","","html-keyboard-response","179","286685","0.0-2.0-46.0-0.0","23","53808","female","412","","","","68","0","44","","Stimuli/Experimental_stims/localizer/outdoor_scenes/chang-qing-2YQoKbyGvDc-unsplash.jpg","","286266","1","outdoor_scenes","","0","0","1","400","40300","419","41454","","","","","","","","","","","","","","","","","","","","","","","","","","","","","","","","","","","","","","","","","","","","","","","","","","","","",""
"","iti_localizer","","html-keyboard-response","180","287005","0.0-2.0-46.0-1.0","23","53808","female","null","","","","null","","44","","","","286685","1","","","","","","300","40700","320","41873","300","","","","","","","","","","","","","","","","","","","","","","","","","","","","","","","","","","","","","","","","","","","","","","","","","","","",""
"","localizer","","html-keyboard-response","181","287422","0.0-2.0-47.0-0.0","23","53808","female","NaN","","","","null","NaN","45","","Stimuli/Experimental_stims/localizer/outdoor_scenes/solotravelgoals-7kLufxYoqWk-unsplash.jpg","","287005","1","outdoor_scenes","","0","1","0","400","41000","417","42193","","","","","","","","","","","","","","","","","","","","","","","","","","","","","","","","","","","","","","","","","","","","","","","","","","","","",""
"","iti_localizer","","html-keyboard-response","182","301436","0.0-2.0-47.0-1.0","23","53808","female","null","","","","null","","45","","","","287422","1","","","","","","14000","41400","14014","42610","14000","","","","","","","","","","","","","","","","","","","","","","","","","","","","","","","","","","","","","","","","","","","","","","","","","","","",""
"","localizer","","html-keyboard-response","183","301852","0.0-2.0-48.0-0.0","23","53808","female","NaN","","","","null","NaN","46","","Stimuli/Experimental_stims/localizer/body_parts/jeremy-bishop-mLd3hAaH2ns-unsplash.jpg","","301436","1","body_parts","","0","1","0","400","55400","416","56624","","","","","","","","","","","","","","","","","","","","","","","","","","","","","","","","","","","","","","","","","","","","","","","","","","","","",""
"","iti_localizer","","html-keyboard-response","184","302166","0.0-2.0-48.0-1.0","23","53808","female","null","","","","null","","46","","","","301852","1","","","","","","300","55800","314","57040","300","","","","","","","","","","","","","","","","","","","","","","","","","","","","","","","","","","","","","","","","","","","","","","","","","","","",""
"","localizer","","html-keyboard-response","185","302577","0.0-2.0-49.0-0.0","23","53808","female","33","","","","68","0","47","","Stimuli/Experimental_stims/localizer/body_parts/lilartsy-1KkhQ8uL28g-unsplash.jpg","","302166","1","body_parts","","0","0","1","400","56100","411","57354","","","","","","","","","","","","","","","","","","","","","","","","","","","","","","","","","","","","","","","","","","","","","","","","","","","","",""
"","iti_localizer","","html-keyboard-response","186","302886","0.0-2.0-49.0-1.0","23","53808","female","null","","","","null","","47","","","","302577","1","","","","","","300","56500","309","57765","300","","","","","","","","","","","","","","","","","","","","","","","","","","","","","","","","","","","","","","","","","","","","","","","","","","","",""
"","localizer","","html-keyboard-response","187","303296","0.0-2.0-50.0-0.0","23","53808","female","362","","","","68","0","48","","Stimuli/Experimental_stims/localizer/body_parts/toa-heftiba-qxvWnfHb3-M-unsplash.jpg","","302886","1","body_parts","","0","0","1","400","56800","410","58074","","","","","","","","","","","","","","","","","","","","","","","","","","","","","","","","","","","","","","","","","","","","","","","","","","","","",""
"","iti_localizer","","html-keyboard-response","188","303609","0.0-2.0-50.0-1.0","23","53808","female","null","","","","null","","48","","","","303296","1","","","","","","300","57200","313","58484","300","","","","","","","","","","","","","","","","","","","","","","","","","","","","","","","","","","","","","","","","","","","","","","","","","","","",""
"","localizer","","html-keyboard-response","189","304028","0.0-2.0-51.0-0.0","23","53808","female","336","","","","68","0","49","","Stimuli/Experimental_stims/localizer/body_parts/callum-skelton-3KLMq7y46nA-unsplash.jpg","","303609","1","body_parts","","1","0","0","400","57500","419","58797","","","","","","","","","","","","","","","","","","","","","","","","","","","","","","","","","","","","","","","","","","","","","","","","","","","","",""
"","iti_localizer","","html-keyboard-response","190","304342","0.0-2.0-51.0-1.0","23","53808","female","null","","","","null","","49","","","","304028","1","","","","","","300","57900","314","59216","300","","","","","","","","","","","","","","","","","","","","","","","","","","","","","","","","","","","","","","","","","","","","","","","","","","","",""
"","localizer","","html-keyboard-response","191","304752","0.0-2.0-52.0-0.0","23","53808","female","NaN","","","","null","NaN","50","","Stimuli/Experimental_stims/localizer/body_parts/ant-rozetsky-bXQd8JXx0vs-unsplash.jpg","","304342","1","body_parts","","0","1","0","400","58200","410","59530","","","","","","","","","","","","","","","","","","","","","","","","","","","","","","","","","","","","","","","","","","","","","","","","","","","","",""
"","iti_localizer","","html-keyboard-response","192","305065","0.0-2.0-52.0-1.0","23","53808","female","null","","","","null","","50","","","","304752","1","","","","","","300","58600","313","59940","300","","","","","","","","","","","","","","","","","","","","","","","","","","","","","","","","","","","","","","","","","","","","","","","","","","","",""
"","localizer","","html-keyboard-response","193","305484","0.0-2.0-53.0-0.0","23","53808","female","336","","","","68","0","51","","Stimuli/Experimental_stims/localizer/body_parts/boyd-christiansen-uVj7kewrZ-o-unsplash.jpg","","305065","1","body_parts","","0","0","1","400","58900","419","60253","","","","","","","","","","","","","","","","","","","","","","","","","","","","","","","","","","","","","","","","","","","","","","","","","","","","",""
"","iti_localizer","","html-keyboard-response","194","305798","0.0-2.0-53.0-1.0","23","53808","female","null","","","","null","","51","","","","305484","1","","","","","","300","59300","314","60672","300","","","","","","","","","","","","","","","","","","","","","","","","","","","","","","","","","","","","","","","","","","","","","","","","","","","",""
"","localizer","","html-keyboard-response","195","306208","0.0-2.0-54.0-0.0","23","53808","female","288","","","","68","0","52","","Stimuli/Experimental_stims/localizer/body_parts/helen-ast-l2iY5Sh0mTg-unsplash.jpg","","305798","1","body_parts","","0","0","1","400","59600","410","60986","","","","","","","","","","","","","","","","","","","","","","","","","","","","","","","","","","","","","","","","","","","","","","","","","","","","",""
"","iti_localizer","","html-keyboard-response","196","306522","0.0-2.0-54.0-1.0","23","53808","female","null","","","","null","","52","","","","306208","1","","","","","","300","60000","314","61396","300","","","","","","","","","","","","","","","","","","","","","","","","","","","","","","","","","","","","","","","","","","","","","","","","","","","",""
"","localizer","","html-keyboard-response","197","306940","0.0-2.0-55.0-0.0","23","53808","female","283","","","","68","0","53","","Stimuli/Experimental_stims/localizer/body_parts/pure-julia-E9Q4bqYHtIM-unsplash.jpg","","306522","1","body_parts","","0","0","1","400","60300","418","61710","","","","","","","","","","","","","","","","","","","","","","","","","","","","","","","","","","","","","","","","","","","","","","","","","","","","",""
"","iti_localizer","","html-keyboard-response","198","307264","0.0-2.0-55.0-1.0","23","53808","female","null","","","","null","","53","","","","306940","1","","","","","","300","60700","324","62128","300","","","","","","","","","","","","","","","","","","","","","","","","","","","","","","","","","","","","","","","","","","","","","","","","","","","",""
"","localizer","","html-keyboard-response","199","307682","0.0-2.0-56.0-0.0","23","53808","female","313","","","","68","0","54","","Stimuli/Experimental_stims/localizer/body_parts/sina-rezakhani-d1gQi0Jl05U-unsplash (1).jpg","","307264","1","body_parts","","0","0","1","400","61000","418","62452","","","","","","","","","","","","","","","","","","","","","","","","","","","","","","","","","","","","","","","","","","","","","","","","","","","","",""
"","iti_localizer","","html-keyboard-response","200","307996","0.0-2.0-56.0-1.0","23","53808","female","null","","","","null","","54","","","","307682","1","","","","","","300","61400","314","62870","300","","","","","","","","","","","","","","","","","","","","","","","","","","","","","","","","","","","","","","","","","","","","","","","","","","","",""
"","localizer","","html-keyboard-response","201","308405","0.0-2.0-57.0-0.0","23","53808","female","290","","","","68","0","55","","Stimuli/Experimental_stims/localizer/body_parts/megan-menegay-UojxG_BJxnI-unsplash.jpg","","307996","1","body_parts","","0","0","1","400","61700","409","63184","","","","","","","","","","","","","","","","","","","","","","","","","","","","","","","","","","","","","","","","","","","","","","","","","","","","",""
"","iti_localizer","","html-keyboard-response","202","308719","0.0-2.0-57.0-1.0","23","53808","female","null","","","","null","","55","","","","308405","1","","","","","","300","62100","314","63593","300","","","","","","","","","","","","","","","","","","","","","","","","","","","","","","","","","","","","","","","","","","","","","","","","","","","",""
"","localizer","","html-keyboard-response","203","309137","0.0-2.0-58.0-0.0","23","53808","female","310","","","","68","0","56","","Stimuli/Experimental_stims/localizer/body_parts/sincerely-media-7TBFwUQA6Xk-unsplash.jpg","","308719","1","body_parts","","0","0","1","400","62400","418","63907","","","","","","","","","","","","","","","","","","","","","","","","","","","","","","","","","","","","","","","","","","","","","","","","","","","","",""
"","iti_localizer","","html-keyboard-response","204","309451","0.0-2.0-58.0-1.0","23","53808","female","null","","","","null","","56","","","","309137","1","","","","","","300","62800","314","64325","300","","","","","","","","","","","","","","","","","","","","","","","","","","","","","","","","","","","","","","","","","","","","","","","","","","","",""
"","localizer","","html-keyboard-response","205","309869","0.0-2.0-59.0-0.0","23","53808","female","316","","","","68","0","57","","Stimuli/Experimental_stims/localizer/body_parts/sincerely-media-pdynOoM7xmA-unsplash.jpg","","309451","1","body_parts","","0","0","1","400","63100","418","64639","","","","","","","","","","","","","","","","","","","","","","","","","","","","","","","","","","","","","","","","","","","","","","","","","","","","",""
"","iti_localizer","","html-keyboard-response","206","310183","0.0-2.0-59.0-1.0","23","53808","female","null","","","","null","","57","","","","309869","1","","","","","","300","63500","314","65057","300","","","","","","","","","","","","","","","","","","","","","","","","","","","","","","","","","","","","","","","","","","","","","","","","","","","",""
"","localizer","","html-keyboard-response","207","310600","0.0-2.0-60.0-0.0","23","53808","female","NaN","","","","null","NaN","58","","Stimuli/Experimental_stims/localizer/body_parts/adrien-king-XzBluXxBoyQ-unsplash.jpg","","310183","1","body_parts","","0","1","0","400","63800","417","65371","","","","","","","","","","","","","","","","","","","","","","","","","","","","","","","","","","","","","","","","","","","","","","","","","","","","",""
"","iti_localizer","","html-keyboard-response","208","310914","0.0-2.0-60.0-1.0","23","53808","female","null","","","","null","","58","","","","310600","1","","","","","","300","64200","314","65788","300","","","","","","","","","","","","","","","","","","","","","","","","","","","","","","","","","","","","","","","","","","","","","","","","","","","",""
"","localizer","","html-keyboard-response","209","311332","0.0-2.0-61.0-0.0","23","53808","female","357","","","","68","0","59","","Stimuli/Experimental_stims/localizer/body_parts/nattalia-nunez-MB9sdDfZMSg-unsplash.jpg","","310914","1","body_parts","","1","0","0","400","64500","418","66102","","","","","","","","","","","","","","","","","","","","","","","","","","","","","","","","","","","","","","","","","","","","","","","","","","","","",""
"","iti_localizer","","html-keyboard-response","210","311647","0.0-2.0-61.0-1.0","23","53808","female","null","","","","null","","59","","","","311332","1","","","","","","300","64900","315","66520","300","","","","","","","","","","","","","","","","","","","","","","","","","","","","","","","","","","","","","","","","","","","","","","","","","","","",""
"","localizer","","html-keyboard-response","211","312066","0.0-2.0-62.0-0.0","23","53808","female","306","","","","68","0","60","","Stimuli/Experimental_stims/localizer/body_parts/louis-hansel-FjKTMRTQYAs-unsplash.jpg","","311647","1","body_parts","","0","0","1","400","65200","419","66835","","","","","","","","","","","","","","","","","","","","","","","","","","","","","","","","","","","","","","","","","","","","","","","","","","","","",""
"","iti_localizer","","html-keyboard-response","212","312381","0.0-2.0-62.0-1.0","23","53808","female","null","","","","null","","60","","","","312066","1","","","","","","300","65600","315","67254","300","","","","","","","","","","","","","","","","","","","","","","","","","","","","","","","","","","","","","","","","","","","","","","","","","","","",""
"","localizer","","html-keyboard-response","213","312795","0.0-2.0-63.0-0.0","23","53808","female","236","","","","68","0","61","","Stimuli/Experimental_stims/localizer/body_parts/jonathan-borba-hTwH8QFkPMs-unsplash.jpg","","312381","1","body_parts","","0","0","1","400","65900","414","67569","","","","","","","","","","","","","","","","","","","","","","","","","","","","","","","","","","","","","","","","","","","","","","","","","","","","",""
"","iti_localizer","","html-keyboard-response","214","313109","0.0-2.0-63.0-1.0","23","53808","female","null","","","","null","","61","","","","312795","1","","","","","","300","66300","314","67983","300","","","","","","","","","","","","","","","","","","","","","","","","","","","","","","","","","","","","","","","","","","","","","","","","","","","",""
"","localizer","","html-keyboard-response","215","313519","0.0-2.0-64.0-0.0","23","53808","female","240","","","","68","0","62","","Stimuli/Experimental_stims/localizer/body_parts/hu-chen-tCbTGNwrFNM-unsplash.jpg","","313109","1","body_parts","","0","0","1","400","66600","410","68297","","","","","","","","","","","","","","","","","","","","","","","","","","","","","","","","","","","","","","","","","","","","","","","","","","","","",""
"","iti_localizer","","html-keyboard-response","216","313831","0.0-2.0-64.0-1.0","23","53808","female","null","","","","null","","62","","","","313519","1","","","","","","300","67000","312","68707","300","","","","","","","","","","","","","","","","","","","","","","","","","","","","","","","","","","","","","","","","","","","","","","","","","","","",""
"","localizer","","html-keyboard-response","217","314249","0.0-2.0-65.0-0.0","23","53808","female","202","","","","68","0","63","","Stimuli/Experimental_stims/localizer/body_parts/danie-franco-jyyNiSEcCl4-unsplash.jpg","","313831","1","body_parts","","0","0","1","400","67300","418","69019","","","","","","","","","","","","","","","","","","","","","","","","","","","","","","","","","","","","","","","","","","","","","","","","","","","","",""
"","iti_localizer","","html-keyboard-response","218","314563","0.0-2.0-65.0-1.0","23","53808","female","null","","","","null","","63","","","","314249","1","","","","","","300","67700","314","69437","300","","","","","","","","","","","","","","","","","","","","","","","","","","","","","","","","","","","","","","","","","","","","","","","","","","","",""
"","localizer","","html-keyboard-response","219","314981","0.0-2.0-66.0-0.0","23","53808","female","200","","","","68","0","64","","Stimuli/Experimental_stims/localizer/body_parts/natalie-grainger-8uB5kFKWWkk-unsplash.jpg","","314563","1","body_parts","","0","0","1","400","68000","418","69751","","","","","","","","","","","","","","","","","","","","","","","","","","","","","","","","","","","","","","","","","","","","","","","","","","","","",""
"","iti_localizer","","html-keyboard-response","220","315294","0.0-2.0-66.0-1.0","23","53808","female","null","","","","null","","64","","","","314981","1","","","","","","300","68400","313","70169","300","","","","","","","","","","","","","","","","","","","","","","","","","","","","","","","","","","","","","","","","","","","","","","","","","","","",""
"","localizer","","html-keyboard-response","221","315705","0.0-2.0-67.0-0.0","23","53808","female","261","","","","68","0","65","","Stimuli/Experimental_stims/localizer/body_parts/apostolos-vamvouras-g5wKHRu2QW0-unsplash.jpg","","315294","1","body_parts","","0","0","1","400","68700","411","70482","","","","","","","","","","","","","","","","","","","","","","","","","","","","","","","","","","","","","","","","","","","","","","","","","","","","",""
"","iti_localizer","","html-keyboard-response","222","329724","0.0-2.0-67.0-1.0","23","53808","female","null","","","","null","","65","","","","315705","1","","","","","","14000","69100","14019","70893","14000","","","","","","","","","","","","","","","","","","","","","","","","","","","","","","","","","","","","","","","","","","","","","","","","","","","",""
"","localizer","","html-keyboard-response","223","330134","0.0-2.0-68.0-0.0","23","53808","female","261","","","","68","0","66","","Stimuli/Experimental_stims/localizer/objects/quaritsch-photography-lZ8onQ1wuY8-unsplash.jpg","","329724","1","objects","","1","0","0","400","83100","410","84912","","","","","","","","","","","","","","","","","","","","","","","","","","","","","","","","","","","","","","","","","","","","","","","","","","","","",""
"","iti_localizer","","html-keyboard-response","224","330447","0.0-2.0-68.0-1.0","23","53808","female","null","","","","null","","66","","","","330134","1","","","","","","300","83500","313","85322","300","","","","","","","","","","","","","","","","","","","","","","","","","","","","","","","","","","","","","","","","","","","","","","","","","","","",""
"","localizer","","html-keyboard-response","225","330864","0.0-2.0-69.0-0.0","23","53808","female","377","","","","68","0","67","","Stimuli/Experimental_stims/localizer/objects/ana-9GmAaEMMKho-unsplash.jpg","","330447","1","objects","","0","0","1","400","83800","417","85635","","","","","","","","","","","","","","","","","","","","","","","","","","","","","","","","","","","","","","","","","","","","","","","","","","","","",""
"","iti_localizer","","html-keyboard-response","226","331179","0.0-2.0-69.0-1.0","23","53808","female","null","","","","null","","67","","","","330864","1","","","","","","300","84200","315","86052","300","","","","","","","","","","","","","","","","","","","","","","","","","","","","","","","","","","","","","","","","","","","","","","","","","","","",""
"","localizer","","html-keyboard-response","227","331597","0.0-2.0-70.0-0.0","23","53808","female","270","","","","68","0","68","","Stimuli/Experimental_stims/localizer/objects/nordwood-themes-nDd3dIkkOLo-unsplash.jpg","","331179","1","objects","","0","0","1","400","84500","418","86367","","","","","","","","","","","","","","","","","","","","","","","","","","","","","","","","","","","","","","","","","","","","","","","","","","","","",""
"","iti_localizer","","html-keyboard-response","228","331910","0.0-2.0-70.0-1.0","23","53808","female","null","","","","null","","68","","","","331597","1","","","","","","300","84900","313","86785","300","","","","","","","","","","","","","","","","","","","","","","","","","","","","","","","","","","","","","","","","","","","","","","","","","","","",""
"","localizer","","html-keyboard-response","229","332320","0.0-2.0-71.0-0.0","23","53808","female","177","","","","68","0","69","","Stimuli/Experimental_stims/localizer/objects/kelly-jean-cKjbI0Y00X0-unsplash.jpg","","331910","1","objects","","0","0","1","400","85200","410","87098","","","","","","","","","","","","","","","","","","","","","","","","","","","","","","","","","","","","","","","","","","","","","","","","","","","","",""
"","iti_localizer","","html-keyboard-response","230","332634","0.0-2.0-71.0-1.0","23","53808","female","null","","","","null","","69","","","","332320","1","","","","","","300","85600","314","87508","300","","","","","","","","","","","","","","","","","","","","","","","","","","","","","","","","","","","","","","","","","","","","","","","","","","","",""
"","localizer","","html-keyboard-response","231","333052","0.0-2.0-72.0-0.0","23","53808","female","181","","","","68","0","70","","Stimuli/Experimental_stims/localizer/objects/florian-klauer-nptLmg6jqDo-unsplash.jpg","","332634","1","objects","","0","0","1","400","85900","418","87822","","","","","","","","","","","","","","","","","","","","","","","","","","","","","","","","","","","","","","","","","","","","","","","","","","","","",""
"","iti_localizer","","html-keyboard-response","232","333373","0.0-2.0-72.0-1.0","23","53808","female","null","","","","null","","70","","","","333052","1","","","","","","300","86300","321","88240","300","","","","","","","","","","","","","","","","","","","","","","","","","","","","","","","","","","","","","","","","","","","","","","","","","","","",""
"","localizer","","html-keyboard-response","233","333783","0.0-2.0-73.0-0.0","23","53808","female","188","","","","68","0","71","","Stimuli/Experimental_stims/localizer/objects/nicolas-hippert-SVgX47QIUlc-unsplash.jpg","","333373","1","objects","","0","0","1","400","86600","410","88561","","","","","","","","","","","","","","","","","","","","","","","","","","","","","","","","","","","","","","","","","","","","","","","","","","","","",""
"","iti_localizer","","html-keyboard-response","234","334096","0.0-2.0-73.0-1.0","23","53808","female","null","","","","null","","71","","","","333783","1","","","","","","300","87000","313","88971","300","","","","","","","","","","","","","","","","","","","","","","","","","","","","","","","","","","","","","","","","","","","","","","","","","","","",""
"","localizer","","html-keyboard-response","235","334513","0.0-2.0-74.0-0.0","23","53808","female","241","","","","68","0","72","","Stimuli/Experimental_stims/localizer/objects/florian-klauer-mk7D-4UCfmg-unsplash.jpg","","334096","1","objects","","0","0","1","400","87300","417","89284","","","","","","","","","","","","","","","","","","","","","","","","","","","","","","","","","","","","","","","","","","","","","","","","","","","","",""
"","iti_localizer","","html-keyboard-response","236","334825","0.0-2.0-74.0-1.0","23","53808","female","null","","","","null","","72","","","","334513","1","","","","","","300","87700","312","89701","300","","","","","","","","","","","","","","","","","","","","","","","","","","","","","","","","","","","","","","","","","","","","","","","","","","","",""
"","localizer","","html-keyboard-response","237","335236","0.0-2.0-75.0-0.0","23","53808","female","293","","","","68","0","73","","Stimuli/Experimental_stims/localizer/objects/alex-lvrs-2zDw14yCYqk-unsplash.jpg","","334825","1","objects","","0","0","1","400","88000","411","90013","","","","","","","","","","","","","","","","","","","","","","","","","","","","","","","","","","","","","","","","","","","","","","","","","","","","",""
"","iti_localizer","","html-keyboard-response","238","335549","0.0-2.0-75.0-1.0","23","53808","female","null","","","","null","","73","","","","335236","1","","","","","","300","88400","313","90424","300","","","","","","","","","","","","","","","","","","","","","","","","","","","","","","","","","","","","","","","","","","","","","","","","","","","",""
"","localizer","","html-keyboard-response","239","335959","0.0-2.0-76.0-0.0","23","53808","female","304","","","","68","0","74","","Stimuli/Experimental_stims/localizer/objects/hipster-mum-XookgCxFw6Q-unsplash.jpg","","335549","1","objects","","0","0","1","400","88700","410","90737","","","","","","","","","","","","","","","","","","","","","","","","","","","","","","","","","","","","","","","","","","","","","","","","","","","","",""
"","iti_localizer","","html-keyboard-response","240","336273","0.0-2.0-76.0-1.0","23","53808","female","null","","","","null","","74","","","","335959","1","","","","","","300","89100","314","91147","300","","","","","","","","","","","","","","","","","","","","","","","","","","","","","","","","","","","","","","","","","","","","","","","","","","","",""
"","localizer","","html-keyboard-response","241","336691","0.0-2.0-77.0-0.0","23","53808","female","342","","","","68","0","75","","Stimuli/Experimental_stims/localizer/objects/ian-talmacs-ugqU0a4P18U-unsplash.jpg","","336273","1","objects","","0","0","1","400","89400","418","91461","","","","","","","","","","","","","","","","","","","","","","","","","","","","","","","","","","","","","","","","","","","","","","","","","","","","",""
"","iti_localizer","","html-keyboard-response","242","336998","0.0-2.0-77.0-1.0","23","53808","female","null","","","","null","","75","","","","336691","1","","","","","","300","89800","307","91879","300","","","","","","","","","","","","","","","","","","","","","","","","","","","","","","","","","","","","","","","","","","","","","","","","","","","",""
"","localizer","","html-keyboard-response","243","337408","0.0-2.0-78.0-0.0","23","53808","female","344","","","","68","0","76","","Stimuli/Experimental_stims/localizer/objects/chris-briggs-FobzAZJGM9M-unsplash.jpg","","336998","1","objects","","0","0","1","400","90100","410","92186","","","","","","","","","","","","","","","","","","","","","","","","","","","","","","","","","","","","","","","","","","","","","","","","","","","","",""
"","iti_localizer","","html-keyboard-response","244","337722","0.0-2.0-78.0-1.0","23","53808","female","null","","","","null","","76","","","","337408","1","","","","","","300","90500","314","92596","300","","","","","","","","","","","","","","","","","","","","","","","","","","","","","","","","","","","","","","","","","","","","","","","","","","","",""
"","localizer","","html-keyboard-response","245","338135","0.0-2.0-79.0-0.0","23","53808","female","330","","","","68","0","77","","Stimuli/Experimental_stims/localizer/objects/recha-oktaviani-t__61ap00Mc-unsplash.jpg","","337722","1","objects","","0","0","1","400","90800","413","92910","","","","","","","","","","","","","","","","","","","","","","","","","","","","","","","","","","","","","","","","","","","","","","","","","","","","",""
"","iti_localizer","","html-keyboard-response","246","338449","0.0-2.0-79.0-1.0","23","53808","female","null","","","","null","","77","","","","338135","1","","","","","","300","91200","314","93323","300","","","","","","","","","","","","","","","","","","","","","","","","","","","","","","","","","","","","","","","","","","","","","","","","","","","",""
