"success","ttype","start_time","trial_type","trial_index","time_elapsed","internal_node_id","age","PID","gender","rt","responses","view_history","repeat_instructions","key_press","response","index","stimulus_index","path","start_time_elapsed","run","task","isi","is_odd_ball","no_response","acc","duration","onset","duration_time_elapsed","onset_time_elapsed","trial_duration","missed_checkup","left_chosen","chosen_stimulus","unchosen_stimulus","chosen_category","unchosen_category","chosen_rating","unchosen_rating","chosen_path","unchosen_path","pair_id","practice","scramble_screen_time","scramble_instructed_side","stim_type","iti","block","left_stimulus","right_stimulus","left_category","right_category","left_path","right_path","left_rating","right_rating","scramble_acc","stimulus_id","item_id","outcome","response_rt","deliberation_reward_tally","choice_type","gain_left","left_item_id","right_item_id","warning","higher_outcome_chosen","chosen_left","old_pair","pair_type","old_response","pair_acc","reward_type","outcome_response","outcome_rt","outcome_acc","category","choice","deliberated_stim","old_rating","new_rating","total_reward_tally"
"true","full_screen","d08162023hr1945","fullscreen","0","2647","0.0-0.0-0.0","32","45313","Female","","","","","","","","","","","","","","","","","","","","","","","","","","","","","","","","","","","","","","","","","","","","","","","","","","","","","","","","","","","","","","","","","","","","","","","","",""
"","get_id","","survey-text","1","8943","0.0-0.0-1.0","32","45313","Female","6292","{""Q0"":""32"",""Q1"":""Female""}","","","","","","","","","","","","","","","","","","","","","","","","","","","","","","","","","","","","","","","","","","","","","","","","","","","","","","","","","","","","","","","","","","","","","","",""
"","ratings_instructions","","instructions","2","17016","0.0-1.0-0.0-0.0","32","45313","Female","7804","","[{""page_index"":0,""viewing_time"":6689},{""page_index"":1,""viewing_time"":1115}]","","","","","","","","","","","","","","","","","","","","","","","","","","","","","","","","","","","","","","","","","","","","","","","","","","","","","","","","","","","","","","","","","","","","","",""
"","rating_comprehension_check","","survey-multi-choice","3","21877","0.0-1.0-0.0-1.0","32","45313","Female","4856","{""Q0"":""True"",""Q1"":""Mouse""}","","0","","","","","","","","","","","","","","","","","","","","","","","","","","","","","","","","","","","","","","","","","","","","","","","","","","","","","","","","","","","","","","","","","","","","",""
"","","","html-keyboard-response","4","23632","0.0-1.0-1.0","32","45313","Female","1749","","","","68","","","","","","","","","","","","","","","","","","","","","","","","","","","","","","","","","","","","","","","","","","","","","","","","","","","","","","","","","","","","","","","","","","","",""
"","rating","","html-slider-response","5","25808","0.0-1.0-2.0","32","45313","Female","2170","","","","","69","0","28","Stimuli/Experimental_stims/body_parts/ira-vishnevskaya-8DQAvdCby1I-unsplash.jpg","","","","","","","","","","","","","","","","","","","","","","","","","","","","","","","","","","","","","","","","","","","","","","","","","","","","","","","","","","","","","","","",""
"","rating","","html-slider-response","6","27757","0.0-1.0-3.0","32","45313","Female","1944","","","","","100","1","4","Stimuli/Experimental_stims/outdoor_scenes/jarrett-kow-1ZOyYPOBn7I-unsplash.jpg","","","","","","","","","","","","","","","","","","","","","","","","","","","","","","","","","","","","","","","","","","","","","","","","","","","","","","","","","","","","","","","",""
"","rating","","html-slider-response","7","29603","0.0-1.0-4.0","32","45313","Female","1841","","","","","21","2","35","Stimuli/Experimental_stims/body_parts/wc-so-KH4AAPjb-tI-unsplash.jpg","","","","","","","","","","","","","","","","","","","","","","","","","","","","","","","","","","","","","","","","","","","","","","","","","","","","","","","","","","","","","","","",""
"","rating","","html-slider-response","8","31583","0.0-1.0-5.0","32","45313","Female","1975","","","","","62","3","47","Stimuli/Experimental_stims/objects/ronaldo-arthur-vidal-Cdz_lvnl37k-unsplash.jpg","","","","","","","","","","","","","","","","","","","","","","","","","","","","","","","","","","","","","","","","","","","","","","","","","","","","","","","","","","","","","","","",""
"","rating","","html-slider-response","9","33706","0.0-1.0-6.0","32","45313","Female","2119","","","","","79","4","9","Stimuli/Experimental_stims/outdoor_scenes/sergey-pesterev-y-b_FOmJXdg-unsplash.jpg","","","","","","","","","","","","","","","","","","","","","","","","","","","","","","","","","","","","","","","","","","","","","","","","","","","","","","","","","","","","","","","",""
"","rating","","html-slider-response","10","35743","0.0-1.0-7.0","32","45313","Female","2032","","","","","2","5","31","Stimuli/Experimental_stims/body_parts/sincerely-media-VN6DbKajo5s-unsplash.jpg","","","","","","","","","","","","","","","","","","","","","","","","","","","","","","","","","","","","","","","","","","","","","","","","","","","","","","","","","","","","","","","",""
"","rating","","html-slider-response","11","37928","0.0-1.0-8.0","32","45313","Female","2181","","","","","71","6","5","Stimuli/Experimental_stims/outdoor_scenes/jeff-king-bJHWJeiHfHc-unsplash.jpg","","","","","","","","","","","","","","","","","","","","","","","","","","","","","","","","","","","","","","","","","","","","","","","","","","","","","","","","","","","","","","","",""
"","rating","","html-slider-response","12","40487","0.0-1.0-9.0","32","45313","Female","2554","","","","","100","7","27","Stimuli/Experimental_stims/body_parts/heike-mintel-i_Gns0ELnLw-unsplash.jpg","","","","","","","","","","","","","","","","","","","","","","","","","","","","","","","","","","","","","","","","","","","","","","","","","","","","","","","","","","","","","","","",""
"","rating","","html-slider-response","13","43343","0.0-1.0-10.0","32","45313","Female","2851","","","","","8","8","37","Stimuli/Experimental_stims/objects/alexander-andrews-VLGWE_SumrA-unsplash.jpg","","","","","","","","","","","","","","","","","","","","","","","","","","","","","","","","","","","","","","","","","","","","","","","","","","","","","","","","","","","","","","","",""
"","rating","","html-slider-response","14","45332","0.0-1.0-11.0","32","45313","Female","1984","","","","","0","9","19","Stimuli/Experimental_stims/faces/joel-mott-LaK153ghdig-unsplash.jpg","","","","","","","","","","","","","","","","","","","","","","","","","","","","","","","","","","","","","","","","","","","","","","","","","","","","","","","","","","","","","","","",""
"","rating","","html-slider-response","15","47409","0.0-1.0-12.0","32","45313","Female","2072","","","","","4","10","34","Stimuli/Experimental_stims/body_parts/wagner-santos-mBWMvIuVnso-unsplash.jpg","","","","","","","","","","","","","","","","","","","","","","","","","","","","","","","","","","","","","","","","","","","","","","","","","","","","","","","","","","","","","","","",""
"","rating","","html-slider-response","16","49251","0.0-1.0-13.0","32","45313","Female","1837","","","","","13","11","22","Stimuli/Experimental_stims/faces/ravi-patel-VMGAbeeJTKo-unsplash.jpg","","","","","","","","","","","","","","","","","","","","","","","","","","","","","","","","","","","","","","","","","","","","","","","","","","","","","","","","","","","","","","","",""
"","rating","","html-slider-response","17","51706","0.0-1.0-14.0","32","45313","Female","2451","","","","","88","12","1","Stimuli/Experimental_stims/outdoor_scenes/ashim-d-silva-S2Q5mdOrrVc-unsplash.jpg","","","","","","","","","","","","","","","","","","","","","","","","","","","","","","","","","","","","","","","","","","","","","","","","","","","","","","","","","","","","","","","",""
"","rating","","html-slider-response","18","54533","0.0-1.0-15.0","32","45313","Female","2823","","","","","68","13","15","Stimuli/Experimental_stims/faces/erik-lucatero-d2MSDujJl2g-unsplash.jpg","","","","","","","","","","","","","","","","","","","","","","","","","","","","","","","","","","","","","","","","","","","","","","","","","","","","","","","","","","","","","","","",""
"","rating","","html-slider-response","19","56123","0.0-1.0-16.0","32","45313","Female","1586","","","","","69","14","17","Stimuli/Experimental_stims/faces/good-faces-xmSWVeGEnJw-unsplash.jpg","","","","","","","","","","","","","","","","","","","","","","","","","","","","","","","","","","","","","","","","","","","","","","","","","","","","","","","","","","","","","","","",""
"","rating","","html-slider-response","20","58415","0.0-1.0-17.0","32","45313","Female","2287","","","","","19","15","12","Stimuli/Experimental_stims/faces/aiony-haust-jmATI5Q_YgY-unsplash.jpg","","","","","","","","","","","","","","","","","","","","","","","","","","","","","","","","","","","","","","","","","","","","","","","","","","","","","","","","","","","","","","","",""
"","rating","","html-slider-response","21","60492","0.0-1.0-18.0","32","45313","Female","2073","","","","","100","16","0","Stimuli/Experimental_stims/outdoor_scenes/aleksandra-boguslawska-MS7KD9Ti7FQ-unsplash.jpg","","","","","","","","","","","","","","","","","","","","","","","","","","","","","","","","","","","","","","","","","","","","","","","","","","","","","","","","","","","","","","","",""
"","rating","","html-slider-response","22","63523","0.0-1.0-19.0","32","45313","Female","3028","","","","","7","17","41","Stimuli/Experimental_stims/objects/insung-yoon-w2JtIQQXoRU-unsplash.jpg","","","","","","","","","","","","","","","","","","","","","","","","","","","","","","","","","","","","","","","","","","","","","","","","","","","","","","","","","","","","","","","",""
"","rating","","html-slider-response","23","65578","0.0-1.0-20.0","32","45313","Female","2051","","","","","0","18","18","Stimuli/Experimental_stims/faces/jessica-radanavong-mrYkTuAesKE-unsplash.jpg","","","","","","","","","","","","","","","","","","","","","","","","","","","","","","","","","","","","","","","","","","","","","","","","","","","","","","","","","","","","","","","",""
"","rating","","html-slider-response","24","67778","0.0-1.0-21.0","32","45313","Female","2196","","","","","100","19","11","Stimuli/Experimental_stims/outdoor_scenes/stephen-leonardi-gyIRjKPXupE-unsplash.jpg","","","","","","","","","","","","","","","","","","","","","","","","","","","","","","","","","","","","","","","","","","","","","","","","","","","","","","","","","","","","","","","",""
"","rating","","html-slider-response","25","69789","0.0-1.0-22.0","32","45313","Female","2007","","","","","19","20","20","Stimuli/Experimental_stims/faces/justin-chen-J7Cf1Gch49E-unsplash.jpg","","","","","","","","","","","","","","","","","","","","","","","","","","","","","","","","","","","","","","","","","","","","","","","","","","","","","","","","","","","","","","","",""
"","rating","","html-slider-response","26","71477","0.0-1.0-23.0","32","45313","Female","1684","","","","","75","21","23","Stimuli/Experimental_stims/faces/rikonavt-HQjfrvdTfak-unsplash.jpg","","","","","","","","","","","","","","","","","","","","","","","","","","","","","","","","","","","","","","","","","","","","","","","","","","","","","","","","","","","","","","","",""
"","rating","","html-slider-response","27","73381","0.0-1.0-24.0","32","45313","Female","1899","","","","","0","22","25","Stimuli/Experimental_stims/body_parts/engin-akyurt-Q2rfH3GW39c-unsplash.jpg","","","","","","","","","","","","","","","","","","","","","","","","","","","","","","","","","","","","","","","","","","","","","","","","","","","","","","","","","","","","","","","",""
"","rating","","html-slider-response","28","75028","0.0-1.0-25.0","32","45313","Female","1643","","","","","0","23","33","Stimuli/Experimental_stims/body_parts/tucker-good-36skLT5jZcc-unsplash.jpg","","","","","","","","","","","","","","","","","","","","","","","","","","","","","","","","","","","","","","","","","","","","","","","","","","","","","","","","","","","","","","","",""
"","rating","","html-slider-response","29","76789","0.0-1.0-26.0","32","45313","Female","1757","","","","","10","24","32","Stimuli/Experimental_stims/body_parts/towfiqu-barbhuiya-3AsiVDsZnHg-unsplash.jpg","","","","","","","","","","","","","","","","","","","","","","","","","","","","","","","","","","","","","","","","","","","","","","","","","","","","","","","","","","","","","","","",""
"","rating","","html-slider-response","30","79958","0.0-1.0-27.0","32","45313","Female","3164","","","","","36","25","30","Stimuli/Experimental_stims/body_parts/mika-korhonen-Xodzxosar18-unsplash.jpg","","","","","","","","","","","","","","","","","","","","","","","","","","","","","","","","","","","","","","","","","","","","","","","","","","","","","","","","","","","","","","","",""
"","rating","","html-slider-response","31","81953","0.0-1.0-28.0","32","45313","Female","1990","","","","","74","26","16","Stimuli/Experimental_stims/faces/freddy-kearney-o-ioeoATbIM-unsplash.jpg","","","","","","","","","","","","","","","","","","","","","","","","","","","","","","","","","","","","","","","","","","","","","","","","","","","","","","","","","","","","","","","",""
"","rating","","html-slider-response","32","83952","0.0-1.0-29.0","32","45313","Female","1994","","","","","88","27","14","Stimuli/Experimental_stims/faces/david-siglin-UuW4psOb388-unsplash.jpg","","","","","","","","","","","","","","","","","","","","","","","","","","","","","","","","","","","","","","","","","","","","","","","","","","","","","","","","","","","","","","","",""
"","rating","","html-slider-response","33","86600","0.0-1.0-30.0","32","45313","Female","2644","","","","","72","28","36","Stimuli/Experimental_stims/objects/alexander-andrews-JYGnB9gTCls-unsplash.jpg","","","","","","","","","","","","","","","","","","","","","","","","","","","","","","","","","","","","","","","","","","","","","","","","","","","","","","","","","","","","","","","",""
"","rating","","html-slider-response","34","88369","0.0-1.0-31.0","32","45313","Female","1764","","","","","67","29","3","Stimuli/Experimental_stims/outdoor_scenes/henry-be-NLF6hTe4PAg-unsplash.jpg","","","","","","","","","","","","","","","","","","","","","","","","","","","","","","","","","","","","","","","","","","","","","","","","","","","","","","","","","","","","","","","",""
"","rating","","html-slider-response","35","90978","0.0-1.0-32.0","32","45313","Female","2604","","","","","91","30","29","Stimuli/Experimental_stims/body_parts/manuel-schinner-ZwjFuJ7ebpk-unsplash.jpg","","","","","","","","","","","","","","","","","","","","","","","","","","","","","","","","","","","","","","","","","","","","","","","","","","","","","","","","","","","","","","","",""
"","rating","","html-slider-response","36","93700","0.0-1.0-33.0","32","45313","Female","2718","","","","","66","31","43","Stimuli/Experimental_stims/objects/jonathan-greenaway-Y4hGgeiFn3s-unsplash.jpg","","","","","","","","","","","","","","","","","","","","","","","","","","","","","","","","","","","","","","","","","","","","","","","","","","","","","","","","","","","","","","","",""
"","rating","","html-slider-response","37","95613","0.0-1.0-34.0","32","45313","Female","1908","","","","","63","32","40","Stimuli/Experimental_stims/objects/fabian-blank-pElSkGRA2NU-unsplash.jpg","","","","","","","","","","","","","","","","","","","","","","","","","","","","","","","","","","","","","","","","","","","","","","","","","","","","","","","","","","","","","","","",""
"","rating","","html-slider-response","38","98208","0.0-1.0-35.0","32","45313","Female","2591","","","","","73","33","2","Stimuli/Experimental_stims/outdoor_scenes/bruno-van-der-kraan-qez8mNJ3ilU-unsplash.jpg","","","","","","","","","","","","","","","","","","","","","","","","","","","","","","","","","","","","","","","","","","","","","","","","","","","","","","","","","","","","","","","",""
"","rating","","html-slider-response","39","99927","0.0-1.0-36.0","32","45313","Female","1714","","","","","0","34","26","Stimuli/Experimental_stims/body_parts/engin-akyurt-x_3gyC42btc-unsplash.jpg","","","","","","","","","","","","","","","","","","","","","","","","","","","","","","","","","","","","","","","","","","","","","","","","","","","","","","","","","","","","","","","",""
"","rating","","html-slider-response","40","101738","0.0-1.0-37.0","32","45313","Female","1807","","","","","14","35","45","Stimuli/Experimental_stims/objects/leohoho-rngTKHXumy0-unsplash.jpg","","","","","","","","","","","","","","","","","","","","","","","","","","","","","","","","","","","","","","","","","","","","","","","","","","","","","","","","","","","","","","","",""
"","rating","","html-slider-response","41","103740","0.0-1.0-38.0","32","45313","Female","1996","","","","","24","36","6","Stimuli/Experimental_stims/outdoor_scenes/meng-ji-8BH_M-53CyA-unsplash.jpg","","","","","","","","","","","","","","","","","","","","","","","","","","","","","","","","","","","","","","","","","","","","","","","","","","","","","","","","","","","","","","","",""
"","rating","","html-slider-response","42","106440","0.0-1.0-39.0","32","45313","Female","2695","","","","","0","37","13","Stimuli/Experimental_stims/faces/daniel-rigdon-dXmXKPP2L4E-unsplash.jpg","","","","","","","","","","","","","","","","","","","","","","","","","","","","","","","","","","","","","","","","","","","","","","","","","","","","","","","","","","","","","","","",""
"","rating","","html-slider-response","43","108258","0.0-1.0-40.0","32","45313","Female","1813","","","","","0","38","44","Stimuli/Experimental_stims/objects/kuiye-chen-NuOGFo4PudE-unsplash.jpg","","","","","","","","","","","","","","","","","","","","","","","","","","","","","","","","","","","","","","","","","","","","","","","","","","","","","","","","","","","","","","","",""
"","rating","","html-slider-response","44","110047","0.0-1.0-41.0","32","45313","Female","1785","","","","","23","39","42","Stimuli/Experimental_stims/objects/jess-bailey-nOeVi8DsN8U-unsplash.jpg","","","","","","","","","","","","","","","","","","","","","","","","","","","","","","","","","","","","","","","","","","","","","","","","","","","","","","","","","","","","","","","",""
"","rating","","html-slider-response","45","111596","0.0-1.0-42.0","32","45313","Female","1545","","","","","2","40","24","Stimuli/Experimental_stims/body_parts/clay-banks-LjqARJaJotc-unsplash.jpg","","","","","","","","","","","","","","","","","","","","","","","","","","","","","","","","","","","","","","","","","","","","","","","","","","","","","","","","","","","","","","","",""
"","rating","","html-slider-response","46","113903","0.0-1.0-43.0","32","45313","Female","2302","","","","","10","41","21","Stimuli/Experimental_stims/faces/leilani-angel-K84vnnzxmTQ-unsplash.jpg","","","","","","","","","","","","","","","","","","","","","","","","","","","","","","","","","","","","","","","","","","","","","","","","","","","","","","","","","","","","","","","",""
"","rating","","html-slider-response","47","116067","0.0-1.0-44.0","32","45313","Female","2160","","","","","64","42","7","Stimuli/Experimental_stims/outdoor_scenes/petr-vysohlid-9fqwGqGLUxc-unsplash.jpg","","","","","","","","","","","","","","","","","","","","","","","","","","","","","","","","","","","","","","","","","","","","","","","","","","","","","","","","","","","","","","","",""
"","rating","","html-slider-response","48","117822","0.0-1.0-45.0","32","45313","Female","1750","","","","","68","43","46","Stimuli/Experimental_stims/objects/mockup-graphics-PNsj6RiHAF4-unsplash.jpg","","","","","","","","","","","","","","","","","","","","","","","","","","","","","","","","","","","","","","","","","","","","","","","","","","","","","","","","","","","","","","","",""
"","rating","","html-slider-response","49","119633","0.0-1.0-46.0","32","45313","Female","1807","","","","","0","44","38","Stimuli/Experimental_stims/objects/art-lasovsky-8XddFc6NkBY-unsplash.jpg","","","","","","","","","","","","","","","","","","","","","","","","","","","","","","","","","","","","","","","","","","","","","","","","","","","","","","","","","","","","","","","",""
"","rating","","html-slider-response","50","121496","0.0-1.0-47.0","32","45313","Female","1858","","","","","73","45","8","Stimuli/Experimental_stims/outdoor_scenes/samsommer-vddccTqwal8-unsplash.jpg","","","","","","","","","","","","","","","","","","","","","","","","","","","","","","","","","","","","","","","","","","","","","","","","","","","","","","","","","","","","","","","",""
"","rating","","html-slider-response","51","123159","0.0-1.0-48.0","32","45313","Female","1660","","","","","69","46","10","Stimuli/Experimental_stims/outdoor_scenes/shannon-kunkle-dM8INmkyDas-unsplash.jpg","","","","","","","","","","","","","","","","","","","","","","","","","","","","","","","","","","","","","","","","","","","","","","","","","","","","","","","","","","","","","","","",""
"","rating","","html-slider-response","52","125587","0.0-1.0-49.0","32","45313","Female","2423","","","","","5","47","39","Stimuli/Experimental_stims/objects/charlesdeluvio-1-nx1QR5dTE-unsplash.jpg","","","","","","","","","","","","","","","","","","","","","","","","","","","","","","","","","","","","","","","","","","","","","","","","","","","","","","","","","","","","","","","",""
"","localizer_instructions","","instructions","53","147003","0.0-2.0-0.0-0.0","32","45313","Female","21344","","[{""page_index"":0,""viewing_time"":5530},{""page_index"":1,""viewing_time"":13558},{""page_index"":2,""viewing_time"":2256}]","","","","","","","","","","","","","","","","","","","","","","","","","","","","","","","","","","","","","","","","","","","","","","","","","","","","","","","","","","","","","","","","","","","","","",""
"","localizer_comprehension_check","","survey-multi-choice","54","155085","0.0-2.0-0.0-1.0","32","45313","Female","8077","{""Q0"":""True"",""Q1"":""K"",""Q2"":""D""}","","0","","","","","","","","","","","","","","","","","","","","","","","","","","","","","","","","","","","","","","","","","","","","","","","","","","","","","","","","","","","","","","","","","","","","",""
"","","","html-keyboard-response","55","174985","0.0-2.0-1.0","32","45313","Female","19894","","","","68","","","","","","","","","","","","","","","","","","","","","","","","","","","","","","","","","","","","","","","","","","","","","","","","","","","","","","","","","","","","","","","","","","","",""
"","localizer","","html-keyboard-response","56","175392","0.0-2.0-2.0-0.0","32","45313","Female","NaN","","","","null","NaN","0","","Stimuli/Practice_stims/Localizer/annie-spratt-g9KFpAfQ5bc-unsplash.jpg","174985","0","NaN","","0","1","0","400","0","407","0","","","","","","","","","","","","","","","","","","","","","","","","","","","","","","","","","","","","","","","","","","","","","","","","","","","","",""
"","iti_localizer","","html-keyboard-response","57","175698","0.0-2.0-2.0-1.0","32","45313","Female","null","","","","null","","0","","","175392","0","","","","","","300","400","306","407","300","","","","","","","","","","","","","","","","","","","","","","","","","","","","","","","","","","","","","","","","","","","","","","","","","","","",""
"","localizer","","html-keyboard-response","58","176105","0.0-2.0-2.1-0.1","32","45313","Female","302","","","","68","0","0","","Stimuli/Practice_stims/Localizer/annie-spratt-g9KFpAfQ5bc-unsplash.jpg","175698","0","NaN","","0","0","1","400","700","407","713","","","","","","","","","","","","","","","","","","","","","","","","","","","","","","","","","","","","","","","","","","","","","","","","","","","","",""
"","iti_localizer","","html-keyboard-response","59","176413","0.0-2.0-2.1-1.1","32","45313","Female","null","","","","null","","0","","","176105","0","","","","","","300","1100","308","1120","300","","","","","","","","","","","","","","","","","","","","","","","","","","","","","","","","","","","","","","","","","","","","","","","","","","","",""
"","localizer","","html-keyboard-response","60","176821","0.0-2.0-3.0-0.0","32","45313","Female","NaN","","","","null","NaN","1","","Stimuli/Practice_stims/Localizer/becca-tapert-sY5RjMB1KkE-unsplash.jpg","176413","0","NaN","","0","1","0","400","1400","408","1428","","","","","","","","","","","","","","","","","","","","","","","","","","","","","","","","","","","","","","","","","","","","","","","","","","","","",""
"","iti_localizer","","html-keyboard-response","61","177127","0.0-2.0-3.0-1.0","32","45313","Female","null","","","","null","","1","","","176821","0","","","","","","300","1800","306","1836","300","","","","","","","","","","","","","","","","","","","","","","","","","","","","","","","","","","","","","","","","","","","","","","","","","","","",""
"","localizer","","html-keyboard-response","62","177533","0.0-2.0-3.1-0.1","32","45313","Female","343","","","","68","0","1","","Stimuli/Practice_stims/Localizer/becca-tapert-sY5RjMB1KkE-unsplash.jpg","177127","0","NaN","","0","0","1","400","2100","406","2142","","","","","","","","","","","","","","","","","","","","","","","","","","","","","","","","","","","","","","","","","","","","","","","","","","","","",""
"","iti_localizer","","html-keyboard-response","63","177840","0.0-2.0-3.1-1.1","32","45313","Female","null","","","","null","","1","","","177533","0","","","","","","300","2500","307","2548","300","","","","","","","","","","","","","","","","","","","","","","","","","","","","","","","","","","","","","","","","","","","","","","","","","","","",""
"","localizer","","html-keyboard-response","64","178246","0.0-2.0-4.0-0.0","32","45313","Female","NaN","","","","null","NaN","2","","Stimuli/Practice_stims/Localizer/charl-durand-bsfXvI25iNg-unsplash.jpg","177840","0","NaN","","1","1","0","400","2800","406","2855","","","","","","","","","","","","","","","","","","","","","","","","","","","","","","","","","","","","","","","","","","","","","","","","","","","","",""
"","iti_localizer","","html-keyboard-response","65","178553","0.0-2.0-4.0-1.0","32","45313","Female","null","","","","null","","2","","","178246","0","","","","","","300","3200","307","3261","300","","","","","","","","","","","","","","","","","","","","","","","","","","","","","","","","","","","","","","","","","","","","","","","","","","","",""
"","localizer","","html-keyboard-response","66","178958","0.0-2.0-4.1-0.1","32","45313","Female","379","","","","75","1","2","","Stimuli/Practice_stims/Localizer/charl-durand-bsfXvI25iNg-unsplash.jpg","178553","0","NaN","","1","0","1","400","3500","405","3568","","","","","","","","","","","","","","","","","","","","","","","","","","","","","","","","","","","","","","","","","","","","","","","","","","","","",""
"","iti_localizer","","html-keyboard-response","67","179264","0.0-2.0-4.1-1.1","32","45313","Female","null","","","","null","","2","","","178958","0","","","","","","300","3900","306","3973","300","","","","","","","","","","","","","","","","","","","","","","","","","","","","","","","","","","","","","","","","","","","","","","","","","","","",""
"","localizer","","html-keyboard-response","68","179672","0.0-2.0-5.0-0.0","32","45313","Female","NaN","","","","null","NaN","3","","Stimuli/Practice_stims/Localizer/nizar-albusaidy-B2r2SWAf5CE-unsplash.jpg","179264","0","NaN","","0","1","0","400","4200","408","4279","","","","","","","","","","","","","","","","","","","","","","","","","","","","","","","","","","","","","","","","","","","","","","","","","","","","",""
"","iti_localizer","","html-keyboard-response","69","179977","0.0-2.0-5.0-1.0","32","45313","Female","null","","","","null","","3","","","179672","0","","","","","","300","4600","305","4687","300","","","","","","","","","","","","","","","","","","","","","","","","","","","","","","","","","","","","","","","","","","","","","","","","","","","",""
"","localizer","","html-keyboard-response","70","180384","0.0-2.0-5.1-0.1","32","45313","Female","361","","","","68","0","3","","Stimuli/Practice_stims/Localizer/nizar-albusaidy-B2r2SWAf5CE-unsplash.jpg","179977","0","NaN","","0","0","1","400","4900","407","4992","","","","","","","","","","","","","","","","","","","","","","","","","","","","","","","","","","","","","","","","","","","","","","","","","","","","",""
"","iti_localizer","","html-keyboard-response","71","180690","0.0-2.0-5.1-1.1","32","45313","Female","null","","","","null","","3","","","180384","0","","","","","","300","5300","306","5399","300","","","","","","","","","","","","","","","","","","","","","","","","","","","","","","","","","","","","","","","","","","","","","","","","","","","",""
"","localizer","","html-keyboard-response","72","181096","0.0-2.0-6.0-0.0","32","45313","Female","NaN","","","","null","NaN","4","","Stimuli/Practice_stims/Localizer/randy-fath-epf1tdtIIkM-unsplash.jpg","180690","0","NaN","","1","1","0","400","5600","406","5705","","","","","","","","","","","","","","","","","","","","","","","","","","","","","","","","","","","","","","","","","","","","","","","","","","","","",""
"","iti_localizer","","html-keyboard-response","73","181401","0.0-2.0-6.0-1.0","32","45313","Female","null","","","","null","","4","","","181096","0","","","","","","300","6000","305","6111","300","","","","","","","","","","","","","","","","","","","","","","","","","","","","","","","","","","","","","","","","","","","","","","","","","","","",""
"","localizer","","html-keyboard-response","74","181807","0.0-2.0-6.1-0.1","32","45313","Female","397","","","","75","1","4","","Stimuli/Practice_stims/Localizer/randy-fath-epf1tdtIIkM-unsplash.jpg","181401","0","NaN","","1","0","1","400","6300","406","6416","","","","","","","","","","","","","","","","","","","","","","","","","","","","","","","","","","","","","","","","","","","","","","","","","","","","",""
"","iti_localizer","","html-keyboard-response","75","182114","0.0-2.0-6.1-1.1","32","45313","Female","null","","","","null","","4","","","181807","0","","","","","","300","6700","307","6822","300","","","","","","","","","","","","","","","","","","","","","","","","","","","","","","","","","","","","","","","","","","","","","","","","","","","",""
"","localizer","","html-keyboard-response","76","182521","0.0-2.0-7.0-0.0","32","45313","Female","NaN","","","","null","NaN","5","","Stimuli/Practice_stims/Localizer/yassine-khalfalli-adsQ9d_Cx0c-unsplash.jpg","182114","0","NaN","","0","1","0","400","7000","407","7129","","","","","","","","","","","","","","","","","","","","","","","","","","","","","","","","","","","","","","","","","","","","","","","","","","","","",""
"","iti_localizer","","html-keyboard-response","77","182825","0.0-2.0-7.0-1.0","32","45313","Female","null","","","","null","","5","","","182521","0","","","","","","300","7400","304","7536","300","","","","","","","","","","","","","","","","","","","","","","","","","","","","","","","","","","","","","","","","","","","","","","","","","","","",""
"","localizer","","html-keyboard-response","78","183231","0.0-2.0-7.1-0.1","32","45313","Female","337","","","","68","0","5","","Stimuli/Practice_stims/Localizer/yassine-khalfalli-adsQ9d_Cx0c-unsplash.jpg","182825","0","NaN","","0","0","1","400","7700","406","7840","","","","","","","","","","","","","","","","","","","","","","","","","","","","","","","","","","","","","","","","","","","","","","","","","","","","",""
"","iti_localizer","","html-keyboard-response","79","183536","0.0-2.0-7.1-1.1","32","45313","Female","null","","","","null","","5","","","183231","0","","","","","","300","8100","305","8246","300","","","","","","","","","","","","","","","","","","","","","","","","","","","","","","","","","","","","","","","","","","","","","","","","","","","",""
"","practice_over","","html-keyboard-response","80","185408","0.0-2.0-7.1-2.1-0.1","32","45313","Female","1867","","","","68","","","","","","","","","","","","","","","","","","","","","","","","","","","","","","","","","","","","","","","","","","","","","","","","","","","","","","","","","","","","","","","","","","","",""
"","start_run","","html-keyboard-response","81","187913","0.0-2.0-7.1-2.1-1.1","32","45313","Female","2501","","","","84","","","","","","","","","","","","","","","","","","","","","","","","","","","","","","","","","","","","","","","","","","","","","","","","","","","","","","","","","","","","","","","","","","","",""
"","localizer","","html-keyboard-response","82","188320","0.0-2.0-8.0-0.0","32","45313","Female","NaN","","","","null","NaN","6","","Stimuli/Experimental_stims/localizer/body_parts/igordoon-primus-CdyHqfrbGIs-unsplash.jpg","187913","1","body_parts","","0","1","0","400","0","407","0","","","","","","","","","","","","","","","","","","","","","","","","","","","","","","","","","","","","","","","","","","","","","","","","","","","","",""
"","iti_localizer","","html-keyboard-response","83","188625","0.0-2.0-8.0-1.0","32","45313","Female","null","","","","null","","6","","","188320","1","","","","","","300","400","305","407","300","","","","","","","","","","","","","","","","","","","","","","","","","","","","","","","","","","","","","","","","","","","","","","","","","","","",""
"","localizer","","html-keyboard-response","84","189031","0.0-2.0-9.0-0.0","32","45313","Female","184","","","","68","0","7","","Stimuli/Experimental_stims/localizer/body_parts/jonathan-borba-hTwH8QFkPMs-unsplash.jpg","188625","1","body_parts","","0","0","1","400","700","406","712","","","","","","","","","","","","","","","","","","","","","","","","","","","","","","","","","","","","","","","","","","","","","","","","","","","","",""
"","iti_localizer","","html-keyboard-response","85","189336","0.0-2.0-9.0-1.0","32","45313","Female","null","","","","null","","7","","","189031","1","","","","","","300","1100","305","1118","300","","","","","","","","","","","","","","","","","","","","","","","","","","","","","","","","","","","","","","","","","","","","","","","","","","","",""
"","localizer","","html-keyboard-response","86","189742","0.0-2.0-10.0-0.0","32","45313","Female","NaN","","","","null","NaN","8","","Stimuli/Experimental_stims/localizer/body_parts/marcel-fagin-OUYg0Q3ec-Y-unsplash.jpg","189336","1","body_parts","","1","1","0","400","1400","406","1423","","","","","","","","","","","","","","","","","","","","","","","","","","","","","","","","","","","","","","","","","","","","","","","","","","","","",""
"","iti_localizer","","html-keyboard-response","87","190048","0.0-2.0-10.0-1.0","32","45313","Female","null","","","","null","","8","","","189742","1","","","","","","300","1800","306","1829","300","","","","","","","","","","","","","","","","","","","","","","","","","","","","","","","","","","","","","","","","","","","","","","","","","","","",""
"","localizer","","html-keyboard-response","88","190468","0.0-2.0-11.0-0.0","32","45313","Female","NaN","","","","null","NaN","9","","Stimuli/Experimental_stims/localizer/body_parts/anelya-okapova-V69kmOyZ3SU-unsplash.jpg","190048","1","body_parts","","0","1","0","400","2100","420","2135","","","","","","","","","","","","","","","","","","","","","","","","","","","","","","","","","","","","","","","","","","","","","","","","","","","","",""
"","iti_localizer","","html-keyboard-response","89","190774","0.0-2.0-11.0-1.0","32","45313","Female","null","","","","null","","9","","","190468","1","","","","","","300","2500","306","2555","300","","","","","","","","","","","","","","","","","","","","","","","","","","","","","","","","","","","","","","","","","","","","","","","","","","","",""
"","localizer","","html-keyboard-response","90","191179","0.0-2.0-12.0-0.0","32","45313","Female","NaN","","","","null","NaN","10","","Stimuli/Experimental_stims/localizer/body_parts/jan-romero-DL4DDQb8yjc-unsplash.jpg","190774","1","body_parts","","0","1","0","400","2800","405","2861","","","","","","","","","","","","","","","","","","","","","","","","","","","","","","","","","","","","","","","","","","","","","","","","","","","","",""
"","iti_localizer","","html-keyboard-response","91","191484","0.0-2.0-12.0-1.0","32","45313","Female","null","","","","null","","10","","","191179","1","","","","","","300","3200","305","3266","300","","","","","","","","","","","","","","","","","","","","","","","","","","","","","","","","","","","","","","","","","","","","","","","","","","","",""
"","localizer","","html-keyboard-response","92","191891","0.0-2.0-13.0-0.0","32","45313","Female","401","","","","68","0","11","","Stimuli/Experimental_stims/localizer/body_parts/pure-julia-9lVaya31sMk-unsplash.jpg","191484","1","body_parts","","0","0","1","400","3500","407","3571","","","","","","","","","","","","","","","","","","","","","","","","","","","","","","","","","","","","","","","","","","","","","","","","","","","","",""
"","iti_localizer","","html-keyboard-response","93","192195","0.0-2.0-13.0-1.0","32","45313","Female","null","","","","null","","11","","","191891","1","","","","","","300","3900","304","3978","300","","","","","","","","","","","","","","","","","","","","","","","","","","","","","","","","","","","","","","","","","","","","","","","","","","","",""
"","localizer","","html-keyboard-response","94","192601","0.0-2.0-14.0-0.0","32","45313","Female","NaN","","","","null","NaN","12","","Stimuli/Experimental_stims/localizer/body_parts/jasper-garratt-Ng_Kl7K6V8Y-unsplash.jpg","192195","1","body_parts","","0","1","0","400","4200","406","4282","","","","","","","","","","","","","","","","","","","","","","","","","","","","","","","","","","","","","","","","","","","","","","","","","","","","",""
"","iti_localizer","","html-keyboard-response","95","192906","0.0-2.0-14.0-1.0","32","45313","Female","null","","","","null","","12","","","192601","1","","","","","","300","4600","305","4688","300","","","","","","","","","","","","","","","","","","","","","","","","","","","","","","","","","","","","","","","","","","","","","","","","","","","",""
"","localizer","","html-keyboard-response","96","193312","0.0-2.0-15.0-0.0","32","45313","Female","NaN","","","","null","NaN","13","","Stimuli/Experimental_stims/localizer/body_parts/i-am_nah--S4OsO0c6Ts-unsplash.jpg","192906","1","body_parts","","0","1","0","400","4900","406","4993","","","","","","","","","","","","","","","","","","","","","","","","","","","","","","","","","","","","","","","","","","","","","","","","","","","","",""
"","iti_localizer","","html-keyboard-response","97","193618","0.0-2.0-15.0-1.0","32","45313","Female","null","","","","null","","13","","","193312","1","","","","","","300","5300","306","5399","300","","","","","","","","","","","","","","","","","","","","","","","","","","","","","","","","","","","","","","","","","","","","","","","","","","","",""
"","localizer","","html-keyboard-response","98","194024","0.0-2.0-16.0-0.0","32","45313","Female","NaN","","","","null","NaN","14","","Stimuli/Experimental_stims/localizer/body_parts/femme-spirit-RGYBDUHYbyM-unsplash.jpg","193618","1","body_parts","","0","1","0","400","5600","406","5705","","","","","","","","","","","","","","","","","","","","","","","","","","","","","","","","","","","","","","","","","","","","","","","","","","","","",""
"","iti_localizer","","html-keyboard-response","99","194331","0.0-2.0-16.0-1.0","32","45313","Female","null","","","","null","","14","","","194024","1","","","","","","300","6000","307","6111","300","","","","","","","","","","","","","","","","","","","","","","","","","","","","","","","","","","","","","","","","","","","","","","","","","","","",""
"","localizer","","html-keyboard-response","100","194737","0.0-2.0-17.0-0.0","32","45313","Female","NaN","","","","null","NaN","15","","Stimuli/Experimental_stims/localizer/body_parts/liv-bruce-M0oVPGsWk1E-unsplash.jpg","194331","1","body_parts","","0","1","0","400","6300","406","6418","","","","","","","","","","","","","","","","","","","","","","","","","","","","","","","","","","","","","","","","","","","","","","","","","","","","",""
"","iti_localizer","","html-keyboard-response","101","195043","0.0-2.0-17.0-1.0","32","45313","Female","null","","","","null","","15","","","194737","1","","","","","","300","6700","306","6824","300","","","","","","","","","","","","","","","","","","","","","","","","","","","","","","","","","","","","","","","","","","","","","","","","","","","",""
"","localizer","","html-keyboard-response","102","195450","0.0-2.0-18.0-0.0","32","45313","Female","NaN","","","","null","NaN","16","","Stimuli/Experimental_stims/localizer/body_parts/bady-abbas-N-VEeMnm7gE-unsplash.jpg","195043","1","body_parts","","0","1","0","400","7000","407","7130","","","","","","","","","","","","","","","","","","","","","","","","","","","","","","","","","","","","","","","","","","","","","","","","","","","","",""
"","iti_localizer","","html-keyboard-response","103","195755","0.0-2.0-18.0-1.0","32","45313","Female","null","","","","null","","16","","","195450","1","","","","","","300","7400","305","7537","300","","","","","","","","","","","","","","","","","","","","","","","","","","","","","","","","","","","","","","","","","","","","","","","","","","","",""
"","localizer","","html-keyboard-response","104","196160","0.0-2.0-19.0-0.0","32","45313","Female","13","","","","68","0","17","","Stimuli/Experimental_stims/localizer/body_parts/lucaxx-freire-CacZwMexYdk-unsplash.jpg","195755","1","body_parts","","0","0","1","400","7700","405","7842","","","","","","","","","","","","","","","","","","","","","","","","","","","","","","","","","","","","","","","","","","","","","","","","","","","","",""
"","iti_localizer","","html-keyboard-response","105","196466","0.0-2.0-19.0-1.0","32","45313","Female","null","","","","null","","17","","","196160","1","","","","","","300","8100","306","8247","300","","","","","","","","","","","","","","","","","","","","","","","","","","","","","","","","","","","","","","","","","","","","","","","","","","","",""
"","localizer","","html-keyboard-response","106","196871","0.0-2.0-20.0-0.0","32","45313","Female","259","","","","68","0","18","","Stimuli/Experimental_stims/localizer/body_parts/hu-chen-tCbTGNwrFNM-unsplash.jpg","196466","1","body_parts","","0","0","1","400","8400","405","8553","","","","","","","","","","","","","","","","","","","","","","","","","","","","","","","","","","","","","","","","","","","","","","","","","","","","",""
"","iti_localizer","","html-keyboard-response","107","197177","0.0-2.0-20.0-1.0","32","45313","Female","null","","","","null","","18","","","196871","1","","","","","","300","8800","306","8958","300","","","","","","","","","","","","","","","","","","","","","","","","","","","","","","","","","","","","","","","","","","","","","","","","","","","",""
"","localizer","","html-keyboard-response","108","197582","0.0-2.0-21.0-0.0","32","45313","Female","NaN","","","","null","NaN","19","","Stimuli/Experimental_stims/localizer/body_parts/megan-menegay-UojxG_BJxnI-unsplash.jpg","197177","1","body_parts","","0","1","0","400","9100","405","9264","","","","","","","","","","","","","","","","","","","","","","","","","","","","","","","","","","","","","","","","","","","","","","","","","","","","",""
"","iti_localizer","","html-keyboard-response","109","197887","0.0-2.0-21.0-1.0","32","45313","Female","null","","","","null","","19","","","197582","1","","","","","","300","9500","305","9669","300","","","","","","","","","","","","","","","","","","","","","","","","","","","","","","","","","","","","","","","","","","","","","","","","","","","",""
"","localizer","","html-keyboard-response","110","198294","0.0-2.0-22.0-0.0","32","45313","Female","NaN","","","","null","NaN","20","","Stimuli/Experimental_stims/localizer/body_parts/toan-nguyen-VIeLuUFzesg-unsplash.jpg","197887","1","body_parts","","1","1","0","400","9800","407","9974","","","","","","","","","","","","","","","","","","","","","","","","","","","","","","","","","","","","","","","","","","","","","","","","","","","","",""
"","iti_localizer","","html-keyboard-response","111","198599","0.0-2.0-22.0-1.0","32","45313","Female","null","","","","null","","20","","","198294","1","","","","","","300","10200","305","10381","300","","","","","","","","","","","","","","","","","","","","","","","","","","","","","","","","","","","","","","","","","","","","","","","","","","","",""
"","localizer","","html-keyboard-response","112","199005","0.0-2.0-23.0-0.0","32","45313","Female","NaN","","","","null","NaN","21","","Stimuli/Experimental_stims/localizer/body_parts/sippakorn-yamkasikorn-32_sJlJa5gA-unsplash.jpg","198599","1","body_parts","","0","1","0","400","10500","406","10686","","","","","","","","","","","","","","","","","","","","","","","","","","","","","","","","","","","","","","","","","","","","","","","","","","","","",""
"","iti_localizer","","html-keyboard-response","113","199311","0.0-2.0-23.0-1.0","32","45313","Female","null","","","","null","","21","","","199005","1","","","","","","300","10900","306","11092","300","","","","","","","","","","","","","","","","","","","","","","","","","","","","","","","","","","","","","","","","","","","","","","","","","","","",""
"","localizer","","html-keyboard-response","114","199716","0.0-2.0-24.0-0.0","32","45313","Female","306","","","","68","0","22","","Stimuli/Experimental_stims/localizer/body_parts/louis-hansel-FjKTMRTQYAs-unsplash.jpg","199311","1","body_parts","","0","0","1","400","11200","405","11398","","","","","","","","","","","","","","","","","","","","","","","","","","","","","","","","","","","","","","","","","","","","","","","","","","","","",""
"","iti_localizer","","html-keyboard-response","115","200022","0.0-2.0-24.0-1.0","32","45313","Female","null","","","","null","","22","","","199716","1","","","","","","300","11600","306","11803","300","","","","","","","","","","","","","","","","","","","","","","","","","","","","","","","","","","","","","","","","","","","","","","","","","","","",""
"","localizer","","html-keyboard-response","116","200428","0.0-2.0-25.0-0.0","32","45313","Female","NaN","","","","null","NaN","23","","Stimuli/Experimental_stims/localizer/body_parts/sydney-herron-b2W04fGuS70-unsplash.jpg","200022","1","body_parts","","0","1","0","400","11900","406","12109","","","","","","","","","","","","","","","","","","","","","","","","","","","","","","","","","","","","","","","","","","","","","","","","","","","","",""
"","iti_localizer","","html-keyboard-response","117","200734","0.0-2.0-25.0-1.0","32","45313","Female","null","","","","null","","23","","","200428","1","","","","","","300","12300","306","12515","300","","","","","","","","","","","","","","","","","","","","","","","","","","","","","","","","","","","","","","","","","","","","","","","","","","","",""
"","localizer","","html-keyboard-response","118","201139","0.0-2.0-26.0-0.0","32","45313","Female","393","","","","68","0","24","","Stimuli/Experimental_stims/localizer/body_parts/danie-franco-jyyNiSEcCl4-unsplash.jpg","200734","1","body_parts","","0","0","1","400","12600","405","12821","","","","","","","","","","","","","","","","","","","","","","","","","","","","","","","","","","","","","","","","","","","","","","","","","","","","",""
"","iti_localizer","","html-keyboard-response","119","201445","0.0-2.0-26.0-1.0","32","45313","Female","null","","","","null","","24","","","201139","1","","","","","","300","13000","306","13226","300","","","","","","","","","","","","","","","","","","","","","","","","","","","","","","","","","","","","","","","","","","","","","","","","","","","",""
"","localizer","","html-keyboard-response","120","201850","0.0-2.0-27.0-0.0","32","45313","Female","NaN","","","","null","NaN","25","","Stimuli/Experimental_stims/localizer/body_parts/ramesh-iyer-CRhznMXoJlc-unsplash.jpg","201445","1","body_parts","","0","1","0","400","13300","405","13532","","","","","","","","","","","","","","","","","","","","","","","","","","","","","","","","","","","","","","","","","","","","","","","","","","","","",""
"","iti_localizer","","html-keyboard-response","121","215855","0.0-2.0-27.0-1.0","32","45313","Female","null","","","","null","","25","","","201850","1","","","","","","14000","13700","14005","13937","14000","","","","","","","","","","","","","","","","","","","","","","","","","","","","","","","","","","","","","","","","","","","","","","","","","","","",""
"","localizer","","html-keyboard-response","122","216260","0.0-2.0-28.0-0.0","32","45313","Female","NaN","","","","null","NaN","26","","Stimuli/Experimental_stims/localizer/objects/adriano-pucciarelli-BE7yaZnZX6o-unsplash.jpg","215855","1","objects","","0","1","0","400","27700","405","27942","","","","","","","","","","","","","","","","","","","","","","","","","","","","","","","","","","","","","","","","","","","","","","","","","","","","",""
"","iti_localizer","","html-keyboard-response","123","216565","0.0-2.0-28.0-1.0","32","45313","Female","null","","","","null","","26","","","216260","1","","","","","","300","28100","305","28347","300","","","","","","","","","","","","","","","","","","","","","","","","","","","","","","","","","","","","","","","","","","","","","","","","","","","",""
"","localizer","","html-keyboard-response","124","216972","0.0-2.0-29.0-0.0","32","45313","Female","242","","","","68","0","27","","Stimuli/Experimental_stims/localizer/objects/petr-sidorov-3jm5TGqtULU-unsplash.jpg","216565","1","objects","","0","0","1","400","28400","407","28652","","","","","","","","","","","","","","","","","","","","","","","","","","","","","","","","","","","","","","","","","","","","","","","","","","","","",""
"","iti_localizer","","html-keyboard-response","125","217277","0.0-2.0-29.0-1.0","32","45313","Female","null","","","","null","","27","","","216972","1","","","","","","300","28800","305","29059","300","","","","","","","","","","","","","","","","","","","","","","","","","","","","","","","","","","","","","","","","","","","","","","","","","","","",""
"","localizer","","html-keyboard-response","126","217684","0.0-2.0-30.0-0.0","32","45313","Female","NaN","","","","null","NaN","28","","Stimuli/Experimental_stims/localizer/objects/carlos-felipe-ramirez-mesa-HW7bfB3ERSQ-unsplash.jpg","217277","1","objects","","0","1","0","400","29100","407","29364","","","","","","","","","","","","","","","","","","","","","","","","","","","","","","","","","","","","","","","","","","","","","","","","","","","","",""
"","iti_localizer","","html-keyboard-response","127","217989","0.0-2.0-30.0-1.0","32","45313","Female","null","","","","null","","28","","","217684","1","","","","","","300","29500","305","29771","300","","","","","","","","","","","","","","","","","","","","","","","","","","","","","","","","","","","","","","","","","","","","","","","","","","","",""
"","localizer","","html-keyboard-response","128","218395","0.0-2.0-31.0-0.0","32","45313","Female","292","","","","68","0","29","","Stimuli/Experimental_stims/localizer/objects/raimond-klavins-ZdvDPXVvcKs-unsplash.jpg","217989","1","objects","","1","0","0","400","29800","406","30076","","","","","","","","","","","","","","","","","","","","","","","","","","","","","","","","","","","","","","","","","","","","","","","","","","","","",""
"","iti_localizer","","html-keyboard-response","129","218701","0.0-2.0-31.0-1.0","32","45313","Female","null","","","","null","","29","","","218395","1","","","","","","300","30200","306","30482","300","","","","","","","","","","","","","","","","","","","","","","","","","","","","","","","","","","","","","","","","","","","","","","","","","","","",""
"","localizer","","html-keyboard-response","130","219108","0.0-2.0-32.0-0.0","32","45313","Female","NaN","","","","null","NaN","30","","Stimuli/Experimental_stims/localizer/objects/adriano-pucciarelli-Jl3S1yM8gi8-unsplash.jpg","218701","1","objects","","0","1","0","400","30500","407","30788","","","","","","","","","","","","","","","","","","","","","","","","","","","","","","","","","","","","","","","","","","","","","","","","","","","","",""
"","iti_localizer","","html-keyboard-response","131","219413","0.0-2.0-32.0-1.0","32","45313","Female","null","","","","null","","30","","","219108","1","","","","","","300","30900","305","31195","300","","","","","","","","","","","","","","","","","","","","","","","","","","","","","","","","","","","","","","","","","","","","","","","","","","","",""
"","localizer","","html-keyboard-response","132","219818","0.0-2.0-33.0-0.0","32","45313","Female","NaN","","","","null","NaN","31","","Stimuli/Experimental_stims/localizer/objects/engin-akyurt-bbbKzTmY2Gg-unsplash.jpg","219413","1","objects","","0","1","0","400","31200","405","31500","","","","","","","","","","","","","","","","","","","","","","","","","","","","","","","","","","","","","","","","","","","","","","","","","","","","",""
"","iti_localizer","","html-keyboard-response","133","220122","0.0-2.0-33.0-1.0","32","45313","Female","null","","","","null","","31","","","219818","1","","","","","","300","31600","304","31905","300","","","","","","","","","","","","","","","","","","","","","","","","","","","","","","","","","","","","","","","","","","","","","","","","","","","",""
"","localizer","","html-keyboard-response","134","220527","0.0-2.0-34.0-0.0","32","45313","Female","190","","","","68","0","32","","Stimuli/Experimental_stims/localizer/objects/sam-moghadam-khamseh-kvmdsTrGOBM-unsplash.jpg","220122","1","objects","","0","0","1","400","31900","405","32209","","","","","","","","","","","","","","","","","","","","","","","","","","","","","","","","","","","","","","","","","","","","","","","","","","","","",""
"","iti_localizer","","html-keyboard-response","135","220831","0.0-2.0-34.0-1.0","32","45313","Female","null","","","","null","","32","","","220527","1","","","","","","300","32300","304","32614","300","","","","","","","","","","","","","","","","","","","","","","","","","","","","","","","","","","","","","","","","","","","","","","","","","","","",""
"","localizer","","html-keyboard-response","136","221235","0.0-2.0-35.0-0.0","32","45313","Female","346","","","","68","0","33","","Stimuli/Experimental_stims/localizer/objects/jiangxulei1990-eIzzzwtkBjU-unsplash.jpg","220831","1","objects","","0","0","1","400","32600","404","32918","","","","","","","","","","","","","","","","","","","","","","","","","","","","","","","","","","","","","","","","","","","","","","","","","","","","",""
"","iti_localizer","","html-keyboard-response","137","221541","0.0-2.0-35.0-1.0","32","45313","Female","null","","","","null","","33","","","221235","1","","","","","","300","33000","306","33322","300","","","","","","","","","","","","","","","","","","","","","","","","","","","","","","","","","","","","","","","","","","","","","","","","","","","",""
"","localizer","","html-keyboard-response","138","221947","0.0-2.0-36.0-0.0","32","45313","Female","393","","","","68","0","34","","Stimuli/Experimental_stims/localizer/objects/florian-klauer-nptLmg6jqDo-unsplash.jpg","221541","1","objects","","0","0","1","400","33300","406","33628","","","","","","","","","","","","","","","","","","","","","","","","","","","","","","","","","","","","","","","","","","","","","","","","","","","","",""
"","iti_localizer","","html-keyboard-response","139","222253","0.0-2.0-36.0-1.0","32","45313","Female","null","","","","null","","34","","","221947","1","","","","","","300","33700","306","34034","300","","","","","","","","","","","","","","","","","","","","","","","","","","","","","","","","","","","","","","","","","","","","","","","","","","","",""
"","localizer","","html-keyboard-response","140","222658","0.0-2.0-37.0-0.0","32","45313","Female","NaN","","","","null","NaN","35","","Stimuli/Experimental_stims/localizer/objects/ignat-dolomanov-kFBDVnmskPA-unsplash.jpg","222253","1","objects","","0","1","0","400","34000","405","34340","","","","","","","","","","","","","","","","","","","","","","","","","","","","","","","","","","","","","","","","","","","","","","","","","","","","",""
"","iti_localizer","","html-keyboard-response","141","222964","0.0-2.0-37.0-1.0","32","45313","Female","null","","","","null","","35","","","222658","1","","","","","","300","34400","306","34745","300","","","","","","","","","","","","","","","","","","","","","","","","","","","","","","","","","","","","","","","","","","","","","","","","","","","",""
"","localizer","","html-keyboard-response","142","223370","0.0-2.0-38.0-0.0","32","45313","Female","357","","","","68","0","36","","Stimuli/Experimental_stims/localizer/objects/andrew-petrov-TVJqDat4MAw-unsplash.jpg","222964","1","objects","","0","0","1","400","34700","406","35051","","","","","","","","","","","","","","","","","","","","","","","","","","","","","","","","","","","","","","","","","","","","","","","","","","","","",""
"","iti_localizer","","html-keyboard-response","143","223675","0.0-2.0-38.0-1.0","32","45313","Female","null","","","","null","","36","","","223370","1","","","","","","300","35100","305","35457","300","","","","","","","","","","","","","","","","","","","","","","","","","","","","","","","","","","","","","","","","","","","","","","","","","","","",""
"","localizer","","html-keyboard-response","144","224081","0.0-2.0-39.0-0.0","32","45313","Female","305","","","","68","0","37","","Stimuli/Experimental_stims/localizer/objects/sam-moghadam-khamseh-L_7MQsHl_aU-unsplash.jpg","223675","1","objects","","0","0","1","400","35400","406","35762","","","","","","","","","","","","","","","","","","","","","","","","","","","","","","","","","","","","","","","","","","","","","","","","","","","","",""
"","iti_localizer","","html-keyboard-response","145","224387","0.0-2.0-39.0-1.0","32","45313","Female","null","","","","null","","37","","","224081","1","","","","","","300","35800","306","36168","300","","","","","","","","","","","","","","","","","","","","","","","","","","","","","","","","","","","","","","","","","","","","","","","","","","","",""
"","localizer","","html-keyboard-response","146","224793","0.0-2.0-40.0-0.0","32","45313","Female","297","","","","68","0","38","","Stimuli/Experimental_stims/localizer/objects/ana-9GmAaEMMKho-unsplash.jpg","224387","1","objects","","0","0","1","400","36100","406","36474","","","","","","","","","","","","","","","","","","","","","","","","","","","","","","","","","","","","","","","","","","","","","","","","","","","","",""
"","iti_localizer","","html-keyboard-response","147","225098","0.0-2.0-40.0-1.0","32","45313","Female","null","","","","null","","38","","","224793","1","","","","","","300","36500","305","36880","300","","","","","","","","","","","","","","","","","","","","","","","","","","","","","","","","","","","","","","","","","","","","","","","","","","","",""
"","localizer","","html-keyboard-response","148","225504","0.0-2.0-41.0-0.0","32","45313","Female","332","","","","68","0","39","","Stimuli/Experimental_stims/localizer/objects/mockup-graphics-U6ZMEefFGx8-unsplash.jpg","225098","1","objects","","0","0","1","400","36800","406","37185","","","","","","","","","","","","","","","","","","","","","","","","","","","","","","","","","","","","","","","","","","","","","","","","","","","","",""
"","iti_localizer","","html-keyboard-response","149","225811","0.0-2.0-41.0-1.0","32","45313","Female","null","","","","null","","39","","","225504","1","","","","","","300","37200","307","37591","300","","","","","","","","","","","","","","","","","","","","","","","","","","","","","","","","","","","","","","","","","","","","","","","","","","","",""
"","localizer","","html-keyboard-response","150","226217","0.0-2.0-42.0-0.0","32","45313","Female","338","","","","68","0","40","","Stimuli/Experimental_stims/localizer/objects/kelly-jean-cKjbI0Y00X0-unsplash.jpg","225811","1","objects","","0","0","1","400","37500","406","37898","","","","","","","","","","","","","","","","","","","","","","","","","","","","","","","","","","","","","","","","","","","","","","","","","","","","",""
"","iti_localizer","","html-keyboard-response","151","226523","0.0-2.0-42.0-1.0","32","45313","Female","null","","","","null","","40","","","226217","1","","","","","","300","37900","306","38304","300","","","","","","","","","","","","","","","","","","","","","","","","","","","","","","","","","","","","","","","","","","","","","","","","","","","",""
"","localizer","","html-keyboard-response","152","226930","0.0-2.0-43.0-0.0","32","45313","Female","289","","","","68","0","41","","Stimuli/Experimental_stims/localizer/objects/eugene-chystiakov-3neSwyntbQ8-unsplash.jpg","226523","1","objects","","0","0","1","400","38200","407","38610","","","","","","","","","","","","","","","","","","","","","","","","","","","","","","","","","","","","","","","","","","","","","","","","","","","","",""
"","iti_localizer","","html-keyboard-response","153","227236","0.0-2.0-43.0-1.0","32","45313","Female","null","","","","null","","41","","","226930","1","","","","","","300","38600","306","39017","300","","","","","","","","","","","","","","","","","","","","","","","","","","","","","","","","","","","","","","","","","","","","","","","","","","","",""
"","localizer","","html-keyboard-response","154","227643","0.0-2.0-44.0-0.0","32","45313","Female","345","","","","68","0","42","","Stimuli/Experimental_stims/localizer/objects/lance-reis-v0FYj9iioQg-unsplash.jpg","227236","1","objects","","0","0","1","400","38900","407","39323","","","","","","","","","","","","","","","","","","","","","","","","","","","","","","","","","","","","","","","","","","","","","","","","","","","","",""
"","iti_localizer","","html-keyboard-response","155","227947","0.0-2.0-44.0-1.0","32","45313","Female","null","","","","null","","42","","","227643","1","","","","","","300","39300","304","39730","300","","","","","","","","","","","","","","","","","","","","","","","","","","","","","","","","","","","","","","","","","","","","","","","","","","","",""
"","localizer","","html-keyboard-response","156","228354","0.0-2.0-45.0-0.0","32","45313","Female","349","","","","68","0","43","","Stimuli/Experimental_stims/localizer/objects/annie-spratt-fbAnIjhrOL4-unsplash.jpg","227947","1","objects","","0","0","1","400","39600","407","40034","","","","","","","","","","","","","","","","","","","","","","","","","","","","","","","","","","","","","","","","","","","","","","","","","","","","",""
"","iti_localizer","","html-keyboard-response","157","228659","0.0-2.0-45.0-1.0","32","45313","Female","null","","","","null","","43","","","228354","1","","","","","","300","40000","305","40441","300","","","","","","","","","","","","","","","","","","","","","","","","","","","","","","","","","","","","","","","","","","","","","","","","","","","",""
"","localizer","","html-keyboard-response","158","229064","0.0-2.0-46.0-0.0","32","45313","Female","350","","","","68","0","44","","Stimuli/Experimental_stims/localizer/objects/mockup-graphics-Pj2PY-E-LfM-unsplash.jpg","228659","1","objects","","1","0","0","400","40300","405","40746","","","","","","","","","","","","","","","","","","","","","","","","","","","","","","","","","","","","","","","","","","","","","","","","","","","","",""
"","iti_localizer","","html-keyboard-response","159","229370","0.0-2.0-46.0-1.0","32","45313","Female","null","","","","null","","44","","","229064","1","","","","","","300","40700","306","41151","300","","","","","","","","","","","","","","","","","","","","","","","","","","","","","","","","","","","","","","","","","","","","","","","","","","","",""
"","localizer","","html-keyboard-response","160","229776","0.0-2.0-47.0-0.0","32","45313","Female","NaN","","","","null","NaN","45","","Stimuli/Experimental_stims/localizer/objects/dario-mendez-hnJ2VNZzbns-unsplash.jpg","229370","1","objects","","0","1","0","400","41000","406","41457","","","","","","","","","","","","","","","","","","","","","","","","","","","","","","","","","","","","","","","","","","","","","","","","","","","","",""
"","iti_localizer","","html-keyboard-response","161","243781","0.0-2.0-47.0-1.0","32","45313","Female","null","","","","null","","45","","","229776","1","","","","","","14000","41400","14005","41863","14000","","","","","","","","","","","","","","","","","","","","","","","","","","","","","","","","","","","","","","","","","","","","","","","","","","","",""
"","localizer","","html-keyboard-response","162","244187","0.0-2.0-48.0-0.0","32","45313","Female","NaN","","","","null","NaN","46","","Stimuli/Experimental_stims/localizer/faces/christian-ferrer-8vT-DgHZDG4-unsplash.jpg","243781","1","faces","","1","1","0","400","55400","406","55868","","","","","","","","","","","","","","","","","","","","","","","","","","","","","","","","","","","","","","","","","","","","","","","","","","","","",""
"","iti_localizer","","html-keyboard-response","163","244492","0.0-2.0-48.0-1.0","32","45313","Female","null","","","","null","","46","","","244187","1","","","","","","300","55800","305","56274","300","","","","","","","","","","","","","","","","","","","","","","","","","","","","","","","","","","","","","","","","","","","","","","","","","","","",""
"","localizer","","html-keyboard-response","164","244898","0.0-2.0-49.0-0.0","32","45313","Female","NaN","","","","null","NaN","47","","Stimuli/Experimental_stims/localizer/faces/mathias-huysmans-U4JDjYmjn1g-unsplash.jpg","244492","1","faces","","0","1","0","400","56100","406","56579","","","","","","","","","","","","","","","","","","","","","","","","","","","","","","","","","","","","","","","","","","","","","","","","","","","","",""
"","iti_localizer","","html-keyboard-response","165","245204","0.0-2.0-49.0-1.0","32","45313","Female","null","","","","null","","47","","","244898","1","","","","","","300","56500","306","56985","300","","","","","","","","","","","","","","","","","","","","","","","","","","","","","","","","","","","","","","","","","","","","","","","","","","","",""
"","localizer","","html-keyboard-response","166","245610","0.0-2.0-50.0-0.0","32","45313","Female","361","","","","68","0","48","","Stimuli/Experimental_stims/localizer/faces/filipe-almeida-mnEWC72eWDM-unsplash.jpg","245204","1","faces","","0","0","1","400","56800","406","57291","","","","","","","","","","","","","","","","","","","","","","","","","","","","","","","","","","","","","","","","","","","","","","","","","","","","",""
"","iti_localizer","","html-keyboard-response","167","245915","0.0-2.0-50.0-1.0","32","45313","Female","null","","","","null","","48","","","245610","1","","","","","","300","57200","305","57697","300","","","","","","","","","","","","","","","","","","","","","","","","","","","","","","","","","","","","","","","","","","","","","","","","","","","",""
"","localizer","","html-keyboard-response","168","246321","0.0-2.0-51.0-0.0","32","45313","Female","352","","","","68","0","49","","Stimuli/Experimental_stims/localizer/faces/midas-hofstra-tidSLv-UaNs-unsplash.jpg","245915","1","faces","","0","0","1","400","57500","406","58002","","","","","","","","","","","","","","","","","","","","","","","","","","","","","","","","","","","","","","","","","","","","","","","","","","","","",""
"","iti_localizer","","html-keyboard-response","169","246626","0.0-2.0-51.0-1.0","32","45313","Female","null","","","","null","","49","","","246321","1","","","","","","300","57900","305","58408","300","","","","","","","","","","","","","","","","","","","","","","","","","","","","","","","","","","","","","","","","","","","","","","","","","","","",""
"","localizer","","html-keyboard-response","170","247032","0.0-2.0-52.0-0.0","32","45313","Female","380","","","","68","0","50","","Stimuli/Experimental_stims/localizer/faces/darshan-patel-QJEVpydulGs-unsplash.jpg","246626","1","faces","","0","0","1","400","58200","406","58713","","","","","","","","","","","","","","","","","","","","","","","","","","","","","","","","","","","","","","","","","","","","","","","","","","","","",""
"","iti_localizer","","html-keyboard-response","171","247338","0.0-2.0-52.0-1.0","32","45313","Female","null","","","","null","","50","","","247032","1","","","","","","300","58600","306","59119","300","","","","","","","","","","","","","","","","","","","","","","","","","","","","","","","","","","","","","","","","","","","","","","","","","","","",""
"","localizer","","html-keyboard-response","172","247742","0.0-2.0-53.0-0.0","32","45313","Female","370","","","","68","0","51","","Stimuli/Experimental_stims/localizer/faces/ivan-dodig-R21SyyJDFgc-unsplash.jpg","247338","1","faces","","0","0","1","400","58900","404","59425","","","","","","","","","","","","","","","","","","","","","","","","","","","","","","","","","","","","","","","","","","","","","","","","","","","","",""
"","iti_localizer","","html-keyboard-response","173","248047","0.0-2.0-53.0-1.0","32","45313","Female","null","","","","null","","51","","","247742","1","","","","","","300","59300","305","59829","300","","","","","","","","","","","","","","","","","","","","","","","","","","","","","","","","","","","","","","","","","","","","","","","","","","","",""
"","localizer","","html-keyboard-response","174","248454","0.0-2.0-54.0-0.0","32","45313","Female","377","","","","68","0","52","","Stimuli/Experimental_stims/localizer/faces/austin-wade-X6Uj51n5CE8-unsplash.jpg","248047","1","faces","","0","0","1","400","59600","407","60134","","","","","","","","","","","","","","","","","","","","","","","","","","","","","","","","","","","","","","","","","","","","","","","","","","","","",""
"","iti_localizer","","html-keyboard-response","175","248759","0.0-2.0-54.0-1.0","32","45313","Female","null","","","","null","","52","","","248454","1","","","","","","300","60000","305","60541","300","","","","","","","","","","","","","","","","","","","","","","","","","","","","","","","","","","","","","","","","","","","","","","","","","","","",""
"","localizer","","html-keyboard-response","176","249165","0.0-2.0-55.0-0.0","32","45313","Female","339","","","","68","0","53","","Stimuli/Experimental_stims/localizer/faces/linkedin-sales-solutions-pAtA8xe_iVM-unsplash.jpg","248759","1","faces","","0","0","1","400","60300","406","60846","","","","","","","","","","","","","","","","","","","","","","","","","","","","","","","","","","","","","","","","","","","","","","","","","","","","",""
"","iti_localizer","","html-keyboard-response","177","249470","0.0-2.0-55.0-1.0","32","45313","Female","null","","","","null","","53","","","249165","1","","","","","","300","60700","305","61252","300","","","","","","","","","","","","","","","","","","","","","","","","","","","","","","","","","","","","","","","","","","","","","","","","","","","",""
"","localizer","","html-keyboard-response","178","249875","0.0-2.0-56.0-0.0","32","45313","Female","342","","","","68","0","54","","Stimuli/Experimental_stims/localizer/faces/pavel-anoshin-d0peGya6R5Y-unsplash.jpg","249470","1","faces","","0","0","1","400","61000","405","61557","","","","","","","","","","","","","","","","","","","","","","","","","","","","","","","","","","","","","","","","","","","","","","","","","","","","",""
"","iti_localizer","","html-keyboard-response","179","250180","0.0-2.0-56.0-1.0","32","45313","Female","null","","","","null","","54","","","249875","1","","","","","","300","61400","305","61962","300","","","","","","","","","","","","","","","","","","","","","","","","","","","","","","","","","","","","","","","","","","","","","","","","","","","",""
"","localizer","","html-keyboard-response","180","250587","0.0-2.0-57.0-0.0","32","45313","Female","NaN","","","","null","NaN","55","","Stimuli/Experimental_stims/localizer/faces/jeffery-erhunse-vp9mRauo68c-unsplash.jpg","250180","1","faces","","0","1","0","400","61700","407","62267","","","","","","","","","","","","","","","","","","","","","","","","","","","","","","","","","","","","","","","","","","","","","","","","","","","","",""
"","iti_localizer","","html-keyboard-response","181","250893","0.0-2.0-57.0-1.0","32","45313","Female","null","","","","null","","55","","","250587","1","","","","","","300","62100","306","62674","300","","","","","","","","","","","","","","","","","","","","","","","","","","","","","","","","","","","","","","","","","","","","","","","","","","","",""
"","localizer","","html-keyboard-response","182","251298","0.0-2.0-58.0-0.0","32","45313","Female","365","","","","68","0","56","","Stimuli/Experimental_stims/localizer/faces/aatik-tasneem-7omHUGhhmZ0-unsplash.jpg","250893","1","faces","","0","0","1","400","62400","405","62980","","","","","","","","","","","","","","","","","","","","","","","","","","","","","","","","","","","","","","","","","","","","","","","","","","","","",""
"","iti_localizer","","html-keyboard-response","183","251603","0.0-2.0-58.0-1.0","32","45313","Female","null","","","","null","","56","","","251298","1","","","","","","300","62800","305","63385","300","","","","","","","","","","","","","","","","","","","","","","","","","","","","","","","","","","","","","","","","","","","","","","","","","","","",""
"","localizer","","html-keyboard-response","184","252007","0.0-2.0-59.0-0.0","32","45313","Female","NaN","","","","null","NaN","57","","Stimuli/Experimental_stims/localizer/faces/abstral-official-cyOKLSgkgCE-unsplash.jpg","251603","1","faces","","0","1","0","400","63100","404","63690","","","","","","","","","","","","","","","","","","","","","","","","","","","","","","","","","","","","","","","","","","","","","","","","","","","","",""
"","iti_localizer","","html-keyboard-response","185","252313","0.0-2.0-59.0-1.0","32","45313","Female","null","","","","null","","57","","","252007","1","","","","","","300","63500","306","64094","300","","","","","","","","","","","","","","","","","","","","","","","","","","","","","","","","","","","","","","","","","","","","","","","","","","","",""
"","localizer","","html-keyboard-response","186","252717","0.0-2.0-60.0-0.0","32","45313","Female","365","","","","68","0","58","","Stimuli/Experimental_stims/localizer/faces/brooke-cagle-Nm70URdtf3c-unsplash (1).jpg","252313","1","faces","","0","0","1","400","63800","404","64400","","","","","","","","","","","","","","","","","","","","","","","","","","","","","","","","","","","","","","","","","","","","","","","","","","","","",""
"","iti_localizer","","html-keyboard-response","187","253022","0.0-2.0-60.0-1.0","32","45313","Female","null","","","","null","","58","","","252717","1","","","","","","300","64200","305","64804","300","","","","","","","","","","","","","","","","","","","","","","","","","","","","","","","","","","","","","","","","","","","","","","","","","","","",""
"","localizer","","html-keyboard-response","188","253429","0.0-2.0-61.0-0.0","32","45313","Female","328","","","","68","0","59","","Stimuli/Experimental_stims/localizer/faces/icons8-team-6LZuSzSwso0-unsplash.jpg","253022","1","faces","","0","0","1","400","64500","407","65109","","","","","","","","","","","","","","","","","","","","","","","","","","","","","","","","","","","","","","","","","","","","","","","","","","","","",""
"","iti_localizer","","html-keyboard-response","189","253734","0.0-2.0-61.0-1.0","32","45313","Female","null","","","","null","","59","","","253429","1","","","","","","300","64900","305","65516","300","","","","","","","","","","","","","","","","","","","","","","","","","","","","","","","","","","","","","","","","","","","","","","","","","","","",""
"","localizer","","html-keyboard-response","190","254141","0.0-2.0-62.0-0.0","32","45313","Female","373","","","","68","0","60","","Stimuli/Experimental_stims/localizer/faces/christina-wocintechchat-com-0Zx1bDv5BNY-unsplash.jpg","253734","1","faces","","0","0","1","400","65200","407","65821","","","","","","","","","","","","","","","","","","","","","","","","","","","","","","","","","","","","","","","","","","","","","","","","","","","","",""
"","iti_localizer","","html-keyboard-response","191","254446","0.0-2.0-62.0-1.0","32","45313","Female","null","","","","null","","60","","","254141","1","","","","","","300","65600","305","66228","300","","","","","","","","","","","","","","","","","","","","","","","","","","","","","","","","","","","","","","","","","","","","","","","","","","","",""
"","localizer","","html-keyboard-response","192","254852","0.0-2.0-63.0-0.0","32","45313","Female","340","","","","68","0","61","","Stimuli/Experimental_stims/localizer/faces/juan-encalada-WC7KIHo13Fc-unsplash.jpg","254446","1","faces","","0","0","1","400","65900","406","66533","","","","","","","","","","","","","","","","","","","","","","","","","","","","","","","","","","","","","","","","","","","","","","","","","","","","",""
"","iti_localizer","","html-keyboard-response","193","255157","0.0-2.0-63.0-1.0","32","45313","Female","null","","","","null","","61","","","254852","1","","","","","","300","66300","305","66939","300","","","","","","","","","","","","","","","","","","","","","","","","","","","","","","","","","","","","","","","","","","","","","","","","","","","",""
"","localizer","","html-keyboard-response","194","255562","0.0-2.0-64.0-0.0","32","45313","Female","327","","","","68","0","62","","Stimuli/Experimental_stims/localizer/faces/nick-karvounis-JyO_szjGvUw-unsplash.jpg","255157","1","faces","","0","0","1","400","66600","405","67244","","","","","","","","","","","","","","","","","","","","","","","","","","","","","","","","","","","","","","","","","","","","","","","","","","","","",""
"","iti_localizer","","html-keyboard-response","195","255867","0.0-2.0-64.0-1.0","32","45313","Female","null","","","","null","","62","","","255562","1","","","","","","300","67000","305","67649","300","","","","","","","","","","","","","","","","","","","","","","","","","","","","","","","","","","","","","","","","","","","","","","","","","","","",""
"","localizer","","html-keyboard-response","196","256272","0.0-2.0-65.0-0.0","32","45313","Female","400","","","","68","0","63","","Stimuli/Experimental_stims/localizer/faces/carlos-vaz-KP4bxnxAilU-unsplash.jpg","255867","1","faces","","0","0","1","400","67300","405","67954","","","","","","","","","","","","","","","","","","","","","","","","","","","","","","","","","","","","","","","","","","","","","","","","","","","","",""
"","iti_localizer","","html-keyboard-response","197","256577","0.0-2.0-65.0-1.0","32","45313","Female","null","","","","null","","63","","","256272","1","","","","","","300","67700","305","68359","300","","","","","","","","","","","","","","","","","","","","","","","","","","","","","","","","","","","","","","","","","","","","","","","","","","","",""
"","localizer","","html-keyboard-response","198","256984","0.0-2.0-66.0-0.0","32","45313","Female","NaN","","","","null","NaN","64","","Stimuli/Experimental_stims/localizer/faces/tyler-nix-ZGa9d1a_4tA-unsplash.jpg","256577","1","faces","","1","1","0","400","68000","407","68664","","","","","","","","","","","","","","","","","","","","","","","","","","","","","","","","","","","","","","","","","","","","","","","","","","","","",""
"","iti_localizer","","html-keyboard-response","199","257290","0.0-2.0-66.0-1.0","32","45313","Female","null","","","","null","","64","","","256984","1","","","","","","300","68400","306","69071","300","","","","","","","","","","","","","","","","","","","","","","","","","","","","","","","","","","","","","","","","","","","","","","","","","","","",""
"","localizer","","html-keyboard-response","200","257696","0.0-2.0-67.0-0.0","32","45313","Female","366","","","","68","0","65","","Stimuli/Experimental_stims/localizer/faces/samuel-dixon--fQ5XNOcqFQ-unsplash.jpg","257290","1","faces","","0","0","1","400","68700","406","69377","","","","","","","","","","","","","","","","","","","","","","","","","","","","","","","","","","","","","","","","","","","","","","","","","","","","",""
"","iti_localizer","","html-keyboard-response","201","271705","0.0-2.0-67.0-1.0","32","45313","Female","null","","","","null","","65","","","257696","1","","","","","","14000","69100","14009","69783","14000","","","","","","","","","","","","","","","","","","","","","","","","","","","","","","","","","","","","","","","","","","","","","","","","","","","",""
"","localizer","","html-keyboard-response","202","272111","0.0-2.0-68.0-0.0","32","45313","Female","NaN","","","","null","NaN","66","","Stimuli/Experimental_stims/localizer/body_parts/nihal-karkala-LlOfbQD-IJ0-unsplash.jpg","271705","1","body_parts","","1","1","0","400","83100","406","83792","","","","","","","","","","","","","","","","","","","","","","","","","","","","","","","","","","","","","","","","","","","","","","","","","","","","",""
"","iti_localizer","","html-keyboard-response","203","272416","0.0-2.0-68.0-1.0","32","45313","Female","null","","","","null","","66","","","272111","1","","","","","","300","83500","305","84198","300","","","","","","","","","","","","","","","","","","","","","","","","","","","","","","","","","","","","","","","","","","","","","","","","","","","",""
"","localizer","","html-keyboard-response","204","272823","0.0-2.0-69.0-0.0","32","45313","Female","NaN","","","","null","NaN","67","","Stimuli/Experimental_stims/localizer/body_parts/nick-page-WTNmgJtwzGI-unsplash.jpg","272416","1","body_parts","","0","1","0","400","83800","407","84503","","","","","","","","","","","","","","","","","","","","","","","","","","","","","","","","","","","","","","","","","","","","","","","","","","","","",""
"","iti_localizer","","html-keyboard-response","205","273128","0.0-2.0-69.0-1.0","32","45313","Female","null","","","","null","","67","","","272823","1","","","","","","300","84200","305","84910","300","","","","","","","","","","","","","","","","","","","","","","","","","","","","","","","","","","","","","","","","","","","","","","","","","","","",""
"","localizer","","html-keyboard-response","206","273534","0.0-2.0-70.0-0.0","32","45313","Female","340","","","","68","0","68","","Stimuli/Experimental_stims/localizer/body_parts/sina-rezakhani-d1gQi0Jl05U-unsplash (1).jpg","273128","1","body_parts","","0","0","1","400","84500","406","85215","","","","","","","","","","","","","","","","","","","","","","","","","","","","","","","","","","","","","","","","","","","","","","","","","","","","",""
"","iti_localizer","","html-keyboard-response","207","273839","0.0-2.0-70.0-1.0","32","45313","Female","null","","","","null","","68","","","273534","1","","","","","","300","84900","305","85621","300","","","","","","","","","","","","","","","","","","","","","","","","","","","","","","","","","","","","","","","","","","","","","","","","","","","",""
"","localizer","","html-keyboard-response","208","274244","0.0-2.0-71.0-0.0","32","45313","Female","330","","","","68","0","69","","Stimuli/Experimental_stims/localizer/body_parts/meghan-thompson-U1b8OB0QpIo-unsplash.jpg","273839","1","body_parts","","0","0","1","400","85200","405","85926","","","","","","","","","","","","","","","","","","","","","","","","","","","","","","","","","","","","","","","","","","","","","","","","","","","","",""
"","iti_localizer","","html-keyboard-response","209","274550","0.0-2.0-71.0-1.0","32","45313","Female","null","","","","null","","69","","","274244","1","","","","","","300","85600","306","86331","300","","","","","","","","","","","","","","","","","","","","","","","","","","","","","","","","","","","","","","","","","","","","","","","","","","","",""
"","localizer","","html-keyboard-response","210","274957","0.0-2.0-72.0-0.0","32","45313","Female","325","","","","68","0","70","","Stimuli/Experimental_stims/localizer/body_parts/davidcohen-qghuLqyh3nE-unsplash.jpg","274550","1","body_parts","","0","0","1","400","85900","407","86637","","","","","","","","","","","","","","","","","","","","","","","","","","","","","","","","","","","","","","","","","","","","","","","","","","","","",""
"","iti_localizer","","html-keyboard-response","211","275261","0.0-2.0-72.0-1.0","32","45313","Female","null","","","","null","","70","","","274957","1","","","","","","300","86300","304","87044","300","","","","","","","","","","","","","","","","","","","","","","","","","","","","","","","","","","","","","","","","","","","","","","","","","","","",""
"","localizer","","html-keyboard-response","212","275666","0.0-2.0-73.0-0.0","32","45313","Female","337","","","","68","0","71","","Stimuli/Experimental_stims/localizer/body_parts/sincerely-media-QyzlAZjm0r0-unsplash.jpg","275261","1","body_parts","","0","0","1","400","86600","405","87348","","","","","","","","","","","","","","","","","","","","","","","","","","","","","","","","","","","","","","","","","","","","","","","","","","","","",""
"","iti_localizer","","html-keyboard-response","213","275970","0.0-2.0-73.0-1.0","32","45313","Female","null","","","","null","","71","","","275666","1","","","","","","300","87000","304","87753","300","","","","","","","","","","","","","","","","","","","","","","","","","","","","","","","","","","","","","","","","","","","","","","","","","","","",""
"","localizer","","html-keyboard-response","214","276376","0.0-2.0-74.0-0.0","32","45313","Female","NaN","","","","null","NaN","72","","Stimuli/Experimental_stims/localizer/body_parts/juja-han-Z8-6EI2tYtw-unsplash.jpg","275970","1","body_parts","","0","1","0","400","87300","406","88057","","","","","","","","","","","","","","","","","","","","","","","","","","","","","","","","","","","","","","","","","","","","","","","","","","","","",""
"","iti_localizer","","html-keyboard-response","215","276681","0.0-2.0-74.0-1.0","32","45313","Female","null","","","","null","","72","","","276376","1","","","","","","300","87700","305","88463","300","","","","","","","","","","","","","","","","","","","","","","","","","","","","","","","","","","","","","","","","","","","","","","","","","","","",""
"","localizer","","html-keyboard-response","216","277088","0.0-2.0-75.0-0.0","32","45313","Female","384","","","","68","0","73","","Stimuli/Experimental_stims/localizer/body_parts/natalie-grainger-8uB5kFKWWkk-unsplash.jpg","276681","1","body_parts","","0","0","1","400","88000","407","88768","","","","","","","","","","","","","","","","","","","","","","","","","","","","","","","","","","","","","","","","","","","","","","","","","","","","",""
"","iti_localizer","","html-keyboard-response","217","277394","0.0-2.0-75.0-1.0","32","45313","Female","null","","","","null","","73","","","277088","1","","","","","","300","88400","306","89175","300","","","","","","","","","","","","","","","","","","","","","","","","","","","","","","","","","","","","","","","","","","","","","","","","","","","",""
"","localizer","","html-keyboard-response","218","277800","0.0-2.0-76.0-0.0","32","45313","Female","392","","","","68","0","74","","Stimuli/Experimental_stims/localizer/body_parts/debby-hudson--B_757qSA4k-unsplash.jpg","277394","1","body_parts","","0","0","1","400","88700","406","89481","","","","","","","","","","","","","","","","","","","","","","","","","","","","","","","","","","","","","","","","","","","","","","","","","","","","",""
"","iti_localizer","","html-keyboard-response","219","278104","0.0-2.0-76.0-1.0","32","45313","Female","null","","","","null","","74","","","277800","1","","","","","","300","89100","304","89887","300","","","","","","","","","","","","","","","","","","","","","","","","","","","","","","","","","","","","","","","","","","","","","","","","","","","",""
"","localizer","","html-keyboard-response","220","278511","0.0-2.0-77.0-0.0","32","45313","Female","348","","","","68","0","75","","Stimuli/Experimental_stims/localizer/body_parts/pure-julia-E9Q4bqYHtIM-unsplash.jpg","278104","1","body_parts","","0","0","1","400","89400","407","90191","","","","","","","","","","","","","","","","","","","","","","","","","","","","","","","","","","","","","","","","","","","","","","","","","","","","",""
"","iti_localizer","","html-keyboard-response","221","278819","0.0-2.0-77.0-1.0","32","45313","Female","null","","","","null","","75","","","278511","1","","","","","","300","89800","308","90598","300","","","","","","","","","","","","","","","","","","","","","","","","","","","","","","","","","","","","","","","","","","","","","","","","","","","",""
"","localizer","","html-keyboard-response","222","279225","0.0-2.0-78.0-0.0","32","45313","Female","351","","","","68","0","76","","Stimuli/Experimental_stims/localizer/body_parts/charles-etoroma-1fo0biloDOc-unsplash.jpg","278819","1","body_parts","","0","0","1","400","90100","406","90906","","","","","","","","","","","","","","","","","","","","","","","","","","","","","","","","","","","","","","","","","","","","","","","","","","","","",""
"","iti_localizer","","html-keyboard-response","223","279531","0.0-2.0-78.0-1.0","32","45313","Female","null","","","","null","","76","","","279225","1","","","","","","300","90500","306","91312","300","","","","","","","","","","","","","","","","","","","","","","","","","","","","","","","","","","","","","","","","","","","","","","","","","","","",""
"","localizer","","html-keyboard-response","224","279937","0.0-2.0-79.0-0.0","32","45313","Female","336","","","","68","0","77","","Stimuli/Experimental_stims/localizer/body_parts/david-fanuel-qnV8X7OViNY-unsplash.jpg","279531","1","body_parts","","0","0","1","400","90800","406","91618","","","","","","","","","","","","","","","","","","","","","","","","","","","","","","","","","","","","","","","","","","","","","","","","","","","","",""
"","iti_localizer","","html-keyboard-response","225","280243","0.0-2.0-79.0-1.0","32","45313","Female","null","","","","null","","77","","","279937","1","","","","","","300","91200","306","92024","300","","","","","","","","","","","","","","","","","","","","","","","","","","","","","","","","","","","","","","","","","","","","","","","","","","","",""
"","localizer","","html-keyboard-response","226","280649","0.0-2.0-80.0-0.0","32","45313","Female","355","","","","68","0","78","","Stimuli/Experimental_stims/localizer/body_parts/diana-polekhina-SwWjCbIIoFE-unsplash.jpg","280243","1","body_parts","","0","0","1","400","91500","406","92330","","","","","","","","","","","","","","","","","","","","","","","","","","","","","","","","","","","","","","","","","","","","","","","","","","","","",""
"","iti_localizer","","html-keyboard-response","227","280955","0.0-2.0-80.0-1.0","32","45313","Female","null","","","","null","","78","","","280649","1","","","","","","300","91900","306","92736","300","","","","","","","","","","","","","","","","","","","","","","","","","","","","","","","","","","","","","","","","","","","","","","","","","","","",""
"","localizer","","html-keyboard-response","228","281360","0.0-2.0-81.0-0.0","32","45313","Female","NaN","","","","null","NaN","79","","Stimuli/Experimental_stims/localizer/body_parts/ant-rozetsky-bXQd8JXx0vs-unsplash.jpg","280955","1","body_parts","","0","1","0","400","92200","405","93042","","","","","","","","","","","","","","","","","","","","","","","","","","","","","","","","","","","","","","","","","","","","","","","","","","","","",""
"","iti_localizer","","html-keyboard-response","229","281666","0.0-2.0-81.0-1.0","32","45313","Female","null","","","","null","","79","","","281360","1","","","","","","300","92600","306","93447","300","","","","","","","","","","","","","","","","","","","","","","","","","","","","","","","","","","","","","","","","","","","","","","","","","","","",""
"","localizer","","html-keyboard-response","230","282071","0.0-2.0-82.0-0.0","32","45313","Female","NaN","","","","null","NaN","80","","Stimuli/Experimental_stims/localizer/body_parts/callum-skelton-3KLMq7y46nA-unsplash.jpg","281666","1","body_parts","","0","1","0","400","92900","405","93753","","","","","","","","","","","","","","","","","","","","","","","","","","","","","","","","","","","","","","","","","","","","","","","","","","","","",""
"","iti_localizer","","html-keyboard-response","231","282376","0.0-2.0-82.0-1.0","32","45313","Female","null","","","","null","","80","","","282071","1","","","","","","300","93300","305","94158","300","","","","","","","","","","","","","","","","","","","","","","","","","","","","","","","","","","","","","","","","","","","","","","","","","","","",""
"","localizer","","html-keyboard-response","232","282781","0.0-2.0-83.0-0.0","32","45313","Female","363","","","","68","0","81","","Stimuli/Experimental_stims/localizer/body_parts/freestocks-qw9LFf5T790-unsplash.jpg","282376","1","body_parts","","0","0","1","400","93600","405","94463","","","","","","","","","","","","","","","","","","","","","","","","","","","","","","","","","","","","","","","","","","","","","","","","","","","","",""
"","iti_localizer","","html-keyboard-response","233","283085","0.0-2.0-83.0-1.0","32","45313","Female","null","","","","null","","81","","","282781","1","","","","","","300","94000","304","94868","300","","","","","","","","","","","","","","","","","","","","","","","","","","","","","","","","","","","","","","","","","","","","","","","","","","","",""
"","localizer","","html-keyboard-response","234","283491","0.0-2.0-84.0-0.0","32","45313","Female","NaN","","","","null","NaN","82","","Stimuli/Experimental_stims/localizer/body_parts/carlos-henrique-NAOJKwZswbs-unsplash.jpg","283085","1","body_parts","","0","1","0","400","94300","406","95172","","","","","","","","","","","","","","","","","","","","","","","","","","","","","","","","","","","","","","","","","","","","","","","","","","","","",""
"","iti_localizer","","html-keyboard-response","235","283797","0.0-2.0-84.0-1.0","32","45313","Female","null","","","","null","","82","","","283491","1","","","","","","300","94700","306","95578","300","","","","","","","","","","","","","","","","","","","","","","","","","","","","","","","","","","","","","","","","","","","","","","","","","","","",""
"","localizer","","html-keyboard-response","236","284204","0.0-2.0-85.0-0.0","32","45313","Female","NaN","","","","null","NaN","83","","Stimuli/Experimental_stims/localizer/body_parts/boyd-christiansen-uVj7kewrZ-o-unsplash.jpg","283797","1","body_parts","","1","1","0","400","95000","407","95884","","","","","","","","","","","","","","","","","","","","","","","","","","","","","","","","","","","","","","","","","","","","","","","","","","","","",""
"","iti_localizer","","html-keyboard-response","237","284509","0.0-2.0-85.0-1.0","32","45313","Female","null","","","","null","","83","","","284204","1","","","","","","300","95400","305","96291","300","","","","","","","","","","","","","","","","","","","","","","","","","","","","","","","","","","","","","","","","","","","","","","","","","","","",""
"","localizer","","html-keyboard-response","238","284915","0.0-2.0-86.0-0.0","32","45313","Female","300","","","","68","0","84","","Stimuli/Experimental_stims/localizer/body_parts/nick-page-jAGdpOGvLAA-unsplash.jpg","284509","1","body_parts","","0","0","1","400","95700","406","96596","","","","","","","","","","","","","","","","","","","","","","","","","","","","","","","","","","","","","","","","","","","","","","","","","","","","",""
"","iti_localizer","","html-keyboard-response","239","285220","0.0-2.0-86.0-1.0","32","45313","Female","null","","","","null","","84","","","284915","1","","","","","","300","96100","305","97002","300","","","","","","","","","","","","","","","","","","","","","","","","","","","","","","","","","","","","","","","","","","","","","","","","","","","",""
"","localizer","","html-keyboard-response","240","285627","0.0-2.0-87.0-0.0","32","45313","Female","329","","","","68","0","85","","Stimuli/Experimental_stims/localizer/body_parts/lilartsy-1KkhQ8uL28g-unsplash.jpg","285220","1","body_parts","","0","0","1","400","96400","407","97307","","","","","","","","","","","","","","","","","","","","","","","","","","","","","","","","","","","","","","","","","","","","","","","","","","","","",""
"","iti_localizer","","html-keyboard-response","241","299642","0.0-2.0-87.0-1.0","32","45313","Female","null","","","","null","","85","","","285627","1","","","","","","14000","96800","14015","97714","14000","","","","","","","","","","","","","","","","","","","","","","","","","","","","","","","","","","","","","","","","","","","","","","","","","","","",""
"","localizer","","html-keyboard-response","242","300047","0.0-2.0-88.0-0.0","32","45313","Female","NaN","","","","null","NaN","86","","Stimuli/Experimental_stims/localizer/objects/yossy-made-yulian-WaEqwDSIeTY-unsplash.jpg","299642","1","objects","","1","1","0","400","110800","405","111729","","","","","","","","","","","","","","","","","","","","","","","","","","","","","","","","","","","","","","","","","","","","","","","","","","","","",""
"","iti_localizer","","html-keyboard-response","243","300354","0.0-2.0-88.0-1.0","32","45313","Female","null","","","","null","","86","","","300047","1","","","","","","300","111200","307","112134","300","","","","","","","","","","","","","","","","","","","","","","","","","","","","","","","","","","","","","","","","","","","","","","","","","","","",""
"","localizer","","html-keyboard-response","244","300759","0.0-2.0-89.0-0.0","32","45313","Female","391","","","","68","0","87","","Stimuli/Experimental_stims/localizer/objects/namroud-gorguis-FZWivbri0Xk-unsplash.jpg","300354","1","objects","","0","0","1","400","111500","405","112441","","","","","","","","","","","","","","","","","","","","","","","","","","","","","","","","","","","","","","","","","","","","","","","","","","","","",""
"","iti_localizer","","html-keyboard-response","245","301065","0.0-2.0-89.0-1.0","32","45313","Female","null","","","","null","","87","","","300759","1","","","","","","300","111900","306","112846","300","","","","","","","","","","","","","","","","","","","","","","","","","","","","","","","","","","","","","","","","","","","","","","","","","","","",""
"","localizer","","html-keyboard-response","246","301472","0.0-2.0-90.0-0.0","32","45313","Female","348","","","","68","0","88","","Stimuli/Experimental_stims/localizer/objects/muhammad-toqeer-NRJ9ipvz2iE-unsplash.jpg","301065","1","objects","","0","0","1","400","112200","407","113152","","","","","","","","","","","","","","","","","","","","","","","","","","","","","","","","","","","","","","","","","","","","","","","","","","","","",""
"","iti_localizer","","html-keyboard-response","247","301776","0.0-2.0-90.0-1.0","32","45313","Female","null","","","","null","","88","","","301472","1","","","","","","300","112600","304","113559","300","","","","","","","","","","","","","","","","","","","","","","","","","","","","","","","","","","","","","","","","","","","","","","","","","","","",""
