"success","ttype","start_time","trial_type","trial_index","time_elapsed","internal_node_id","age","PID","gender","rt","responses","view_history","repeat_instructions","key_press","response","index","stimulus_index","path","missed_checkup","start_time_elapsed","run","task","isi","is_odd_ball","no_response","acc","duration","onset","duration_time_elapsed","onset_time_elapsed","trial_duration","left_chosen","chosen_stimulus","unchosen_stimulus","chosen_category","unchosen_category","chosen_rating","unchosen_rating","chosen_path","unchosen_path","pair_id","practice","scramble_screen_time","scramble_instructed_side","stim_type","iti","block","left_stimulus","right_stimulus","left_category","right_category","left_path","right_path","left_rating","right_rating","scramble_acc","scramble_no_response","warning","stimulus_id","item_id","outcome","response_rt","deliberation_reward_tally","choice_type","gain_left","left_item_id","right_item_id","higher_outcome_chosen","chosen_left","old_pair","pair_type","old_response","pair_acc","reward_type","outcome_response","outcome_rt","outcome_acc","category","choice","deliberated_stim","old_rating","new_rating","total_reward_tally"
"true","full_screen","d08172023hr1454","fullscreen","0","17581","0.0-0.0-0.0","33","46596","Female","","","","","","","","","","","","","","","","","","","","","","","","","","","","","","","","","","","","","","","","","","","","","","","","","","","","","","","","","","","","","","","","","","","","","","","","","",""
"","get_id","","survey-text","1","29605","0.0-0.0-1.0","33","46596","Female","12006","{""Q0"":""33"",""Q1"":""Female""}","","","","","","","","","","","","","","","","","","","","","","","","","","","","","","","","","","","","","","","","","","","","","","","","","","","","","","","","","","","","","","","","","","","","","","","",""
"","ratings_instructions","","instructions","2","52084","0.0-1.0-0.0-0.0","33","46596","Female","20993","","[{""page_index"":0,""viewing_time"":9913},{""page_index"":1,""viewing_time"":11078}]","","","","","","","","","","","","","","","","","","","","","","","","","","","","","","","","","","","","","","","","","","","","","","","","","","","","","","","","","","","","","","","","","","","","","","",""
"","rating_comprehension_check","","survey-multi-choice","3","63512","0.0-1.0-0.0-1.0","33","46596","Female","11412","{""Q0"":""True"",""Q1"":""Mouse""}","","0","","","","","","","","","","","","","","","","","","","","","","","","","","","","","","","","","","","","","","","","","","","","","","","","","","","","","","","","","","","","","","","","","","","","","",""
"","","","html-keyboard-response","4","69525","0.0-1.0-1.0","33","46596","Female","5992","","","","68","","","","","","","","","","","","","","","","","","","","","","","","","","","","","","","","","","","","","","","","","","","","","","","","","","","","","","","","","","","","","","","","","","","","",""
"","rating","","html-slider-response","5","85731","0.0-1.0-2.0","33","46596","Female","16178","","","","","82","0","38","Stimuli/Experimental_stims/objects/art-lasovsky-8XddFc6NkBY-unsplash.jpg","","","","","","","","","","","","","","","","","","","","","","","","","","","","","","","","","","","","","","","","","","","","","","","","","","","","","","","","","","","","","","","","",""
"","rating","","html-slider-response","6","90253","0.0-1.0-3.0","33","46596","Female","4505","","","","","72","1","24","Stimuli/Experimental_stims/body_parts/clay-banks-LjqARJaJotc-unsplash.jpg","","","","","","","","","","","","","","","","","","","","","","","","","","","","","","","","","","","","","","","","","","","","","","","","","","","","","","","","","","","","","","","","",""
"","rating","","html-slider-response","7","94579","0.0-1.0-4.0","33","46596","Female","4315","","","","","40","2","13","Stimuli/Experimental_stims/faces/daniel-rigdon-dXmXKPP2L4E-unsplash.jpg","","","","","","","","","","","","","","","","","","","","","","","","","","","","","","","","","","","","","","","","","","","","","","","","","","","","","","","","","","","","","","","","",""
"","rating","","html-slider-response","8","98137","0.0-1.0-5.0","33","46596","Female","3542","","","","","68","3","2","Stimuli/Experimental_stims/outdoor_scenes/bruno-van-der-kraan-qez8mNJ3ilU-unsplash.jpg","","","","","","","","","","","","","","","","","","","","","","","","","","","","","","","","","","","","","","","","","","","","","","","","","","","","","","","","","","","","","","","","",""
"","rating","","html-slider-response","9","101549","0.0-1.0-6.0","33","46596","Female","3392","","","","","66","4","36","Stimuli/Experimental_stims/objects/alexander-andrews-JYGnB9gTCls-unsplash.jpg","","","","","","","","","","","","","","","","","","","","","","","","","","","","","","","","","","","","","","","","","","","","","","","","","","","","","","","","","","","","","","","","",""
"","rating","","html-slider-response","10","105842","0.0-1.0-7.0","33","46596","Female","4277","","","","","72","5","7","Stimuli/Experimental_stims/outdoor_scenes/petr-vysohlid-9fqwGqGLUxc-unsplash.jpg","","","","","","","","","","","","","","","","","","","","","","","","","","","","","","","","","","","","","","","","","","","","","","","","","","","","","","","","","","","","","","","","",""
"","rating","","html-slider-response","11","109598","0.0-1.0-8.0","33","46596","Female","3741","","","","","81","6","28","Stimuli/Experimental_stims/body_parts/ira-vishnevskaya-8DQAvdCby1I-unsplash.jpg","","","","","","","","","","","","","","","","","","","","","","","","","","","","","","","","","","","","","","","","","","","","","","","","","","","","","","","","","","","","","","","","",""
"","rating","","html-slider-response","12","113346","0.0-1.0-9.0","33","46596","Female","3734","","","","","64","7","14","Stimuli/Experimental_stims/faces/david-siglin-UuW4psOb388-unsplash.jpg","","","","","","","","","","","","","","","","","","","","","","","","","","","","","","","","","","","","","","","","","","","","","","","","","","","","","","","","","","","","","","","","",""
"","rating","","html-slider-response","13","117933","0.0-1.0-10.0","33","46596","Female","4567","","","","","79","8","23","Stimuli/Experimental_stims/faces/rikonavt-HQjfrvdTfak-unsplash.jpg","","","","","","","","","","","","","","","","","","","","","","","","","","","","","","","","","","","","","","","","","","","","","","","","","","","","","","","","","","","","","","","","",""
"","rating","","html-slider-response","14","121582","0.0-1.0-11.0","33","46596","Female","3631","","","","","67","9","39","Stimuli/Experimental_stims/objects/charlesdeluvio-1-nx1QR5dTE-unsplash.jpg","","","","","","","","","","","","","","","","","","","","","","","","","","","","","","","","","","","","","","","","","","","","","","","","","","","","","","","","","","","","","","","","",""
"","rating","","html-slider-response","15","125391","0.0-1.0-12.0","33","46596","Female","3784","","","","","88","10","11","Stimuli/Experimental_stims/outdoor_scenes/stephen-leonardi-gyIRjKPXupE-unsplash.jpg","","","","","","","","","","","","","","","","","","","","","","","","","","","","","","","","","","","","","","","","","","","","","","","","","","","","","","","","","","","","","","","","",""
"","rating","","html-slider-response","16","129152","0.0-1.0-13.0","33","46596","Female","3741","","","","","73","11","16","Stimuli/Experimental_stims/faces/freddy-kearney-o-ioeoATbIM-unsplash.jpg","","","","","","","","","","","","","","","","","","","","","","","","","","","","","","","","","","","","","","","","","","","","","","","","","","","","","","","","","","","","","","","","",""
"","rating","","html-slider-response","17","135025","0.0-1.0-14.0","33","46596","Female","5853","","","","","73","12","46","Stimuli/Experimental_stims/objects/mockup-graphics-PNsj6RiHAF4-unsplash.jpg","","","","","","","","","","","","","","","","","","","","","","","","","","","","","","","","","","","","","","","","","","","","","","","","","","","","","","","","","","","","","","","","",""
"","rating","","html-slider-response","18","138445","0.0-1.0-15.0","33","46596","Female","3403","","","","","65","13","20","Stimuli/Experimental_stims/faces/justin-chen-J7Cf1Gch49E-unsplash.jpg","","","","","","","","","","","","","","","","","","","","","","","","","","","","","","","","","","","","","","","","","","","","","","","","","","","","","","","","","","","","","","","","",""
"","rating","","html-slider-response","19","142675","0.0-1.0-16.0","33","46596","Female","4214","","","","","68","14","18","Stimuli/Experimental_stims/faces/jessica-radanavong-mrYkTuAesKE-unsplash.jpg","","","","","","","","","","","","","","","","","","","","","","","","","","","","","","","","","","","","","","","","","","","","","","","","","","","","","","","","","","","","","","","","",""
"","rating","","html-slider-response","20","151466","0.0-1.0-17.0","33","46596","Female","8767","","","","","70","15","42","Stimuli/Experimental_stims/objects/jess-bailey-nOeVi8DsN8U-unsplash.jpg","","","","","","","","","","","","","","","","","","","","","","","","","","","","","","","","","","","","","","","","","","","","","","","","","","","","","","","","","","","","","","","","",""
"","rating","","html-slider-response","21","157503","0.0-1.0-18.0","33","46596","Female","5978","","","","","66","16","5","Stimuli/Experimental_stims/outdoor_scenes/jeff-king-bJHWJeiHfHc-unsplash.jpg","","","","","","","","","","","","","","","","","","","","","","","","","","","","","","","","","","","","","","","","","","","","","","","","","","","","","","","","","","","","","","","","",""
"","rating","","html-slider-response","22","162330","0.0-1.0-19.0","33","46596","Female","4804","","","","","64","17","25","Stimuli/Experimental_stims/body_parts/engin-akyurt-Q2rfH3GW39c-unsplash.jpg","","","","","","","","","","","","","","","","","","","","","","","","","","","","","","","","","","","","","","","","","","","","","","","","","","","","","","","","","","","","","","","","",""
"","rating","","html-slider-response","23","165566","0.0-1.0-20.0","33","46596","Female","3221","","","","","73","18","29","Stimuli/Experimental_stims/body_parts/manuel-schinner-ZwjFuJ7ebpk-unsplash.jpg","","","","","","","","","","","","","","","","","","","","","","","","","","","","","","","","","","","","","","","","","","","","","","","","","","","","","","","","","","","","","","","","",""
"","rating","","html-slider-response","24","170454","0.0-1.0-21.0","33","46596","Female","4871","","","","","72","19","47","Stimuli/Experimental_stims/objects/ronaldo-arthur-vidal-Cdz_lvnl37k-unsplash.jpg","","","","","","","","","","","","","","","","","","","","","","","","","","","","","","","","","","","","","","","","","","","","","","","","","","","","","","","","","","","","","","","","",""
"","rating","","html-slider-response","25","174049","0.0-1.0-22.0","33","46596","Female","3580","","","","","88","20","4","Stimuli/Experimental_stims/outdoor_scenes/jarrett-kow-1ZOyYPOBn7I-unsplash.jpg","","","","","","","","","","","","","","","","","","","","","","","","","","","","","","","","","","","","","","","","","","","","","","","","","","","","","","","","","","","","","","","","",""
"","rating","","html-slider-response","26","177481","0.0-1.0-23.0","33","46596","Female","3418","","","","","70","21","31","Stimuli/Experimental_stims/body_parts/sincerely-media-VN6DbKajo5s-unsplash.jpg","","","","","","","","","","","","","","","","","","","","","","","","","","","","","","","","","","","","","","","","","","","","","","","","","","","","","","","","","","","","","","","","",""
"","rating","","html-slider-response","27","180930","0.0-1.0-24.0","33","46596","Female","3436","","","","","69","22","44","Stimuli/Experimental_stims/objects/kuiye-chen-NuOGFo4PudE-unsplash.jpg","","","","","","","","","","","","","","","","","","","","","","","","","","","","","","","","","","","","","","","","","","","","","","","","","","","","","","","","","","","","","","","","",""
"","rating","","html-slider-response","28","186874","0.0-1.0-25.0","33","46596","Female","5932","","","","","68","23","37","Stimuli/Experimental_stims/objects/alexander-andrews-VLGWE_SumrA-unsplash.jpg","","","","","","","","","","","","","","","","","","","","","","","","","","","","","","","","","","","","","","","","","","","","","","","","","","","","","","","","","","","","","","","","",""
"","rating","","html-slider-response","29","189207","0.0-1.0-26.0","33","46596","Female","2318","","","","","73","24","10","Stimuli/Experimental_stims/outdoor_scenes/shannon-kunkle-dM8INmkyDas-unsplash.jpg","","","","","","","","","","","","","","","","","","","","","","","","","","","","","","","","","","","","","","","","","","","","","","","","","","","","","","","","","","","","","","","","",""
"","rating","","html-slider-response","30","194203","0.0-1.0-27.0","33","46596","Female","4983","","","","","58","25","40","Stimuli/Experimental_stims/objects/fabian-blank-pElSkGRA2NU-unsplash.jpg","","","","","","","","","","","","","","","","","","","","","","","","","","","","","","","","","","","","","","","","","","","","","","","","","","","","","","","","","","","","","","","","",""
"","rating","","html-slider-response","31","205392","0.0-1.0-28.0","33","46596","Female","11169","","","","","69","26","9","Stimuli/Experimental_stims/outdoor_scenes/sergey-pesterev-y-b_FOmJXdg-unsplash.jpg","","","","","","","","","","","","","","","","","","","","","","","","","","","","","","","","","","","","","","","","","","","","","","","","","","","","","","","","","","","","","","","","",""
"","rating","","html-slider-response","32","209075","0.0-1.0-29.0","33","46596","Female","3668","","","","","68","27","41","Stimuli/Experimental_stims/objects/insung-yoon-w2JtIQQXoRU-unsplash.jpg","","","","","","","","","","","","","","","","","","","","","","","","","","","","","","","","","","","","","","","","","","","","","","","","","","","","","","","","","","","","","","","","",""
"","rating","","html-slider-response","33","213927","0.0-1.0-30.0","33","46596","Female","4839","","","","","73","28","8","Stimuli/Experimental_stims/outdoor_scenes/samsommer-vddccTqwal8-unsplash.jpg","","","","","","","","","","","","","","","","","","","","","","","","","","","","","","","","","","","","","","","","","","","","","","","","","","","","","","","","","","","","","","","","",""
"","rating","","html-slider-response","34","219009","0.0-1.0-31.0","33","46596","Female","5066","","","","","77","29","3","Stimuli/Experimental_stims/outdoor_scenes/henry-be-NLF6hTe4PAg-unsplash.jpg","","","","","","","","","","","","","","","","","","","","","","","","","","","","","","","","","","","","","","","","","","","","","","","","","","","","","","","","","","","","","","","","",""
"","rating","","html-slider-response","35","221500","0.0-1.0-32.0","33","46596","Female","2477","","","","","66","30","27","Stimuli/Experimental_stims/body_parts/heike-mintel-i_Gns0ELnLw-unsplash.jpg","","","","","","","","","","","","","","","","","","","","","","","","","","","","","","","","","","","","","","","","","","","","","","","","","","","","","","","","","","","","","","","","",""
"","rating","","html-slider-response","36","225339","0.0-1.0-33.0","33","46596","Female","3821","","","","","42","31","19","Stimuli/Experimental_stims/faces/joel-mott-LaK153ghdig-unsplash.jpg","","","","","","","","","","","","","","","","","","","","","","","","","","","","","","","","","","","","","","","","","","","","","","","","","","","","","","","","","","","","","","","","",""
"","rating","","html-slider-response","37","228633","0.0-1.0-34.0","33","46596","Female","3280","","","","","67","32","45","Stimuli/Experimental_stims/objects/leohoho-rngTKHXumy0-unsplash.jpg","","","","","","","","","","","","","","","","","","","","","","","","","","","","","","","","","","","","","","","","","","","","","","","","","","","","","","","","","","","","","","","","",""
"","rating","","html-slider-response","38","231873","0.0-1.0-35.0","33","46596","Female","3228","","","","","45","33","30","Stimuli/Experimental_stims/body_parts/mika-korhonen-Xodzxosar18-unsplash.jpg","","","","","","","","","","","","","","","","","","","","","","","","","","","","","","","","","","","","","","","","","","","","","","","","","","","","","","","","","","","","","","","","",""
"","rating","","html-slider-response","39","234809","0.0-1.0-36.0","33","46596","Female","2925","","","","","72","34","21","Stimuli/Experimental_stims/faces/leilani-angel-K84vnnzxmTQ-unsplash.jpg","","","","","","","","","","","","","","","","","","","","","","","","","","","","","","","","","","","","","","","","","","","","","","","","","","","","","","","","","","","","","","","","",""
"","rating","","html-slider-response","40","238959","0.0-1.0-37.0","33","46596","Female","4140","","","","","69","35","34","Stimuli/Experimental_stims/body_parts/wagner-santos-mBWMvIuVnso-unsplash.jpg","","","","","","","","","","","","","","","","","","","","","","","","","","","","","","","","","","","","","","","","","","","","","","","","","","","","","","","","","","","","","","","","",""
"","rating","","html-slider-response","41","242276","0.0-1.0-38.0","33","46596","Female","3297","","","","","44","36","35","Stimuli/Experimental_stims/body_parts/wc-so-KH4AAPjb-tI-unsplash.jpg","","","","","","","","","","","","","","","","","","","","","","","","","","","","","","","","","","","","","","","","","","","","","","","","","","","","","","","","","","","","","","","","",""
"","rating","","html-slider-response","42","245481","0.0-1.0-39.0","33","46596","Female","3192","","","","","61","37","15","Stimuli/Experimental_stims/faces/erik-lucatero-d2MSDujJl2g-unsplash.jpg","","","","","","","","","","","","","","","","","","","","","","","","","","","","","","","","","","","","","","","","","","","","","","","","","","","","","","","","","","","","","","","","",""
"","rating","","html-slider-response","43","249464","0.0-1.0-40.0","33","46596","Female","3938","","","","","83","38","1","Stimuli/Experimental_stims/outdoor_scenes/ashim-d-silva-S2Q5mdOrrVc-unsplash.jpg","","","","","","","","","","","","","","","","","","","","","","","","","","","","","","","","","","","","","","","","","","","","","","","","","","","","","","","","","","","","","","","","",""
"","rating","","html-slider-response","44","253191","0.0-1.0-41.0","33","46596","Female","3700","","","","","77","39","22","Stimuli/Experimental_stims/faces/ravi-patel-VMGAbeeJTKo-unsplash.jpg","","","","","","","","","","","","","","","","","","","","","","","","","","","","","","","","","","","","","","","","","","","","","","","","","","","","","","","","","","","","","","","","",""
"","rating","","html-slider-response","45","257703","0.0-1.0-42.0","33","46596","Female","4482","","","","","81","40","26","Stimuli/Experimental_stims/body_parts/engin-akyurt-x_3gyC42btc-unsplash.jpg","","","","","","","","","","","","","","","","","","","","","","","","","","","","","","","","","","","","","","","","","","","","","","","","","","","","","","","","","","","","","","","","",""
"","rating","","html-slider-response","46","261578","0.0-1.0-43.0","33","46596","Female","3855","","","","","83","41","0","Stimuli/Experimental_stims/outdoor_scenes/aleksandra-boguslawska-MS7KD9Ti7FQ-unsplash.jpg","","","","","","","","","","","","","","","","","","","","","","","","","","","","","","","","","","","","","","","","","","","","","","","","","","","","","","","","","","","","","","","","",""
"","rating","","html-slider-response","47","265092","0.0-1.0-44.0","33","46596","Female","3469","","","","","50","42","43","Stimuli/Experimental_stims/objects/jonathan-greenaway-Y4hGgeiFn3s-unsplash.jpg","","","","","","","","","","","","","","","","","","","","","","","","","","","","","","","","","","","","","","","","","","","","","","","","","","","","","","","","","","","","","","","","",""
"","rating","","html-slider-response","48","269782","0.0-1.0-45.0","33","46596","Female","4670","","","","","47","43","32","Stimuli/Experimental_stims/body_parts/towfiqu-barbhuiya-3AsiVDsZnHg-unsplash.jpg","","","","","","","","","","","","","","","","","","","","","","","","","","","","","","","","","","","","","","","","","","","","","","","","","","","","","","","","","","","","","","","","",""
"","rating","","html-slider-response","49","278043","0.0-1.0-46.0","33","46596","Female","8243","","","","","80","44","17","Stimuli/Experimental_stims/faces/good-faces-xmSWVeGEnJw-unsplash.jpg","","","","","","","","","","","","","","","","","","","","","","","","","","","","","","","","","","","","","","","","","","","","","","","","","","","","","","","","","","","","","","","","",""
"","rating","","html-slider-response","50","281338","0.0-1.0-47.0","33","46596","Female","3282","","","","","71","45","6","Stimuli/Experimental_stims/outdoor_scenes/meng-ji-8BH_M-53CyA-unsplash.jpg","","","","","","","","","","","","","","","","","","","","","","","","","","","","","","","","","","","","","","","","","","","","","","","","","","","","","","","","","","","","","","","","",""
"","rating","","html-slider-response","51","284637","0.0-1.0-48.0","33","46596","Female","3283","","","","","63","46","33","Stimuli/Experimental_stims/body_parts/tucker-good-36skLT5jZcc-unsplash.jpg","","","","","","","","","","","","","","","","","","","","","","","","","","","","","","","","","","","","","","","","","","","","","","","","","","","","","","","","","","","","","","","","",""
"","rating","","html-slider-response","52","289983","0.0-1.0-49.0","33","46596","Female","5310","","","","","73","47","12","Stimuli/Experimental_stims/faces/aiony-haust-jmATI5Q_YgY-unsplash.jpg","","","","","","","","","","","","","","","","","","","","","","","","","","","","","","","","","","","","","","","","","","","","","","","","","","","","","","","","","","","","","","","","",""
"","localizer_instructions","","instructions","53","336590","0.0-2.0-0.0-0.0","33","46596","Female","46478","","[{""page_index"":0,""viewing_time"":27476},{""page_index"":1,""viewing_time"":5165},{""page_index"":2,""viewing_time"":13837}]","","","","","","","","","","","","","","","","","","","","","","","","","","","","","","","","","","","","","","","","","","","","","","","","","","","","","","","","","","","","","","","","","","","","","","",""
"","localizer_comprehension_check","","survey-multi-choice","54","353804","0.0-2.0-0.0-1.0","33","46596","Female","17191","{""Q0"":""True"",""Q1"":""D"",""Q2"":""K""}","","1","","","","","","","","","","","","","","","","","","","","","","","","","","","","","","","","","","","","","","","","","","","","","","","","","","","","","","","","","","","","","","","","","","","","","",""
"","missed_instruction_checkup","","html-keyboard-response","55","370309","0.0-2.0-0.0-2.0-0.0","33","46596","Female","16488","","","","68","","","","","1","","","","","","","","","","","","","","","","","","","","","","","","","","","","","","","","","","","","","","","","","","","","","","","","","","","","","","","","","","","","","","","",""
"","localizer_instructions","","instructions","56","379263","0.0-2.0-0.1-0.1","33","46596","Female","8939","","[{""page_index"":0,""viewing_time"":3190},{""page_index"":1,""viewing_time"":2763},{""page_index"":2,""viewing_time"":2986}]","","","","","","","","","","","","","","","","","","","","","","","","","","","","","","","","","","","","","","","","","","","","","","","","","","","","","","","","","","","","","","","","","","","","","","",""
"","localizer_comprehension_check","","survey-multi-choice","57","386838","0.0-2.0-0.1-1.1","33","46596","Female","7556","{""Q0"":""True"",""Q1"":""D"",""Q2"":""D""}","","1","","","","","","","","","","","","","","","","","","","","","","","","","","","","","","","","","","","","","","","","","","","","","","","","","","","","","","","","","","","","","","","","","","","","","",""
"","missed_instruction_checkup","","html-keyboard-response","58","392139","0.0-2.0-0.1-2.1-0.1","33","46596","Female","5290","","","","68","","","","","1","","","","","","","","","","","","","","","","","","","","","","","","","","","","","","","","","","","","","","","","","","","","","","","","","","","","","","","","","","","","","","","",""
"","localizer_instructions","","instructions","59","404339","0.0-2.0-0.2-0.2","33","46596","Female","12182","","[{""page_index"":0,""viewing_time"":2961},{""page_index"":1,""viewing_time"":1780},{""page_index"":2,""viewing_time"":7441}]","","","","","","","","","","","","","","","","","","","","","","","","","","","","","","","","","","","","","","","","","","","","","","","","","","","","","","","","","","","","","","","","","","","","","","",""
"","localizer_comprehension_check","","survey-multi-choice","60","414478","0.0-2.0-0.2-1.2","33","46596","Female","10123","{""Q0"":""True"",""Q1"":""K"",""Q2"":""D""}","","0","","","","","","","","","","","","","","","","","","","","","","","","","","","","","","","","","","","","","","","","","","","","","","","","","","","","","","","","","","","","","","","","","","","","","",""
"","","","html-keyboard-response","61","417162","0.0-2.0-1.0","33","46596","Female","2673","","","","68","","","","","","","","","","","","","","","","","","","","","","","","","","","","","","","","","","","","","","","","","","","","","","","","","","","","","","","","","","","","","","","","","","","","",""
"","localizer","","html-keyboard-response","62","417582","0.0-2.0-2.0-0.0","33","46596","Female","NaN","","","","null","NaN","0","","Stimuli/Practice_stims/Localizer/annie-spratt-g9KFpAfQ5bc-unsplash.jpg","","417162","0","NaN","","0","1","0","400","0","420","0","","","","","","","","","","","","","","","","","","","","","","","","","","","","","","","","","","","","","","","","","","","","","","","","","","","","",""
"","iti_localizer","","html-keyboard-response","63","417902","0.0-2.0-2.0-1.0","33","46596","Female","null","","","","null","","0","","","","417582","0","","","","","","300","400","320","420","300","","","","","","","","","","","","","","","","","","","","","","","","","","","","","","","","","","","","","","","","","","","","","","","","","","","",""
"","localizer","","html-keyboard-response","64","418314","0.0-2.0-2.1-0.1","33","46596","Female","NaN","","","","null","NaN","0","","Stimuli/Practice_stims/Localizer/annie-spratt-g9KFpAfQ5bc-unsplash.jpg","","417902","0","NaN","","0","1","0","400","700","412","740","","","","","","","","","","","","","","","","","","","","","","","","","","","","","","","","","","","","","","","","","","","","","","","","","","","","",""
"","iti_localizer","","html-keyboard-response","65","418692","0.0-2.0-2.1-1.1","33","46596","Female","null","","","","null","","0","","","","418314","0","","","","","","300","1100","378","1152","300","","","","","","","","","","","","","","","","","","","","","","","","","","","","","","","","","","","","","","","","","","","","","","","","","","","",""
"","localizer","","html-keyboard-response","66","419122","0.0-2.0-2.2-0.2","33","46596","Female","106","","","","68","0","0","","Stimuli/Practice_stims/Localizer/annie-spratt-g9KFpAfQ5bc-unsplash.jpg","","418692","0","NaN","","0","0","1","400","1400","430","1530","","","","","","","","","","","","","","","","","","","","","","","","","","","","","","","","","","","","","","","","","","","","","","","","","","","","",""
"","iti_localizer","","html-keyboard-response","67","419439","0.0-2.0-2.2-1.2","33","46596","Female","null","","","","null","","0","","","","419122","0","","","","","","300","1800","317","1960","300","","","","","","","","","","","","","","","","","","","","","","","","","","","","","","","","","","","","","","","","","","","","","","","","","","","",""
"","localizer","","html-keyboard-response","68","419859","0.0-2.0-3.0-0.0","33","46596","Female","NaN","","","","null","NaN","1","","Stimuli/Practice_stims/Localizer/becca-tapert-sY5RjMB1KkE-unsplash.jpg","","419439","0","NaN","","0","1","0","400","2100","420","2277","","","","","","","","","","","","","","","","","","","","","","","","","","","","","","","","","","","","","","","","","","","","","","","","","","","","",""
"","iti_localizer","","html-keyboard-response","69","420206","0.0-2.0-3.0-1.0","33","46596","Female","null","","","","null","","1","","","","419859","0","","","","","","300","2500","347","2697","300","","","","","","","","","","","","","","","","","","","","","","","","","","","","","","","","","","","","","","","","","","","","","","","","","","","",""
"","localizer","","html-keyboard-response","70","420624","0.0-2.0-3.1-0.1","33","46596","Female","59","","","","75","1","1","","Stimuli/Practice_stims/Localizer/becca-tapert-sY5RjMB1KkE-unsplash.jpg","","420206","0","NaN","","0","0","0","400","2800","418","3044","","","","","","","","","","","","","","","","","","","","","","","","","","","","","","","","","","","","","","","","","","","","","","","","","","","","",""
"","iti_localizer","","html-keyboard-response","71","420936","0.0-2.0-3.1-1.1","33","46596","Female","null","","","","null","","1","","","","420624","0","","","","","","300","3200","312","3462","300","","","","","","","","","","","","","","","","","","","","","","","","","","","","","","","","","","","","","","","","","","","","","","","","","","","",""
"","localizer","","html-keyboard-response","72","421352","0.0-2.0-4.0-0.0","33","46596","Female","74","","","","68","0","2","","Stimuli/Practice_stims/Localizer/charl-durand-bsfXvI25iNg-unsplash.jpg","","420936","0","NaN","","1","0","0","400","3500","416","3774","","","","","","","","","","","","","","","","","","","","","","","","","","","","","","","","","","","","","","","","","","","","","","","","","","","","",""
"","iti_localizer","","html-keyboard-response","73","421749","0.0-2.0-4.0-1.0","33","46596","Female","null","","","","null","","2","","","","421352","0","","","","","","300","3900","397","4190","300","","","","","","","","","","","","","","","","","","","","","","","","","","","","","","","","","","","","","","","","","","","","","","","","","","","",""
"","localizer","","html-keyboard-response","74","422164","0.0-2.0-5.0-0.0","33","46596","Female","11","","","","75","1","3","","Stimuli/Practice_stims/Localizer/nizar-albusaidy-B2r2SWAf5CE-unsplash.jpg","","421749","0","NaN","","0","0","0","400","4200","415","4587","","","","","","","","","","","","","","","","","","","","","","","","","","","","","","","","","","","","","","","","","","","","","","","","","","","","",""
"","iti_localizer","","html-keyboard-response","75","422483","0.0-2.0-5.0-1.0","33","46596","Female","null","","","","null","","3","","","","422164","0","","","","","","300","4600","319","5002","300","","","","","","","","","","","","","","","","","","","","","","","","","","","","","","","","","","","","","","","","","","","","","","","","","","","",""
"","localizer","","html-keyboard-response","76","422900","0.0-2.0-6.0-0.0","33","46596","Female","75","","","","68","0","4","","Stimuli/Practice_stims/Localizer/randy-fath-epf1tdtIIkM-unsplash.jpg","","422483","0","NaN","","1","0","0","400","4900","417","5321","","","","","","","","","","","","","","","","","","","","","","","","","","","","","","","","","","","","","","","","","","","","","","","","","","","","",""
"","iti_localizer","","html-keyboard-response","77","423208","0.0-2.0-6.0-1.0","33","46596","Female","null","","","","null","","4","","","","422900","0","","","","","","300","5300","308","5738","300","","","","","","","","","","","","","","","","","","","","","","","","","","","","","","","","","","","","","","","","","","","","","","","","","","","",""
"","localizer","","html-keyboard-response","78","423626","0.0-2.0-7.0-0.0","33","46596","Female","157","","","","68","0","5","","Stimuli/Practice_stims/Localizer/yassine-khalfalli-adsQ9d_Cx0c-unsplash.jpg","","423208","0","NaN","","0","0","1","400","5600","418","6046","","","","","","","","","","","","","","","","","","","","","","","","","","","","","","","","","","","","","","","","","","","","","","","","","","","","",""
"","iti_localizer","","html-keyboard-response","79","423943","0.0-2.0-7.0-1.0","33","46596","Female","null","","","","null","","5","","","","423626","0","","","","","","300","6000","317","6464","300","","","","","","","","","","","","","","","","","","","","","","","","","","","","","","","","","","","","","","","","","","","","","","","","","","","",""
"","practice_over","","html-keyboard-response","80","425771","0.0-2.0-7.0-2.0-0.0","33","46596","Female","1816","","","","68","","","","","","","","","","","","","","","","","","","","","","","","","","","","","","","","","","","","","","","","","","","","","","","","","","","","","","","","","","","","","","","","","","","","",""
"","start_run","","html-keyboard-response","81","428600","0.0-2.0-7.0-2.0-1.0","33","46596","Female","2821","","","","84","","","","","","","","","","","","","","","","","","","","","","","","","","","","","","","","","","","","","","","","","","","","","","","","","","","","","","","","","","","","","","","","","","","","",""
"","localizer","","html-keyboard-response","82","429020","0.0-2.0-8.0-0.0","33","46596","Female","NaN","","","","null","NaN","6","","Stimuli/Experimental_stims/localizer/faces/christina-wocintechchat-com-0Zx1bDv5BNY-unsplash.jpg","","428600","1","faces","","0","1","0","400","0","420","0","","","","","","","","","","","","","","","","","","","","","","","","","","","","","","","","","","","","","","","","","","","","","","","","","","","","",""
"","iti_localizer","","html-keyboard-response","83","429333","0.0-2.0-8.0-1.0","33","46596","Female","null","","","","null","","6","","","","429020","1","","","","","","300","400","313","420","300","","","","","","","","","","","","","","","","","","","","","","","","","","","","","","","","","","","","","","","","","","","","","","","","","","","",""
"","localizer","","html-keyboard-response","84","429757","0.0-2.0-9.0-0.0","33","46596","Female","NaN","","","","null","NaN","7","","Stimuli/Experimental_stims/localizer/faces/jeffery-erhunse-BQMZ5ligqps-unsplash.jpg","","429333","1","faces","","0","1","0","400","700","424","733","","","","","","","","","","","","","","","","","","","","","","","","","","","","","","","","","","","","","","","","","","","","","","","","","","","","",""
"","iti_localizer","","html-keyboard-response","85","430079","0.0-2.0-9.0-1.0","33","46596","Female","null","","","","null","","7","","","","429757","1","","","","","","300","1100","322","1157","300","","","","","","","","","","","","","","","","","","","","","","","","","","","","","","","","","","","","","","","","","","","","","","","","","","","",""
"","localizer","","html-keyboard-response","86","430529","0.0-2.0-10.0-0.0","33","46596","Female","NaN","","","","null","NaN","8","","Stimuli/Experimental_stims/localizer/faces/matheus-ferrero-W7b3eDUb_2I-unsplash.jpg","","430079","1","faces","","0","1","0","400","1400","450","1479","","","","","","","","","","","","","","","","","","","","","","","","","","","","","","","","","","","","","","","","","","","","","","","","","","","","",""
"","iti_localizer","","html-keyboard-response","87","430851","0.0-2.0-10.0-1.0","33","46596","Female","null","","","","null","","8","","","","430529","1","","","","","","300","1800","322","1929","300","","","","","","","","","","","","","","","","","","","","","","","","","","","","","","","","","","","","","","","","","","","","","","","","","","","",""
"","localizer","","html-keyboard-response","88","431266","0.0-2.0-11.0-0.0","33","46596","Female","NaN","","","","null","NaN","9","","Stimuli/Experimental_stims/localizer/faces/jurica-koletic-7YVZYZeITc8-unsplash.jpg","","430851","1","faces","","1","1","0","400","2100","415","2251","","","","","","","","","","","","","","","","","","","","","","","","","","","","","","","","","","","","","","","","","","","","","","","","","","","","",""
"","iti_localizer","","html-keyboard-response","89","431586","0.0-2.0-11.0-1.0","33","46596","Female","null","","","","null","","9","","","","431266","1","","","","","","300","2500","320","2666","300","","","","","","","","","","","","","","","","","","","","","","","","","","","","","","","","","","","","","","","","","","","","","","","","","","","",""
"","localizer","","html-keyboard-response","90","432005","0.0-2.0-12.0-0.0","33","46596","Female","239","","","","75","1","10","","Stimuli/Experimental_stims/localizer/faces/drew-hays-agGIKYs4mYs-unsplash.jpg","","431586","1","faces","","0","0","0","400","2800","419","2986","","","","","","","","","","","","","","","","","","","","","","","","","","","","","","","","","","","","","","","","","","","","","","","","","","","","",""
"","iti_localizer","","html-keyboard-response","91","432390","0.0-2.0-12.0-1.0","33","46596","Female","null","","","","null","","10","","","","432005","1","","","","","","300","3200","385","3405","300","","","","","","","","","","","","","","","","","","","","","","","","","","","","","","","","","","","","","","","","","","","","","","","","","","","",""
"","localizer","","html-keyboard-response","92","432836","0.0-2.0-13.0-0.0","33","46596","Female","222","","","","75","1","11","","Stimuli/Experimental_stims/localizer/faces/rui-silvestre-hAMJpesMeDE-unsplash.jpg","","432390","1","faces","","0","0","0","400","3500","446","3790","","","","","","","","","","","","","","","","","","","","","","","","","","","","","","","","","","","","","","","","","","","","","","","","","","","","",""
"","iti_localizer","","html-keyboard-response","93","433149","0.0-2.0-13.0-1.0","33","46596","Female","null","","","","null","","11","","","","432836","1","","","","","","300","3900","313","4236","300","","","","","","","","","","","","","","","","","","","","","","","","","","","","","","","","","","","","","","","","","","","","","","","","","","","",""
"","localizer","","html-keyboard-response","94","433567","0.0-2.0-14.0-0.0","33","46596","Female","56","","","","75","1","12","","Stimuli/Experimental_stims/localizer/faces/sean-kong--1B_y4wGs-s-unsplash.jpg","","433149","1","faces","","0","0","0","400","4200","418","4549","","","","","","","","","","","","","","","","","","","","","","","","","","","","","","","","","","","","","","","","","","","","","","","","","","","","",""
"","iti_localizer","","html-keyboard-response","95","433880","0.0-2.0-14.0-1.0","33","46596","Female","null","","","","null","","12","","","","433567","1","","","","","","300","4600","313","4967","300","","","","","","","","","","","","","","","","","","","","","","","","","","","","","","","","","","","","","","","","","","","","","","","","","","","",""
"","localizer","","html-keyboard-response","96","434349","0.0-2.0-15.0-0.0","33","46596","Female","3","","","","68","0","13","","Stimuli/Experimental_stims/localizer/faces/vince-fleming-j3lf-Jn6deo-unsplash.jpg","","433880","1","faces","","0","0","1","400","4900","469","5280","","","","","","","","","","","","","","","","","","","","","","","","","","","","","","","","","","","","","","","","","","","","","","","","","","","","",""
"","iti_localizer","","html-keyboard-response","97","434666","0.0-2.0-15.0-1.0","33","46596","Female","null","","","","null","","13","","","","434349","1","","","","","","300","5300","317","5749","300","","","","","","","","","","","","","","","","","","","","","","","","","","","","","","","","","","","","","","","","","","","","","","","","","","","",""
"","localizer","","html-keyboard-response","98","435083","0.0-2.0-16.0-0.0","33","46596","Female","108","","","","68","0","14","","Stimuli/Experimental_stims/localizer/faces/tyler-nix-ZGa9d1a_4tA-unsplash.jpg","","434666","1","faces","","0","0","1","400","5600","417","6066","","","","","","","","","","","","","","","","","","","","","","","","","","","","","","","","","","","","","","","","","","","","","","","","","","","","",""
"","iti_localizer","","html-keyboard-response","99","435405","0.0-2.0-16.0-1.0","33","46596","Female","null","","","","null","","14","","","","435083","1","","","","","","300","6000","322","6483","300","","","","","","","","","","","","","","","","","","","","","","","","","","","","","","","","","","","","","","","","","","","","","","","","","","","",""
"","localizer","","html-keyboard-response","100","435831","0.0-2.0-17.0-0.0","33","46596","Female","87","","","","68","0","15","","Stimuli/Experimental_stims/localizer/faces/abstral-official-cyOKLSgkgCE-unsplash.jpg","","435405","1","faces","","0","0","1","400","6300","426","6805","","","","","","","","","","","","","","","","","","","","","","","","","","","","","","","","","","","","","","","","","","","","","","","","","","","","",""
"","iti_localizer","","html-keyboard-response","101","436293","0.0-2.0-17.0-1.0","33","46596","Female","null","","","","null","","15","","","","435831","1","","","","","","300","6700","462","7231","300","","","","","","","","","","","","","","","","","","","","","","","","","","","","","","","","","","","","","","","","","","","","","","","","","","","",""
"","localizer","","html-keyboard-response","102","436720","0.0-2.0-18.0-0.0","33","46596","Female","100","","","","68","0","16","","Stimuli/Experimental_stims/localizer/faces/ethan-haddox-__ng3cRXmFE-unsplash.jpg","","436293","1","faces","","0","0","1","400","7000","427","7693","","","","","","","","","","","","","","","","","","","","","","","","","","","","","","","","","","","","","","","","","","","","","","","","","","","","",""
"","iti_localizer","","html-keyboard-response","103","437033","0.0-2.0-18.0-1.0","33","46596","Female","null","","","","null","","16","","","","436720","1","","","","","","300","7400","313","8120","300","","","","","","","","","","","","","","","","","","","","","","","","","","","","","","","","","","","","","","","","","","","","","","","","","","","",""
"","localizer","","html-keyboard-response","104","437450","0.0-2.0-19.0-0.0","33","46596","Female","2","","","","75","1","17","","Stimuli/Experimental_stims/localizer/faces/foto-sushi-6anudmpILw4-unsplash.jpg","","437033","1","faces","","0","0","0","400","7700","417","8433","","","","","","","","","","","","","","","","","","","","","","","","","","","","","","","","","","","","","","","","","","","","","","","","","","","","",""
"","iti_localizer","","html-keyboard-response","105","437769","0.0-2.0-19.0-1.0","33","46596","Female","null","","","","null","","17","","","","437450","1","","","","","","300","8100","319","8850","300","","","","","","","","","","","","","","","","","","","","","","","","","","","","","","","","","","","","","","","","","","","","","","","","","","","",""
"","localizer","","html-keyboard-response","106","438189","0.0-2.0-20.0-0.0","33","46596","Female","97","","","","75","1","18","","Stimuli/Experimental_stims/localizer/faces/christian-ferrer-8vT-DgHZDG4-unsplash.jpg","","437769","1","faces","","0","0","0","400","8400","420","9169","","","","","","","","","","","","","","","","","","","","","","","","","","","","","","","","","","","","","","","","","","","","","","","","","","","","",""
"","iti_localizer","","html-keyboard-response","107","438536","0.0-2.0-20.0-1.0","33","46596","Female","null","","","","null","","18","","","","438189","1","","","","","","300","8800","347","9589","300","","","","","","","","","","","","","","","","","","","","","","","","","","","","","","","","","","","","","","","","","","","","","","","","","","","",""
"","localizer","","html-keyboard-response","108","438974","0.0-2.0-21.0-0.0","33","46596","Female","20","","","","68","0","19","","Stimuli/Experimental_stims/localizer/faces/stephanie-nakagawa-ADSKIn0ScDg-unsplash.jpg","","438536","1","faces","","0","0","1","400","9100","438","9936","","","","","","","","","","","","","","","","","","","","","","","","","","","","","","","","","","","","","","","","","","","","","","","","","","","","",""
"","iti_localizer","","html-keyboard-response","109","439283","0.0-2.0-21.0-1.0","33","46596","Female","null","","","","null","","19","","","","438974","1","","","","","","300","9500","309","10374","300","","","","","","","","","","","","","","","","","","","","","","","","","","","","","","","","","","","","","","","","","","","","","","","","","","","",""
"","localizer","","html-keyboard-response","110","439691","0.0-2.0-22.0-0.0","33","46596","Female","67","","","","75","1","20","","Stimuli/Experimental_stims/localizer/faces/toa-heftiba-2O1EUSTRBrY-unsplash.jpg","","439283","1","faces","","1","0","1","400","9800","408","10683","","","","","","","","","","","","","","","","","","","","","","","","","","","","","","","","","","","","","","","","","","","","","","","","","","","","",""
"","iti_localizer","","html-keyboard-response","111","440007","0.0-2.0-22.0-1.0","33","46596","Female","null","","","","null","","20","","","","439691","1","","","","","","300","10200","316","11091","300","","","","","","","","","","","","","","","","","","","","","","","","","","","","","","","","","","","","","","","","","","","","","","","","","","","",""
"","localizer","","html-keyboard-response","112","440483","0.0-2.0-23.0-0.0","33","46596","Female","31","","","","75","1","21","","Stimuli/Experimental_stims/localizer/faces/darshan-patel-QJEVpydulGs-unsplash.jpg","","440007","1","faces","","0","0","0","400","10500","476","11407","","","","","","","","","","","","","","","","","","","","","","","","","","","","","","","","","","","","","","","","","","","","","","","","","","","","",""
"","iti_localizer","","html-keyboard-response","113","440794","0.0-2.0-23.0-1.0","33","46596","Female","null","","","","null","","21","","","","440483","1","","","","","","300","10900","311","11883","300","","","","","","","","","","","","","","","","","","","","","","","","","","","","","","","","","","","","","","","","","","","","","","","","","","","",""
"","localizer","","html-keyboard-response","114","441211","0.0-2.0-24.0-0.0","33","46596","Female","172","","","","75","1","22","","Stimuli/Experimental_stims/localizer/faces/mubariz-mehdizadeh-o-wlIFT4zE4-unsplash.jpg","","440794","1","faces","","0","0","0","400","11200","417","12194","","","","","","","","","","","","","","","","","","","","","","","","","","","","","","","","","","","","","","","","","","","","","","","","","","","","",""
"","iti_localizer","","html-keyboard-response","115","441536","0.0-2.0-24.0-1.0","33","46596","Female","null","","","","null","","22","","","","441211","1","","","","","","300","11600","325","12611","300","","","","","","","","","","","","","","","","","","","","","","","","","","","","","","","","","","","","","","","","","","","","","","","","","","","",""
"","localizer","","html-keyboard-response","116","441952","0.0-2.0-25.0-0.0","33","46596","Female","92","","","","75","1","23","","Stimuli/Experimental_stims/localizer/faces/midas-hofstra-tidSLv-UaNs-unsplash.jpg","","441536","1","faces","","0","0","0","400","11900","416","12936","","","","","","","","","","","","","","","","","","","","","","","","","","","","","","","","","","","","","","","","","","","","","","","","","","","","",""
"","iti_localizer","","html-keyboard-response","117","442367","0.0-2.0-25.0-1.0","33","46596","Female","null","","","","null","","23","","","","441952","1","","","","","","300","12300","415","13352","300","","","","","","","","","","","","","","","","","","","","","","","","","","","","","","","","","","","","","","","","","","","","","","","","","","","",""
"","localizer","","html-keyboard-response","118","442792","0.0-2.0-26.0-0.0","33","46596","Female","4","","","","68","0","24","","Stimuli/Experimental_stims/localizer/faces/toa-heftiba-O3ymvT7Wf9U-unsplash.jpg","","442367","1","faces","","0","0","1","400","12600","425","13767","","","","","","","","","","","","","","","","","","","","","","","","","","","","","","","","","","","","","","","","","","","","","","","","","","","","",""
"","iti_localizer","","html-keyboard-response","119","443100","0.0-2.0-26.0-1.0","33","46596","Female","null","","","","null","","24","","","","442792","1","","","","","","300","13000","308","14192","300","","","","","","","","","","","","","","","","","","","","","","","","","","","","","","","","","","","","","","","","","","","","","","","","","","","",""
"","localizer","","html-keyboard-response","120","443520","0.0-2.0-27.0-0.0","33","46596","Female","111","","","","75","1","25","","Stimuli/Experimental_stims/localizer/faces/katsiaryna-endruszkiewicz-BteCp6aq4GI-unsplash.jpg","","443100","1","faces","","0","0","0","400","13300","420","14500","","","","","","","","","","","","","","","","","","","","","","","","","","","","","","","","","","","","","","","","","","","","","","","","","","","","",""
"","iti_localizer","","html-keyboard-response","121","457542","0.0-2.0-27.0-1.0","33","46596","Female","null","","","","null","","25","","","","443520","1","","","","","","14000","13700","14022","14920","14000","","","","","","","","","","","","","","","","","","","","","","","","","","","","","","","","","","","","","","","","","","","","","","","","","","","",""
"","localizer","","html-keyboard-response","122","457961","0.0-2.0-28.0-0.0","33","46596","Female","53","","","","75","1","26","","Stimuli/Experimental_stims/localizer/outdoor_scenes/jaanus-jagomagi-FddgewYQF2M-unsplash.jpg","","457542","1","outdoor_scenes","","0","0","0","400","27700","419","28942","","","","","","","","","","","","","","","","","","","","","","","","","","","","","","","","","","","","","","","","","","","","","","","","","","","","",""
"","iti_localizer","","html-keyboard-response","123","458340","0.0-2.0-28.0-1.0","33","46596","Female","null","","","","null","","26","","","","457961","1","","","","","","300","28100","379","29361","300","","","","","","","","","","","","","","","","","","","","","","","","","","","","","","","","","","","","","","","","","","","","","","","","","","","",""
"","localizer","","html-keyboard-response","124","458761","0.0-2.0-29.0-0.0","33","46596","Female","56","","","","68","0","27","","Stimuli/Experimental_stims/localizer/outdoor_scenes/v2osk-1Z2niiBPg5A-unsplash.jpg","","458340","1","outdoor_scenes","","1","0","0","400","28400","421","29740","","","","","","","","","","","","","","","","","","","","","","","","","","","","","","","","","","","","","","","","","","","","","","","","","","","","",""
"","iti_localizer","","html-keyboard-response","125","459079","0.0-2.0-29.0-1.0","33","46596","Female","null","","","","null","","27","","","","458761","1","","","","","","300","28800","318","30161","300","","","","","","","","","","","","","","","","","","","","","","","","","","","","","","","","","","","","","","","","","","","","","","","","","","","",""
"","localizer","","html-keyboard-response","126","459489","0.0-2.0-30.0-0.0","33","46596","Female","392","","","","68","0","28","","Stimuli/Experimental_stims/localizer/outdoor_scenes/wai-siew-mTFyV8oNDzU-unsplash.jpg","","459079","1","outdoor_scenes","","0","0","1","400","29100","410","30479","","","","","","","","","","","","","","","","","","","","","","","","","","","","","","","","","","","","","","","","","","","","","","","","","","","","",""
"","iti_localizer","","html-keyboard-response","127","459805","0.0-2.0-30.0-1.0","33","46596","Female","null","","","","null","","28","","","","459489","1","","","","","","300","29500","316","30889","300","","","","","","","","","","","","","","","","","","","","","","","","","","","","","","","","","","","","","","","","","","","","","","","","","","","",""
"","localizer","","html-keyboard-response","128","460249","0.0-2.0-31.0-0.0","33","46596","Female","156","","","","68","0","29","","Stimuli/Experimental_stims/localizer/outdoor_scenes/jay-cai-F_laX9E8CUo-unsplash.jpg","","459805","1","outdoor_scenes","","0","0","1","400","29800","444","31205","","","","","","","","","","","","","","","","","","","","","","","","","","","","","","","","","","","","","","","","","","","","","","","","","","","","",""
"","iti_localizer","","html-keyboard-response","129","460559","0.0-2.0-31.0-1.0","33","46596","Female","null","","","","null","","29","","","","460249","1","","","","","","300","30200","310","31649","300","","","","","","","","","","","","","","","","","","","","","","","","","","","","","","","","","","","","","","","","","","","","","","","","","","","",""
"","localizer","","html-keyboard-response","130","460981","0.0-2.0-32.0-0.0","33","46596","Female","134","","","","75","1","30","","Stimuli/Experimental_stims/localizer/outdoor_scenes/jeremy-cai-ucYWe5mzTMU-unsplash.jpg","","460559","1","outdoor_scenes","","0","0","0","400","30500","422","31959","","","","","","","","","","","","","","","","","","","","","","","","","","","","","","","","","","","","","","","","","","","","","","","","","","","","",""
"","iti_localizer","","html-keyboard-response","131","461292","0.0-2.0-32.0-1.0","33","46596","Female","null","","","","null","","30","","","","460981","1","","","","","","300","30900","311","32381","300","","","","","","","","","","","","","","","","","","","","","","","","","","","","","","","","","","","","","","","","","","","","","","","","","","","",""
"","localizer","","html-keyboard-response","132","461708","0.0-2.0-33.0-0.0","33","46596","Female","2","","","","68","0","31","","Stimuli/Experimental_stims/localizer/outdoor_scenes/erol-ahmed-d3pTF3r_hwY-unsplash.jpg","","461292","1","outdoor_scenes","","0","0","1","400","31200","416","32692","","","","","","","","","","","","","","","","","","","","","","","","","","","","","","","","","","","","","","","","","","","","","","","","","","","","",""
"","iti_localizer","","html-keyboard-response","133","462029","0.0-2.0-33.0-1.0","33","46596","Female","null","","","","null","","31","","","","461708","1","","","","","","300","31600","321","33108","300","","","","","","","","","","","","","","","","","","","","","","","","","","","","","","","","","","","","","","","","","","","","","","","","","","","",""
"","localizer","","html-keyboard-response","134","462855","0.0-2.0-34.0-0.0","33","46596","Female","2","","","","75","1","32","","Stimuli/Experimental_stims/localizer/outdoor_scenes/quino-al-vmZ2DehWQ3Q-unsplash.jpg","","462029","1","outdoor_scenes","","0","0","0","400","31900","826","33429","","","","","","","","","","","","","","","","","","","","","","","","","","","","","","","","","","","","","","","","","","","","","","","","","","","","",""
"","iti_localizer","","html-keyboard-response","135","463174","0.0-2.0-34.0-1.0","33","46596","Female","null","","","","null","","32","","","","462855","1","","","","","","300","32300","319","34255","300","","","","","","","","","","","","","","","","","","","","","","","","","","","","","","","","","","","","","","","","","","","","","","","","","","","",""
"","localizer","","html-keyboard-response","136","463604","0.0-2.0-35.0-0.0","33","46596","Female","50","","","","68","0","33","","Stimuli/Experimental_stims/localizer/outdoor_scenes/kenneth-thewissen-D76DklsG-5U-unsplash.jpg","","463174","1","outdoor_scenes","","0","0","1","400","32600","430","34574","","","","","","","","","","","","","","","","","","","","","","","","","","","","","","","","","","","","","","","","","","","","","","","","","","","","",""
"","iti_localizer","","html-keyboard-response","137","463913","0.0-2.0-35.0-1.0","33","46596","Female","null","","","","null","","33","","","","463604","1","","","","","","300","33000","309","35004","300","","","","","","","","","","","","","","","","","","","","","","","","","","","","","","","","","","","","","","","","","","","","","","","","","","","",""
"","localizer","","html-keyboard-response","138","464342","0.0-2.0-36.0-0.0","33","46596","Female","192","","","","68","0","34","","Stimuli/Experimental_stims/localizer/outdoor_scenes/johny-goerend-U_diPCXCBxU-unsplash.jpg","","463913","1","outdoor_scenes","","0","0","1","400","33300","429","35313","","","","","","","","","","","","","","","","","","","","","","","","","","","","","","","","","","","","","","","","","","","","","","","","","","","","",""
"","iti_localizer","","html-keyboard-response","139","464673","0.0-2.0-36.0-1.0","33","46596","Female","null","","","","null","","34","","","","464342","1","","","","","","300","33700","331","35742","300","","","","","","","","","","","","","","","","","","","","","","","","","","","","","","","","","","","","","","","","","","","","","","","","","","","",""
"","localizer","","html-keyboard-response","140","465093","0.0-2.0-37.0-0.0","33","46596","Female","15","","","","68","0","35","","Stimuli/Experimental_stims/localizer/outdoor_scenes/ken-cheung-KonWFWUaAuk-unsplash.jpg","","464673","1","outdoor_scenes","","0","0","1","400","34000","420","36073","","","","","","","","","","","","","","","","","","","","","","","","","","","","","","","","","","","","","","","","","","","","","","","","","","","","",""
"","iti_localizer","","html-keyboard-response","141","465410","0.0-2.0-37.0-1.0","33","46596","Female","null","","","","null","","35","","","","465093","1","","","","","","300","34400","317","36493","300","","","","","","","","","","","","","","","","","","","","","","","","","","","","","","","","","","","","","","","","","","","","","","","","","","","",""
"","localizer","","html-keyboard-response","142","465833","0.0-2.0-38.0-0.0","33","46596","Female","15","","","","75","1","36","","Stimuli/Experimental_stims/localizer/outdoor_scenes/alessio-furlan-Vw3a0HgE7AM-unsplash.jpg","","465410","1","outdoor_scenes","","0","0","0","400","34700","423","36810","","","","","","","","","","","","","","","","","","","","","","","","","","","","","","","","","","","","","","","","","","","","","","","","","","","","",""
"","iti_localizer","","html-keyboard-response","143","466148","0.0-2.0-38.0-1.0","33","46596","Female","null","","","","null","","36","","","","465833","1","","","","","","300","35100","315","37233","300","","","","","","","","","","","","","","","","","","","","","","","","","","","","","","","","","","","","","","","","","","","","","","","","","","","",""
"","localizer","","html-keyboard-response","144","466557","0.0-2.0-39.0-0.0","33","46596","Female","105","","","","75","1","37","","Stimuli/Experimental_stims/localizer/outdoor_scenes/ricardo-gomez-angel-dTSaC-S-7fs-unsplash.jpg","","466148","1","outdoor_scenes","","0","0","0","400","35400","409","37548","","","","","","","","","","","","","","","","","","","","","","","","","","","","","","","","","","","","","","","","","","","","","","","","","","","","",""
"","iti_localizer","","html-keyboard-response","145","466928","0.0-2.0-39.0-1.0","33","46596","Female","null","","","","null","","37","","","","466557","1","","","","","","300","35800","371","37957","300","","","","","","","","","","","","","","","","","","","","","","","","","","","","","","","","","","","","","","","","","","","","","","","","","","","",""
"","localizer","","html-keyboard-response","146","467348","0.0-2.0-40.0-0.0","33","46596","Female","104","","","","68","0","38","","Stimuli/Experimental_stims/localizer/outdoor_scenes/samuel-ferrara-IEHPDNk2-8w-unsplash.jpg","","466928","1","outdoor_scenes","","0","0","1","400","36100","420","38328","","","","","","","","","","","","","","","","","","","","","","","","","","","","","","","","","","","","","","","","","","","","","","","","","","","","",""
"","iti_localizer","","html-keyboard-response","147","467660","0.0-2.0-40.0-1.0","33","46596","Female","null","","","","null","","38","","","","467348","1","","","","","","300","36500","312","38748","300","","","","","","","","","","","","","","","","","","","","","","","","","","","","","","","","","","","","","","","","","","","","","","","","","","","",""
"","localizer","","html-keyboard-response","148","468077","0.0-2.0-41.0-0.0","33","46596","Female","170","","","","75","1","39","","Stimuli/Experimental_stims/localizer/outdoor_scenes/pietro-de-grandi-T7K4aEPoGGk-unsplash.jpg","","467660","1","outdoor_scenes","","0","0","0","400","36800","417","39060","","","","","","","","","","","","","","","","","","","","","","","","","","","","","","","","","","","","","","","","","","","","","","","","","","","","",""
"","iti_localizer","","html-keyboard-response","149","468430","0.0-2.0-41.0-1.0","33","46596","Female","null","","","","null","","39","","","","468077","1","","","","","","300","37200","353","39477","300","","","","","","","","","","","","","","","","","","","","","","","","","","","","","","","","","","","","","","","","","","","","","","","","","","","",""
"","localizer","","html-keyboard-response","150","468889","0.0-2.0-42.0-0.0","33","46596","Female","57","","","","75","1","40","","Stimuli/Experimental_stims/localizer/outdoor_scenes/tomasz-filipek-CUWC-6MRcNg-unsplash.jpg","","468430","1","outdoor_scenes","","0","0","0","400","37500","459","39830","","","","","","","","","","","","","","","","","","","","","","","","","","","","","","","","","","","","","","","","","","","","","","","","","","","","",""
"","iti_localizer","","html-keyboard-response","151","469199","0.0-2.0-42.0-1.0","33","46596","Female","null","","","","null","","40","","","","468889","1","","","","","","300","37900","310","40289","300","","","","","","","","","","","","","","","","","","","","","","","","","","","","","","","","","","","","","","","","","","","","","","","","","","","",""
"","localizer","","html-keyboard-response","152","469611","0.0-2.0-43.0-0.0","33","46596","Female","24","","","","75","1","41","","Stimuli/Experimental_stims/localizer/outdoor_scenes/cayetano-gil-rguHxZmOF5U-unsplash.jpg","","469199","1","outdoor_scenes","","0","0","0","400","38200","412","40599","","","","","","","","","","","","","","","","","","","","","","","","","","","","","","","","","","","","","","","","","","","","","","","","","","","","",""
"","iti_localizer","","html-keyboard-response","153","469926","0.0-2.0-43.0-1.0","33","46596","Female","null","","","","null","","41","","","","469611","1","","","","","","300","38600","315","41011","300","","","","","","","","","","","","","","","","","","","","","","","","","","","","","","","","","","","","","","","","","","","","","","","","","","","",""
"","localizer","","html-keyboard-response","154","470339","0.0-2.0-44.0-0.0","33","46596","Female","1","","","","75","1","42","","Stimuli/Experimental_stims/localizer/outdoor_scenes/nikola-majksner-hXNGeAFOgT4-unsplash.jpg","","469926","1","outdoor_scenes","","0","0","0","400","38900","413","41326","","","","","","","","","","","","","","","","","","","","","","","","","","","","","","","","","","","","","","","","","","","","","","","","","","","","",""
"","iti_localizer","","html-keyboard-response","155","470649","0.0-2.0-44.0-1.0","33","46596","Female","null","","","","null","","42","","","","470339","1","","","","","","300","39300","310","41739","300","","","","","","","","","","","","","","","","","","","","","","","","","","","","","","","","","","","","","","","","","","","","","","","","","","","",""
"","localizer","","html-keyboard-response","156","471070","0.0-2.0-45.0-0.0","33","46596","Female","162","","","","75","1","43","","Stimuli/Experimental_stims/localizer/outdoor_scenes/wil-stewart-pHANr-CpbYM-unsplash.jpg","","470649","1","outdoor_scenes","","1","0","1","400","39600","421","42049","","","","","","","","","","","","","","","","","","","","","","","","","","","","","","","","","","","","","","","","","","","","","","","","","","","","",""
"","iti_localizer","","html-keyboard-response","157","471386","0.0-2.0-45.0-1.0","33","46596","Female","null","","","","null","","43","","","","471070","1","","","","","","300","40000","316","42470","300","","","","","","","","","","","","","","","","","","","","","","","","","","","","","","","","","","","","","","","","","","","","","","","","","","","",""
"","localizer","","html-keyboard-response","158","471807","0.0-2.0-46.0-0.0","33","46596","Female","50","","","","75","1","44","","Stimuli/Experimental_stims/localizer/outdoor_scenes/chang-qing-2YQoKbyGvDc-unsplash.jpg","","471386","1","outdoor_scenes","","0","0","0","400","40300","421","42786","","","","","","","","","","","","","","","","","","","","","","","","","","","","","","","","","","","","","","","","","","","","","","","","","","","","",""
"","iti_localizer","","html-keyboard-response","159","472114","0.0-2.0-46.0-1.0","33","46596","Female","null","","","","null","","44","","","","471807","1","","","","","","300","40700","307","43207","300","","","","","","","","","","","","","","","","","","","","","","","","","","","","","","","","","","","","","","","","","","","","","","","","","","","",""
"","localizer","","html-keyboard-response","160","472532","0.0-2.0-47.0-0.0","33","46596","Female","171","","","","68","0","45","","Stimuli/Experimental_stims/localizer/outdoor_scenes/solotravelgoals-7kLufxYoqWk-unsplash.jpg","","472114","1","outdoor_scenes","","0","0","1","400","41000","418","43514","","","","","","","","","","","","","","","","","","","","","","","","","","","","","","","","","","","","","","","","","","","","","","","","","","","","",""
"","iti_localizer","","html-keyboard-response","161","486573","0.0-2.0-47.0-1.0","33","46596","Female","null","","","","null","","45","","","","472532","1","","","","","","14000","41400","14041","43932","14000","","","","","","","","","","","","","","","","","","","","","","","","","","","","","","","","","","","","","","","","","","","","","","","","","","","",""
"","localizer","","html-keyboard-response","162","486999","0.0-2.0-48.0-0.0","33","46596","Female","17","","","","75","1","46","","Stimuli/Experimental_stims/localizer/body_parts/jeremy-bishop-mLd3hAaH2ns-unsplash.jpg","","486573","1","body_parts","","0","0","0","400","55400","426","57973","","","","","","","","","","","","","","","","","","","","","","","","","","","","","","","","","","","","","","","","","","","","","","","","","","","","",""
"","iti_localizer","","html-keyboard-response","163","487312","0.0-2.0-48.0-1.0","33","46596","Female","null","","","","null","","46","","","","486999","1","","","","","","300","55800","313","58399","300","","","","","","","","","","","","","","","","","","","","","","","","","","","","","","","","","","","","","","","","","","","","","","","","","","","",""
"","localizer","","html-keyboard-response","164","487729","0.0-2.0-49.0-0.0","33","46596","Female","NaN","","","","null","NaN","47","","Stimuli/Experimental_stims/localizer/body_parts/lilartsy-1KkhQ8uL28g-unsplash.jpg","","487312","1","body_parts","","0","1","0","400","56100","417","58712","","","","","","","","","","","","","","","","","","","","","","","","","","","","","","","","","","","","","","","","","","","","","","","","","","","","",""
"","iti_localizer","","html-keyboard-response","165","488045","0.0-2.0-49.0-1.0","33","46596","Female","null","","","","null","","47","","","","487729","1","","","","","","300","56500","316","59129","300","","","","","","","","","","","","","","","","","","","","","","","","","","","","","","","","","","","","","","","","","","","","","","","","","","","",""
"","localizer","","html-keyboard-response","166","488530","0.0-2.0-50.0-0.0","33","46596","Female","NaN","","","","null","NaN","48","","Stimuli/Experimental_stims/localizer/body_parts/toa-heftiba-qxvWnfHb3-M-unsplash.jpg","","488045","1","body_parts","","0","1","0","400","56800","485","59445","","","","","","","","","","","","","","","","","","","","","","","","","","","","","","","","","","","","","","","","","","","","","","","","","","","","",""
"","iti_localizer","","html-keyboard-response","167","488893","0.0-2.0-50.0-1.0","33","46596","Female","null","","","","null","","48","","","","488530","1","","","","","","300","57200","363","59930","300","","","","","","","","","","","","","","","","","","","","","","","","","","","","","","","","","","","","","","","","","","","","","","","","","","","",""
"","localizer","","html-keyboard-response","168","489304","0.0-2.0-51.0-0.0","33","46596","Female","55","","","","68","0","49","","Stimuli/Experimental_stims/localizer/body_parts/callum-skelton-3KLMq7y46nA-unsplash.jpg","","488893","1","body_parts","","1","0","0","400","57500","411","60293","","","","","","","","","","","","","","","","","","","","","","","","","","","","","","","","","","","","","","","","","","","","","","","","","","","","",""
"","iti_localizer","","html-keyboard-response","169","489624","0.0-2.0-51.0-1.0","33","46596","Female","null","","","","null","","49","","","","489304","1","","","","","","300","57900","320","60704","300","","","","","","","","","","","","","","","","","","","","","","","","","","","","","","","","","","","","","","","","","","","","","","","","","","","",""
"","localizer","","html-keyboard-response","170","490035","0.0-2.0-52.0-0.0","33","46596","Female","50","","","","68","0","50","","Stimuli/Experimental_stims/localizer/body_parts/ant-rozetsky-bXQd8JXx0vs-unsplash.jpg","","489624","1","body_parts","","0","0","1","400","58200","411","61024","","","","","","","","","","","","","","","","","","","","","","","","","","","","","","","","","","","","","","","","","","","","","","","","","","","","",""
"","iti_localizer","","html-keyboard-response","171","490379","0.0-2.0-52.0-1.0","33","46596","Female","null","","","","null","","50","","","","490035","1","","","","","","300","58600","344","61435","300","","","","","","","","","","","","","","","","","","","","","","","","","","","","","","","","","","","","","","","","","","","","","","","","","","","",""
"","localizer","","html-keyboard-response","172","490809","0.0-2.0-53.0-0.0","33","46596","Female","17","","","","75","1","51","","Stimuli/Experimental_stims/localizer/body_parts/boyd-christiansen-uVj7kewrZ-o-unsplash.jpg","","490379","1","body_parts","","0","0","0","400","58900","430","61779","","","","","","","","","","","","","","","","","","","","","","","","","","","","","","","","","","","","","","","","","","","","","","","","","","","","",""
"","iti_localizer","","html-keyboard-response","173","491119","0.0-2.0-53.0-1.0","33","46596","Female","null","","","","null","","51","","","","490809","1","","","","","","300","59300","310","62209","300","","","","","","","","","","","","","","","","","","","","","","","","","","","","","","","","","","","","","","","","","","","","","","","","","","","",""
"","localizer","","html-keyboard-response","174","491539","0.0-2.0-54.0-0.0","33","46596","Female","48","","","","68","0","52","","Stimuli/Experimental_stims/localizer/body_parts/helen-ast-l2iY5Sh0mTg-unsplash.jpg","","491119","1","body_parts","","0","0","1","400","59600","420","62519","","","","","","","","","","","","","","","","","","","","","","","","","","","","","","","","","","","","","","","","","","","","","","","","","","","","",""
"","iti_localizer","","html-keyboard-response","175","491850","0.0-2.0-54.0-1.0","33","46596","Female","null","","","","null","","52","","","","491539","1","","","","","","300","60000","311","62939","300","","","","","","","","","","","","","","","","","","","","","","","","","","","","","","","","","","","","","","","","","","","","","","","","","","","",""
"","localizer","","html-keyboard-response","176","492261","0.0-2.0-55.0-0.0","33","46596","Female","74","","","","68","0","53","","Stimuli/Experimental_stims/localizer/body_parts/pure-julia-E9Q4bqYHtIM-unsplash.jpg","","491850","1","body_parts","","0","0","1","400","60300","411","63250","","","","","","","","","","","","","","","","","","","","","","","","","","","","","","","","","","","","","","","","","","","","","","","","","","","","",""
"","iti_localizer","","html-keyboard-response","177","492576","0.0-2.0-55.0-1.0","33","46596","Female","null","","","","null","","53","","","","492261","1","","","","","","300","60700","315","63661","300","","","","","","","","","","","","","","","","","","","","","","","","","","","","","","","","","","","","","","","","","","","","","","","","","","","",""
"","localizer","","html-keyboard-response","178","492999","0.0-2.0-56.0-0.0","33","46596","Female","331","","","","75","1","54","","Stimuli/Experimental_stims/localizer/body_parts/sina-rezakhani-d1gQi0Jl05U-unsplash (1).jpg","","492576","1","body_parts","","0","0","0","400","61000","423","63976","","","","","","","","","","","","","","","","","","","","","","","","","","","","","","","","","","","","","","","","","","","","","","","","","","","","",""
"","iti_localizer","","html-keyboard-response","179","493321","0.0-2.0-56.0-1.0","33","46596","Female","null","","","","null","","54","","","","492999","1","","","","","","300","61400","322","64399","300","","","","","","","","","","","","","","","","","","","","","","","","","","","","","","","","","","","","","","","","","","","","","","","","","","","",""
"","localizer","","html-keyboard-response","180","493729","0.0-2.0-57.0-0.0","33","46596","Female","71","","","","68","0","55","","Stimuli/Experimental_stims/localizer/body_parts/megan-menegay-UojxG_BJxnI-unsplash.jpg","","493321","1","body_parts","","0","0","1","400","61700","408","64721","","","","","","","","","","","","","","","","","","","","","","","","","","","","","","","","","","","","","","","","","","","","","","","","","","","","",""
"","iti_localizer","","html-keyboard-response","181","494043","0.0-2.0-57.0-1.0","33","46596","Female","null","","","","null","","55","","","","493729","1","","","","","","300","62100","314","65129","300","","","","","","","","","","","","","","","","","","","","","","","","","","","","","","","","","","","","","","","","","","","","","","","","","","","",""
"","localizer","","html-keyboard-response","182","494454","0.0-2.0-58.0-0.0","33","46596","Female","33","","","","75","1","56","","Stimuli/Experimental_stims/localizer/body_parts/sincerely-media-7TBFwUQA6Xk-unsplash.jpg","","494043","1","body_parts","","0","0","0","400","62400","411","65443","","","","","","","","","","","","","","","","","","","","","","","","","","","","","","","","","","","","","","","","","","","","","","","","","","","","",""
"","iti_localizer","","html-keyboard-response","183","494773","0.0-2.0-58.0-1.0","33","46596","Female","null","","","","null","","56","","","","494454","1","","","","","","300","62800","319","65854","300","","","","","","","","","","","","","","","","","","","","","","","","","","","","","","","","","","","","","","","","","","","","","","","","","","","",""
"","localizer","","html-keyboard-response","184","495204","0.0-2.0-59.0-0.0","33","46596","Female","161","","","","68","0","57","","Stimuli/Experimental_stims/localizer/body_parts/sincerely-media-pdynOoM7xmA-unsplash.jpg","","494773","1","body_parts","","0","0","1","400","63100","431","66173","","","","","","","","","","","","","","","","","","","","","","","","","","","","","","","","","","","","","","","","","","","","","","","","","","","","",""
"","iti_localizer","","html-keyboard-response","185","495519","0.0-2.0-59.0-1.0","33","46596","Female","null","","","","null","","57","","","","495204","1","","","","","","300","63500","315","66604","300","","","","","","","","","","","","","","","","","","","","","","","","","","","","","","","","","","","","","","","","","","","","","","","","","","","",""
"","localizer","","html-keyboard-response","186","495949","0.0-2.0-60.0-0.0","33","46596","Female","97","","","","75","1","58","","Stimuli/Experimental_stims/localizer/body_parts/adrien-king-XzBluXxBoyQ-unsplash.jpg","","495519","1","body_parts","","0","0","0","400","63800","430","66919","","","","","","","","","","","","","","","","","","","","","","","","","","","","","","","","","","","","","","","","","","","","","","","","","","","","",""
"","iti_localizer","","html-keyboard-response","187","496313","0.0-2.0-60.0-1.0","33","46596","Female","null","","","","null","","58","","","","495949","1","","","","","","300","64200","364","67349","300","","","","","","","","","","","","","","","","","","","","","","","","","","","","","","","","","","","","","","","","","","","","","","","","","","","",""
"","localizer","","html-keyboard-response","188","496731","0.0-2.0-61.0-0.0","33","46596","Female","158","","","","75","1","59","","Stimuli/Experimental_stims/localizer/body_parts/nattalia-nunez-MB9sdDfZMSg-unsplash.jpg","","496313","1","body_parts","","1","0","1","400","64500","418","67713","","","","","","","","","","","","","","","","","","","","","","","","","","","","","","","","","","","","","","","","","","","","","","","","","","","","",""
"","iti_localizer","","html-keyboard-response","189","497057","0.0-2.0-61.0-1.0","33","46596","Female","null","","","","null","","59","","","","496731","1","","","","","","300","64900","326","68131","300","","","","","","","","","","","","","","","","","","","","","","","","","","","","","","","","","","","","","","","","","","","","","","","","","","","",""
"","localizer","","html-keyboard-response","190","497481","0.0-2.0-62.0-0.0","33","46596","Female","29","","","","68","0","60","","Stimuli/Experimental_stims/localizer/body_parts/louis-hansel-FjKTMRTQYAs-unsplash.jpg","","497057","1","body_parts","","0","0","1","400","65200","424","68457","","","","","","","","","","","","","","","","","","","","","","","","","","","","","","","","","","","","","","","","","","","","","","","","","","","","",""
"","iti_localizer","","html-keyboard-response","191","497793","0.0-2.0-62.0-1.0","33","46596","Female","null","","","","null","","60","","","","497481","1","","","","","","300","65600","312","68881","300","","","","","","","","","","","","","","","","","","","","","","","","","","","","","","","","","","","","","","","","","","","","","","","","","","","",""
"","localizer","","html-keyboard-response","192","498215","0.0-2.0-63.0-0.0","33","46596","Female","34","","","","68","0","61","","Stimuli/Experimental_stims/localizer/body_parts/jonathan-borba-hTwH8QFkPMs-unsplash.jpg","","497793","1","body_parts","","0","0","1","400","65900","422","69193","","","","","","","","","","","","","","","","","","","","","","","","","","","","","","","","","","","","","","","","","","","","","","","","","","","","",""
"","iti_localizer","","html-keyboard-response","193","498595","0.0-2.0-63.0-1.0","33","46596","Female","null","","","","null","","61","","","","498215","1","","","","","","300","66300","380","69615","300","","","","","","","","","","","","","","","","","","","","","","","","","","","","","","","","","","","","","","","","","","","","","","","","","","","",""
"","localizer","","html-keyboard-response","194","499025","0.0-2.0-64.0-0.0","33","46596","Female","5","","","","75","1","62","","Stimuli/Experimental_stims/localizer/body_parts/hu-chen-tCbTGNwrFNM-unsplash.jpg","","498595","1","body_parts","","0","0","0","400","66600","430","69995","","","","","","","","","","","","","","","","","","","","","","","","","","","","","","","","","","","","","","","","","","","","","","","","","","","","",""
"","iti_localizer","","html-keyboard-response","195","499335","0.0-2.0-64.0-1.0","33","46596","Female","null","","","","null","","62","","","","499025","1","","","","","","300","67000","310","70425","300","","","","","","","","","","","","","","","","","","","","","","","","","","","","","","","","","","","","","","","","","","","","","","","","","","","",""
"","localizer","","html-keyboard-response","196","499753","0.0-2.0-65.0-0.0","33","46596","Female","41","","","","75","1","63","","Stimuli/Experimental_stims/localizer/body_parts/danie-franco-jyyNiSEcCl4-unsplash.jpg","","499335","1","body_parts","","0","0","0","400","67300","418","70735","","","","","","","","","","","","","","","","","","","","","","","","","","","","","","","","","","","","","","","","","","","","","","","","","","","","",""
"","iti_localizer","","html-keyboard-response","197","500071","0.0-2.0-65.0-1.0","33","46596","Female","null","","","","null","","63","","","","499753","1","","","","","","300","67700","318","71153","300","","","","","","","","","","","","","","","","","","","","","","","","","","","","","","","","","","","","","","","","","","","","","","","","","","","",""
"","localizer","","html-keyboard-response","198","500496","0.0-2.0-66.0-0.0","33","46596","Female","2","","","","75","1","64","","Stimuli/Experimental_stims/localizer/body_parts/natalie-grainger-8uB5kFKWWkk-unsplash.jpg","","500071","1","body_parts","","0","0","0","400","68000","425","71471","","","","","","","","","","","","","","","","","","","","","","","","","","","","","","","","","","","","","","","","","","","","","","","","","","","","",""
"","iti_localizer","","html-keyboard-response","199","500817","0.0-2.0-66.0-1.0","33","46596","Female","null","","","","null","","64","","","","500496","1","","","","","","300","68400","321","71896","300","","","","","","","","","","","","","","","","","","","","","","","","","","","","","","","","","","","","","","","","","","","","","","","","","","","",""
"","localizer","","html-keyboard-response","200","501234","0.0-2.0-67.0-0.0","33","46596","Female","2","","","","68","0","65","","Stimuli/Experimental_stims/localizer/body_parts/apostolos-vamvouras-g5wKHRu2QW0-unsplash.jpg","","500817","1","body_parts","","0","0","1","400","68700","417","72217","","","","","","","","","","","","","","","","","","","","","","","","","","","","","","","","","","","","","","","","","","","","","","","","","","","","",""
"","iti_localizer","","html-keyboard-response","201","515257","0.0-2.0-67.0-1.0","33","46596","Female","null","","","","null","","65","","","","501234","1","","","","","","14000","69100","14023","72634","14000","","","","","","","","","","","","","","","","","","","","","","","","","","","","","","","","","","","","","","","","","","","","","","","","","","","",""
"","localizer","","html-keyboard-response","202","515674","0.0-2.0-68.0-0.0","33","46596","Female","19","","","","75","1","66","","Stimuli/Experimental_stims/localizer/objects/quaritsch-photography-lZ8onQ1wuY8-unsplash.jpg","","515257","1","objects","","1","0","1","400","83100","417","86657","","","","","","","","","","","","","","","","","","","","","","","","","","","","","","","","","","","","","","","","","","","","","","","","","","","","",""
"","iti_localizer","","html-keyboard-response","203","515983","0.0-2.0-68.0-1.0","33","46596","Female","null","","","","null","","66","","","","515674","1","","","","","","300","83500","309","87074","300","","","","","","","","","","","","","","","","","","","","","","","","","","","","","","","","","","","","","","","","","","","","","","","","","","","",""
"","localizer","","html-keyboard-response","204","516724","0.0-2.0-69.0-0.0","33","46596","Female","93","","","","75","1","67","","Stimuli/Experimental_stims/localizer/objects/ana-9GmAaEMMKho-unsplash.jpg","","515983","1","objects","","0","0","0","400","83800","741","87383","","","","","","","","","","","","","","","","","","","","","","","","","","","","","","","","","","","","","","","","","","","","","","","","","","","","",""
"","iti_localizer","","html-keyboard-response","205","517089","0.0-2.0-69.0-1.0","33","46596","Female","null","","","","null","","67","","","","516724","1","","","","","","300","84200","365","88124","300","","","","","","","","","","","","","","","","","","","","","","","","","","","","","","","","","","","","","","","","","","","","","","","","","","","",""
"","localizer","","html-keyboard-response","206","517500","0.0-2.0-70.0-0.0","33","46596","Female","122","","","","68","0","68","","Stimuli/Experimental_stims/localizer/objects/nordwood-themes-nDd3dIkkOLo-unsplash.jpg","","517089","1","objects","","0","0","1","400","84500","411","88489","","","","","","","","","","","","","","","","","","","","","","","","","","","","","","","","","","","","","","","","","","","","","","","","","","","","",""
"","iti_localizer","","html-keyboard-response","207","517809","0.0-2.0-70.0-1.0","33","46596","Female","null","","","","null","","68","","","","517500","1","","","","","","300","84900","309","88900","300","","","","","","","","","","","","","","","","","","","","","","","","","","","","","","","","","","","","","","","","","","","","","","","","","","","",""
"","localizer","","html-keyboard-response","208","518321","0.0-2.0-71.0-0.0","33","46596","Female","66","","","","75","1","69","","Stimuli/Experimental_stims/localizer/objects/kelly-jean-cKjbI0Y00X0-unsplash.jpg","","517809","1","objects","","0","0","0","400","85200","512","89209","","","","","","","","","","","","","","","","","","","","","","","","","","","","","","","","","","","","","","","","","","","","","","","","","","","","",""
"","iti_localizer","","html-keyboard-response","209","518640","0.0-2.0-71.0-1.0","33","46596","Female","null","","","","null","","69","","","","518321","1","","","","","","300","85600","319","89721","300","","","","","","","","","","","","","","","","","","","","","","","","","","","","","","","","","","","","","","","","","","","","","","","","","","","",""
"","localizer","","html-keyboard-response","210","519059","0.0-2.0-72.0-0.0","33","46596","Female","104","","","","68","0","70","","Stimuli/Experimental_stims/localizer/objects/florian-klauer-nptLmg6jqDo-unsplash.jpg","","518640","1","objects","","0","0","1","400","85900","419","90040","","","","","","","","","","","","","","","","","","","","","","","","","","","","","","","","","","","","","","","","","","","","","","","","","","","","",""
"","iti_localizer","","html-keyboard-response","211","519372","0.0-2.0-72.0-1.0","33","46596","Female","null","","","","null","","70","","","","519059","1","","","","","","300","86300","313","90459","300","","","","","","","","","","","","","","","","","","","","","","","","","","","","","","","","","","","","","","","","","","","","","","","","","","","",""
"","localizer","","html-keyboard-response","212","519798","0.0-2.0-73.0-0.0","33","46596","Female","182","","","","75","1","71","","Stimuli/Experimental_stims/localizer/objects/nicolas-hippert-SVgX47QIUlc-unsplash.jpg","","519372","1","objects","","0","0","0","400","86600","426","90772","","","","","","","","","","","","","","","","","","","","","","","","","","","","","","","","","","","","","","","","","","","","","","","","","","","","",""
"","iti_localizer","","html-keyboard-response","213","520113","0.0-2.0-73.0-1.0","33","46596","Female","null","","","","null","","71","","","","519798","1","","","","","","300","87000","315","91198","300","","","","","","","","","","","","","","","","","","","","","","","","","","","","","","","","","","","","","","","","","","","","","","","","","","","",""
"","localizer","","html-keyboard-response","214","520523","0.0-2.0-74.0-0.0","33","46596","Female","60","","","","68","0","72","","Stimuli/Experimental_stims/localizer/objects/florian-klauer-mk7D-4UCfmg-unsplash.jpg","","520113","1","objects","","0","0","1","400","87300","410","91513","","","","","","","","","","","","","","","","","","","","","","","","","","","","","","","","","","","","","","","","","","","","","","","","","","","","",""
"","iti_localizer","","html-keyboard-response","215","520849","0.0-2.0-74.0-1.0","33","46596","Female","null","","","","null","","72","","","","520523","1","","","","","","300","87700","326","91923","300","","","","","","","","","","","","","","","","","","","","","","","","","","","","","","","","","","","","","","","","","","","","","","","","","","","",""
"","localizer","","html-keyboard-response","216","521281","0.0-2.0-75.0-0.0","33","46596","Female","41","","","","75","1","73","","Stimuli/Experimental_stims/localizer/objects/alex-lvrs-2zDw14yCYqk-unsplash.jpg","","520849","1","objects","","0","0","0","400","88000","432","92249","","","","","","","","","","","","","","","","","","","","","","","","","","","","","","","","","","","","","","","","","","","","","","","","","","","","",""
"","iti_localizer","","html-keyboard-response","217","521600","0.0-2.0-75.0-1.0","33","46596","Female","null","","","","null","","73","","","","521281","1","","","","","","300","88400","319","92681","300","","","","","","","","","","","","","","","","","","","","","","","","","","","","","","","","","","","","","","","","","","","","","","","","","","","",""
"","localizer","","html-keyboard-response","218","522061","0.0-2.0-76.0-0.0","33","46596","Female","31","","","","75","1","74","","Stimuli/Experimental_stims/localizer/objects/hipster-mum-XookgCxFw6Q-unsplash.jpg","","521600","1","objects","","0","0","0","400","88700","461","93000","","","","","","","","","","","","","","","","","","","","","","","","","","","","","","","","","","","","","","","","","","","","","","","","","","","","",""
"","iti_localizer","","html-keyboard-response","219","522445","0.0-2.0-76.0-1.0","33","46596","Female","null","","","","null","","74","","","","522061","1","","","","","","300","89100","384","93461","300","","","","","","","","","","","","","","","","","","","","","","","","","","","","","","","","","","","","","","","","","","","","","","","","","","","",""
"","localizer","","html-keyboard-response","220","522865","0.0-2.0-77.0-0.0","33","46596","Female","80","","","","75","1","75","","Stimuli/Experimental_stims/localizer/objects/ian-talmacs-ugqU0a4P18U-unsplash.jpg","","522445","1","objects","","0","0","0","400","89400","420","93845","","","","","","","","","","","","","","","","","","","","","","","","","","","","","","","","","","","","","","","","","","","","","","","","","","","","",""
"","iti_localizer","","html-keyboard-response","221","523181","0.0-2.0-77.0-1.0","33","46596","Female","null","","","","null","","75","","","","522865","1","","","","","","300","89800","316","94265","300","","","","","","","","","","","","","","","","","","","","","","","","","","","","","","","","","","","","","","","","","","","","","","","","","","","",""
"","localizer","","html-keyboard-response","222","523596","0.0-2.0-78.0-0.0","33","46596","Female","1","","","","68","0","76","","Stimuli/Experimental_stims/localizer/objects/chris-briggs-FobzAZJGM9M-unsplash.jpg","","523181","1","objects","","0","0","1","400","90100","415","94581","","","","","","","","","","","","","","","","","","","","","","","","","","","","","","","","","","","","","","","","","","","","","","","","","","","","",""
"","iti_localizer","","html-keyboard-response","223","523903","0.0-2.0-78.0-1.0","33","46596","Female","null","","","","null","","76","","","","523596","1","","","","","","300","90500","307","94996","300","","","","","","","","","","","","","","","","","","","","","","","","","","","","","","","","","","","","","","","","","","","","","","","","","","","",""
"","localizer","","html-keyboard-response","224","524313","0.0-2.0-79.0-0.0","33","46596","Female","100","","","","75","1","77","","Stimuli/Experimental_stims/localizer/objects/recha-oktaviani-t__61ap00Mc-unsplash.jpg","","523903","1","objects","","0","0","0","400","90800","410","95303","","","","","","","","","","","","","","","","","","","","","","","","","","","","","","","","","","","","","","","","","","","","","","","","","","","","",""
"","iti_localizer","","html-keyboard-response","225","524621","0.0-2.0-79.0-1.0","33","46596","Female","null","","","","null","","77","","","","524313","1","","","","","","300","91200","308","95713","300","","","","","","","","","","","","","","","","","","","","","","","","","","","","","","","","","","","","","","","","","","","","","","","","","","","",""
"","localizer","","html-keyboard-response","226","525039","0.0-2.0-80.0-0.0","33","46596","Female","46","","","","68","0","78","","Stimuli/Experimental_stims/localizer/objects/jonny-caspari-wsvCC6UyKjs-unsplash.jpg","","524621","1","objects","","0","0","1","400","91500","418","96021","","","","","","","","","","","","","","","","","","","","","","","","","","","","","","","","","","","","","","","","","","","","","","","","","","","","",""
"","iti_localizer","","html-keyboard-response","227","525360","0.0-2.0-80.0-1.0","33","46596","Female","null","","","","null","","78","","","","525039","1","","","","","","300","91900","321","96439","300","","","","","","","","","","","","","","","","","","","","","","","","","","","","","","","","","","","","","","","","","","","","","","","","","","","",""
"","localizer","","html-keyboard-response","228","525770","0.0-2.0-81.0-0.0","33","46596","Female","27","","","","75","1","79","","Stimuli/Experimental_stims/localizer/objects/markus-spiske-ANrVtttbNss-unsplash.jpg","","525360","1","objects","","0","0","0","400","92200","410","96760","","","","","","","","","","","","","","","","","","","","","","","","","","","","","","","","","","","","","","","","","","","","","","","","","","","","",""
"","iti_localizer","","html-keyboard-response","229","526084","0.0-2.0-81.0-1.0","33","46596","Female","null","","","","null","","79","","","","525770","1","","","","","","300","92600","314","97170","300","","","","","","","","","","","","","","","","","","","","","","","","","","","","","","","","","","","","","","","","","","","","","","","","","","","",""
"","localizer","","html-keyboard-response","230","526544","0.0-2.0-82.0-0.0","33","46596","Female","244","","","","75","1","80","","Stimuli/Experimental_stims/localizer/objects/ignat-dolomanov-kFBDVnmskPA-unsplash.jpg","","526084","1","objects","","0","0","0","400","92900","460","97484","","","","","","","","","","","","","","","","","","","","","","","","","","","","","","","","","","","","","","","","","","","","","","","","","","","","",""
"","iti_localizer","","html-keyboard-response","231","526858","0.0-2.0-82.0-1.0","33","46596","Female","null","","","","null","","80","","","","526544","1","","","","","","300","93300","314","97944","300","","","","","","","","","","","","","","","","","","","","","","","","","","","","","","","","","","","","","","","","","","","","","","","","","","","",""
"","localizer","","html-keyboard-response","232","527272","0.0-2.0-83.0-0.0","33","46596","Female","113","","","","68","0","81","","Stimuli/Experimental_stims/localizer/objects/mockup-graphics-Pj2PY-E-LfM-unsplash.jpg","","526858","1","objects","","0","0","1","400","93600","414","98258","","","","","","","","","","","","","","","","","","","","","","","","","","","","","","","","","","","","","","","","","","","","","","","","","","","","",""
"","iti_localizer","","html-keyboard-response","233","527597","0.0-2.0-83.0-1.0","33","46596","Female","null","","","","null","","81","","","","527272","1","","","","","","300","94000","325","98672","300","","","","","","","","","","","","","","","","","","","","","","","","","","","","","","","","","","","","","","","","","","","","","","","","","","","",""
"","localizer","","html-keyboard-response","234","528008","0.0-2.0-84.0-0.0","33","46596","Female","1","","","","68","0","82","","Stimuli/Experimental_stims/localizer/objects/lance-reis-v0FYj9iioQg-unsplash.jpg","","527597","1","objects","","0","0","1","400","94300","411","98997","","","","","","","","","","","","","","","","","","","","","","","","","","","","","","","","","","","","","","","","","","","","","","","","","","","","",""
"","iti_localizer","","html-keyboard-response","235","528350","0.0-2.0-84.0-1.0","33","46596","Female","null","","","","null","","82","","","","528008","1","","","","","","300","94700","342","99408","300","","","","","","","","","","","","","","","","","","","","","","","","","","","","","","","","","","","","","","","","","","","","","","","","","","","",""
"","localizer","","html-keyboard-response","236","528766","0.0-2.0-85.0-0.0","33","46596","Female","128","","","","75","1","83","","Stimuli/Experimental_stims/localizer/objects/mockup-graphics-U6ZMEefFGx8-unsplash.jpg","","528350","1","objects","","0","0","0","400","95000","416","99750","","","","","","","","","","","","","","","","","","","","","","","","","","","","","","","","","","","","","","","","","","","","","","","","","","","","",""
"","iti_localizer","","html-keyboard-response","237","529076","0.0-2.0-85.0-1.0","33","46596","Female","null","","","","null","","83","","","","528766","1","","","","","","300","95400","310","100166","300","","","","","","","","","","","","","","","","","","","","","","","","","","","","","","","","","","","","","","","","","","","","","","","","","","","",""
"","localizer","","html-keyboard-response","238","529487","0.0-2.0-86.0-0.0","33","46596","Female","181","","","","75","1","84","","Stimuli/Experimental_stims/localizer/objects/engin-akyurt-bbbKzTmY2Gg-unsplash.jpg","","529076","1","objects","","1","0","1","400","95700","411","100476","","","","","","","","","","","","","","","","","","","","","","","","","","","","","","","","","","","","","","","","","","","","","","","","","","","","",""
"","iti_localizer","","html-keyboard-response","239","529811","0.0-2.0-86.0-1.0","33","46596","Female","null","","","","null","","84","","","","529487","1","","","","","","300","96100","324","100887","300","","","","","","","","","","","","","","","","","","","","","","","","","","","","","","","","","","","","","","","","","","","","","","","","","","","",""
"","localizer","","html-keyboard-response","240","530477","0.0-2.0-87.0-0.0","33","46596","Female","127","","","","75","1","85","","Stimuli/Experimental_stims/localizer/objects/eugene-chystiakov-3neSwyntbQ8-unsplash.jpg","","529811","1","objects","","0","0","0","400","96400","666","101211","","","","","","","","","","","","","","","","","","","","","","","","","","","","","","","","","","","","","","","","","","","","","","","","","","","","",""
"","iti_localizer","","html-keyboard-response","241","544774","0.0-2.0-87.0-1.0","33","46596","Female","null","","","","null","","85","","","","530477","1","","","","","","14000","96800","14297","101877","14000","","","","","","","","","","","","","","","","","","","","","","","","","","","","","","","","","","","","","","","","","","","","","","","","","","","",""
"","localizer","","html-keyboard-response","242","545188","0.0-2.0-88.0-0.0","33","46596","Female","1","","","","68","0","86","","Stimuli/Experimental_stims/localizer/body_parts/bady-abbas-N-VEeMnm7gE-unsplash.jpg","","544774","1","body_parts","","0","0","1","400","110800","414","116174","","","","","","","","","","","","","","","","","","","","","","","","","","","","","","","","","","","","","","","","","","","","","","","","","","","","",""
"","iti_localizer","","html-keyboard-response","243","545504","0.0-2.0-88.0-1.0","33","46596","Female","null","","","","null","","86","","","","545188","1","","","","","","300","111200","316","116588","300","","","","","","","","","","","","","","","","","","","","","","","","","","","","","","","","","","","","","","","","","","","","","","","","","","","",""
"","localizer","","html-keyboard-response","244","545920","0.0-2.0-89.0-0.0","33","46596","Female","154","","","","75","1","87","","Stimuli/Experimental_stims/localizer/body_parts/sincerely-media-QyzlAZjm0r0-unsplash.jpg","","545504","1","body_parts","","1","0","1","400","111500","416","116904","","","","","","","","","","","","","","","","","","","","","","","","","","","","","","","","","","","","","","","","","","","","","","","","","","","","",""
"","iti_localizer","","html-keyboard-response","245","546266","0.0-2.0-89.0-1.0","33","46596","Female","null","","","","null","","87","","","","545920","1","","","","","","300","111900","346","117320","300","","","","","","","","","","","","","","","","","","","","","","","","","","","","","","","","","","","","","","","","","","","","","","","","","","","",""
