"success","ttype","start_time","trial_type","trial_index","time_elapsed","internal_node_id","age","PID","gender","rt","responses","view_history","repeat_instructions","key_press","response","index","stimulus_index","path","start_time_elapsed","run","task","isi","is_odd_ball","no_response","acc","duration","onset","duration_time_elapsed","onset_time_elapsed","trial_duration","left_chosen","chosen_stimulus","unchosen_stimulus","chosen_category","unchosen_category","chosen_rating","unchosen_rating","chosen_path","unchosen_path","pair_id","practice","scramble_screen_time","scramble_instructed_side","stim_type","iti","block","left_stimulus","right_stimulus","left_category","right_category","left_path","right_path","left_rating","right_rating","scramble_acc","missed_checkup","stimulus_id","item_id","outcome","response_rt","deliberation_reward_tally","choice_type","gain_left","left_item_id","right_item_id","higher_outcome_chosen","warning","chosen_left","old_pair","pair_type","old_response","pair_acc","reward_type","outcome_response","outcome_rt","outcome_acc","category","choice","deliberated_stim","old_rating","new_rating","total_reward_tally"
"true","full_screen","d08172023hr1802","fullscreen","0","26467","0.0-0.0-0.0","25","64283","Male","","","","","","","","","","","","","","","","","","","","","","","","","","","","","","","","","","","","","","","","","","","","","","","","","","","","","","","","","","","","","","","","","","","","","","","","",""
"","get_id","","survey-text","1","32903","0.0-0.0-1.0","25","64283","Male","6431","{""Q0"":""25"",""Q1"":""Male""}","","","","","","","","","","","","","","","","","","","","","","","","","","","","","","","","","","","","","","","","","","","","","","","","","","","","","","","","","","","","","","","","","","","","","","",""
"","ratings_instructions","","instructions","2","47968","0.0-1.0-0.0-0.0","25","64283","Male","14750","","[{""page_index"":0,""viewing_time"":5853},{""page_index"":1,""viewing_time"":2896},{""page_index"":0,""viewing_time"":5585},{""page_index"":1,""viewing_time"":415}]","","","","","","","","","","","","","","","","","","","","","","","","","","","","","","","","","","","","","","","","","","","","","","","","","","","","","","","","","","","","","","","","","","","","","",""
"","rating_comprehension_check","","survey-multi-choice","3","52834","0.0-1.0-0.0-1.0","25","64283","Male","4861","{""Q0"":""True"",""Q1"":""Mouse""}","","0","","","","","","","","","","","","","","","","","","","","","","","","","","","","","","","","","","","","","","","","","","","","","","","","","","","","","","","","","","","","","","","","","","","","",""
"","","","html-keyboard-response","4","55192","0.0-1.0-1.0","25","64283","Male","2354","","","","68","","","","","","","","","","","","","","","","","","","","","","","","","","","","","","","","","","","","","","","","","","","","","","","","","","","","","","","","","","","","","","","","","","","",""
"","rating","","html-slider-response","5","58727","0.0-1.0-2.0","25","64283","Male","3531","","","","","31","0","23","Stimuli/Experimental_stims/faces/rikonavt-HQjfrvdTfak-unsplash.jpg","","","","","","","","","","","","","","","","","","","","","","","","","","","","","","","","","","","","","","","","","","","","","","","","","","","","","","","","","","","","","","","",""
"","rating","","html-slider-response","6","62751","0.0-1.0-3.0","25","64283","Male","4021","","","","","28","1","17","Stimuli/Experimental_stims/faces/good-faces-xmSWVeGEnJw-unsplash.jpg","","","","","","","","","","","","","","","","","","","","","","","","","","","","","","","","","","","","","","","","","","","","","","","","","","","","","","","","","","","","","","","",""
"","rating","","html-slider-response","7","65043","0.0-1.0-4.0","25","64283","Male","2284","","","","","78","2","10","Stimuli/Experimental_stims/outdoor_scenes/shannon-kunkle-dM8INmkyDas-unsplash.jpg","","","","","","","","","","","","","","","","","","","","","","","","","","","","","","","","","","","","","","","","","","","","","","","","","","","","","","","","","","","","","","","",""
"","rating","","html-slider-response","8","67991","0.0-1.0-5.0","25","64283","Male","2944","","","","","15","3","37","Stimuli/Experimental_stims/objects/alexander-andrews-VLGWE_SumrA-unsplash.jpg","","","","","","","","","","","","","","","","","","","","","","","","","","","","","","","","","","","","","","","","","","","","","","","","","","","","","","","","","","","","","","","",""
"","rating","","html-slider-response","9","70527","0.0-1.0-6.0","25","64283","Male","2532","","","","","46","4","12","Stimuli/Experimental_stims/faces/aiony-haust-jmATI5Q_YgY-unsplash.jpg","","","","","","","","","","","","","","","","","","","","","","","","","","","","","","","","","","","","","","","","","","","","","","","","","","","","","","","","","","","","","","","",""
"","rating","","html-slider-response","10","72784","0.0-1.0-7.0","25","64283","Male","2253","","","","","35","5","13","Stimuli/Experimental_stims/faces/daniel-rigdon-dXmXKPP2L4E-unsplash.jpg","","","","","","","","","","","","","","","","","","","","","","","","","","","","","","","","","","","","","","","","","","","","","","","","","","","","","","","","","","","","","","","",""
"","rating","","html-slider-response","11","75711","0.0-1.0-8.0","25","64283","Male","2923","","","","","52","6","46","Stimuli/Experimental_stims/objects/mockup-graphics-PNsj6RiHAF4-unsplash.jpg","","","","","","","","","","","","","","","","","","","","","","","","","","","","","","","","","","","","","","","","","","","","","","","","","","","","","","","","","","","","","","","",""
"","rating","","html-slider-response","12","80488","0.0-1.0-9.0","25","64283","Male","4772","","","","","72","7","0","Stimuli/Experimental_stims/outdoor_scenes/aleksandra-boguslawska-MS7KD9Ti7FQ-unsplash.jpg","","","","","","","","","","","","","","","","","","","","","","","","","","","","","","","","","","","","","","","","","","","","","","","","","","","","","","","","","","","","","","","",""
"","rating","","html-slider-response","13","85847","0.0-1.0-10.0","25","64283","Male","5355","","","","","23","8","42","Stimuli/Experimental_stims/objects/jess-bailey-nOeVi8DsN8U-unsplash.jpg","","","","","","","","","","","","","","","","","","","","","","","","","","","","","","","","","","","","","","","","","","","","","","","","","","","","","","","","","","","","","","","",""
"","rating","","html-slider-response","14","88904","0.0-1.0-11.0","25","64283","Male","3051","","","","","63","9","29","Stimuli/Experimental_stims/body_parts/manuel-schinner-ZwjFuJ7ebpk-unsplash.jpg","","","","","","","","","","","","","","","","","","","","","","","","","","","","","","","","","","","","","","","","","","","","","","","","","","","","","","","","","","","","","","","",""
"","rating","","html-slider-response","15","91399","0.0-1.0-12.0","25","64283","Male","2491","","","","","65","10","45","Stimuli/Experimental_stims/objects/leohoho-rngTKHXumy0-unsplash.jpg","","","","","","","","","","","","","","","","","","","","","","","","","","","","","","","","","","","","","","","","","","","","","","","","","","","","","","","","","","","","","","","",""
"","rating","","html-slider-response","16","94064","0.0-1.0-13.0","25","64283","Male","2660","","","","","50","11","16","Stimuli/Experimental_stims/faces/freddy-kearney-o-ioeoATbIM-unsplash.jpg","","","","","","","","","","","","","","","","","","","","","","","","","","","","","","","","","","","","","","","","","","","","","","","","","","","","","","","","","","","","","","","",""
"","rating","","html-slider-response","17","98040","0.0-1.0-14.0","25","64283","Male","3972","","","","","16","12","35","Stimuli/Experimental_stims/body_parts/wc-so-KH4AAPjb-tI-unsplash.jpg","","","","","","","","","","","","","","","","","","","","","","","","","","","","","","","","","","","","","","","","","","","","","","","","","","","","","","","","","","","","","","","",""
"","rating","","html-slider-response","18","100351","0.0-1.0-15.0","25","64283","Male","2307","","","","","81","13","8","Stimuli/Experimental_stims/outdoor_scenes/samsommer-vddccTqwal8-unsplash.jpg","","","","","","","","","","","","","","","","","","","","","","","","","","","","","","","","","","","","","","","","","","","","","","","","","","","","","","","","","","","","","","","",""
"","rating","","html-slider-response","19","107056","0.0-1.0-16.0","25","64283","Male","6701","","","","","40","14","18","Stimuli/Experimental_stims/faces/jessica-radanavong-mrYkTuAesKE-unsplash.jpg","","","","","","","","","","","","","","","","","","","","","","","","","","","","","","","","","","","","","","","","","","","","","","","","","","","","","","","","","","","","","","","",""
"","rating","","html-slider-response","20","109951","0.0-1.0-17.0","25","64283","Male","2891","","","","","70","15","6","Stimuli/Experimental_stims/outdoor_scenes/meng-ji-8BH_M-53CyA-unsplash.jpg","","","","","","","","","","","","","","","","","","","","","","","","","","","","","","","","","","","","","","","","","","","","","","","","","","","","","","","","","","","","","","","",""
"","rating","","html-slider-response","21","117976","0.0-1.0-18.0","25","64283","Male","8020","","","","","82","16","2","Stimuli/Experimental_stims/outdoor_scenes/bruno-van-der-kraan-qez8mNJ3ilU-unsplash.jpg","","","","","","","","","","","","","","","","","","","","","","","","","","","","","","","","","","","","","","","","","","","","","","","","","","","","","","","","","","","","","","","",""
"","rating","","html-slider-response","22","120735","0.0-1.0-19.0","25","64283","Male","2755","","","","","10","17","33","Stimuli/Experimental_stims/body_parts/tucker-good-36skLT5jZcc-unsplash.jpg","","","","","","","","","","","","","","","","","","","","","","","","","","","","","","","","","","","","","","","","","","","","","","","","","","","","","","","","","","","","","","","",""
"","rating","","html-slider-response","23","123215","0.0-1.0-20.0","25","64283","Male","2476","","","","","28","18","25","Stimuli/Experimental_stims/body_parts/engin-akyurt-Q2rfH3GW39c-unsplash.jpg","","","","","","","","","","","","","","","","","","","","","","","","","","","","","","","","","","","","","","","","","","","","","","","","","","","","","","","","","","","","","","","",""
"","rating","","html-slider-response","24","125847","0.0-1.0-21.0","25","64283","Male","2628","","","","","82","19","4","Stimuli/Experimental_stims/outdoor_scenes/jarrett-kow-1ZOyYPOBn7I-unsplash.jpg","","","","","","","","","","","","","","","","","","","","","","","","","","","","","","","","","","","","","","","","","","","","","","","","","","","","","","","","","","","","","","","",""
"","rating","","html-slider-response","25","128496","0.0-1.0-22.0","25","64283","Male","2644","","","","","87","20","11","Stimuli/Experimental_stims/outdoor_scenes/stephen-leonardi-gyIRjKPXupE-unsplash.jpg","","","","","","","","","","","","","","","","","","","","","","","","","","","","","","","","","","","","","","","","","","","","","","","","","","","","","","","","","","","","","","","",""
"","rating","","html-slider-response","26","132839","0.0-1.0-23.0","25","64283","Male","4339","","","","","69","21","47","Stimuli/Experimental_stims/objects/ronaldo-arthur-vidal-Cdz_lvnl37k-unsplash.jpg","","","","","","","","","","","","","","","","","","","","","","","","","","","","","","","","","","","","","","","","","","","","","","","","","","","","","","","","","","","","","","","",""
"","rating","","html-slider-response","27","137207","0.0-1.0-24.0","25","64283","Male","4364","","","","","48","22","39","Stimuli/Experimental_stims/objects/charlesdeluvio-1-nx1QR5dTE-unsplash.jpg","","","","","","","","","","","","","","","","","","","","","","","","","","","","","","","","","","","","","","","","","","","","","","","","","","","","","","","","","","","","","","","",""
"","rating","","html-slider-response","28","140335","0.0-1.0-25.0","25","64283","Male","3124","","","","","91","23","3","Stimuli/Experimental_stims/outdoor_scenes/henry-be-NLF6hTe4PAg-unsplash.jpg","","","","","","","","","","","","","","","","","","","","","","","","","","","","","","","","","","","","","","","","","","","","","","","","","","","","","","","","","","","","","","","",""
"","rating","","html-slider-response","29","143447","0.0-1.0-26.0","25","64283","Male","3109","","","","","36","24","34","Stimuli/Experimental_stims/body_parts/wagner-santos-mBWMvIuVnso-unsplash.jpg","","","","","","","","","","","","","","","","","","","","","","","","","","","","","","","","","","","","","","","","","","","","","","","","","","","","","","","","","","","","","","","",""
"","rating","","html-slider-response","30","146087","0.0-1.0-27.0","25","64283","Male","2637","","","","","56","25","27","Stimuli/Experimental_stims/body_parts/heike-mintel-i_Gns0ELnLw-unsplash.jpg","","","","","","","","","","","","","","","","","","","","","","","","","","","","","","","","","","","","","","","","","","","","","","","","","","","","","","","","","","","","","","","",""
"","rating","","html-slider-response","31","149920","0.0-1.0-28.0","25","64283","Male","3829","","","","","40","26","43","Stimuli/Experimental_stims/objects/jonathan-greenaway-Y4hGgeiFn3s-unsplash.jpg","","","","","","","","","","","","","","","","","","","","","","","","","","","","","","","","","","","","","","","","","","","","","","","","","","","","","","","","","","","","","","","",""
"","rating","","html-slider-response","32","152831","0.0-1.0-29.0","25","64283","Male","2907","","","","","49","27","40","Stimuli/Experimental_stims/objects/fabian-blank-pElSkGRA2NU-unsplash.jpg","","","","","","","","","","","","","","","","","","","","","","","","","","","","","","","","","","","","","","","","","","","","","","","","","","","","","","","","","","","","","","","",""
"","rating","","html-slider-response","33","155672","0.0-1.0-30.0","25","64283","Male","2837","","","","","63","28","38","Stimuli/Experimental_stims/objects/art-lasovsky-8XddFc6NkBY-unsplash.jpg","","","","","","","","","","","","","","","","","","","","","","","","","","","","","","","","","","","","","","","","","","","","","","","","","","","","","","","","","","","","","","","",""
"","rating","","html-slider-response","34","158056","0.0-1.0-31.0","25","64283","Male","2381","","","","","91","29","9","Stimuli/Experimental_stims/outdoor_scenes/sergey-pesterev-y-b_FOmJXdg-unsplash.jpg","","","","","","","","","","","","","","","","","","","","","","","","","","","","","","","","","","","","","","","","","","","","","","","","","","","","","","","","","","","","","","","",""
"","rating","","html-slider-response","35","174936","0.0-1.0-32.0","25","64283","Male","16877","","","","","49","30","19","Stimuli/Experimental_stims/faces/joel-mott-LaK153ghdig-unsplash.jpg","","","","","","","","","","","","","","","","","","","","","","","","","","","","","","","","","","","","","","","","","","","","","","","","","","","","","","","","","","","","","","","",""
"","rating","","html-slider-response","36","178723","0.0-1.0-33.0","25","64283","Male","3781","","","","","42","31","24","Stimuli/Experimental_stims/body_parts/clay-banks-LjqARJaJotc-unsplash.jpg","","","","","","","","","","","","","","","","","","","","","","","","","","","","","","","","","","","","","","","","","","","","","","","","","","","","","","","","","","","","","","","",""
"","rating","","html-slider-response","37","189679","0.0-1.0-34.0","25","64283","Male","10952","","","","","56","32","14","Stimuli/Experimental_stims/faces/david-siglin-UuW4psOb388-unsplash.jpg","","","","","","","","","","","","","","","","","","","","","","","","","","","","","","","","","","","","","","","","","","","","","","","","","","","","","","","","","","","","","","","",""
"","rating","","html-slider-response","38","192416","0.0-1.0-35.0","25","64283","Male","2733","","","","","46","33","44","Stimuli/Experimental_stims/objects/kuiye-chen-NuOGFo4PudE-unsplash.jpg","","","","","","","","","","","","","","","","","","","","","","","","","","","","","","","","","","","","","","","","","","","","","","","","","","","","","","","","","","","","","","","",""
"","rating","","html-slider-response","39","196360","0.0-1.0-36.0","25","64283","Male","3940","","","","","41","34","15","Stimuli/Experimental_stims/faces/erik-lucatero-d2MSDujJl2g-unsplash.jpg","","","","","","","","","","","","","","","","","","","","","","","","","","","","","","","","","","","","","","","","","","","","","","","","","","","","","","","","","","","","","","","",""
"","rating","","html-slider-response","40","199183","0.0-1.0-37.0","25","64283","Male","2820","","","","","79","35","1","Stimuli/Experimental_stims/outdoor_scenes/ashim-d-silva-S2Q5mdOrrVc-unsplash.jpg","","","","","","","","","","","","","","","","","","","","","","","","","","","","","","","","","","","","","","","","","","","","","","","","","","","","","","","","","","","","","","","",""
"","rating","","html-slider-response","41","202943","0.0-1.0-38.0","25","64283","Male","3756","","","","","28","36","22","Stimuli/Experimental_stims/faces/ravi-patel-VMGAbeeJTKo-unsplash.jpg","","","","","","","","","","","","","","","","","","","","","","","","","","","","","","","","","","","","","","","","","","","","","","","","","","","","","","","","","","","","","","","",""
"","rating","","html-slider-response","42","205040","0.0-1.0-39.0","25","64283","Male","2092","","","","","7","37","26","Stimuli/Experimental_stims/body_parts/engin-akyurt-x_3gyC42btc-unsplash.jpg","","","","","","","","","","","","","","","","","","","","","","","","","","","","","","","","","","","","","","","","","","","","","","","","","","","","","","","","","","","","","","","",""
"","rating","","html-slider-response","43","206960","0.0-1.0-40.0","25","64283","Male","1917","","","","","34","38","31","Stimuli/Experimental_stims/body_parts/sincerely-media-VN6DbKajo5s-unsplash.jpg","","","","","","","","","","","","","","","","","","","","","","","","","","","","","","","","","","","","","","","","","","","","","","","","","","","","","","","","","","","","","","","",""
"","rating","","html-slider-response","44","209855","0.0-1.0-41.0","25","64283","Male","2891","","","","","55","39","36","Stimuli/Experimental_stims/objects/alexander-andrews-JYGnB9gTCls-unsplash.jpg","","","","","","","","","","","","","","","","","","","","","","","","","","","","","","","","","","","","","","","","","","","","","","","","","","","","","","","","","","","","","","","",""
"","rating","","html-slider-response","45","212191","0.0-1.0-42.0","25","64283","Male","2331","","","","","30","40","28","Stimuli/Experimental_stims/body_parts/ira-vishnevskaya-8DQAvdCby1I-unsplash.jpg","","","","","","","","","","","","","","","","","","","","","","","","","","","","","","","","","","","","","","","","","","","","","","","","","","","","","","","","","","","","","","","",""
"","rating","","html-slider-response","46","218616","0.0-1.0-43.0","25","64283","Male","6421","","","","","36","41","20","Stimuli/Experimental_stims/faces/justin-chen-J7Cf1Gch49E-unsplash.jpg","","","","","","","","","","","","","","","","","","","","","","","","","","","","","","","","","","","","","","","","","","","","","","","","","","","","","","","","","","","","","","","",""
"","rating","","html-slider-response","47","225799","0.0-1.0-44.0","25","64283","Male","7179","","","","","53","42","41","Stimuli/Experimental_stims/objects/insung-yoon-w2JtIQQXoRU-unsplash.jpg","","","","","","","","","","","","","","","","","","","","","","","","","","","","","","","","","","","","","","","","","","","","","","","","","","","","","","","","","","","","","","","",""
"","rating","","html-slider-response","48","228503","0.0-1.0-45.0","25","64283","Male","2700","","","","","77","43","7","Stimuli/Experimental_stims/outdoor_scenes/petr-vysohlid-9fqwGqGLUxc-unsplash.jpg","","","","","","","","","","","","","","","","","","","","","","","","","","","","","","","","","","","","","","","","","","","","","","","","","","","","","","","","","","","","","","","",""
"","rating","","html-slider-response","49","230320","0.0-1.0-46.0","25","64283","Male","1813","","","","","89","44","5","Stimuli/Experimental_stims/outdoor_scenes/jeff-king-bJHWJeiHfHc-unsplash.jpg","","","","","","","","","","","","","","","","","","","","","","","","","","","","","","","","","","","","","","","","","","","","","","","","","","","","","","","","","","","","","","","",""
"","rating","","html-slider-response","50","233360","0.0-1.0-47.0","25","64283","Male","3035","","","","","30","45","30","Stimuli/Experimental_stims/body_parts/mika-korhonen-Xodzxosar18-unsplash.jpg","","","","","","","","","","","","","","","","","","","","","","","","","","","","","","","","","","","","","","","","","","","","","","","","","","","","","","","","","","","","","","","",""
"","rating","","html-slider-response","51","236415","0.0-1.0-48.0","25","64283","Male","3051","","","","","41","46","32","Stimuli/Experimental_stims/body_parts/towfiqu-barbhuiya-3AsiVDsZnHg-unsplash.jpg","","","","","","","","","","","","","","","","","","","","","","","","","","","","","","","","","","","","","","","","","","","","","","","","","","","","","","","","","","","","","","","",""
"","rating","","html-slider-response","52","238736","0.0-1.0-49.0","25","64283","Male","2317","","","","","45","47","21","Stimuli/Experimental_stims/faces/leilani-angel-K84vnnzxmTQ-unsplash.jpg","","","","","","","","","","","","","","","","","","","","","","","","","","","","","","","","","","","","","","","","","","","","","","","","","","","","","","","","","","","","","","","",""
"","localizer_instructions","","instructions","53","274943","0.0-2.0-0.0-0.0","25","64283","Male","36176","","[{""page_index"":0,""viewing_time"":24792},{""page_index"":1,""viewing_time"":9680},{""page_index"":2,""viewing_time"":1704}]","","","","","","","","","","","","","","","","","","","","","","","","","","","","","","","","","","","","","","","","","","","","","","","","","","","","","","","","","","","","","","","","","","","","","",""
"","localizer_comprehension_check","","survey-multi-choice","54","284343","0.0-2.0-0.0-1.0","25","64283","Male","9395","{""Q0"":""True"",""Q1"":""K"",""Q2"":""D""}","","0","","","","","","","","","","","","","","","","","","","","","","","","","","","","","","","","","","","","","","","","","","","","","","","","","","","","","","","","","","","","","","","","","","","","",""
"","","","html-keyboard-response","55","289392","0.0-2.0-1.0","25","64283","Male","5044","","","","68","","","","","","","","","","","","","","","","","","","","","","","","","","","","","","","","","","","","","","","","","","","","","","","","","","","","","","","","","","","","","","","","","","","",""
"","localizer","","html-keyboard-response","56","289800","0.0-2.0-2.0-0.0","25","64283","Male","NaN","","","","null","NaN","0","","Stimuli/Practice_stims/Localizer/annie-spratt-g9KFpAfQ5bc-unsplash.jpg","289392","0","NaN","","0","1","0","400","0","408","0","","","","","","","","","","","","","","","","","","","","","","","","","","","","","","","","","","","","","","","","","","","","","","","","","","","","",""
"","iti_localizer","","html-keyboard-response","57","290107","0.0-2.0-2.0-1.0","25","64283","Male","null","","","","null","","0","","","289800","0","","","","","","300","400","307","408","300","","","","","","","","","","","","","","","","","","","","","","","","","","","","","","","","","","","","","","","","","","","","","","","","","","","",""
"","localizer","","html-keyboard-response","58","290514","0.0-2.0-2.1-0.1","25","64283","Male","NaN","","","","null","NaN","0","","Stimuli/Practice_stims/Localizer/annie-spratt-g9KFpAfQ5bc-unsplash.jpg","290107","0","NaN","","0","1","0","400","700","407","715","","","","","","","","","","","","","","","","","","","","","","","","","","","","","","","","","","","","","","","","","","","","","","","","","","","","",""
"","iti_localizer","","html-keyboard-response","59","290819","0.0-2.0-2.1-1.1","25","64283","Male","null","","","","null","","0","","","290514","0","","","","","","300","1100","305","1122","300","","","","","","","","","","","","","","","","","","","","","","","","","","","","","","","","","","","","","","","","","","","","","","","","","","","",""
"","localizer","","html-keyboard-response","60","291228","0.0-2.0-2.2-0.2","25","64283","Male","NaN","","","","null","NaN","0","","Stimuli/Practice_stims/Localizer/annie-spratt-g9KFpAfQ5bc-unsplash.jpg","290819","0","NaN","","0","1","0","400","1400","409","1427","","","","","","","","","","","","","","","","","","","","","","","","","","","","","","","","","","","","","","","","","","","","","","","","","","","","",""
"","iti_localizer","","html-keyboard-response","61","291551","0.0-2.0-2.2-1.2","25","64283","Male","null","","","","null","","0","","","291228","0","","","","","","300","1800","323","1836","300","","","","","","","","","","","","","","","","","","","","","","","","","","","","","","","","","","","","","","","","","","","","","","","","","","","",""
"","localizer","","html-keyboard-response","62","291959","0.0-2.0-2.3-0.3","25","64283","Male","NaN","","","","null","NaN","0","","Stimuli/Practice_stims/Localizer/annie-spratt-g9KFpAfQ5bc-unsplash.jpg","291551","0","NaN","","0","1","0","400","2100","408","2159","","","","","","","","","","","","","","","","","","","","","","","","","","","","","","","","","","","","","","","","","","","","","","","","","","","","",""
"","iti_localizer","","html-keyboard-response","63","292270","0.0-2.0-2.3-1.3","25","64283","Male","null","","","","null","","0","","","291959","0","","","","","","300","2500","311","2567","300","","","","","","","","","","","","","","","","","","","","","","","","","","","","","","","","","","","","","","","","","","","","","","","","","","","",""
"","localizer","","html-keyboard-response","64","292682","0.0-2.0-2.4-0.4","25","64283","Male","NaN","","","","null","NaN","0","","Stimuli/Practice_stims/Localizer/annie-spratt-g9KFpAfQ5bc-unsplash.jpg","292270","0","NaN","","0","1","0","400","2800","412","2878","","","","","","","","","","","","","","","","","","","","","","","","","","","","","","","","","","","","","","","","","","","","","","","","","","","","",""
"","iti_localizer","","html-keyboard-response","65","292989","0.0-2.0-2.4-1.4","25","64283","Male","null","","","","null","","0","","","292682","0","","","","","","300","3200","307","3290","300","","","","","","","","","","","","","","","","","","","","","","","","","","","","","","","","","","","","","","","","","","","","","","","","","","","",""
"","localizer","","html-keyboard-response","66","293396","0.0-2.0-2.5-0.5","25","64283","Male","NaN","","","","null","NaN","0","","Stimuli/Practice_stims/Localizer/annie-spratt-g9KFpAfQ5bc-unsplash.jpg","292989","0","NaN","","0","1","0","400","3500","407","3597","","","","","","","","","","","","","","","","","","","","","","","","","","","","","","","","","","","","","","","","","","","","","","","","","","","","",""
"","iti_localizer","","html-keyboard-response","67","293703","0.0-2.0-2.5-1.5","25","64283","Male","null","","","","null","","0","","","293396","0","","","","","","300","3900","307","4004","300","","","","","","","","","","","","","","","","","","","","","","","","","","","","","","","","","","","","","","","","","","","","","","","","","","","",""
"","localizer","","html-keyboard-response","68","294110","0.0-2.0-2.6-0.6","25","64283","Male","76","","","","68","0","0","","Stimuli/Practice_stims/Localizer/annie-spratt-g9KFpAfQ5bc-unsplash.jpg","293703","0","NaN","","0","0","1","400","4200","407","4311","","","","","","","","","","","","","","","","","","","","","","","","","","","","","","","","","","","","","","","","","","","","","","","","","","","","",""
"","iti_localizer","","html-keyboard-response","69","294416","0.0-2.0-2.6-1.6","25","64283","Male","null","","","","null","","0","","","294110","0","","","","","","300","4600","306","4718","300","","","","","","","","","","","","","","","","","","","","","","","","","","","","","","","","","","","","","","","","","","","","","","","","","","","",""
"","localizer","","html-keyboard-response","70","294827","0.0-2.0-3.0-0.0","25","64283","Male","NaN","","","","null","NaN","1","","Stimuli/Practice_stims/Localizer/becca-tapert-sY5RjMB1KkE-unsplash.jpg","294416","0","NaN","","0","1","0","400","4900","411","5024","","","","","","","","","","","","","","","","","","","","","","","","","","","","","","","","","","","","","","","","","","","","","","","","","","","","",""
"","iti_localizer","","html-keyboard-response","71","295134","0.0-2.0-3.0-1.0","25","64283","Male","null","","","","null","","1","","","294827","0","","","","","","300","5300","307","5435","300","","","","","","","","","","","","","","","","","","","","","","","","","","","","","","","","","","","","","","","","","","","","","","","","","","","",""
"","localizer","","html-keyboard-response","72","295540","0.0-2.0-3.1-0.1","25","64283","Male","NaN","","","","null","NaN","1","","Stimuli/Practice_stims/Localizer/becca-tapert-sY5RjMB1KkE-unsplash.jpg","295134","0","NaN","","0","1","0","400","5600","406","5742","","","","","","","","","","","","","","","","","","","","","","","","","","","","","","","","","","","","","","","","","","","","","","","","","","","","",""
"","iti_localizer","","html-keyboard-response","73","295843","0.0-2.0-3.1-1.1","25","64283","Male","null","","","","null","","1","","","295540","0","","","","","","300","6000","303","6148","300","","","","","","","","","","","","","","","","","","","","","","","","","","","","","","","","","","","","","","","","","","","","","","","","","","","",""
"","localizer","","html-keyboard-response","74","296253","0.0-2.0-3.2-0.2","25","64283","Male","64","","","","68","0","1","","Stimuli/Practice_stims/Localizer/becca-tapert-sY5RjMB1KkE-unsplash.jpg","295843","0","NaN","","0","0","1","400","6300","410","6451","","","","","","","","","","","","","","","","","","","","","","","","","","","","","","","","","","","","","","","","","","","","","","","","","","","","",""
"","iti_localizer","","html-keyboard-response","75","296564","0.0-2.0-3.2-1.2","25","64283","Male","null","","","","null","","1","","","296253","0","","","","","","300","6700","311","6861","300","","","","","","","","","","","","","","","","","","","","","","","","","","","","","","","","","","","","","","","","","","","","","","","","","","","",""
"","localizer","","html-keyboard-response","76","296972","0.0-2.0-4.0-0.0","25","64283","Male","NaN","","","","null","NaN","2","","Stimuli/Practice_stims/Localizer/charl-durand-bsfXvI25iNg-unsplash.jpg","296564","0","NaN","","1","1","0","400","7000","408","7172","","","","","","","","","","","","","","","","","","","","","","","","","","","","","","","","","","","","","","","","","","","","","","","","","","","","",""
"","iti_localizer","","html-keyboard-response","77","297279","0.0-2.0-4.0-1.0","25","64283","Male","null","","","","null","","2","","","296972","0","","","","","","300","7400","307","7580","300","","","","","","","","","","","","","","","","","","","","","","","","","","","","","","","","","","","","","","","","","","","","","","","","","","","",""
"","localizer","","html-keyboard-response","78","297686","0.0-2.0-4.1-0.1","25","64283","Male","NaN","","","","null","NaN","2","","Stimuli/Practice_stims/Localizer/charl-durand-bsfXvI25iNg-unsplash.jpg","297279","0","NaN","","1","1","0","400","7700","407","7887","","","","","","","","","","","","","","","","","","","","","","","","","","","","","","","","","","","","","","","","","","","","","","","","","","","","",""
"","iti_localizer","","html-keyboard-response","79","297991","0.0-2.0-4.1-1.1","25","64283","Male","null","","","","null","","2","","","297686","0","","","","","","300","8100","305","8294","300","","","","","","","","","","","","","","","","","","","","","","","","","","","","","","","","","","","","","","","","","","","","","","","","","","","",""
"","localizer","","html-keyboard-response","80","298398","0.0-2.0-4.2-0.2","25","64283","Male","NaN","","","","null","NaN","2","","Stimuli/Practice_stims/Localizer/charl-durand-bsfXvI25iNg-unsplash.jpg","297991","0","NaN","","1","1","0","400","8400","407","8599","","","","","","","","","","","","","","","","","","","","","","","","","","","","","","","","","","","","","","","","","","","","","","","","","","","","",""
"","iti_localizer","","html-keyboard-response","81","298704","0.0-2.0-4.2-1.2","25","64283","Male","null","","","","null","","2","","","298398","0","","","","","","300","8800","306","9006","300","","","","","","","","","","","","","","","","","","","","","","","","","","","","","","","","","","","","","","","","","","","","","","","","","","","",""
"","localizer","","html-keyboard-response","82","299109","0.0-2.0-4.3-0.3","25","64283","Male","292","","","","75","1","2","","Stimuli/Practice_stims/Localizer/charl-durand-bsfXvI25iNg-unsplash.jpg","298704","0","NaN","","1","0","1","400","9100","405","9312","","","","","","","","","","","","","","","","","","","","","","","","","","","","","","","","","","","","","","","","","","","","","","","","","","","","",""
"","iti_localizer","","html-keyboard-response","83","299421","0.0-2.0-4.3-1.3","25","64283","Male","null","","","","null","","2","","","299109","0","","","","","","300","9500","312","9717","300","","","","","","","","","","","","","","","","","","","","","","","","","","","","","","","","","","","","","","","","","","","","","","","","","","","",""
"","localizer","","html-keyboard-response","84","299827","0.0-2.0-5.0-0.0","25","64283","Male","NaN","","","","null","NaN","3","","Stimuli/Practice_stims/Localizer/nizar-albusaidy-B2r2SWAf5CE-unsplash.jpg","299421","0","NaN","","0","1","0","400","9800","406","10029","","","","","","","","","","","","","","","","","","","","","","","","","","","","","","","","","","","","","","","","","","","","","","","","","","","","",""
"","iti_localizer","","html-keyboard-response","85","300136","0.0-2.0-5.0-1.0","25","64283","Male","null","","","","null","","3","","","299827","0","","","","","","300","10200","309","10435","300","","","","","","","","","","","","","","","","","","","","","","","","","","","","","","","","","","","","","","","","","","","","","","","","","","","",""
"","localizer","","html-keyboard-response","86","300557","0.0-2.0-5.1-0.1","25","64283","Male","149","","","","68","0","3","","Stimuli/Practice_stims/Localizer/nizar-albusaidy-B2r2SWAf5CE-unsplash.jpg","300136","0","NaN","","0","0","1","400","10500","421","10744","","","","","","","","","","","","","","","","","","","","","","","","","","","","","","","","","","","","","","","","","","","","","","","","","","","","",""
"","iti_localizer","","html-keyboard-response","87","300868","0.0-2.0-5.1-1.1","25","64283","Male","null","","","","null","","3","","","300557","0","","","","","","300","10900","311","11165","300","","","","","","","","","","","","","","","","","","","","","","","","","","","","","","","","","","","","","","","","","","","","","","","","","","","",""
"","localizer","","html-keyboard-response","88","301280","0.0-2.0-6.0-0.0","25","64283","Male","NaN","","","","null","NaN","4","","Stimuli/Practice_stims/Localizer/randy-fath-epf1tdtIIkM-unsplash.jpg","300868","0","NaN","","1","1","0","400","11200","412","11476","","","","","","","","","","","","","","","","","","","","","","","","","","","","","","","","","","","","","","","","","","","","","","","","","","","","",""
"","iti_localizer","","html-keyboard-response","89","301585","0.0-2.0-6.0-1.0","25","64283","Male","null","","","","null","","4","","","301280","0","","","","","","300","11600","305","11888","300","","","","","","","","","","","","","","","","","","","","","","","","","","","","","","","","","","","","","","","","","","","","","","","","","","","",""
"","localizer","","html-keyboard-response","90","301993","0.0-2.0-6.1-0.1","25","64283","Male","NaN","","","","null","NaN","4","","Stimuli/Practice_stims/Localizer/randy-fath-epf1tdtIIkM-unsplash.jpg","301585","0","NaN","","1","1","0","400","11900","408","12193","","","","","","","","","","","","","","","","","","","","","","","","","","","","","","","","","","","","","","","","","","","","","","","","","","","","",""
"","iti_localizer","","html-keyboard-response","91","302300","0.0-2.0-6.1-1.1","25","64283","Male","null","","","","null","","4","","","301993","0","","","","","","300","12300","307","12601","300","","","","","","","","","","","","","","","","","","","","","","","","","","","","","","","","","","","","","","","","","","","","","","","","","","","",""
"","localizer","","html-keyboard-response","92","302706","0.0-2.0-6.2-0.2","25","64283","Male","350","","","","75","1","4","","Stimuli/Practice_stims/Localizer/randy-fath-epf1tdtIIkM-unsplash.jpg","302300","0","NaN","","1","0","1","400","12600","406","12908","","","","","","","","","","","","","","","","","","","","","","","","","","","","","","","","","","","","","","","","","","","","","","","","","","","","",""
"","iti_localizer","","html-keyboard-response","93","303010","0.0-2.0-6.2-1.2","25","64283","Male","null","","","","null","","4","","","302706","0","","","","","","300","13000","304","13314","300","","","","","","","","","","","","","","","","","","","","","","","","","","","","","","","","","","","","","","","","","","","","","","","","","","","",""
"","localizer","","html-keyboard-response","94","303415","0.0-2.0-7.0-0.0","25","64283","Male","NaN","","","","null","NaN","5","","Stimuli/Practice_stims/Localizer/yassine-khalfalli-adsQ9d_Cx0c-unsplash.jpg","303010","0","NaN","","0","1","0","400","13300","405","13618","","","","","","","","","","","","","","","","","","","","","","","","","","","","","","","","","","","","","","","","","","","","","","","","","","","","",""
"","iti_localizer","","html-keyboard-response","95","303726","0.0-2.0-7.0-1.0","25","64283","Male","null","","","","null","","5","","","303415","0","","","","","","300","13700","311","14023","300","","","","","","","","","","","","","","","","","","","","","","","","","","","","","","","","","","","","","","","","","","","","","","","","","","","",""
"","localizer","","html-keyboard-response","96","304133","0.0-2.0-7.1-0.1","25","64283","Male","NaN","","","","null","NaN","5","","Stimuli/Practice_stims/Localizer/yassine-khalfalli-adsQ9d_Cx0c-unsplash.jpg","303726","0","NaN","","0","1","0","400","14000","407","14334","","","","","","","","","","","","","","","","","","","","","","","","","","","","","","","","","","","","","","","","","","","","","","","","","","","","",""
"","iti_localizer","","html-keyboard-response","97","304439","0.0-2.0-7.1-1.1","25","64283","Male","null","","","","null","","5","","","304133","0","","","","","","300","14400","306","14741","300","","","","","","","","","","","","","","","","","","","","","","","","","","","","","","","","","","","","","","","","","","","","","","","","","","","",""
"","localizer","","html-keyboard-response","98","304847","0.0-2.0-7.2-0.2","25","64283","Male","NaN","","","","null","NaN","5","","Stimuli/Practice_stims/Localizer/yassine-khalfalli-adsQ9d_Cx0c-unsplash.jpg","304439","0","NaN","","0","1","0","400","14700","408","15047","","","","","","","","","","","","","","","","","","","","","","","","","","","","","","","","","","","","","","","","","","","","","","","","","","","","",""
"","iti_localizer","","html-keyboard-response","99","305157","0.0-2.0-7.2-1.2","25","64283","Male","null","","","","null","","5","","","304847","0","","","","","","300","15100","310","15455","300","","","","","","","","","","","","","","","","","","","","","","","","","","","","","","","","","","","","","","","","","","","","","","","","","","","",""
"","localizer","","html-keyboard-response","100","305567","0.0-2.0-7.3-0.3","25","64283","Male","NaN","","","","null","NaN","5","","Stimuli/Practice_stims/Localizer/yassine-khalfalli-adsQ9d_Cx0c-unsplash.jpg","305157","0","NaN","","0","1","0","400","15400","410","15765","","","","","","","","","","","","","","","","","","","","","","","","","","","","","","","","","","","","","","","","","","","","","","","","","","","","",""
"","iti_localizer","","html-keyboard-response","101","305872","0.0-2.0-7.3-1.3","25","64283","Male","null","","","","null","","5","","","305567","0","","","","","","300","15800","305","16175","300","","","","","","","","","","","","","","","","","","","","","","","","","","","","","","","","","","","","","","","","","","","","","","","","","","","",""
"","localizer","","html-keyboard-response","102","306277","0.0-2.0-7.4-0.4","25","64283","Male","NaN","","","","null","NaN","5","","Stimuli/Practice_stims/Localizer/yassine-khalfalli-adsQ9d_Cx0c-unsplash.jpg","305872","0","NaN","","0","1","0","400","16100","405","16480","","","","","","","","","","","","","","","","","","","","","","","","","","","","","","","","","","","","","","","","","","","","","","","","","","","","",""
"","iti_localizer","","html-keyboard-response","103","306586","0.0-2.0-7.4-1.4","25","64283","Male","null","","","","null","","5","","","306277","0","","","","","","300","16500","309","16885","300","","","","","","","","","","","","","","","","","","","","","","","","","","","","","","","","","","","","","","","","","","","","","","","","","","","",""
"","localizer","","html-keyboard-response","104","306998","0.0-2.0-7.5-0.5","25","64283","Male","NaN","","","","null","NaN","5","","Stimuli/Practice_stims/Localizer/yassine-khalfalli-adsQ9d_Cx0c-unsplash.jpg","306586","0","NaN","","0","1","0","400","16800","412","17194","","","","","","","","","","","","","","","","","","","","","","","","","","","","","","","","","","","","","","","","","","","","","","","","","","","","",""
"","iti_localizer","","html-keyboard-response","105","307304","0.0-2.0-7.5-1.5","25","64283","Male","null","","","","null","","5","","","306998","0","","","","","","300","17200","306","17606","300","","","","","","","","","","","","","","","","","","","","","","","","","","","","","","","","","","","","","","","","","","","","","","","","","","","",""
"","localizer","","html-keyboard-response","106","307710","0.0-2.0-7.6-0.6","25","64283","Male","NaN","","","","null","NaN","5","","Stimuli/Practice_stims/Localizer/yassine-khalfalli-adsQ9d_Cx0c-unsplash.jpg","307304","0","NaN","","0","1","0","400","17500","406","17912","","","","","","","","","","","","","","","","","","","","","","","","","","","","","","","","","","","","","","","","","","","","","","","","","","","","",""
"","iti_localizer","","html-keyboard-response","107","308016","0.0-2.0-7.6-1.6","25","64283","Male","null","","","","null","","5","","","307710","0","","","","","","300","17900","306","18318","300","","","","","","","","","","","","","","","","","","","","","","","","","","","","","","","","","","","","","","","","","","","","","","","","","","","",""
"","localizer","","html-keyboard-response","108","308420","0.0-2.0-7.7-0.7","25","64283","Male","NaN","","","","null","NaN","5","","Stimuli/Practice_stims/Localizer/yassine-khalfalli-adsQ9d_Cx0c-unsplash.jpg","308016","0","NaN","","0","1","0","400","18200","404","18624","","","","","","","","","","","","","","","","","","","","","","","","","","","","","","","","","","","","","","","","","","","","","","","","","","","","",""
"","iti_localizer","","html-keyboard-response","109","308729","0.0-2.0-7.7-1.7","25","64283","Male","null","","","","null","","5","","","308420","0","","","","","","300","18600","309","19028","300","","","","","","","","","","","","","","","","","","","","","","","","","","","","","","","","","","","","","","","","","","","","","","","","","","","",""
"","localizer","","html-keyboard-response","110","309138","0.0-2.0-7.8-0.8","25","64283","Male","NaN","","","","null","NaN","5","","Stimuli/Practice_stims/Localizer/yassine-khalfalli-adsQ9d_Cx0c-unsplash.jpg","308729","0","NaN","","0","1","0","400","18900","409","19337","","","","","","","","","","","","","","","","","","","","","","","","","","","","","","","","","","","","","","","","","","","","","","","","","","","","",""
"","iti_localizer","","html-keyboard-response","111","309444","0.0-2.0-7.8-1.8","25","64283","Male","null","","","","null","","5","","","309138","0","","","","","","300","19300","306","19746","300","","","","","","","","","","","","","","","","","","","","","","","","","","","","","","","","","","","","","","","","","","","","","","","","","","","",""
"","localizer","","html-keyboard-response","112","309854","0.0-2.0-7.9-0.9","25","64283","Male","NaN","","","","null","NaN","5","","Stimuli/Practice_stims/Localizer/yassine-khalfalli-adsQ9d_Cx0c-unsplash.jpg","309444","0","NaN","","0","1","0","400","19600","410","20052","","","","","","","","","","","","","","","","","","","","","","","","","","","","","","","","","","","","","","","","","","","","","","","","","","","","",""
"","iti_localizer","","html-keyboard-response","113","310162","0.0-2.0-7.9-1.9","25","64283","Male","null","","","","null","","5","","","309854","0","","","","","","300","20000","308","20462","300","","","","","","","","","","","","","","","","","","","","","","","","","","","","","","","","","","","","","","","","","","","","","","","","","","","",""
"","localizer","","html-keyboard-response","114","310570","0.0-2.0-7.10-0.10","25","64283","Male","298","","","","68","0","5","","Stimuli/Practice_stims/Localizer/yassine-khalfalli-adsQ9d_Cx0c-unsplash.jpg","310162","0","NaN","","0","0","1","400","20300","408","20770","","","","","","","","","","","","","","","","","","","","","","","","","","","","","","","","","","","","","","","","","","","","","","","","","","","","",""
"","iti_localizer","","html-keyboard-response","115","310874","0.0-2.0-7.10-1.10","25","64283","Male","null","","","","null","","5","","","310570","0","","","","","","300","20700","304","21178","300","","","","","","","","","","","","","","","","","","","","","","","","","","","","","","","","","","","","","","","","","","","","","","","","","","","",""
"","practice_over","","html-keyboard-response","116","313922","0.0-2.0-7.10-2.10-0.10","25","64283","Male","3042","","","","68","","","","","","","","","","","","","","","","","","","","","","","","","","","","","","","","","","","","","","","","","","","","","","","","","","","","","","","","","","","","","","","","","","","",""
"","start_run","","html-keyboard-response","117","317554","0.0-2.0-7.10-2.10-1.10","25","64283","Male","3626","","","","84","","","","","","","","","","","","","","","","","","","","","","","","","","","","","","","","","","","","","","","","","","","","","","","","","","","","","","","","","","","","","","","","","","","",""
"","localizer","","html-keyboard-response","118","317960","0.0-2.0-8.0-0.0","25","64283","Male","NaN","","","","null","NaN","6","","Stimuli/Experimental_stims/localizer/faces/allef-vinicius-C_1jjFJioWg-unsplash.jpg","317554","1","faces","","0","1","0","400","0","406","0","","","","","","","","","","","","","","","","","","","","","","","","","","","","","","","","","","","","","","","","","","","","","","","","","","","","",""
"","iti_localizer","","html-keyboard-response","119","318270","0.0-2.0-8.0-1.0","25","64283","Male","null","","","","null","","6","","","317960","1","","","","","","300","400","310","406","300","","","","","","","","","","","","","","","","","","","","","","","","","","","","","","","","","","","","","","","","","","","","","","","","","","","",""
"","localizer","","html-keyboard-response","120","318677","0.0-2.0-9.0-0.0","25","64283","Male","NaN","","","","null","NaN","7","","Stimuli/Experimental_stims/localizer/faces/ayo-ogunseinde-sibVwORYqs0-unsplash.jpg","318270","1","faces","","1","1","0","400","700","407","716","","","","","","","","","","","","","","","","","","","","","","","","","","","","","","","","","","","","","","","","","","","","","","","","","","","","",""
"","iti_localizer","","html-keyboard-response","121","318989","0.0-2.0-9.0-1.0","25","64283","Male","null","","","","null","","7","","","318677","1","","","","","","300","1100","312","1123","300","","","","","","","","","","","","","","","","","","","","","","","","","","","","","","","","","","","","","","","","","","","","","","","","","","","",""
"","localizer","","html-keyboard-response","122","319396","0.0-2.0-10.0-0.0","25","64283","Male","206","","","","75","1","8","","Stimuli/Experimental_stims/localizer/faces/abstral-official-cyOKLSgkgCE-unsplash.jpg","318989","1","faces","","0","0","0","400","1400","407","1435","","","","","","","","","","","","","","","","","","","","","","","","","","","","","","","","","","","","","","","","","","","","","","","","","","","","",""
"","iti_localizer","","html-keyboard-response","123","319702","0.0-2.0-10.0-1.0","25","64283","Male","null","","","","null","","8","","","319396","1","","","","","","300","1800","306","1842","300","","","","","","","","","","","","","","","","","","","","","","","","","","","","","","","","","","","","","","","","","","","","","","","","","","","",""
"","localizer","","html-keyboard-response","124","320108","0.0-2.0-11.0-0.0","25","64283","Male","148","","","","68","0","9","","Stimuli/Experimental_stims/localizer/faces/hisu-lee-2qvxIr_DXGo-unsplash.jpg","319702","1","faces","","0","0","1","400","2100","406","2148","","","","","","","","","","","","","","","","","","","","","","","","","","","","","","","","","","","","","","","","","","","","","","","","","","","","",""
"","iti_localizer","","html-keyboard-response","125","320413","0.0-2.0-11.0-1.0","25","64283","Male","null","","","","null","","9","","","320108","1","","","","","","300","2500","305","2554","300","","","","","","","","","","","","","","","","","","","","","","","","","","","","","","","","","","","","","","","","","","","","","","","","","","","",""
"","localizer","","html-keyboard-response","126","320820","0.0-2.0-12.0-0.0","25","64283","Male","NaN","","","","null","NaN","10","","Stimuli/Experimental_stims/localizer/faces/austin-wade-X6Uj51n5CE8-unsplash.jpg","320413","1","faces","","0","1","0","400","2800","407","2859","","","","","","","","","","","","","","","","","","","","","","","","","","","","","","","","","","","","","","","","","","","","","","","","","","","","",""
"","iti_localizer","","html-keyboard-response","127","321125","0.0-2.0-12.0-1.0","25","64283","Male","null","","","","null","","10","","","320820","1","","","","","","300","3200","305","3266","300","","","","","","","","","","","","","","","","","","","","","","","","","","","","","","","","","","","","","","","","","","","","","","","","","","","",""
"","localizer","","html-keyboard-response","128","321531","0.0-2.0-13.0-0.0","25","64283","Male","NaN","","","","null","NaN","11","","Stimuli/Experimental_stims/localizer/faces/darshan-patel-QJEVpydulGs-unsplash.jpg","321125","1","faces","","0","1","0","400","3500","406","3571","","","","","","","","","","","","","","","","","","","","","","","","","","","","","","","","","","","","","","","","","","","","","","","","","","","","",""
"","iti_localizer","","html-keyboard-response","129","321836","0.0-2.0-13.0-1.0","25","64283","Male","null","","","","null","","11","","","321531","1","","","","","","300","3900","305","3977","300","","","","","","","","","","","","","","","","","","","","","","","","","","","","","","","","","","","","","","","","","","","","","","","","","","","",""
"","localizer","","html-keyboard-response","130","322244","0.0-2.0-14.0-0.0","25","64283","Male","NaN","","","","null","NaN","12","","Stimuli/Experimental_stims/localizer/faces/aleksandar-popovski-Jy4ELSGPHTc-unsplash.jpg","321836","1","faces","","0","1","0","400","4200","408","4282","","","","","","","","","","","","","","","","","","","","","","","","","","","","","","","","","","","","","","","","","","","","","","","","","","","","",""
"","iti_localizer","","html-keyboard-response","131","322549","0.0-2.0-14.0-1.0","25","64283","Male","null","","","","null","","12","","","322244","1","","","","","","300","4600","305","4690","300","","","","","","","","","","","","","","","","","","","","","","","","","","","","","","","","","","","","","","","","","","","","","","","","","","","",""
"","localizer","","html-keyboard-response","132","322964","0.0-2.0-15.0-0.0","25","64283","Male","NaN","","","","null","NaN","13","","Stimuli/Experimental_stims/localizer/faces/ethan-haddox-__ng3cRXmFE-unsplash.jpg","322549","1","faces","","0","1","0","400","4900","415","4995","","","","","","","","","","","","","","","","","","","","","","","","","","","","","","","","","","","","","","","","","","","","","","","","","","","","",""
"","iti_localizer","","html-keyboard-response","133","323270","0.0-2.0-15.0-1.0","25","64283","Male","null","","","","null","","13","","","322964","1","","","","","","300","5300","306","5410","300","","","","","","","","","","","","","","","","","","","","","","","","","","","","","","","","","","","","","","","","","","","","","","","","","","","",""
"","localizer","","html-keyboard-response","134","323676","0.0-2.0-16.0-0.0","25","64283","Male","NaN","","","","null","NaN","14","","Stimuli/Experimental_stims/localizer/faces/jake-nackos-IF9TK5Uy-KI-unsplash.jpg","323270","1","faces","","0","1","0","400","5600","406","5716","","","","","","","","","","","","","","","","","","","","","","","","","","","","","","","","","","","","","","","","","","","","","","","","","","","","",""
"","iti_localizer","","html-keyboard-response","135","323979","0.0-2.0-16.0-1.0","25","64283","Male","null","","","","null","","14","","","323676","1","","","","","","300","6000","303","6122","300","","","","","","","","","","","","","","","","","","","","","","","","","","","","","","","","","","","","","","","","","","","","","","","","","","","",""
"","localizer","","html-keyboard-response","136","324384","0.0-2.0-17.0-0.0","25","64283","Male","NaN","","","","null","NaN","15","","Stimuli/Experimental_stims/localizer/faces/mubariz-mehdizadeh-o-wlIFT4zE4-unsplash.jpg","323979","1","faces","","0","1","0","400","6300","405","6425","","","","","","","","","","","","","","","","","","","","","","","","","","","","","","","","","","","","","","","","","","","","","","","","","","","","",""
"","iti_localizer","","html-keyboard-response","137","324693","0.0-2.0-17.0-1.0","25","64283","Male","null","","","","null","","15","","","324384","1","","","","","","300","6700","309","6830","300","","","","","","","","","","","","","","","","","","","","","","","","","","","","","","","","","","","","","","","","","","","","","","","","","","","",""
"","localizer","","html-keyboard-response","138","325105","0.0-2.0-18.0-0.0","25","64283","Male","NaN","","","","null","NaN","16","","Stimuli/Experimental_stims/localizer/faces/stephanie-nakagawa-ADSKIn0ScDg-unsplash.jpg","324693","1","faces","","0","1","0","400","7000","412","7139","","","","","","","","","","","","","","","","","","","","","","","","","","","","","","","","","","","","","","","","","","","","","","","","","","","","",""
"","iti_localizer","","html-keyboard-response","139","325414","0.0-2.0-18.0-1.0","25","64283","Male","null","","","","null","","16","","","325105","1","","","","","","300","7400","309","7551","300","","","","","","","","","","","","","","","","","","","","","","","","","","","","","","","","","","","","","","","","","","","","","","","","","","","",""
"","localizer","","html-keyboard-response","140","325821","0.0-2.0-19.0-0.0","25","64283","Male","NaN","","","","null","NaN","17","","Stimuli/Experimental_stims/localizer/faces/foto-sushi-6anudmpILw4-unsplash.jpg","325414","1","faces","","0","1","0","400","7700","407","7860","","","","","","","","","","","","","","","","","","","","","","","","","","","","","","","","","","","","","","","","","","","","","","","","","","","","",""
"","iti_localizer","","html-keyboard-response","141","326127","0.0-2.0-19.0-1.0","25","64283","Male","null","","","","null","","17","","","325821","1","","","","","","300","8100","306","8267","300","","","","","","","","","","","","","","","","","","","","","","","","","","","","","","","","","","","","","","","","","","","","","","","","","","","",""
"","localizer","","html-keyboard-response","142","326532","0.0-2.0-20.0-0.0","25","64283","Male","NaN","","","","null","NaN","18","","Stimuli/Experimental_stims/localizer/faces/samuel-dixon--fQ5XNOcqFQ-unsplash.jpg","326127","1","faces","","0","1","0","400","8400","405","8573","","","","","","","","","","","","","","","","","","","","","","","","","","","","","","","","","","","","","","","","","","","","","","","","","","","","",""
"","iti_localizer","","html-keyboard-response","143","326837","0.0-2.0-20.0-1.0","25","64283","Male","null","","","","null","","18","","","326532","1","","","","","","300","8800","305","8978","300","","","","","","","","","","","","","","","","","","","","","","","","","","","","","","","","","","","","","","","","","","","","","","","","","","","",""
"","localizer","","html-keyboard-response","144","327242","0.0-2.0-21.0-0.0","25","64283","Male","NaN","","","","null","NaN","19","","Stimuli/Experimental_stims/localizer/faces/jeffery-erhunse-vp9mRauo68c-unsplash.jpg","326837","1","faces","","0","1","0","400","9100","405","9283","","","","","","","","","","","","","","","","","","","","","","","","","","","","","","","","","","","","","","","","","","","","","","","","","","","","",""
"","iti_localizer","","html-keyboard-response","145","327546","0.0-2.0-21.0-1.0","25","64283","Male","null","","","","null","","19","","","327242","1","","","","","","300","9500","304","9688","300","","","","","","","","","","","","","","","","","","","","","","","","","","","","","","","","","","","","","","","","","","","","","","","","","","","",""
"","localizer","","html-keyboard-response","146","327949","0.0-2.0-22.0-0.0","25","64283","Male","386","","","","68","0","20","","Stimuli/Experimental_stims/localizer/faces/ayo-ogunseinde-6W4F62sN_yI-unsplash.jpg","327546","1","faces","","0","0","1","400","9800","403","9992","","","","","","","","","","","","","","","","","","","","","","","","","","","","","","","","","","","","","","","","","","","","","","","","","","","","",""
"","iti_localizer","","html-keyboard-response","147","328254","0.0-2.0-22.0-1.0","25","64283","Male","null","","","","null","","20","","","327949","1","","","","","","300","10200","305","10395","300","","","","","","","","","","","","","","","","","","","","","","","","","","","","","","","","","","","","","","","","","","","","","","","","","","","",""
"","localizer","","html-keyboard-response","148","328659","0.0-2.0-23.0-0.0","25","64283","Male","376","","","","68","0","21","","Stimuli/Experimental_stims/localizer/faces/whereslugo-zl_fPgiwduo-unsplash.jpg","328254","1","faces","","0","0","1","400","10500","405","10700","","","","","","","","","","","","","","","","","","","","","","","","","","","","","","","","","","","","","","","","","","","","","","","","","","","","",""
"","iti_localizer","","html-keyboard-response","149","328971","0.0-2.0-23.0-1.0","25","64283","Male","null","","","","null","","21","","","328659","1","","","","","","300","10900","312","11105","300","","","","","","","","","","","","","","","","","","","","","","","","","","","","","","","","","","","","","","","","","","","","","","","","","","","",""
"","localizer","","html-keyboard-response","150","329382","0.0-2.0-24.0-0.0","25","64283","Male","NaN","","","","null","NaN","22","","Stimuli/Experimental_stims/localizer/faces/chanvre-quebec-mXu1SpzHq6w-unsplash.jpg","328971","1","faces","","0","1","0","400","11200","411","11417","","","","","","","","","","","","","","","","","","","","","","","","","","","","","","","","","","","","","","","","","","","","","","","","","","","","",""
"","iti_localizer","","html-keyboard-response","151","329691","0.0-2.0-24.0-1.0","25","64283","Male","null","","","","null","","22","","","329382","1","","","","","","300","11600","309","11828","300","","","","","","","","","","","","","","","","","","","","","","","","","","","","","","","","","","","","","","","","","","","","","","","","","","","",""
"","localizer","","html-keyboard-response","152","330101","0.0-2.0-25.0-0.0","25","64283","Male","NaN","","","","null","NaN","23","","Stimuli/Experimental_stims/localizer/faces/ian-dooley-d1UPkiFd04A-unsplash.jpg","329691","1","faces","","0","1","0","400","11900","410","12137","","","","","","","","","","","","","","","","","","","","","","","","","","","","","","","","","","","","","","","","","","","","","","","","","","","","",""
"","iti_localizer","","html-keyboard-response","153","330409","0.0-2.0-25.0-1.0","25","64283","Male","null","","","","null","","23","","","330101","1","","","","","","300","12300","308","12547","300","","","","","","","","","","","","","","","","","","","","","","","","","","","","","","","","","","","","","","","","","","","","","","","","","","","",""
"","localizer","","html-keyboard-response","154","330816","0.0-2.0-26.0-0.0","25","64283","Male","NaN","","","","null","NaN","24","","Stimuli/Experimental_stims/localizer/faces/matheus-ferrero-W7b3eDUb_2I-unsplash.jpg","330409","1","faces","","1","1","0","400","12600","407","12855","","","","","","","","","","","","","","","","","","","","","","","","","","","","","","","","","","","","","","","","","","","","","","","","","","","","",""
"","iti_localizer","","html-keyboard-response","155","331126","0.0-2.0-26.0-1.0","25","64283","Male","null","","","","null","","24","","","330816","1","","","","","","300","13000","310","13262","300","","","","","","","","","","","","","","","","","","","","","","","","","","","","","","","","","","","","","","","","","","","","","","","","","","","",""
"","localizer","","html-keyboard-response","156","331532","0.0-2.0-27.0-0.0","25","64283","Male","NaN","","","","null","NaN","25","","Stimuli/Experimental_stims/localizer/faces/jeffery-erhunse-BQMZ5ligqps-unsplash.jpg","331126","1","faces","","0","1","0","400","13300","406","13572","","","","","","","","","","","","","","","","","","","","","","","","","","","","","","","","","","","","","","","","","","","","","","","","","","","","",""
"","iti_localizer","","html-keyboard-response","157","345539","0.0-2.0-27.0-1.0","25","64283","Male","null","","","","null","","25","","","331532","1","","","","","","14000","13700","14007","13978","14000","","","","","","","","","","","","","","","","","","","","","","","","","","","","","","","","","","","","","","","","","","","","","","","","","","","",""
"","localizer","","html-keyboard-response","158","345946","0.0-2.0-28.0-0.0","25","64283","Male","NaN","","","","null","NaN","26","","Stimuli/Experimental_stims/localizer/body_parts/jeremy-bishop-mLd3hAaH2ns-unsplash.jpg","345539","1","body_parts","","0","1","0","400","27700","407","27985","","","","","","","","","","","","","","","","","","","","","","","","","","","","","","","","","","","","","","","","","","","","","","","","","","","","",""
"","iti_localizer","","html-keyboard-response","159","346253","0.0-2.0-28.0-1.0","25","64283","Male","null","","","","null","","26","","","345946","1","","","","","","300","28100","307","28392","300","","","","","","","","","","","","","","","","","","","","","","","","","","","","","","","","","","","","","","","","","","","","","","","","","","","",""
"","localizer","","html-keyboard-response","160","346661","0.0-2.0-29.0-0.0","25","64283","Male","NaN","","","","null","NaN","27","","Stimuli/Experimental_stims/localizer/body_parts/sincerely-media-3DZHTq_i7Qk-unsplash.jpg","346253","1","body_parts","","0","1","0","400","28400","408","28699","","","","","","","","","","","","","","","","","","","","","","","","","","","","","","","","","","","","","","","","","","","","","","","","","","","","",""
"","iti_localizer","","html-keyboard-response","161","346965","0.0-2.0-29.0-1.0","25","64283","Male","null","","","","null","","27","","","346661","1","","","","","","300","28800","304","29107","300","","","","","","","","","","","","","","","","","","","","","","","","","","","","","","","","","","","","","","","","","","","","","","","","","","","",""
"","localizer","","html-keyboard-response","162","347371","0.0-2.0-30.0-0.0","25","64283","Male","375","","","","68","0","28","","Stimuli/Experimental_stims/localizer/body_parts/nick-page-jAGdpOGvLAA-unsplash.jpg","346965","1","body_parts","","0","0","1","400","29100","406","29411","","","","","","","","","","","","","","","","","","","","","","","","","","","","","","","","","","","","","","","","","","","","","","","","","","","","",""
"","iti_localizer","","html-keyboard-response","163","347676","0.0-2.0-30.0-1.0","25","64283","Male","null","","","","null","","28","","","347371","1","","","","","","300","29500","305","29817","300","","","","","","","","","","","","","","","","","","","","","","","","","","","","","","","","","","","","","","","","","","","","","","","","","","","",""
"","localizer","","html-keyboard-response","164","348082","0.0-2.0-31.0-0.0","25","64283","Male","NaN","","","","null","NaN","29","","Stimuli/Experimental_stims/localizer/body_parts/priscilla-du-preez-e6fcNpur53A-unsplash.jpg","347676","1","body_parts","","1","1","0","400","29800","406","30122","","","","","","","","","","","","","","","","","","","","","","","","","","","","","","","","","","","","","","","","","","","","","","","","","","","","",""
"","iti_localizer","","html-keyboard-response","165","348387","0.0-2.0-31.0-1.0","25","64283","Male","null","","","","null","","29","","","348082","1","","","","","","300","30200","305","30528","300","","","","","","","","","","","","","","","","","","","","","","","","","","","","","","","","","","","","","","","","","","","","","","","","","","","",""
"","localizer","","html-keyboard-response","166","348794","0.0-2.0-32.0-0.0","25","64283","Male","369","","","","68","0","30","","Stimuli/Experimental_stims/localizer/body_parts/lilartsy-1KkhQ8uL28g-unsplash.jpg","348387","1","body_parts","","0","0","1","400","30500","407","30833","","","","","","","","","","","","","","","","","","","","","","","","","","","","","","","","","","","","","","","","","","","","","","","","","","","","",""
"","iti_localizer","","html-keyboard-response","167","349100","0.0-2.0-32.0-1.0","25","64283","Male","null","","","","null","","30","","","348794","1","","","","","","300","30900","306","31240","300","","","","","","","","","","","","","","","","","","","","","","","","","","","","","","","","","","","","","","","","","","","","","","","","","","","",""
"","localizer","","html-keyboard-response","168","349507","0.0-2.0-33.0-0.0","25","64283","Male","NaN","","","","null","NaN","31","","Stimuli/Experimental_stims/localizer/body_parts/sippakorn-yamkasikorn-32_sJlJa5gA-unsplash.jpg","349100","1","body_parts","","0","1","0","400","31200","407","31546","","","","","","","","","","","","","","","","","","","","","","","","","","","","","","","","","","","","","","","","","","","","","","","","","","","","",""
"","iti_localizer","","html-keyboard-response","169","349815","0.0-2.0-33.0-1.0","25","64283","Male","null","","","","null","","31","","","349507","1","","","","","","300","31600","308","31953","300","","","","","","","","","","","","","","","","","","","","","","","","","","","","","","","","","","","","","","","","","","","","","","","","","","","",""
"","localizer","","html-keyboard-response","170","350223","0.0-2.0-34.0-0.0","25","64283","Male","NaN","","","","null","NaN","32","","Stimuli/Experimental_stims/localizer/body_parts/meghan-thompson-U1b8OB0QpIo-unsplash.jpg","349815","1","body_parts","","0","1","0","400","31900","408","32261","","","","","","","","","","","","","","","","","","","","","","","","","","","","","","","","","","","","","","","","","","","","","","","","","","","","",""
"","iti_localizer","","html-keyboard-response","171","350533","0.0-2.0-34.0-1.0","25","64283","Male","null","","","","null","","32","","","350223","1","","","","","","300","32300","310","32669","300","","","","","","","","","","","","","","","","","","","","","","","","","","","","","","","","","","","","","","","","","","","","","","","","","","","",""
"","localizer","","html-keyboard-response","172","350939","0.0-2.0-35.0-0.0","25","64283","Male","NaN","","","","null","NaN","33","","Stimuli/Experimental_stims/localizer/body_parts/semen-zhuravlev-_XxH_mV8dnk-unsplash (1).jpg","350533","1","body_parts","","0","1","0","400","32600","406","32979","","","","","","","","","","","","","","","","","","","","","","","","","","","","","","","","","","","","","","","","","","","","","","","","","","","","",""
"","iti_localizer","","html-keyboard-response","173","351243","0.0-2.0-35.0-1.0","25","64283","Male","null","","","","null","","33","","","350939","1","","","","","","300","33000","304","33385","300","","","","","","","","","","","","","","","","","","","","","","","","","","","","","","","","","","","","","","","","","","","","","","","","","","","",""
"","localizer","","html-keyboard-response","174","351648","0.0-2.0-36.0-0.0","25","64283","Male","369","","","","68","0","34","","Stimuli/Experimental_stims/localizer/body_parts/betzy-arosemena-YHdgnygtVCQ-unsplash.jpg","351243","1","body_parts","","0","0","1","400","33300","405","33689","","","","","","","","","","","","","","","","","","","","","","","","","","","","","","","","","","","","","","","","","","","","","","","","","","","","",""
"","iti_localizer","","html-keyboard-response","175","351954","0.0-2.0-36.0-1.0","25","64283","Male","null","","","","null","","34","","","351648","1","","","","","","300","33700","306","34094","300","","","","","","","","","","","","","","","","","","","","","","","","","","","","","","","","","","","","","","","","","","","","","","","","","","","",""
"","localizer","","html-keyboard-response","176","352358","0.0-2.0-37.0-0.0","25","64283","Male","NaN","","","","null","NaN","35","","Stimuli/Experimental_stims/localizer/body_parts/davidcohen-qghuLqyh3nE-unsplash.jpg","351954","1","body_parts","","0","1","0","400","34000","404","34400","","","","","","","","","","","","","","","","","","","","","","","","","","","","","","","","","","","","","","","","","","","","","","","","","","","","",""
"","iti_localizer","","html-keyboard-response","177","352672","0.0-2.0-37.0-1.0","25","64283","Male","null","","","","null","","35","","","352358","1","","","","","","300","34400","314","34804","300","","","","","","","","","","","","","","","","","","","","","","","","","","","","","","","","","","","","","","","","","","","","","","","","","","","",""
"","localizer","","html-keyboard-response","178","353085","0.0-2.0-38.0-0.0","25","64283","Male","NaN","","","","null","NaN","36","","Stimuli/Experimental_stims/localizer/body_parts/niu-niu-5HzOtV-FSlw-unsplash.jpg","352672","1","body_parts","","0","1","0","400","34700","413","35118","","","","","","","","","","","","","","","","","","","","","","","","","","","","","","","","","","","","","","","","","","","","","","","","","","","","",""
"","iti_localizer","","html-keyboard-response","179","353406","0.0-2.0-38.0-1.0","25","64283","Male","null","","","","null","","36","","","353085","1","","","","","","300","35100","321","35531","300","","","","","","","","","","","","","","","","","","","","","","","","","","","","","","","","","","","","","","","","","","","","","","","","","","","",""
"","localizer","","html-keyboard-response","180","353817","0.0-2.0-39.0-0.0","25","64283","Male","NaN","","","","null","NaN","37","","Stimuli/Experimental_stims/localizer/body_parts/liv-bruce-M0oVPGsWk1E-unsplash.jpg","353406","1","body_parts","","0","1","0","400","35400","411","35852","","","","","","","","","","","","","","","","","","","","","","","","","","","","","","","","","","","","","","","","","","","","","","","","","","","","",""
"","iti_localizer","","html-keyboard-response","181","354125","0.0-2.0-39.0-1.0","25","64283","Male","null","","","","null","","37","","","353817","1","","","","","","300","35800","308","36263","300","","","","","","","","","","","","","","","","","","","","","","","","","","","","","","","","","","","","","","","","","","","","","","","","","","","",""
"","localizer","","html-keyboard-response","182","354540","0.0-2.0-40.0-0.0","25","64283","Male","NaN","","","","null","NaN","38","","Stimuli/Experimental_stims/localizer/body_parts/nick-page-WTNmgJtwzGI-unsplash.jpg","354125","1","body_parts","","0","1","0","400","36100","415","36571","","","","","","","","","","","","","","","","","","","","","","","","","","","","","","","","","","","","","","","","","","","","","","","","","","","","",""
"","iti_localizer","","html-keyboard-response","183","354846","0.0-2.0-40.0-1.0","25","64283","Male","null","","","","null","","38","","","354540","1","","","","","","300","36500","306","36986","300","","","","","","","","","","","","","","","","","","","","","","","","","","","","","","","","","","","","","","","","","","","","","","","","","","","",""
"","localizer","","html-keyboard-response","184","355251","0.0-2.0-41.0-0.0","25","64283","Male","NaN","","","","null","NaN","39","","Stimuli/Experimental_stims/localizer/body_parts/billie-5OXE3KjDEfI-unsplash.jpg","354846","1","body_parts","","0","1","0","400","36800","405","37292","","","","","","","","","","","","","","","","","","","","","","","","","","","","","","","","","","","","","","","","","","","","","","","","","","","","",""
"","iti_localizer","","html-keyboard-response","185","355557","0.0-2.0-41.0-1.0","25","64283","Male","null","","","","null","","39","","","355251","1","","","","","","300","37200","306","37697","300","","","","","","","","","","","","","","","","","","","","","","","","","","","","","","","","","","","","","","","","","","","","","","","","","","","",""
"","localizer","","html-keyboard-response","186","355963","0.0-2.0-42.0-0.0","25","64283","Male","366","","","","68","0","40","","Stimuli/Experimental_stims/localizer/body_parts/apostolos-vamvouras-g5wKHRu2QW0-unsplash.jpg","355557","1","body_parts","","0","0","1","400","37500","406","38003","","","","","","","","","","","","","","","","","","","","","","","","","","","","","","","","","","","","","","","","","","","","","","","","","","","","",""
"","iti_localizer","","html-keyboard-response","187","356273","0.0-2.0-42.0-1.0","25","64283","Male","null","","","","null","","40","","","355963","1","","","","","","300","37900","310","38409","300","","","","","","","","","","","","","","","","","","","","","","","","","","","","","","","","","","","","","","","","","","","","","","","","","","","",""
"","localizer","","html-keyboard-response","188","356681","0.0-2.0-43.0-0.0","25","64283","Male","359","","","","68","0","41","","Stimuli/Experimental_stims/localizer/body_parts/david-fanuel-qnV8X7OViNY-unsplash.jpg","356273","1","body_parts","","0","0","1","400","38200","408","38719","","","","","","","","","","","","","","","","","","","","","","","","","","","","","","","","","","","","","","","","","","","","","","","","","","","","",""
"","iti_localizer","","html-keyboard-response","189","356985","0.0-2.0-43.0-1.0","25","64283","Male","null","","","","null","","41","","","356681","1","","","","","","300","38600","304","39127","300","","","","","","","","","","","","","","","","","","","","","","","","","","","","","","","","","","","","","","","","","","","","","","","","","","","",""
"","localizer","","html-keyboard-response","190","357390","0.0-2.0-44.0-0.0","25","64283","Male","339","","","","68","0","42","","Stimuli/Experimental_stims/localizer/body_parts/nattalia-nunez-MB9sdDfZMSg-unsplash.jpg","356985","1","body_parts","","0","0","1","400","38900","405","39431","","","","","","","","","","","","","","","","","","","","","","","","","","","","","","","","","","","","","","","","","","","","","","","","","","","","",""
"","iti_localizer","","html-keyboard-response","191","357696","0.0-2.0-44.0-1.0","25","64283","Male","null","","","","null","","42","","","357390","1","","","","","","300","39300","306","39836","300","","","","","","","","","","","","","","","","","","","","","","","","","","","","","","","","","","","","","","","","","","","","","","","","","","","",""
"","localizer","","html-keyboard-response","192","358103","0.0-2.0-45.0-0.0","25","64283","Male","325","","","","68","0","43","","Stimuli/Experimental_stims/localizer/body_parts/carlos-henrique-NAOJKwZswbs-unsplash.jpg","357696","1","body_parts","","0","0","1","400","39600","407","40142","","","","","","","","","","","","","","","","","","","","","","","","","","","","","","","","","","","","","","","","","","","","","","","","","","","","",""
"","iti_localizer","","html-keyboard-response","193","358410","0.0-2.0-45.0-1.0","25","64283","Male","null","","","","null","","43","","","358103","1","","","","","","300","40000","307","40549","300","","","","","","","","","","","","","","","","","","","","","","","","","","","","","","","","","","","","","","","","","","","","","","","","","","","",""
"","localizer","","html-keyboard-response","194","358816","0.0-2.0-46.0-0.0","25","64283","Male","NaN","","","","null","NaN","44","","Stimuli/Experimental_stims/localizer/body_parts/jeremy-yap-TfJEi17kA0w-unsplash.jpg","358410","1","body_parts","","1","1","0","400","40300","406","40856","","","","","","","","","","","","","","","","","","","","","","","","","","","","","","","","","","","","","","","","","","","","","","","","","","","","",""
"","iti_localizer","","html-keyboard-response","195","359122","0.0-2.0-46.0-1.0","25","64283","Male","null","","","","null","","44","","","358816","1","","","","","","300","40700","306","41262","300","","","","","","","","","","","","","","","","","","","","","","","","","","","","","","","","","","","","","","","","","","","","","","","","","","","",""
"","localizer","","html-keyboard-response","196","359528","0.0-2.0-47.0-0.0","25","64283","Male","NaN","","","","null","NaN","45","","Stimuli/Experimental_stims/localizer/body_parts/danie-franco-jyyNiSEcCl4-unsplash.jpg","359122","1","body_parts","","0","1","0","400","41000","406","41568","","","","","","","","","","","","","","","","","","","","","","","","","","","","","","","","","","","","","","","","","","","","","","","","","","","","",""
"","iti_localizer","","html-keyboard-response","197","373534","0.0-2.0-47.0-1.0","25","64283","Male","null","","","","null","","45","","","359528","1","","","","","","14000","41400","14006","41974","14000","","","","","","","","","","","","","","","","","","","","","","","","","","","","","","","","","","","","","","","","","","","","","","","","","","","",""
"","localizer","","html-keyboard-response","198","373940","0.0-2.0-48.0-0.0","25","64283","Male","NaN","","","","null","NaN","46","","Stimuli/Experimental_stims/localizer/objects/chris-briggs-x9TCnxNBofE-unsplash.jpg","373534","1","objects","","0","1","0","400","55400","406","55980","","","","","","","","","","","","","","","","","","","","","","","","","","","","","","","","","","","","","","","","","","","","","","","","","","","","",""
"","iti_localizer","","html-keyboard-response","199","374245","0.0-2.0-48.0-1.0","25","64283","Male","null","","","","null","","46","","","373940","1","","","","","","300","55800","305","56386","300","","","","","","","","","","","","","","","","","","","","","","","","","","","","","","","","","","","","","","","","","","","","","","","","","","","",""
"","localizer","","html-keyboard-response","200","374652","0.0-2.0-49.0-0.0","25","64283","Male","NaN","","","","null","NaN","47","","Stimuli/Experimental_stims/localizer/objects/quino-al-8gWEAAXJjtI-unsplash.jpg","374245","1","objects","","0","1","0","400","56100","407","56691","","","","","","","","","","","","","","","","","","","","","","","","","","","","","","","","","","","","","","","","","","","","","","","","","","","","",""
"","iti_localizer","","html-keyboard-response","201","374962","0.0-2.0-49.0-1.0","25","64283","Male","null","","","","null","","47","","","374652","1","","","","","","300","56500","310","57098","300","","","","","","","","","","","","","","","","","","","","","","","","","","","","","","","","","","","","","","","","","","","","","","","","","","","",""
"","localizer","","html-keyboard-response","202","375374","0.0-2.0-50.0-0.0","25","64283","Male","395","","","","68","0","48","","Stimuli/Experimental_stims/localizer/objects/recha-oktaviani-t__61ap00Mc-unsplash.jpg","374962","1","objects","","0","0","1","400","56800","412","57408","","","","","","","","","","","","","","","","","","","","","","","","","","","","","","","","","","","","","","","","","","","","","","","","","","","","",""
"","iti_localizer","","html-keyboard-response","203","375683","0.0-2.0-50.0-1.0","25","64283","Male","null","","","","null","","48","","","375374","1","","","","","","300","57200","309","57820","300","","","","","","","","","","","","","","","","","","","","","","","","","","","","","","","","","","","","","","","","","","","","","","","","","","","",""
"","localizer","","html-keyboard-response","204","376095","0.0-2.0-51.0-0.0","25","64283","Male","NaN","","","","null","NaN","49","","Stimuli/Experimental_stims/localizer/objects/kelly-jean-cKjbI0Y00X0-unsplash.jpg","375683","1","objects","","1","1","0","400","57500","412","58129","","","","","","","","","","","","","","","","","","","","","","","","","","","","","","","","","","","","","","","","","","","","","","","","","","","","",""
"","iti_localizer","","html-keyboard-response","205","376404","0.0-2.0-51.0-1.0","25","64283","Male","null","","","","null","","49","","","376095","1","","","","","","300","57900","309","58541","300","","","","","","","","","","","","","","","","","","","","","","","","","","","","","","","","","","","","","","","","","","","","","","","","","","","",""
"","localizer","","html-keyboard-response","206","376812","0.0-2.0-52.0-0.0","25","64283","Male","NaN","","","","null","NaN","50","","Stimuli/Experimental_stims/localizer/objects/mockup-graphics-Pj2PY-E-LfM-unsplash.jpg","376404","1","objects","","0","1","0","400","58200","408","58850","","","","","","","","","","","","","","","","","","","","","","","","","","","","","","","","","","","","","","","","","","","","","","","","","","","","",""
"","iti_localizer","","html-keyboard-response","207","377118","0.0-2.0-52.0-1.0","25","64283","Male","null","","","","null","","50","","","376812","1","","","","","","300","58600","306","59258","300","","","","","","","","","","","","","","","","","","","","","","","","","","","","","","","","","","","","","","","","","","","","","","","","","","","",""
"","localizer","","html-keyboard-response","208","377523","0.0-2.0-53.0-0.0","25","64283","Male","NaN","","","","null","NaN","51","","Stimuli/Experimental_stims/localizer/objects/andrew-petrov-TVJqDat4MAw-unsplash.jpg","377118","1","objects","","0","1","0","400","58900","405","59564","","","","","","","","","","","","","","","","","","","","","","","","","","","","","","","","","","","","","","","","","","","","","","","","","","","","",""
"","iti_localizer","","html-keyboard-response","209","377832","0.0-2.0-53.0-1.0","25","64283","Male","null","","","","null","","51","","","377523","1","","","","","","300","59300","309","59969","300","","","","","","","","","","","","","","","","","","","","","","","","","","","","","","","","","","","","","","","","","","","","","","","","","","","",""
"","localizer","","html-keyboard-response","210","378239","0.0-2.0-54.0-0.0","25","64283","Male","NaN","","","","null","NaN","52","","Stimuli/Experimental_stims/localizer/objects/ignat-dolomanov-kFBDVnmskPA-unsplash.jpg","377832","1","objects","","0","1","0","400","59600","407","60278","","","","","","","","","","","","","","","","","","","","","","","","","","","","","","","","","","","","","","","","","","","","","","","","","","","","",""
"","iti_localizer","","html-keyboard-response","211","378547","0.0-2.0-54.0-1.0","25","64283","Male","null","","","","null","","52","","","378239","1","","","","","","300","60000","308","60685","300","","","","","","","","","","","","","","","","","","","","","","","","","","","","","","","","","","","","","","","","","","","","","","","","","","","",""
"","localizer","","html-keyboard-response","212","378953","0.0-2.0-55.0-0.0","25","64283","Male","NaN","","","","null","NaN","53","","Stimuli/Experimental_stims/localizer/objects/ana-9GmAaEMMKho-unsplash.jpg","378547","1","objects","","0","1","0","400","60300","406","60993","","","","","","","","","","","","","","","","","","","","","","","","","","","","","","","","","","","","","","","","","","","","","","","","","","","","",""
"","iti_localizer","","html-keyboard-response","213","379274","0.0-2.0-55.0-1.0","25","64283","Male","null","","","","null","","53","","","378953","1","","","","","","300","60700","321","61399","300","","","","","","","","","","","","","","","","","","","","","","","","","","","","","","","","","","","","","","","","","","","","","","","","","","","",""
"","localizer","","html-keyboard-response","214","379678","0.0-2.0-56.0-0.0","25","64283","Male","394","","","","68","0","54","","Stimuli/Experimental_stims/localizer/objects/yossy-made-yulian-WaEqwDSIeTY-unsplash.jpg","379274","1","objects","","0","0","1","400","61000","404","61720","","","","","","","","","","","","","","","","","","","","","","","","","","","","","","","","","","","","","","","","","","","","","","","","","","","","",""
"","iti_localizer","","html-keyboard-response","215","379983","0.0-2.0-56.0-1.0","25","64283","Male","null","","","","null","","54","","","379678","1","","","","","","300","61400","305","62124","300","","","","","","","","","","","","","","","","","","","","","","","","","","","","","","","","","","","","","","","","","","","","","","","","","","","",""
"","localizer","","html-keyboard-response","216","380392","0.0-2.0-57.0-0.0","25","64283","Male","382","","","","68","0","55","","Stimuli/Experimental_stims/localizer/objects/mockup-graphics-U6ZMEefFGx8-unsplash.jpg","379983","1","objects","","0","0","1","400","61700","409","62429","","","","","","","","","","","","","","","","","","","","","","","","","","","","","","","","","","","","","","","","","","","","","","","","","","","","",""
"","iti_localizer","","html-keyboard-response","217","380702","0.0-2.0-57.0-1.0","25","64283","Male","null","","","","null","","55","","","380392","1","","","","","","300","62100","310","62838","300","","","","","","","","","","","","","","","","","","","","","","","","","","","","","","","","","","","","","","","","","","","","","","","","","","","",""
"","localizer","","html-keyboard-response","218","381112","0.0-2.0-58.0-0.0","25","64283","Male","NaN","","","","null","NaN","56","","Stimuli/Experimental_stims/localizer/objects/raimond-klavins-ZdvDPXVvcKs-unsplash.jpg","380702","1","objects","","0","1","0","400","62400","410","63148","","","","","","","","","","","","","","","","","","","","","","","","","","","","","","","","","","","","","","","","","","","","","","","","","","","","",""
"","iti_localizer","","html-keyboard-response","219","381419","0.0-2.0-58.0-1.0","25","64283","Male","null","","","","null","","56","","","381112","1","","","","","","300","62800","307","63558","300","","","","","","","","","","","","","","","","","","","","","","","","","","","","","","","","","","","","","","","","","","","","","","","","","","","",""
"","localizer","","html-keyboard-response","220","381826","0.0-2.0-59.0-0.0","25","64283","Male","NaN","","","","null","NaN","57","","Stimuli/Experimental_stims/localizer/objects/sam-moghadam-khamseh-L_7MQsHl_aU-unsplash.jpg","381419","1","objects","","0","1","0","400","63100","407","63865","","","","","","","","","","","","","","","","","","","","","","","","","","","","","","","","","","","","","","","","","","","","","","","","","","","","",""
"","iti_localizer","","html-keyboard-response","221","382132","0.0-2.0-59.0-1.0","25","64283","Male","null","","","","null","","57","","","381826","1","","","","","","300","63500","306","64272","300","","","","","","","","","","","","","","","","","","","","","","","","","","","","","","","","","","","","","","","","","","","","","","","","","","","",""
"","localizer","","html-keyboard-response","222","382540","0.0-2.0-60.0-0.0","25","64283","Male","327","","","","68","0","58","","Stimuli/Experimental_stims/localizer/objects/engin-akyurt-bbbKzTmY2Gg-unsplash.jpg","382132","1","objects","","0","0","1","400","63800","408","64578","","","","","","","","","","","","","","","","","","","","","","","","","","","","","","","","","","","","","","","","","","","","","","","","","","","","",""
"","iti_localizer","","html-keyboard-response","223","382845","0.0-2.0-60.0-1.0","25","64283","Male","null","","","","null","","58","","","382540","1","","","","","","300","64200","305","64986","300","","","","","","","","","","","","","","","","","","","","","","","","","","","","","","","","","","","","","","","","","","","","","","","","","","","",""
"","localizer","","html-keyboard-response","224","383249","0.0-2.0-61.0-0.0","25","64283","Male","343","","","","75","1","59","","Stimuli/Experimental_stims/localizer/objects/eugene-chystiakov-3neSwyntbQ8-unsplash.jpg","382845","1","objects","","1","0","1","400","64500","404","65291","","","","","","","","","","","","","","","","","","","","","","","","","","","","","","","","","","","","","","","","","","","","","","","","","","","","",""
"","iti_localizer","","html-keyboard-response","225","383557","0.0-2.0-61.0-1.0","25","64283","Male","null","","","","null","","59","","","383249","1","","","","","","300","64900","308","65695","300","","","","","","","","","","","","","","","","","","","","","","","","","","","","","","","","","","","","","","","","","","","","","","","","","","","",""
"","localizer","","html-keyboard-response","226","383967","0.0-2.0-62.0-0.0","25","64283","Male","NaN","","","","null","NaN","60","","Stimuli/Experimental_stims/localizer/objects/mae-mu-yl2d0CKW130-unsplash.jpg","383557","1","objects","","0","1","0","400","65200","410","66003","","","","","","","","","","","","","","","","","","","","","","","","","","","","","","","","","","","","","","","","","","","","","","","","","","","","",""
"","iti_localizer","","html-keyboard-response","227","384276","0.0-2.0-62.0-1.0","25","64283","Male","null","","","","null","","60","","","383967","1","","","","","","300","65600","309","66413","300","","","","","","","","","","","","","","","","","","","","","","","","","","","","","","","","","","","","","","","","","","","","","","","","","","","",""
"","localizer","","html-keyboard-response","228","384683","0.0-2.0-63.0-0.0","25","64283","Male","NaN","","","","null","NaN","61","","Stimuli/Experimental_stims/localizer/objects/sam-moghadam-khamseh-kvmdsTrGOBM-unsplash.jpg","384276","1","objects","","0","1","0","400","65900","407","66722","","","","","","","","","","","","","","","","","","","","","","","","","","","","","","","","","","","","","","","","","","","","","","","","","","","","",""
"","iti_localizer","","html-keyboard-response","229","384989","0.0-2.0-63.0-1.0","25","64283","Male","null","","","","null","","61","","","384683","1","","","","","","300","66300","306","67129","300","","","","","","","","","","","","","","","","","","","","","","","","","","","","","","","","","","","","","","","","","","","","","","","","","","","",""
"","localizer","","html-keyboard-response","230","385395","0.0-2.0-64.0-0.0","25","64283","Male","NaN","","","","null","NaN","62","","Stimuli/Experimental_stims/localizer/objects/nordwood-themes-E9tFH39iRPE-unsplash.jpg","384989","1","objects","","0","1","0","400","66600","406","67435","","","","","","","","","","","","","","","","","","","","","","","","","","","","","","","","","","","","","","","","","","","","","","","","","","","","",""
"","iti_localizer","","html-keyboard-response","231","385702","0.0-2.0-64.0-1.0","25","64283","Male","null","","","","null","","62","","","385395","1","","","","","","300","67000","307","67841","300","","","","","","","","","","","","","","","","","","","","","","","","","","","","","","","","","","","","","","","","","","","","","","","","","","","",""
"","localizer","","html-keyboard-response","232","386114","0.0-2.0-65.0-0.0","25","64283","Male","NaN","","","","null","NaN","63","","Stimuli/Experimental_stims/localizer/objects/mockup-graphics-aUkYaG12Dgs-unsplash.jpg","385702","1","objects","","0","1","0","400","67300","412","68148","","","","","","","","","","","","","","","","","","","","","","","","","","","","","","","","","","","","","","","","","","","","","","","","","","","","",""
"","iti_localizer","","html-keyboard-response","233","386418","0.0-2.0-65.0-1.0","25","64283","Male","null","","","","null","","63","","","386114","1","","","","","","300","67700","304","68560","300","","","","","","","","","","","","","","","","","","","","","","","","","","","","","","","","","","","","","","","","","","","","","","","","","","","",""
"","localizer","","html-keyboard-response","234","386822","0.0-2.0-66.0-0.0","25","64283","Male","379","","","","68","0","64","","Stimuli/Experimental_stims/localizer/objects/maria-lupan-Rlakka_pZMU-unsplash.jpg","386418","1","objects","","0","0","1","400","68000","404","68864","","","","","","","","","","","","","","","","","","","","","","","","","","","","","","","","","","","","","","","","","","","","","","","","","","","","",""
"","iti_localizer","","html-keyboard-response","235","387128","0.0-2.0-66.0-1.0","25","64283","Male","null","","","","null","","64","","","386822","1","","","","","","300","68400","306","69268","300","","","","","","","","","","","","","","","","","","","","","","","","","","","","","","","","","","","","","","","","","","","","","","","","","","","",""
"","localizer","","html-keyboard-response","236","387532","0.0-2.0-67.0-0.0","25","64283","Male","363","","","","68","0","65","","Stimuli/Experimental_stims/localizer/objects/quaritsch-photography-lZ8onQ1wuY8-unsplash.jpg","387128","1","objects","","0","0","1","400","68700","404","69574","","","","","","","","","","","","","","","","","","","","","","","","","","","","","","","","","","","","","","","","","","","","","","","","","","","","",""
"","iti_localizer","","html-keyboard-response","237","401536","0.0-2.0-67.0-1.0","25","64283","Male","null","","","","null","","65","","","387532","1","","","","","","14000","69100","14004","69978","14000","","","","","","","","","","","","","","","","","","","","","","","","","","","","","","","","","","","","","","","","","","","","","","","","","","","",""
"","localizer","","html-keyboard-response","238","401942","0.0-2.0-68.0-0.0","25","64283","Male","NaN","","","","null","NaN","66","","Stimuli/Experimental_stims/localizer/faces/brooke-cagle-Nm70URdtf3c-unsplash (1).jpg","401536","1","faces","","0","1","0","400","83100","406","83982","","","","","","","","","","","","","","","","","","","","","","","","","","","","","","","","","","","","","","","","","","","","","","","","","","","","",""
"","iti_localizer","","html-keyboard-response","239","402248","0.0-2.0-68.0-1.0","25","64283","Male","null","","","","null","","66","","","401942","1","","","","","","300","83500","306","84388","300","","","","","","","","","","","","","","","","","","","","","","","","","","","","","","","","","","","","","","","","","","","","","","","","","","","",""
"","localizer","","html-keyboard-response","240","402654","0.0-2.0-69.0-0.0","25","64283","Male","340","","","","68","0","67","","Stimuli/Experimental_stims/localizer/faces/joseph-gonzalez-iFgRcqHznqg-unsplash.jpg","402248","1","faces","","0","0","1","400","83800","406","84694","","","","","","","","","","","","","","","","","","","","","","","","","","","","","","","","","","","","","","","","","","","","","","","","","","","","",""
"","iti_localizer","","html-keyboard-response","241","402963","0.0-2.0-69.0-1.0","25","64283","Male","null","","","","null","","67","","","402654","1","","","","","","300","84200","309","85100","300","","","","","","","","","","","","","","","","","","","","","","","","","","","","","","","","","","","","","","","","","","","","","","","","","","","",""
"","localizer","","html-keyboard-response","242","403382","0.0-2.0-70.0-0.0","25","64283","Male","337","","","","68","0","68","","Stimuli/Experimental_stims/localizer/faces/pavel-anoshin-d0peGya6R5Y-unsplash.jpg","402963","1","faces","","0","0","1","400","84500","419","85409","","","","","","","","","","","","","","","","","","","","","","","","","","","","","","","","","","","","","","","","","","","","","","","","","","","","",""
"","iti_localizer","","html-keyboard-response","243","403688","0.0-2.0-70.0-1.0","25","64283","Male","null","","","","null","","68","","","403382","1","","","","","","300","84900","306","85828","300","","","","","","","","","","","","","","","","","","","","","","","","","","","","","","","","","","","","","","","","","","","","","","","","","","","",""
"","localizer","","html-keyboard-response","244","404099","0.0-2.0-71.0-0.0","25","64283","Male","299","","","","68","0","69","","Stimuli/Experimental_stims/localizer/faces/alexis-chloe-TYDkKEgc0Fg-unsplash.jpg","403688","1","faces","","0","0","1","400","85200","411","86134","","","","","","","","","","","","","","","","","","","","","","","","","","","","","","","","","","","","","","","","","","","","","","","","","","","","",""
"","iti_localizer","","html-keyboard-response","245","404405","0.0-2.0-71.0-1.0","25","64283","Male","null","","","","null","","69","","","404099","1","","","","","","300","85600","306","86545","300","","","","","","","","","","","","","","","","","","","","","","","","","","","","","","","","","","","","","","","","","","","","","","","","","","","",""
"","localizer","","html-keyboard-response","246","404816","0.0-2.0-72.0-0.0","25","64283","Male","NaN","","","","null","NaN","70","","Stimuli/Experimental_stims/localizer/faces/aiony-haust-K0DxxljcRv0-unsplash.jpg","404405","1","faces","","1","1","0","400","85900","411","86851","","","","","","","","","","","","","","","","","","","","","","","","","","","","","","","","","","","","","","","","","","","","","","","","","","","","",""
"","iti_localizer","","html-keyboard-response","247","405126","0.0-2.0-72.0-1.0","25","64283","Male","null","","","","null","","70","","","404816","1","","","","","","300","86300","310","87262","300","","","","","","","","","","","","","","","","","","","","","","","","","","","","","","","","","","","","","","","","","","","","","","","","","","","",""
"","localizer","","html-keyboard-response","248","405533","0.0-2.0-73.0-0.0","25","64283","Male","387","","","","68","0","71","","Stimuli/Experimental_stims/localizer/faces/olena-sergienko-0TSd6uCKTKc-unsplash.jpg","405126","1","faces","","0","0","1","400","86600","407","87572","","","","","","","","","","","","","","","","","","","","","","","","","","","","","","","","","","","","","","","","","","","","","","","","","","","","",""
"","iti_localizer","","html-keyboard-response","249","405839","0.0-2.0-73.0-1.0","25","64283","Male","null","","","","null","","71","","","405533","1","","","","","","300","87000","306","87979","300","","","","","","","","","","","","","","","","","","","","","","","","","","","","","","","","","","","","","","","","","","","","","","","","","","","",""
