"success","ttype","start_time","trial_type","trial_index","time_elapsed","internal_node_id","age","PID","gender","rt","responses","view_history","repeat_instructions","key_press","response","index","stimulus_index","path","missed_checkup","start_time_elapsed","run","task","isi","is_odd_ball","no_response","acc","duration","onset","duration_time_elapsed","onset_time_elapsed","trial_duration","left_chosen","chosen_stimulus","unchosen_stimulus","chosen_category","unchosen_category","chosen_rating","unchosen_rating","chosen_path","unchosen_path","pair_id","practice","scramble_screen_time","scramble_instructed_side","stim_type","iti","block","left_stimulus","right_stimulus","left_category","right_category","left_path","right_path","left_rating","right_rating","warning","scramble_acc","scramble_no_response","stimulus_id","item_id","outcome","response_rt","deliberation_reward_tally","choice_type","gain_left","left_item_id","right_item_id","higher_outcome_chosen","chosen_left","old_pair","pair_type","old_response","pair_acc","reward_type","outcome_response","outcome_rt","outcome_acc","category","choice","deliberated_stim","old_rating","new_rating","total_reward_tally"
"true","full_screen","d08172023hr1534","fullscreen","0","8971","0.0-0.0-0.0","34","40201","male","","","","","","","","","","","","","","","","","","","","","","","","","","","","","","","","","","","","","","","","","","","","","","","","","","","","","","","","","","","","","","","","","","","","","","","","","",""
"","get_id","","survey-text","1","16021","0.0-0.0-1.0","34","40201","male","7035","{""Q0"":""34"",""Q1"":""male""}","","","","","","","","","","","","","","","","","","","","","","","","","","","","","","","","","","","","","","","","","","","","","","","","","","","","","","","","","","","","","","","","","","","","","","","",""
"","ratings_instructions","","instructions","2","26323","0.0-1.0-0.0-0.0","34","40201","male","8623","","[{""page_index"":0,""viewing_time"":5376},{""page_index"":1,""viewing_time"":3246}]","","","","","","","","","","","","","","","","","","","","","","","","","","","","","","","","","","","","","","","","","","","","","","","","","","","","","","","","","","","","","","","","","","","","","","",""
"","rating_comprehension_check","","survey-multi-choice","3","30813","0.0-1.0-0.0-1.0","34","40201","male","4473","{""Q0"":""True"",""Q1"":""Mouse""}","","0","","","","","","","","","","","","","","","","","","","","","","","","","","","","","","","","","","","","","","","","","","","","","","","","","","","","","","","","","","","","","","","","","","","","","",""
"","","","html-keyboard-response","4","33797","0.0-1.0-1.0","34","40201","male","2975","","","","68","","","","","","","","","","","","","","","","","","","","","","","","","","","","","","","","","","","","","","","","","","","","","","","","","","","","","","","","","","","","","","","","","","","","",""
"","rating","","html-slider-response","5","39240","0.0-1.0-2.0","34","40201","male","5427","","","","","85","0","28","Stimuli/Experimental_stims/body_parts/ira-vishnevskaya-8DQAvdCby1I-unsplash.jpg","","","","","","","","","","","","","","","","","","","","","","","","","","","","","","","","","","","","","","","","","","","","","","","","","","","","","","","","","","","","","","","","",""
"","rating","","html-slider-response","6","42776","0.0-1.0-3.0","34","40201","male","3520","","","","","81","1","4","Stimuli/Experimental_stims/outdoor_scenes/jarrett-kow-1ZOyYPOBn7I-unsplash.jpg","","","","","","","","","","","","","","","","","","","","","","","","","","","","","","","","","","","","","","","","","","","","","","","","","","","","","","","","","","","","","","","","",""
"","rating","","html-slider-response","7","46993","0.0-1.0-4.0","34","40201","male","4206","","","","","36","2","35","Stimuli/Experimental_stims/body_parts/wc-so-KH4AAPjb-tI-unsplash.jpg","","","","","","","","","","","","","","","","","","","","","","","","","","","","","","","","","","","","","","","","","","","","","","","","","","","","","","","","","","","","","","","","",""
"","rating","","html-slider-response","8","52845","0.0-1.0-5.0","34","40201","male","5841","","","","","62","3","47","Stimuli/Experimental_stims/objects/ronaldo-arthur-vidal-Cdz_lvnl37k-unsplash.jpg","","","","","","","","","","","","","","","","","","","","","","","","","","","","","","","","","","","","","","","","","","","","","","","","","","","","","","","","","","","","","","","","",""
"","rating","","html-slider-response","9","57049","0.0-1.0-6.0","34","40201","male","4191","","","","","69","4","9","Stimuli/Experimental_stims/outdoor_scenes/sergey-pesterev-y-b_FOmJXdg-unsplash.jpg","","","","","","","","","","","","","","","","","","","","","","","","","","","","","","","","","","","","","","","","","","","","","","","","","","","","","","","","","","","","","","","","",""
"","rating","","html-slider-response","10","61581","0.0-1.0-7.0","34","40201","male","4518","","","","","45","5","31","Stimuli/Experimental_stims/body_parts/sincerely-media-VN6DbKajo5s-unsplash.jpg","","","","","","","","","","","","","","","","","","","","","","","","","","","","","","","","","","","","","","","","","","","","","","","","","","","","","","","","","","","","","","","","",""
"","rating","","html-slider-response","11","64719","0.0-1.0-8.0","34","40201","male","3126","","","","","66","6","5","Stimuli/Experimental_stims/outdoor_scenes/jeff-king-bJHWJeiHfHc-unsplash.jpg","","","","","","","","","","","","","","","","","","","","","","","","","","","","","","","","","","","","","","","","","","","","","","","","","","","","","","","","","","","","","","","","",""
"","rating","","html-slider-response","12","68781","0.0-1.0-9.0","34","40201","male","4049","","","","","70","7","27","Stimuli/Experimental_stims/body_parts/heike-mintel-i_Gns0ELnLw-unsplash.jpg","","","","","","","","","","","","","","","","","","","","","","","","","","","","","","","","","","","","","","","","","","","","","","","","","","","","","","","","","","","","","","","","",""
"","rating","","html-slider-response","13","73629","0.0-1.0-10.0","34","40201","male","4835","","","","","62","8","37","Stimuli/Experimental_stims/objects/alexander-andrews-VLGWE_SumrA-unsplash.jpg","","","","","","","","","","","","","","","","","","","","","","","","","","","","","","","","","","","","","","","","","","","","","","","","","","","","","","","","","","","","","","","","",""
"","rating","","html-slider-response","14","91424","0.0-1.0-11.0","34","40201","male","17777","","","","","62","9","19","Stimuli/Experimental_stims/faces/joel-mott-LaK153ghdig-unsplash.jpg","","","","","","","","","","","","","","","","","","","","","","","","","","","","","","","","","","","","","","","","","","","","","","","","","","","","","","","","","","","","","","","","",""
"","rating","","html-slider-response","15","655289","0.0-1.0-12.0","34","40201","male","563846","","","","","46","10","34","Stimuli/Experimental_stims/body_parts/wagner-santos-mBWMvIuVnso-unsplash.jpg","","","","","","","","","","","","","","","","","","","","","","","","","","","","","","","","","","","","","","","","","","","","","","","","","","","","","","","","","","","","","","","","",""
"","rating","","html-slider-response","16","661207","0.0-1.0-13.0","34","40201","male","5896","","","","","64","11","22","Stimuli/Experimental_stims/faces/ravi-patel-VMGAbeeJTKo-unsplash.jpg","","","","","","","","","","","","","","","","","","","","","","","","","","","","","","","","","","","","","","","","","","","","","","","","","","","","","","","","","","","","","","","","",""
"","rating","","html-slider-response","17","665159","0.0-1.0-14.0","34","40201","male","3938","","","","","61","12","1","Stimuli/Experimental_stims/outdoor_scenes/ashim-d-silva-S2Q5mdOrrVc-unsplash.jpg","","","","","","","","","","","","","","","","","","","","","","","","","","","","","","","","","","","","","","","","","","","","","","","","","","","","","","","","","","","","","","","","",""
"","rating","","html-slider-response","18","668692","0.0-1.0-15.0","34","40201","male","3523","","","","","67","13","15","Stimuli/Experimental_stims/faces/erik-lucatero-d2MSDujJl2g-unsplash.jpg","","","","","","","","","","","","","","","","","","","","","","","","","","","","","","","","","","","","","","","","","","","","","","","","","","","","","","","","","","","","","","","","",""
"","rating","","html-slider-response","19","673842","0.0-1.0-16.0","34","40201","male","5136","","","","","69","14","17","Stimuli/Experimental_stims/faces/good-faces-xmSWVeGEnJw-unsplash.jpg","","","","","","","","","","","","","","","","","","","","","","","","","","","","","","","","","","","","","","","","","","","","","","","","","","","","","","","","","","","","","","","","",""
"","rating","","html-slider-response","20","677889","0.0-1.0-17.0","34","40201","male","4020","","","","","73","15","12","Stimuli/Experimental_stims/faces/aiony-haust-jmATI5Q_YgY-unsplash.jpg","","","","","","","","","","","","","","","","","","","","","","","","","","","","","","","","","","","","","","","","","","","","","","","","","","","","","","","","","","","","","","","","",""
"","rating","","html-slider-response","21","686175","0.0-1.0-18.0","34","40201","male","8271","","","","","82","16","0","Stimuli/Experimental_stims/outdoor_scenes/aleksandra-boguslawska-MS7KD9Ti7FQ-unsplash.jpg","","","","","","","","","","","","","","","","","","","","","","","","","","","","","","","","","","","","","","","","","","","","","","","","","","","","","","","","","","","","","","","","",""
"","rating","","html-slider-response","22","691923","0.0-1.0-19.0","34","40201","male","5734","","","","","85","17","41","Stimuli/Experimental_stims/objects/insung-yoon-w2JtIQQXoRU-unsplash.jpg","","","","","","","","","","","","","","","","","","","","","","","","","","","","","","","","","","","","","","","","","","","","","","","","","","","","","","","","","","","","","","","","",""
"","rating","","html-slider-response","23","697541","0.0-1.0-20.0","34","40201","male","5604","","","","","78","18","18","Stimuli/Experimental_stims/faces/jessica-radanavong-mrYkTuAesKE-unsplash.jpg","","","","","","","","","","","","","","","","","","","","","","","","","","","","","","","","","","","","","","","","","","","","","","","","","","","","","","","","","","","","","","","","",""
"","rating","","html-slider-response","24","712706","0.0-1.0-21.0","34","40201","male","15146","","","","","86","19","11","Stimuli/Experimental_stims/outdoor_scenes/stephen-leonardi-gyIRjKPXupE-unsplash.jpg","","","","","","","","","","","","","","","","","","","","","","","","","","","","","","","","","","","","","","","","","","","","","","","","","","","","","","","","","","","","","","","","",""
"","rating","","html-slider-response","25","834132","0.0-1.0-22.0","34","40201","male","121408","","","","","83","20","20","Stimuli/Experimental_stims/faces/justin-chen-J7Cf1Gch49E-unsplash.jpg","","","","","","","","","","","","","","","","","","","","","","","","","","","","","","","","","","","","","","","","","","","","","","","","","","","","","","","","","","","","","","","","",""
"","rating","","html-slider-response","26","838121","0.0-1.0-23.0","34","40201","male","3976","","","","","87","21","23","Stimuli/Experimental_stims/faces/rikonavt-HQjfrvdTfak-unsplash.jpg","","","","","","","","","","","","","","","","","","","","","","","","","","","","","","","","","","","","","","","","","","","","","","","","","","","","","","","","","","","","","","","","",""
"","rating","","html-slider-response","27","841863","0.0-1.0-24.0","34","40201","male","3734","","","","","89","22","25","Stimuli/Experimental_stims/body_parts/engin-akyurt-Q2rfH3GW39c-unsplash.jpg","","","","","","","","","","","","","","","","","","","","","","","","","","","","","","","","","","","","","","","","","","","","","","","","","","","","","","","","","","","","","","","","",""
"","rating","","html-slider-response","28","847638","0.0-1.0-25.0","34","40201","male","5762","","","","","70","23","33","Stimuli/Experimental_stims/body_parts/tucker-good-36skLT5jZcc-unsplash.jpg","","","","","","","","","","","","","","","","","","","","","","","","","","","","","","","","","","","","","","","","","","","","","","","","","","","","","","","","","","","","","","","","",""
"","rating","","html-slider-response","29","851472","0.0-1.0-26.0","34","40201","male","3824","","","","","66","24","32","Stimuli/Experimental_stims/body_parts/towfiqu-barbhuiya-3AsiVDsZnHg-unsplash.jpg","","","","","","","","","","","","","","","","","","","","","","","","","","","","","","","","","","","","","","","","","","","","","","","","","","","","","","","","","","","","","","","","",""
"","rating","","html-slider-response","30","854775","0.0-1.0-27.0","34","40201","male","3291","","","","","64","25","30","Stimuli/Experimental_stims/body_parts/mika-korhonen-Xodzxosar18-unsplash.jpg","","","","","","","","","","","","","","","","","","","","","","","","","","","","","","","","","","","","","","","","","","","","","","","","","","","","","","","","","","","","","","","","",""
"","rating","","html-slider-response","31","858772","0.0-1.0-28.0","34","40201","male","3984","","","","","68","26","16","Stimuli/Experimental_stims/faces/freddy-kearney-o-ioeoATbIM-unsplash.jpg","","","","","","","","","","","","","","","","","","","","","","","","","","","","","","","","","","","","","","","","","","","","","","","","","","","","","","","","","","","","","","","","",""
"","rating","","html-slider-response","32","861855","0.0-1.0-29.0","34","40201","male","3072","","","","","70","27","14","Stimuli/Experimental_stims/faces/david-siglin-UuW4psOb388-unsplash.jpg","","","","","","","","","","","","","","","","","","","","","","","","","","","","","","","","","","","","","","","","","","","","","","","","","","","","","","","","","","","","","","","","",""
"","rating","","html-slider-response","33","864725","0.0-1.0-30.0","34","40201","male","2860","","","","","74","28","36","Stimuli/Experimental_stims/objects/alexander-andrews-JYGnB9gTCls-unsplash.jpg","","","","","","","","","","","","","","","","","","","","","","","","","","","","","","","","","","","","","","","","","","","","","","","","","","","","","","","","","","","","","","","","",""
"","rating","","html-slider-response","34","867310","0.0-1.0-31.0","34","40201","male","2572","","","","","72","29","3","Stimuli/Experimental_stims/outdoor_scenes/henry-be-NLF6hTe4PAg-unsplash.jpg","","","","","","","","","","","","","","","","","","","","","","","","","","","","","","","","","","","","","","","","","","","","","","","","","","","","","","","","","","","","","","","","",""
"","rating","","html-slider-response","35","870115","0.0-1.0-32.0","34","40201","male","2789","","","","","77","30","29","Stimuli/Experimental_stims/body_parts/manuel-schinner-ZwjFuJ7ebpk-unsplash.jpg","","","","","","","","","","","","","","","","","","","","","","","","","","","","","","","","","","","","","","","","","","","","","","","","","","","","","","","","","","","","","","","","",""
"","rating","","html-slider-response","36","873732","0.0-1.0-33.0","34","40201","male","3606","","","","","60","31","43","Stimuli/Experimental_stims/objects/jonathan-greenaway-Y4hGgeiFn3s-unsplash.jpg","","","","","","","","","","","","","","","","","","","","","","","","","","","","","","","","","","","","","","","","","","","","","","","","","","","","","","","","","","","","","","","","",""
"","rating","","html-slider-response","37","878726","0.0-1.0-34.0","34","40201","male","4978","","","","","70","32","40","Stimuli/Experimental_stims/objects/fabian-blank-pElSkGRA2NU-unsplash.jpg","","","","","","","","","","","","","","","","","","","","","","","","","","","","","","","","","","","","","","","","","","","","","","","","","","","","","","","","","","","","","","","","",""
"","rating","","html-slider-response","38","881915","0.0-1.0-35.0","34","40201","male","3169","","","","","71","33","2","Stimuli/Experimental_stims/outdoor_scenes/bruno-van-der-kraan-qez8mNJ3ilU-unsplash.jpg","","","","","","","","","","","","","","","","","","","","","","","","","","","","","","","","","","","","","","","","","","","","","","","","","","","","","","","","","","","","","","","","",""
"","rating","","html-slider-response","39","884709","0.0-1.0-36.0","34","40201","male","2781","","","","","69","34","26","Stimuli/Experimental_stims/body_parts/engin-akyurt-x_3gyC42btc-unsplash.jpg","","","","","","","","","","","","","","","","","","","","","","","","","","","","","","","","","","","","","","","","","","","","","","","","","","","","","","","","","","","","","","","","",""
"","rating","","html-slider-response","40","887541","0.0-1.0-37.0","34","40201","male","2817","","","","","66","35","45","Stimuli/Experimental_stims/objects/leohoho-rngTKHXumy0-unsplash.jpg","","","","","","","","","","","","","","","","","","","","","","","","","","","","","","","","","","","","","","","","","","","","","","","","","","","","","","","","","","","","","","","","",""
"","rating","","html-slider-response","41","890186","0.0-1.0-38.0","34","40201","male","2628","","","","","74","36","6","Stimuli/Experimental_stims/outdoor_scenes/meng-ji-8BH_M-53CyA-unsplash.jpg","","","","","","","","","","","","","","","","","","","","","","","","","","","","","","","","","","","","","","","","","","","","","","","","","","","","","","","","","","","","","","","","",""
"","rating","","html-slider-response","42","894540","0.0-1.0-39.0","34","40201","male","4335","","","","","83","37","13","Stimuli/Experimental_stims/faces/daniel-rigdon-dXmXKPP2L4E-unsplash.jpg","","","","","","","","","","","","","","","","","","","","","","","","","","","","","","","","","","","","","","","","","","","","","","","","","","","","","","","","","","","","","","","","",""
"","rating","","html-slider-response","43","896915","0.0-1.0-40.0","34","40201","male","2358","","","","","75","38","44","Stimuli/Experimental_stims/objects/kuiye-chen-NuOGFo4PudE-unsplash.jpg","","","","","","","","","","","","","","","","","","","","","","","","","","","","","","","","","","","","","","","","","","","","","","","","","","","","","","","","","","","","","","","","",""
"","rating","","html-slider-response","44","900073","0.0-1.0-41.0","34","40201","male","3145","","","","","66","39","42","Stimuli/Experimental_stims/objects/jess-bailey-nOeVi8DsN8U-unsplash.jpg","","","","","","","","","","","","","","","","","","","","","","","","","","","","","","","","","","","","","","","","","","","","","","","","","","","","","","","","","","","","","","","","",""
"","rating","","html-slider-response","45","903894","0.0-1.0-42.0","34","40201","male","3806","","","","","71","40","24","Stimuli/Experimental_stims/body_parts/clay-banks-LjqARJaJotc-unsplash.jpg","","","","","","","","","","","","","","","","","","","","","","","","","","","","","","","","","","","","","","","","","","","","","","","","","","","","","","","","","","","","","","","","",""
"","rating","","html-slider-response","46","907282","0.0-1.0-43.0","34","40201","male","3376","","","","","52","41","21","Stimuli/Experimental_stims/faces/leilani-angel-K84vnnzxmTQ-unsplash.jpg","","","","","","","","","","","","","","","","","","","","","","","","","","","","","","","","","","","","","","","","","","","","","","","","","","","","","","","","","","","","","","","","",""
"","rating","","html-slider-response","47","910231","0.0-1.0-44.0","34","40201","male","2937","","","","","71","42","7","Stimuli/Experimental_stims/outdoor_scenes/petr-vysohlid-9fqwGqGLUxc-unsplash.jpg","","","","","","","","","","","","","","","","","","","","","","","","","","","","","","","","","","","","","","","","","","","","","","","","","","","","","","","","","","","","","","","","",""
"","rating","","html-slider-response","48","913068","0.0-1.0-45.0","34","40201","male","2826","","","","","64","43","46","Stimuli/Experimental_stims/objects/mockup-graphics-PNsj6RiHAF4-unsplash.jpg","","","","","","","","","","","","","","","","","","","","","","","","","","","","","","","","","","","","","","","","","","","","","","","","","","","","","","","","","","","","","","","","",""
"","rating","","html-slider-response","49","915674","0.0-1.0-46.0","34","40201","male","2592","","","","","70","44","38","Stimuli/Experimental_stims/objects/art-lasovsky-8XddFc6NkBY-unsplash.jpg","","","","","","","","","","","","","","","","","","","","","","","","","","","","","","","","","","","","","","","","","","","","","","","","","","","","","","","","","","","","","","","","",""
"","rating","","html-slider-response","50","918363","0.0-1.0-47.0","34","40201","male","2678","","","","","61","45","8","Stimuli/Experimental_stims/outdoor_scenes/samsommer-vddccTqwal8-unsplash.jpg","","","","","","","","","","","","","","","","","","","","","","","","","","","","","","","","","","","","","","","","","","","","","","","","","","","","","","","","","","","","","","","","",""
"","rating","","html-slider-response","51","921958","0.0-1.0-48.0","34","40201","male","3584","","","","","65","46","10","Stimuli/Experimental_stims/outdoor_scenes/shannon-kunkle-dM8INmkyDas-unsplash.jpg","","","","","","","","","","","","","","","","","","","","","","","","","","","","","","","","","","","","","","","","","","","","","","","","","","","","","","","","","","","","","","","","",""
"","rating","","html-slider-response","52","1001299","0.0-1.0-49.0","34","40201","male","79325","","","","","78","47","39","Stimuli/Experimental_stims/objects/charlesdeluvio-1-nx1QR5dTE-unsplash.jpg","","","","","","","","","","","","","","","","","","","","","","","","","","","","","","","","","","","","","","","","","","","","","","","","","","","","","","","","","","","","","","","","",""
"","localizer_instructions","","instructions","53","1015328","0.0-2.0-0.0-0.0","34","40201","male","13939","","[{""page_index"":0,""viewing_time"":8976},{""page_index"":1,""viewing_time"":3657},{""page_index"":2,""viewing_time"":1305}]","","","","","","","","","","","","","","","","","","","","","","","","","","","","","","","","","","","","","","","","","","","","","","","","","","","","","","","","","","","","","","","","","","","","","","",""
"","localizer_comprehension_check","","survey-multi-choice","54","1020364","0.0-2.0-0.0-1.0","34","40201","male","5017","{""Q0"":""True"",""Q1"":""D"",""Q2"":""K""}","","1","","","","","","","","","","","","","","","","","","","","","","","","","","","","","","","","","","","","","","","","","","","","","","","","","","","","","","","","","","","","","","","","","","","","","",""
"","missed_instruction_checkup","","html-keyboard-response","55","1025104","0.0-2.0-0.0-2.0-0.0","34","40201","male","4725","","","","68","","","","","1","","","","","","","","","","","","","","","","","","","","","","","","","","","","","","","","","","","","","","","","","","","","","","","","","","","","","","","","","","","","","","","",""
"","localizer_instructions","","instructions","56","1032680","0.0-2.0-0.1-0.1","34","40201","male","7562","","[{""page_index"":0,""viewing_time"":4523},{""page_index"":1,""viewing_time"":1692},{""page_index"":2,""viewing_time"":1346}]","","","","","","","","","","","","","","","","","","","","","","","","","","","","","","","","","","","","","","","","","","","","","","","","","","","","","","","","","","","","","","","","","","","","","","",""
"","localizer_comprehension_check","","survey-multi-choice","57","1039126","0.0-2.0-0.1-1.1","34","40201","male","6424","{""Q0"":""True"",""Q1"":""K"",""Q2"":""D""}","","0","","","","","","","","","","","","","","","","","","","","","","","","","","","","","","","","","","","","","","","","","","","","","","","","","","","","","","","","","","","","","","","","","","","","","",""
"","","","html-keyboard-response","58","1042378","0.0-2.0-1.0","34","40201","male","3239","","","","68","","","","","","","","","","","","","","","","","","","","","","","","","","","","","","","","","","","","","","","","","","","","","","","","","","","","","","","","","","","","","","","","","","","","",""
"","localizer","","html-keyboard-response","59","1042796","0.0-2.0-2.0-0.0","34","40201","male","NaN","","","","null","NaN","0","","Stimuli/Practice_stims/Localizer/annie-spratt-g9KFpAfQ5bc-unsplash.jpg","","1042378","0","NaN","","0","1","0","400","0","418","0","","","","","","","","","","","","","","","","","","","","","","","","","","","","","","","","","","","","","","","","","","","","","","","","","","","","",""
"","iti_localizer","","html-keyboard-response","60","1043102","0.0-2.0-2.0-1.0","34","40201","male","null","","","","null","","0","","","","1042796","0","","","","","","300","400","306","418","300","","","","","","","","","","","","","","","","","","","","","","","","","","","","","","","","","","","","","","","","","","","","","","","","","","","",""
"","localizer","","html-keyboard-response","61","1043515","0.0-2.0-2.1-0.1","34","40201","male","NaN","","","","null","NaN","0","","Stimuli/Practice_stims/Localizer/annie-spratt-g9KFpAfQ5bc-unsplash.jpg","","1043102","0","NaN","","0","1","0","400","700","413","724","","","","","","","","","","","","","","","","","","","","","","","","","","","","","","","","","","","","","","","","","","","","","","","","","","","","",""
"","iti_localizer","","html-keyboard-response","62","1043840","0.0-2.0-2.1-1.1","34","40201","male","null","","","","null","","0","","","","1043515","0","","","","","","300","1100","325","1137","300","","","","","","","","","","","","","","","","","","","","","","","","","","","","","","","","","","","","","","","","","","","","","","","","","","","",""
"","localizer","","html-keyboard-response","63","1044254","0.0-2.0-2.2-0.2","34","40201","male","NaN","","","","null","NaN","0","","Stimuli/Practice_stims/Localizer/annie-spratt-g9KFpAfQ5bc-unsplash.jpg","","1043840","0","NaN","","0","1","0","400","1400","414","1462","","","","","","","","","","","","","","","","","","","","","","","","","","","","","","","","","","","","","","","","","","","","","","","","","","","","",""
"","iti_localizer","","html-keyboard-response","64","1044567","0.0-2.0-2.2-1.2","34","40201","male","null","","","","null","","0","","","","1044254","0","","","","","","300","1800","313","1876","300","","","","","","","","","","","","","","","","","","","","","","","","","","","","","","","","","","","","","","","","","","","","","","","","","","","",""
"","localizer","","html-keyboard-response","65","1044976","0.0-2.0-2.3-0.3","34","40201","male","130","","","","68","0","0","","Stimuli/Practice_stims/Localizer/annie-spratt-g9KFpAfQ5bc-unsplash.jpg","","1044567","0","NaN","","0","0","1","400","2100","409","2189","","","","","","","","","","","","","","","","","","","","","","","","","","","","","","","","","","","","","","","","","","","","","","","","","","","","",""
"","iti_localizer","","html-keyboard-response","66","1045286","0.0-2.0-2.3-1.3","34","40201","male","null","","","","null","","0","","","","1044976","0","","","","","","300","2500","310","2598","300","","","","","","","","","","","","","","","","","","","","","","","","","","","","","","","","","","","","","","","","","","","","","","","","","","","",""
"","localizer","","html-keyboard-response","67","1045709","0.0-2.0-3.0-0.0","34","40201","male","NaN","","","","null","NaN","1","","Stimuli/Practice_stims/Localizer/becca-tapert-sY5RjMB1KkE-unsplash.jpg","","1045286","0","NaN","","0","1","0","400","2800","423","2908","","","","","","","","","","","","","","","","","","","","","","","","","","","","","","","","","","","","","","","","","","","","","","","","","","","","",""
"","iti_localizer","","html-keyboard-response","68","1046030","0.0-2.0-3.0-1.0","34","40201","male","null","","","","null","","1","","","","1045709","0","","","","","","300","3200","321","3331","300","","","","","","","","","","","","","","","","","","","","","","","","","","","","","","","","","","","","","","","","","","","","","","","","","","","",""
"","localizer","","html-keyboard-response","69","1046443","0.0-2.0-3.1-0.1","34","40201","male","267","","","","75","1","1","","Stimuli/Practice_stims/Localizer/becca-tapert-sY5RjMB1KkE-unsplash.jpg","","1046030","0","NaN","","0","0","0","400","3500","413","3652","","","","","","","","","","","","","","","","","","","","","","","","","","","","","","","","","","","","","","","","","","","","","","","","","","","","",""
"","iti_localizer","","html-keyboard-response","70","1046756","0.0-2.0-3.1-1.1","34","40201","male","null","","","","null","","1","","","","1046443","0","","","","","","300","3900","313","4065","300","","","","","","","","","","","","","","","","","","","","","","","","","","","","","","","","","","","","","","","","","","","","","","","","","","","",""
"","localizer","","html-keyboard-response","71","1047165","0.0-2.0-4.0-0.0","34","40201","male","77","","","","68","0","2","","Stimuli/Practice_stims/Localizer/charl-durand-bsfXvI25iNg-unsplash.jpg","","1046756","0","NaN","","1","0","0","400","4200","409","4378","","","","","","","","","","","","","","","","","","","","","","","","","","","","","","","","","","","","","","","","","","","","","","","","","","","","",""
"","iti_localizer","","html-keyboard-response","72","1047474","0.0-2.0-4.0-1.0","34","40201","male","null","","","","null","","2","","","","1047165","0","","","","","","300","4600","309","4787","300","","","","","","","","","","","","","","","","","","","","","","","","","","","","","","","","","","","","","","","","","","","","","","","","","","","",""
"","localizer","","html-keyboard-response","73","1047882","0.0-2.0-5.0-0.0","34","40201","male","148","","","","75","1","3","","Stimuli/Practice_stims/Localizer/nizar-albusaidy-B2r2SWAf5CE-unsplash.jpg","","1047474","0","NaN","","0","0","0","400","4900","408","5096","","","","","","","","","","","","","","","","","","","","","","","","","","","","","","","","","","","","","","","","","","","","","","","","","","","","",""
"","iti_localizer","","html-keyboard-response","74","1048201","0.0-2.0-5.0-1.0","34","40201","male","null","","","","null","","3","","","","1047882","0","","","","","","300","5300","319","5504","300","","","","","","","","","","","","","","","","","","","","","","","","","","","","","","","","","","","","","","","","","","","","","","","","","","","",""
"","localizer","","html-keyboard-response","75","1048695","0.0-2.0-6.0-0.0","34","40201","male","363","","","","68","0","4","","Stimuli/Practice_stims/Localizer/randy-fath-epf1tdtIIkM-unsplash.jpg","","1048201","0","NaN","","1","0","0","400","5600","494","5823","","","","","","","","","","","","","","","","","","","","","","","","","","","","","","","","","","","","","","","","","","","","","","","","","","","","",""
"","iti_localizer","","html-keyboard-response","76","1049010","0.0-2.0-6.0-1.0","34","40201","male","null","","","","null","","4","","","","1048695","0","","","","","","300","6000","315","6317","300","","","","","","","","","","","","","","","","","","","","","","","","","","","","","","","","","","","","","","","","","","","","","","","","","","","",""
"","localizer","","html-keyboard-response","77","1049424","0.0-2.0-7.0-0.0","34","40201","male","8","","","","75","1","5","","Stimuli/Practice_stims/Localizer/yassine-khalfalli-adsQ9d_Cx0c-unsplash.jpg","","1049010","0","NaN","","0","0","0","400","6300","414","6632","","","","","","","","","","","","","","","","","","","","","","","","","","","","","","","","","","","","","","","","","","","","","","","","","","","","",""
"","iti_localizer","","html-keyboard-response","78","1049738","0.0-2.0-7.0-1.0","34","40201","male","null","","","","null","","5","","","","1049424","0","","","","","","300","6700","314","7046","300","","","","","","","","","","","","","","","","","","","","","","","","","","","","","","","","","","","","","","","","","","","","","","","","","","","",""
"","practice_over","","html-keyboard-response","79","1049908","0.0-2.0-7.0-2.0-0.0","34","40201","male","161","","","","68","","","","","","","","","","","","","","","","","","","","","","","","","","","","","","","","","","","","","","","","","","","","","","","","","","","","","","","","","","","","","","","","","","","","",""
"","start_run","","html-keyboard-response","80","1051792","0.0-2.0-7.0-2.0-1.0","34","40201","male","1875","","","","84","","","","","","","","","","","","","","","","","","","","","","","","","","","","","","","","","","","","","","","","","","","","","","","","","","","","","","","","","","","","","","","","","","","","",""
"","localizer","","html-keyboard-response","81","1052203","0.0-2.0-8.0-0.0","34","40201","male","NaN","","","","null","NaN","6","","Stimuli/Experimental_stims/localizer/body_parts/igordoon-primus-CdyHqfrbGIs-unsplash.jpg","","1051792","1","body_parts","","0","1","0","400","0","411","0","","","","","","","","","","","","","","","","","","","","","","","","","","","","","","","","","","","","","","","","","","","","","","","","","","","","",""
"","iti_localizer","","html-keyboard-response","82","1052519","0.0-2.0-8.0-1.0","34","40201","male","null","","","","null","","6","","","","1052203","1","","","","","","300","400","316","411","300","","","","","","","","","","","","","","","","","","","","","","","","","","","","","","","","","","","","","","","","","","","","","","","","","","","",""
"","localizer","","html-keyboard-response","83","1052933","0.0-2.0-9.0-0.0","34","40201","male","NaN","","","","null","NaN","7","","Stimuli/Experimental_stims/localizer/body_parts/jonathan-borba-hTwH8QFkPMs-unsplash.jpg","","1052519","1","body_parts","","0","1","0","400","700","414","727","","","","","","","","","","","","","","","","","","","","","","","","","","","","","","","","","","","","","","","","","","","","","","","","","","","","",""
"","iti_localizer","","html-keyboard-response","84","1053246","0.0-2.0-9.0-1.0","34","40201","male","null","","","","null","","7","","","","1052933","1","","","","","","300","1100","313","1141","300","","","","","","","","","","","","","","","","","","","","","","","","","","","","","","","","","","","","","","","","","","","","","","","","","","","",""
"","localizer","","html-keyboard-response","85","1053667","0.0-2.0-10.0-0.0","34","40201","male","36","","","","68","0","8","","Stimuli/Experimental_stims/localizer/body_parts/marcel-fagin-OUYg0Q3ec-Y-unsplash.jpg","","1053246","1","body_parts","","1","0","0","400","1400","421","1454","","","","","","","","","","","","","","","","","","","","","","","","","","","","","","","","","","","","","","","","","","","","","","","","","","","","",""
"","iti_localizer","","html-keyboard-response","86","1053972","0.0-2.0-10.0-1.0","34","40201","male","null","","","","null","","8","","","","1053667","1","","","","","","300","1800","305","1875","300","","","","","","","","","","","","","","","","","","","","","","","","","","","","","","","","","","","","","","","","","","","","","","","","","","","",""
"","localizer","","html-keyboard-response","87","1054395","0.0-2.0-11.0-0.0","34","40201","male","NaN","","","","null","NaN","9","","Stimuli/Experimental_stims/localizer/body_parts/anelya-okapova-V69kmOyZ3SU-unsplash.jpg","","1053972","1","body_parts","","0","1","0","400","2100","423","2180","","","","","","","","","","","","","","","","","","","","","","","","","","","","","","","","","","","","","","","","","","","","","","","","","","","","",""
"","iti_localizer","","html-keyboard-response","88","1054712","0.0-2.0-11.0-1.0","34","40201","male","null","","","","null","","9","","","","1054395","1","","","","","","300","2500","317","2603","300","","","","","","","","","","","","","","","","","","","","","","","","","","","","","","","","","","","","","","","","","","","","","","","","","","","",""
"","localizer","","html-keyboard-response","89","1055120","0.0-2.0-12.0-0.0","34","40201","male","119","","","","75","1","10","","Stimuli/Experimental_stims/localizer/body_parts/jan-romero-DL4DDQb8yjc-unsplash.jpg","","1054712","1","body_parts","","0","0","0","400","2800","408","2920","","","","","","","","","","","","","","","","","","","","","","","","","","","","","","","","","","","","","","","","","","","","","","","","","","","","",""
"","iti_localizer","","html-keyboard-response","90","1055428","0.0-2.0-12.0-1.0","34","40201","male","null","","","","null","","10","","","","1055120","1","","","","","","300","3200","308","3328","300","","","","","","","","","","","","","","","","","","","","","","","","","","","","","","","","","","","","","","","","","","","","","","","","","","","",""
"","localizer","","html-keyboard-response","91","1055844","0.0-2.0-13.0-0.0","34","40201","male","281","","","","68","0","11","","Stimuli/Experimental_stims/localizer/body_parts/pure-julia-9lVaya31sMk-unsplash.jpg","","1055428","1","body_parts","","0","0","1","400","3500","416","3636","","","","","","","","","","","","","","","","","","","","","","","","","","","","","","","","","","","","","","","","","","","","","","","","","","","","",""
"","iti_localizer","","html-keyboard-response","92","1056153","0.0-2.0-13.0-1.0","34","40201","male","null","","","","null","","11","","","","1055844","1","","","","","","300","3900","309","4052","300","","","","","","","","","","","","","","","","","","","","","","","","","","","","","","","","","","","","","","","","","","","","","","","","","","","",""
"","localizer","","html-keyboard-response","93","1056567","0.0-2.0-14.0-0.0","34","40201","male","142","","","","68","0","12","","Stimuli/Experimental_stims/localizer/body_parts/jasper-garratt-Ng_Kl7K6V8Y-unsplash.jpg","","1056153","1","body_parts","","0","0","1","400","4200","414","4361","","","","","","","","","","","","","","","","","","","","","","","","","","","","","","","","","","","","","","","","","","","","","","","","","","","","",""
"","iti_localizer","","html-keyboard-response","94","1056879","0.0-2.0-14.0-1.0","34","40201","male","null","","","","null","","12","","","","1056567","1","","","","","","300","4600","312","4775","300","","","","","","","","","","","","","","","","","","","","","","","","","","","","","","","","","","","","","","","","","","","","","","","","","","","",""
"","localizer","","html-keyboard-response","95","1057291","0.0-2.0-15.0-0.0","34","40201","male","263","","","","68","0","13","","Stimuli/Experimental_stims/localizer/body_parts/i-am_nah--S4OsO0c6Ts-unsplash.jpg","","1056879","1","body_parts","","0","0","1","400","4900","412","5087","","","","","","","","","","","","","","","","","","","","","","","","","","","","","","","","","","","","","","","","","","","","","","","","","","","","",""
"","iti_localizer","","html-keyboard-response","96","1057603","0.0-2.0-15.0-1.0","34","40201","male","null","","","","null","","13","","","","1057291","1","","","","","","300","5300","312","5499","300","","","","","","","","","","","","","","","","","","","","","","","","","","","","","","","","","","","","","","","","","","","","","","","","","","","",""
"","localizer","","html-keyboard-response","97","1058016","0.0-2.0-16.0-0.0","34","40201","male","214","","","","68","0","14","","Stimuli/Experimental_stims/localizer/body_parts/femme-spirit-RGYBDUHYbyM-unsplash.jpg","","1057603","1","body_parts","","0","0","1","400","5600","413","5811","","","","","","","","","","","","","","","","","","","","","","","","","","","","","","","","","","","","","","","","","","","","","","","","","","","","",""
"","iti_localizer","","html-keyboard-response","98","1058326","0.0-2.0-16.0-1.0","34","40201","male","null","","","","null","","14","","","","1058016","1","","","","","","300","6000","310","6224","300","","","","","","","","","","","","","","","","","","","","","","","","","","","","","","","","","","","","","","","","","","","","","","","","","","","",""
"","localizer","","html-keyboard-response","99","1058748","0.0-2.0-17.0-0.0","34","40201","male","96","","","","68","0","15","","Stimuli/Experimental_stims/localizer/body_parts/liv-bruce-M0oVPGsWk1E-unsplash.jpg","","1058326","1","body_parts","","0","0","1","400","6300","422","6534","","","","","","","","","","","","","","","","","","","","","","","","","","","","","","","","","","","","","","","","","","","","","","","","","","","","",""
"","iti_localizer","","html-keyboard-response","100","1059058","0.0-2.0-17.0-1.0","34","40201","male","null","","","","null","","15","","","","1058748","1","","","","","","300","6700","310","6956","300","","","","","","","","","","","","","","","","","","","","","","","","","","","","","","","","","","","","","","","","","","","","","","","","","","","",""
"","localizer","","html-keyboard-response","101","1059470","0.0-2.0-18.0-0.0","34","40201","male","212","","","","68","0","16","","Stimuli/Experimental_stims/localizer/body_parts/bady-abbas-N-VEeMnm7gE-unsplash.jpg","","1059058","1","body_parts","","0","0","1","400","7000","412","7266","","","","","","","","","","","","","","","","","","","","","","","","","","","","","","","","","","","","","","","","","","","","","","","","","","","","",""
"","iti_localizer","","html-keyboard-response","102","1059782","0.0-2.0-18.0-1.0","34","40201","male","null","","","","null","","16","","","","1059470","1","","","","","","300","7400","312","7678","300","","","","","","","","","","","","","","","","","","","","","","","","","","","","","","","","","","","","","","","","","","","","","","","","","","","",""
"","localizer","","html-keyboard-response","103","1060198","0.0-2.0-19.0-0.0","34","40201","male","17","","","","68","0","17","","Stimuli/Experimental_stims/localizer/body_parts/lucaxx-freire-CacZwMexYdk-unsplash.jpg","","1059782","1","body_parts","","0","0","1","400","7700","416","7990","","","","","","","","","","","","","","","","","","","","","","","","","","","","","","","","","","","","","","","","","","","","","","","","","","","","",""
"","iti_localizer","","html-keyboard-response","104","1060505","0.0-2.0-19.0-1.0","34","40201","male","null","","","","null","","17","","","","1060198","1","","","","","","300","8100","307","8406","300","","","","","","","","","","","","","","","","","","","","","","","","","","","","","","","","","","","","","","","","","","","","","","","","","","","",""
"","localizer","","html-keyboard-response","105","1060923","0.0-2.0-20.0-0.0","34","40201","male","75","","","","68","0","18","","Stimuli/Experimental_stims/localizer/body_parts/hu-chen-tCbTGNwrFNM-unsplash.jpg","","1060505","1","body_parts","","0","0","1","400","8400","418","8713","","","","","","","","","","","","","","","","","","","","","","","","","","","","","","","","","","","","","","","","","","","","","","","","","","","","",""
"","iti_localizer","","html-keyboard-response","106","1061233","0.0-2.0-20.0-1.0","34","40201","male","null","","","","null","","18","","","","1060923","1","","","","","","300","8800","310","9131","300","","","","","","","","","","","","","","","","","","","","","","","","","","","","","","","","","","","","","","","","","","","","","","","","","","","",""
"","localizer","","html-keyboard-response","107","1061651","0.0-2.0-21.0-0.0","34","40201","male","274","","","","68","0","19","","Stimuli/Experimental_stims/localizer/body_parts/megan-menegay-UojxG_BJxnI-unsplash.jpg","","1061233","1","body_parts","","0","0","1","400","9100","418","9441","","","","","","","","","","","","","","","","","","","","","","","","","","","","","","","","","","","","","","","","","","","","","","","","","","","","",""
"","iti_localizer","","html-keyboard-response","108","1061960","0.0-2.0-21.0-1.0","34","40201","male","null","","","","null","","19","","","","1061651","1","","","","","","300","9500","309","9859","300","","","","","","","","","","","","","","","","","","","","","","","","","","","","","","","","","","","","","","","","","","","","","","","","","","","",""
"","localizer","","html-keyboard-response","109","1062367","0.0-2.0-22.0-0.0","34","40201","male","72","","","","68","0","20","","Stimuli/Experimental_stims/localizer/body_parts/toan-nguyen-VIeLuUFzesg-unsplash.jpg","","1061960","1","body_parts","","1","0","0","400","9800","407","10168","","","","","","","","","","","","","","","","","","","","","","","","","","","","","","","","","","","","","","","","","","","","","","","","","","","","",""
"","iti_localizer","","html-keyboard-response","110","1062684","0.0-2.0-22.0-1.0","34","40201","male","null","","","","null","","20","","","","1062367","1","","","","","","300","10200","317","10575","300","","","","","","","","","","","","","","","","","","","","","","","","","","","","","","","","","","","","","","","","","","","","","","","","","","","",""
"","localizer","","html-keyboard-response","111","1063091","0.0-2.0-23.0-0.0","34","40201","male","115","","","","68","0","21","","Stimuli/Experimental_stims/localizer/body_parts/sippakorn-yamkasikorn-32_sJlJa5gA-unsplash.jpg","","1062684","1","body_parts","","0","0","1","400","10500","407","10892","","","","","","","","","","","","","","","","","","","","","","","","","","","","","","","","","","","","","","","","","","","","","","","","","","","","",""
"","iti_localizer","","html-keyboard-response","112","1063403","0.0-2.0-23.0-1.0","34","40201","male","null","","","","null","","21","","","","1063091","1","","","","","","300","10900","312","11299","300","","","","","","","","","","","","","","","","","","","","","","","","","","","","","","","","","","","","","","","","","","","","","","","","","","","",""
"","localizer","","html-keyboard-response","113","1063823","0.0-2.0-24.0-0.0","34","40201","male","263","","","","68","0","22","","Stimuli/Experimental_stims/localizer/body_parts/louis-hansel-FjKTMRTQYAs-unsplash.jpg","","1063403","1","body_parts","","0","0","1","400","11200","420","11611","","","","","","","","","","","","","","","","","","","","","","","","","","","","","","","","","","","","","","","","","","","","","","","","","","","","",""
"","iti_localizer","","html-keyboard-response","114","1064130","0.0-2.0-24.0-1.0","34","40201","male","null","","","","null","","22","","","","1063823","1","","","","","","300","11600","307","12031","300","","","","","","","","","","","","","","","","","","","","","","","","","","","","","","","","","","","","","","","","","","","","","","","","","","","",""
"","localizer","","html-keyboard-response","115","1064544","0.0-2.0-25.0-0.0","34","40201","male","93","","","","68","0","23","","Stimuli/Experimental_stims/localizer/body_parts/sydney-herron-b2W04fGuS70-unsplash.jpg","","1064130","1","body_parts","","0","0","1","400","11900","414","12338","","","","","","","","","","","","","","","","","","","","","","","","","","","","","","","","","","","","","","","","","","","","","","","","","","","","",""
"","iti_localizer","","html-keyboard-response","116","1064862","0.0-2.0-25.0-1.0","34","40201","male","null","","","","null","","23","","","","1064544","1","","","","","","300","12300","318","12752","300","","","","","","","","","","","","","","","","","","","","","","","","","","","","","","","","","","","","","","","","","","","","","","","","","","","",""
"","localizer","","html-keyboard-response","117","1065282","0.0-2.0-26.0-0.0","34","40201","male","234","","","","68","0","24","","Stimuli/Experimental_stims/localizer/body_parts/danie-franco-jyyNiSEcCl4-unsplash.jpg","","1064862","1","body_parts","","0","0","1","400","12600","420","13070","","","","","","","","","","","","","","","","","","","","","","","","","","","","","","","","","","","","","","","","","","","","","","","","","","","","",""
"","iti_localizer","","html-keyboard-response","118","1065600","0.0-2.0-26.0-1.0","34","40201","male","null","","","","null","","24","","","","1065282","1","","","","","","300","13000","318","13490","300","","","","","","","","","","","","","","","","","","","","","","","","","","","","","","","","","","","","","","","","","","","","","","","","","","","",""
"","localizer","","html-keyboard-response","119","1066009","0.0-2.0-27.0-0.0","34","40201","male","27","","","","68","0","25","","Stimuli/Experimental_stims/localizer/body_parts/ramesh-iyer-CRhznMXoJlc-unsplash.jpg","","1065600","1","body_parts","","0","0","1","400","13300","409","13808","","","","","","","","","","","","","","","","","","","","","","","","","","","","","","","","","","","","","","","","","","","","","","","","","","","","",""
"","iti_localizer","","html-keyboard-response","120","1080026","0.0-2.0-27.0-1.0","34","40201","male","null","","","","null","","25","","","","1066009","1","","","","","","14000","13700","14017","14217","14000","","","","","","","","","","","","","","","","","","","","","","","","","","","","","","","","","","","","","","","","","","","","","","","","","","","",""
"","localizer","","html-keyboard-response","121","1080442","0.0-2.0-28.0-0.0","34","40201","male","NaN","","","","null","NaN","26","","Stimuli/Experimental_stims/localizer/objects/adriano-pucciarelli-BE7yaZnZX6o-unsplash.jpg","","1080026","1","objects","","0","1","0","400","27700","416","28234","","","","","","","","","","","","","","","","","","","","","","","","","","","","","","","","","","","","","","","","","","","","","","","","","","","","",""
"","iti_localizer","","html-keyboard-response","122","1080757","0.0-2.0-28.0-1.0","34","40201","male","null","","","","null","","26","","","","1080442","1","","","","","","300","28100","315","28650","300","","","","","","","","","","","","","","","","","","","","","","","","","","","","","","","","","","","","","","","","","","","","","","","","","","","",""
"","localizer","","html-keyboard-response","123","1081175","0.0-2.0-29.0-0.0","34","40201","male","345","","","","68","0","27","","Stimuli/Experimental_stims/localizer/objects/petr-sidorov-3jm5TGqtULU-unsplash.jpg","","1080757","1","objects","","0","0","1","400","28400","418","28965","","","","","","","","","","","","","","","","","","","","","","","","","","","","","","","","","","","","","","","","","","","","","","","","","","","","",""
"","iti_localizer","","html-keyboard-response","124","1081512","0.0-2.0-29.0-1.0","34","40201","male","null","","","","null","","27","","","","1081175","1","","","","","","300","28800","337","29383","300","","","","","","","","","","","","","","","","","","","","","","","","","","","","","","","","","","","","","","","","","","","","","","","","","","","",""
"","localizer","","html-keyboard-response","125","1081925","0.0-2.0-30.0-0.0","34","40201","male","6","","","","68","0","28","","Stimuli/Experimental_stims/localizer/objects/carlos-felipe-ramirez-mesa-HW7bfB3ERSQ-unsplash.jpg","","1081512","1","objects","","0","0","1","400","29100","413","29720","","","","","","","","","","","","","","","","","","","","","","","","","","","","","","","","","","","","","","","","","","","","","","","","","","","","",""
"","iti_localizer","","html-keyboard-response","126","1082233","0.0-2.0-30.0-1.0","34","40201","male","null","","","","null","","28","","","","1081925","1","","","","","","300","29500","308","30133","300","","","","","","","","","","","","","","","","","","","","","","","","","","","","","","","","","","","","","","","","","","","","","","","","","","","",""
"","localizer","","html-keyboard-response","127","1082644","0.0-2.0-31.0-0.0","34","40201","male","32","","","","68","0","29","","Stimuli/Experimental_stims/localizer/objects/raimond-klavins-ZdvDPXVvcKs-unsplash.jpg","","1082233","1","objects","","1","0","0","400","29800","411","30441","","","","","","","","","","","","","","","","","","","","","","","","","","","","","","","","","","","","","","","","","","","","","","","","","","","","",""
"","iti_localizer","","html-keyboard-response","128","1082954","0.0-2.0-31.0-1.0","34","40201","male","null","","","","null","","29","","","","1082644","1","","","","","","300","30200","310","30852","300","","","","","","","","","","","","","","","","","","","","","","","","","","","","","","","","","","","","","","","","","","","","","","","","","","","",""
"","localizer","","html-keyboard-response","129","1083369","0.0-2.0-32.0-0.0","34","40201","male","265","","","","75","1","30","","Stimuli/Experimental_stims/localizer/objects/adriano-pucciarelli-Jl3S1yM8gi8-unsplash.jpg","","1082954","1","objects","","0","0","0","400","30500","415","31162","","","","","","","","","","","","","","","","","","","","","","","","","","","","","","","","","","","","","","","","","","","","","","","","","","","","",""
"","iti_localizer","","html-keyboard-response","130","1083677","0.0-2.0-32.0-1.0","34","40201","male","null","","","","null","","30","","","","1083369","1","","","","","","300","30900","308","31577","300","","","","","","","","","","","","","","","","","","","","","","","","","","","","","","","","","","","","","","","","","","","","","","","","","","","",""
"","localizer","","html-keyboard-response","131","1084090","0.0-2.0-33.0-0.0","34","40201","male","139","","","","75","1","31","","Stimuli/Experimental_stims/localizer/objects/engin-akyurt-bbbKzTmY2Gg-unsplash.jpg","","1083677","1","objects","","0","0","0","400","31200","413","31885","","","","","","","","","","","","","","","","","","","","","","","","","","","","","","","","","","","","","","","","","","","","","","","","","","","","",""
"","iti_localizer","","html-keyboard-response","132","1084408","0.0-2.0-33.0-1.0","34","40201","male","null","","","","null","","31","","","","1084090","1","","","","","","300","31600","318","32298","300","","","","","","","","","","","","","","","","","","","","","","","","","","","","","","","","","","","","","","","","","","","","","","","","","","","",""
"","localizer","","html-keyboard-response","133","1084820","0.0-2.0-34.0-0.0","34","40201","male","11","","","","68","0","32","","Stimuli/Experimental_stims/localizer/objects/sam-moghadam-khamseh-kvmdsTrGOBM-unsplash.jpg","","1084408","1","objects","","0","0","1","400","31900","412","32616","","","","","","","","","","","","","","","","","","","","","","","","","","","","","","","","","","","","","","","","","","","","","","","","","","","","",""
"","iti_localizer","","html-keyboard-response","134","1085130","0.0-2.0-34.0-1.0","34","40201","male","null","","","","null","","32","","","","1084820","1","","","","","","300","32300","310","33028","300","","","","","","","","","","","","","","","","","","","","","","","","","","","","","","","","","","","","","","","","","","","","","","","","","","","",""
"","localizer","","html-keyboard-response","135","1085573","0.0-2.0-35.0-0.0","34","40201","male","364","","","","68","0","33","","Stimuli/Experimental_stims/localizer/objects/jiangxulei1990-eIzzzwtkBjU-unsplash.jpg","","1085130","1","objects","","0","0","1","400","32600","443","33338","","","","","","","","","","","","","","","","","","","","","","","","","","","","","","","","","","","","","","","","","","","","","","","","","","","","",""
"","iti_localizer","","html-keyboard-response","136","1085899","0.0-2.0-35.0-1.0","34","40201","male","null","","","","null","","33","","","","1085573","1","","","","","","300","33000","326","33781","300","","","","","","","","","","","","","","","","","","","","","","","","","","","","","","","","","","","","","","","","","","","","","","","","","","","",""
"","localizer","","html-keyboard-response","137","1086325","0.0-2.0-36.0-0.0","34","40201","male","7","","","","68","0","34","","Stimuli/Experimental_stims/localizer/objects/florian-klauer-nptLmg6jqDo-unsplash.jpg","","1085899","1","objects","","0","0","1","400","33300","426","34107","","","","","","","","","","","","","","","","","","","","","","","","","","","","","","","","","","","","","","","","","","","","","","","","","","","","",""
"","iti_localizer","","html-keyboard-response","138","1086638","0.0-2.0-36.0-1.0","34","40201","male","null","","","","null","","34","","","","1086325","1","","","","","","300","33700","313","34533","300","","","","","","","","","","","","","","","","","","","","","","","","","","","","","","","","","","","","","","","","","","","","","","","","","","","",""
"","localizer","","html-keyboard-response","139","1087059","0.0-2.0-37.0-0.0","34","40201","male","13","","","","75","1","35","","Stimuli/Experimental_stims/localizer/objects/ignat-dolomanov-kFBDVnmskPA-unsplash.jpg","","1086638","1","objects","","0","0","0","400","34000","421","34846","","","","","","","","","","","","","","","","","","","","","","","","","","","","","","","","","","","","","","","","","","","","","","","","","","","","",""
"","iti_localizer","","html-keyboard-response","140","1087384","0.0-2.0-37.0-1.0","34","40201","male","null","","","","null","","35","","","","1087059","1","","","","","","300","34400","325","35267","300","","","","","","","","","","","","","","","","","","","","","","","","","","","","","","","","","","","","","","","","","","","","","","","","","","","",""
"","localizer","","html-keyboard-response","141","1087803","0.0-2.0-38.0-0.0","34","40201","male","184","","","","75","1","36","","Stimuli/Experimental_stims/localizer/objects/andrew-petrov-TVJqDat4MAw-unsplash.jpg","","1087384","1","objects","","0","0","0","400","34700","419","35592","","","","","","","","","","","","","","","","","","","","","","","","","","","","","","","","","","","","","","","","","","","","","","","","","","","","",""
"","iti_localizer","","html-keyboard-response","142","1088119","0.0-2.0-38.0-1.0","34","40201","male","null","","","","null","","36","","","","1087803","1","","","","","","300","35100","316","36011","300","","","","","","","","","","","","","","","","","","","","","","","","","","","","","","","","","","","","","","","","","","","","","","","","","","","",""
"","localizer","","html-keyboard-response","143","1088532","0.0-2.0-39.0-0.0","34","40201","male","26","","","","68","0","37","","Stimuli/Experimental_stims/localizer/objects/sam-moghadam-khamseh-L_7MQsHl_aU-unsplash.jpg","","1088119","1","objects","","0","0","1","400","35400","413","36327","","","","","","","","","","","","","","","","","","","","","","","","","","","","","","","","","","","","","","","","","","","","","","","","","","","","",""
"","iti_localizer","","html-keyboard-response","144","1088847","0.0-2.0-39.0-1.0","34","40201","male","null","","","","null","","37","","","","1088532","1","","","","","","300","35800","315","36740","300","","","","","","","","","","","","","","","","","","","","","","","","","","","","","","","","","","","","","","","","","","","","","","","","","","","",""
"","localizer","","html-keyboard-response","145","1089262","0.0-2.0-40.0-0.0","34","40201","male","88","","","","68","0","38","","Stimuli/Experimental_stims/localizer/objects/ana-9GmAaEMMKho-unsplash.jpg","","1088847","1","objects","","0","0","1","400","36100","415","37055","","","","","","","","","","","","","","","","","","","","","","","","","","","","","","","","","","","","","","","","","","","","","","","","","","","","",""
"","iti_localizer","","html-keyboard-response","146","1089577","0.0-2.0-40.0-1.0","34","40201","male","null","","","","null","","38","","","","1089262","1","","","","","","300","36500","315","37470","300","","","","","","","","","","","","","","","","","","","","","","","","","","","","","","","","","","","","","","","","","","","","","","","","","","","",""
"","localizer","","html-keyboard-response","147","1089988","0.0-2.0-41.0-0.0","34","40201","male","9","","","","75","1","39","","Stimuli/Experimental_stims/localizer/objects/mockup-graphics-U6ZMEefFGx8-unsplash.jpg","","1089577","1","objects","","0","0","0","400","36800","411","37785","","","","","","","","","","","","","","","","","","","","","","","","","","","","","","","","","","","","","","","","","","","","","","","","","","","","",""
"","iti_localizer","","html-keyboard-response","148","1090299","0.0-2.0-41.0-1.0","34","40201","male","null","","","","null","","39","","","","1089988","1","","","","","","300","37200","311","38196","300","","","","","","","","","","","","","","","","","","","","","","","","","","","","","","","","","","","","","","","","","","","","","","","","","","","",""
"","localizer","","html-keyboard-response","149","1090709","0.0-2.0-42.0-0.0","34","40201","male","195","","","","75","1","40","","Stimuli/Experimental_stims/localizer/objects/kelly-jean-cKjbI0Y00X0-unsplash.jpg","","1090299","1","objects","","0","0","0","400","37500","410","38507","","","","","","","","","","","","","","","","","","","","","","","","","","","","","","","","","","","","","","","","","","","","","","","","","","","","",""
"","iti_localizer","","html-keyboard-response","150","1091021","0.0-2.0-42.0-1.0","34","40201","male","null","","","","null","","40","","","","1090709","1","","","","","","300","37900","312","38917","300","","","","","","","","","","","","","","","","","","","","","","","","","","","","","","","","","","","","","","","","","","","","","","","","","","","",""
"","localizer","","html-keyboard-response","151","1091441","0.0-2.0-43.0-0.0","34","40201","male","138","","","","75","1","41","","Stimuli/Experimental_stims/localizer/objects/eugene-chystiakov-3neSwyntbQ8-unsplash.jpg","","1091021","1","objects","","0","0","0","400","38200","420","39229","","","","","","","","","","","","","","","","","","","","","","","","","","","","","","","","","","","","","","","","","","","","","","","","","","","","",""
"","iti_localizer","","html-keyboard-response","152","1091754","0.0-2.0-43.0-1.0","34","40201","male","null","","","","null","","41","","","","1091441","1","","","","","","300","38600","313","39649","300","","","","","","","","","","","","","","","","","","","","","","","","","","","","","","","","","","","","","","","","","","","","","","","","","","","",""
"","localizer","","html-keyboard-response","153","1092181","0.0-2.0-44.0-0.0","34","40201","male","22","","","","75","1","42","","Stimuli/Experimental_stims/localizer/objects/lance-reis-v0FYj9iioQg-unsplash.jpg","","1091754","1","objects","","0","0","0","400","38900","427","39962","","","","","","","","","","","","","","","","","","","","","","","","","","","","","","","","","","","","","","","","","","","","","","","","","","","","",""
"","iti_localizer","","html-keyboard-response","154","1092491","0.0-2.0-44.0-1.0","34","40201","male","null","","","","null","","42","","","","1092181","1","","","","","","300","39300","310","40389","300","","","","","","","","","","","","","","","","","","","","","","","","","","","","","","","","","","","","","","","","","","","","","","","","","","","",""
"","localizer","","html-keyboard-response","155","1092901","0.0-2.0-45.0-0.0","34","40201","male","190","","","","75","1","43","","Stimuli/Experimental_stims/localizer/objects/annie-spratt-fbAnIjhrOL4-unsplash.jpg","","1092491","1","objects","","0","0","0","400","39600","410","40699","","","","","","","","","","","","","","","","","","","","","","","","","","","","","","","","","","","","","","","","","","","","","","","","","","","","",""
"","iti_localizer","","html-keyboard-response","156","1093212","0.0-2.0-45.0-1.0","34","40201","male","null","","","","null","","43","","","","1092901","1","","","","","","300","40000","311","41109","300","","","","","","","","","","","","","","","","","","","","","","","","","","","","","","","","","","","","","","","","","","","","","","","","","","","",""
"","localizer","","html-keyboard-response","157","1093623","0.0-2.0-46.0-0.0","34","40201","male","133","","","","75","1","44","","Stimuli/Experimental_stims/localizer/objects/mockup-graphics-Pj2PY-E-LfM-unsplash.jpg","","1093212","1","objects","","1","0","1","400","40300","411","41420","","","","","","","","","","","","","","","","","","","","","","","","","","","","","","","","","","","","","","","","","","","","","","","","","","","","",""
"","iti_localizer","","html-keyboard-response","158","1093936","0.0-2.0-46.0-1.0","34","40201","male","null","","","","null","","44","","","","1093623","1","","","","","","300","40700","313","41831","300","","","","","","","","","","","","","","","","","","","","","","","","","","","","","","","","","","","","","","","","","","","","","","","","","","","",""
"","localizer","","html-keyboard-response","159","1094346","0.0-2.0-47.0-0.0","34","40201","male","103","","","","68","0","45","","Stimuli/Experimental_stims/localizer/objects/dario-mendez-hnJ2VNZzbns-unsplash.jpg","","1093936","1","objects","","0","0","1","400","41000","410","42144","","","","","","","","","","","","","","","","","","","","","","","","","","","","","","","","","","","","","","","","","","","","","","","","","","","","",""
"","iti_localizer","","html-keyboard-response","160","1108365","0.0-2.0-47.0-1.0","34","40201","male","null","","","","null","","45","","","","1094346","1","","","","","","14000","41400","14019","42554","14000","","","","","","","","","","","","","","","","","","","","","","","","","","","","","","","","","","","","","","","","","","","","","","","","","","","",""
"","localizer","","html-keyboard-response","161","1108785","0.0-2.0-48.0-0.0","34","40201","male","NaN","","","","null","NaN","46","","Stimuli/Experimental_stims/localizer/faces/christian-ferrer-8vT-DgHZDG4-unsplash.jpg","","1108365","1","faces","","1","1","0","400","55400","420","56573","","","","","","","","","","","","","","","","","","","","","","","","","","","","","","","","","","","","","","","","","","","","","","","","","","","","",""
"","iti_localizer","","html-keyboard-response","162","1109107","0.0-2.0-48.0-1.0","34","40201","male","null","","","","null","","46","","","","1108785","1","","","","","","300","55800","322","56993","300","","","","","","","","","","","","","","","","","","","","","","","","","","","","","","","","","","","","","","","","","","","","","","","","","","","",""
"","localizer","","html-keyboard-response","163","1109519","0.0-2.0-49.0-0.0","34","40201","male","NaN","","","","null","NaN","47","","Stimuli/Experimental_stims/localizer/faces/mathias-huysmans-U4JDjYmjn1g-unsplash.jpg","","1109107","1","faces","","0","1","0","400","56100","412","57315","","","","","","","","","","","","","","","","","","","","","","","","","","","","","","","","","","","","","","","","","","","","","","","","","","","","",""
"","iti_localizer","","html-keyboard-response","164","1109835","0.0-2.0-49.0-1.0","34","40201","male","null","","","","null","","47","","","","1109519","1","","","","","","300","56500","316","57727","300","","","","","","","","","","","","","","","","","","","","","","","","","","","","","","","","","","","","","","","","","","","","","","","","","","","",""
"","localizer","","html-keyboard-response","165","1110248","0.0-2.0-50.0-0.0","34","40201","male","NaN","","","","null","NaN","48","","Stimuli/Experimental_stims/localizer/faces/filipe-almeida-mnEWC72eWDM-unsplash.jpg","","1109835","1","faces","","0","1","0","400","56800","413","58043","","","","","","","","","","","","","","","","","","","","","","","","","","","","","","","","","","","","","","","","","","","","","","","","","","","","",""
"","iti_localizer","","html-keyboard-response","166","1110566","0.0-2.0-50.0-1.0","34","40201","male","null","","","","null","","48","","","","1110248","1","","","","","","300","57200","318","58456","300","","","","","","","","","","","","","","","","","","","","","","","","","","","","","","","","","","","","","","","","","","","","","","","","","","","",""
"","localizer","","html-keyboard-response","167","1110975","0.0-2.0-51.0-0.0","34","40201","male","93","","","","68","0","49","","Stimuli/Experimental_stims/localizer/faces/midas-hofstra-tidSLv-UaNs-unsplash.jpg","","1110566","1","faces","","0","0","1","400","57500","409","58774","","","","","","","","","","","","","","","","","","","","","","","","","","","","","","","","","","","","","","","","","","","","","","","","","","","","",""
"","iti_localizer","","html-keyboard-response","168","1111288","0.0-2.0-51.0-1.0","34","40201","male","null","","","","null","","49","","","","1110975","1","","","","","","300","57900","313","59183","300","","","","","","","","","","","","","","","","","","","","","","","","","","","","","","","","","","","","","","","","","","","","","","","","","","","",""
"","localizer","","html-keyboard-response","169","1111696","0.0-2.0-52.0-0.0","34","40201","male","67","","","","68","0","50","","Stimuli/Experimental_stims/localizer/faces/darshan-patel-QJEVpydulGs-unsplash.jpg","","1111288","1","faces","","0","0","1","400","58200","408","59496","","","","","","","","","","","","","","","","","","","","","","","","","","","","","","","","","","","","","","","","","","","","","","","","","","","","",""
"","iti_localizer","","html-keyboard-response","170","1112005","0.0-2.0-52.0-1.0","34","40201","male","null","","","","null","","50","","","","1111696","1","","","","","","300","58600","309","59904","300","","","","","","","","","","","","","","","","","","","","","","","","","","","","","","","","","","","","","","","","","","","","","","","","","","","",""
"","localizer","","html-keyboard-response","171","1112420","0.0-2.0-53.0-0.0","34","40201","male","45","","","","68","0","51","","Stimuli/Experimental_stims/localizer/faces/ivan-dodig-R21SyyJDFgc-unsplash.jpg","","1112005","1","faces","","0","0","1","400","58900","415","60213","","","","","","","","","","","","","","","","","","","","","","","","","","","","","","","","","","","","","","","","","","","","","","","","","","","","",""
"","iti_localizer","","html-keyboard-response","172","1112731","0.0-2.0-53.0-1.0","34","40201","male","null","","","","null","","51","","","","1112420","1","","","","","","300","59300","311","60628","300","","","","","","","","","","","","","","","","","","","","","","","","","","","","","","","","","","","","","","","","","","","","","","","","","","","",""
"","localizer","","html-keyboard-response","173","1113139","0.0-2.0-54.0-0.0","34","40201","male","204","","","","75","1","52","","Stimuli/Experimental_stims/localizer/faces/austin-wade-X6Uj51n5CE8-unsplash.jpg","","1112731","1","faces","","0","0","0","400","59600","408","60939","","","","","","","","","","","","","","","","","","","","","","","","","","","","","","","","","","","","","","","","","","","","","","","","","","","","",""
"","iti_localizer","","html-keyboard-response","174","1113450","0.0-2.0-54.0-1.0","34","40201","male","null","","","","null","","52","","","","1113139","1","","","","","","300","60000","311","61347","300","","","","","","","","","","","","","","","","","","","","","","","","","","","","","","","","","","","","","","","","","","","","","","","","","","","",""
"","localizer","","html-keyboard-response","175","1113860","0.0-2.0-55.0-0.0","34","40201","male","93","","","","68","0","53","","Stimuli/Experimental_stims/localizer/faces/linkedin-sales-solutions-pAtA8xe_iVM-unsplash.jpg","","1113450","1","faces","","0","0","1","400","60300","410","61658","","","","","","","","","","","","","","","","","","","","","","","","","","","","","","","","","","","","","","","","","","","","","","","","","","","","",""
"","iti_localizer","","html-keyboard-response","176","1114173","0.0-2.0-55.0-1.0","34","40201","male","null","","","","null","","53","","","","1113860","1","","","","","","300","60700","313","62068","300","","","","","","","","","","","","","","","","","","","","","","","","","","","","","","","","","","","","","","","","","","","","","","","","","","","",""
"","localizer","","html-keyboard-response","177","1114587","0.0-2.0-56.0-0.0","34","40201","male","10","","","","68","0","54","","Stimuli/Experimental_stims/localizer/faces/pavel-anoshin-d0peGya6R5Y-unsplash.jpg","","1114173","1","faces","","0","0","1","400","61000","414","62381","","","","","","","","","","","","","","","","","","","","","","","","","","","","","","","","","","","","","","","","","","","","","","","","","","","","",""
"","iti_localizer","","html-keyboard-response","178","1114896","0.0-2.0-56.0-1.0","34","40201","male","null","","","","null","","54","","","","1114587","1","","","","","","300","61400","309","62795","300","","","","","","","","","","","","","","","","","","","","","","","","","","","","","","","","","","","","","","","","","","","","","","","","","","","",""
"","localizer","","html-keyboard-response","179","1115307","0.0-2.0-57.0-0.0","34","40201","male","271","","","","75","1","55","","Stimuli/Experimental_stims/localizer/faces/jeffery-erhunse-vp9mRauo68c-unsplash.jpg","","1114896","1","faces","","0","0","0","400","61700","411","63104","","","","","","","","","","","","","","","","","","","","","","","","","","","","","","","","","","","","","","","","","","","","","","","","","","","","",""
"","iti_localizer","","html-keyboard-response","180","1115620","0.0-2.0-57.0-1.0","34","40201","male","null","","","","null","","55","","","","1115307","1","","","","","","300","62100","313","63515","300","","","","","","","","","","","","","","","","","","","","","","","","","","","","","","","","","","","","","","","","","","","","","","","","","","","",""
"","localizer","","html-keyboard-response","181","1116033","0.0-2.0-58.0-0.0","34","40201","male","37","","","","75","1","56","","Stimuli/Experimental_stims/localizer/faces/aatik-tasneem-7omHUGhhmZ0-unsplash.jpg","","1115620","1","faces","","0","0","0","400","62400","413","63828","","","","","","","","","","","","","","","","","","","","","","","","","","","","","","","","","","","","","","","","","","","","","","","","","","","","",""
"","iti_localizer","","html-keyboard-response","182","1116349","0.0-2.0-58.0-1.0","34","40201","male","null","","","","null","","56","","","","1116033","1","","","","","","300","62800","316","64241","300","","","","","","","","","","","","","","","","","","","","","","","","","","","","","","","","","","","","","","","","","","","","","","","","","","","",""
"","localizer","","html-keyboard-response","183","1116763","0.0-2.0-59.0-0.0","34","40201","male","211","","","","75","1","57","","Stimuli/Experimental_stims/localizer/faces/abstral-official-cyOKLSgkgCE-unsplash.jpg","","1116349","1","faces","","0","0","0","400","63100","414","64557","","","","","","","","","","","","","","","","","","","","","","","","","","","","","","","","","","","","","","","","","","","","","","","","","","","","",""
"","iti_localizer","","html-keyboard-response","184","1117095","0.0-2.0-59.0-1.0","34","40201","male","null","","","","null","","57","","","","1116763","1","","","","","","300","63500","332","64971","300","","","","","","","","","","","","","","","","","","","","","","","","","","","","","","","","","","","","","","","","","","","","","","","","","","","",""
"","localizer","","html-keyboard-response","185","1117505","0.0-2.0-60.0-0.0","34","40201","male","320","","","","75","1","58","","Stimuli/Experimental_stims/localizer/faces/brooke-cagle-Nm70URdtf3c-unsplash (1).jpg","","1117095","1","faces","","0","0","0","400","63800","410","65303","","","","","","","","","","","","","","","","","","","","","","","","","","","","","","","","","","","","","","","","","","","","","","","","","","","","",""
"","iti_localizer","","html-keyboard-response","186","1117816","0.0-2.0-60.0-1.0","34","40201","male","null","","","","null","","58","","","","1117505","1","","","","","","300","64200","311","65713","300","","","","","","","","","","","","","","","","","","","","","","","","","","","","","","","","","","","","","","","","","","","","","","","","","","","",""
"","localizer","","html-keyboard-response","187","1118228","0.0-2.0-61.0-0.0","34","40201","male","11","","","","75","1","59","","Stimuli/Experimental_stims/localizer/faces/icons8-team-6LZuSzSwso0-unsplash.jpg","","1117816","1","faces","","0","0","0","400","64500","412","66024","","","","","","","","","","","","","","","","","","","","","","","","","","","","","","","","","","","","","","","","","","","","","","","","","","","","",""
"","iti_localizer","","html-keyboard-response","188","1118537","0.0-2.0-61.0-1.0","34","40201","male","null","","","","null","","59","","","","1118228","1","","","","","","300","64900","309","66436","300","","","","","","","","","","","","","","","","","","","","","","","","","","","","","","","","","","","","","","","","","","","","","","","","","","","",""
"","localizer","","html-keyboard-response","189","1118949","0.0-2.0-62.0-0.0","34","40201","male","22","","","","68","0","60","","Stimuli/Experimental_stims/localizer/faces/christina-wocintechchat-com-0Zx1bDv5BNY-unsplash.jpg","","1118537","1","faces","","0","0","1","400","65200","412","66745","","","","","","","","","","","","","","","","","","","","","","","","","","","","","","","","","","","","","","","","","","","","","","","","","","","","",""
"","iti_localizer","","html-keyboard-response","190","1119273","0.0-2.0-62.0-1.0","34","40201","male","null","","","","null","","60","","","","1118949","1","","","","","","300","65600","324","67157","300","","","","","","","","","","","","","","","","","","","","","","","","","","","","","","","","","","","","","","","","","","","","","","","","","","","",""
"","localizer","","html-keyboard-response","191","1119680","0.0-2.0-63.0-0.0","34","40201","male","64","","","","75","1","61","","Stimuli/Experimental_stims/localizer/faces/juan-encalada-WC7KIHo13Fc-unsplash.jpg","","1119273","1","faces","","0","0","0","400","65900","407","67481","","","","","","","","","","","","","","","","","","","","","","","","","","","","","","","","","","","","","","","","","","","","","","","","","","","","",""
"","iti_localizer","","html-keyboard-response","192","1120008","0.0-2.0-63.0-1.0","34","40201","male","null","","","","null","","61","","","","1119680","1","","","","","","300","66300","328","67888","300","","","","","","","","","","","","","","","","","","","","","","","","","","","","","","","","","","","","","","","","","","","","","","","","","","","",""
"","localizer","","html-keyboard-response","193","1120421","0.0-2.0-64.0-0.0","34","40201","male","50","","","","75","1","62","","Stimuli/Experimental_stims/localizer/faces/nick-karvounis-JyO_szjGvUw-unsplash.jpg","","1120008","1","faces","","0","0","0","400","66600","413","68216","","","","","","","","","","","","","","","","","","","","","","","","","","","","","","","","","","","","","","","","","","","","","","","","","","","","",""
"","iti_localizer","","html-keyboard-response","194","1120729","0.0-2.0-64.0-1.0","34","40201","male","null","","","","null","","62","","","","1120421","1","","","","","","300","67000","308","68629","300","","","","","","","","","","","","","","","","","","","","","","","","","","","","","","","","","","","","","","","","","","","","","","","","","","","",""
"","localizer","","html-keyboard-response","195","1121143","0.0-2.0-65.0-0.0","34","40201","male","165","","","","68","0","63","","Stimuli/Experimental_stims/localizer/faces/carlos-vaz-KP4bxnxAilU-unsplash.jpg","","1120729","1","faces","","0","0","1","400","67300","414","68937","","","","","","","","","","","","","","","","","","","","","","","","","","","","","","","","","","","","","","","","","","","","","","","","","","","","",""
"","iti_localizer","","html-keyboard-response","196","1121455","0.0-2.0-65.0-1.0","34","40201","male","null","","","","null","","63","","","","1121143","1","","","","","","300","67700","312","69351","300","","","","","","","","","","","","","","","","","","","","","","","","","","","","","","","","","","","","","","","","","","","","","","","","","","","",""
"","localizer","","html-keyboard-response","197","1121873","0.0-2.0-66.0-0.0","34","40201","male","22","","","","68","0","64","","Stimuli/Experimental_stims/localizer/faces/tyler-nix-ZGa9d1a_4tA-unsplash.jpg","","1121455","1","faces","","1","0","0","400","68000","418","69663","","","","","","","","","","","","","","","","","","","","","","","","","","","","","","","","","","","","","","","","","","","","","","","","","","","","",""
"","iti_localizer","","html-keyboard-response","198","1122184","0.0-2.0-66.0-1.0","34","40201","male","null","","","","null","","64","","","","1121873","1","","","","","","300","68400","311","70081","300","","","","","","","","","","","","","","","","","","","","","","","","","","","","","","","","","","","","","","","","","","","","","","","","","","","",""
"","localizer","","html-keyboard-response","199","1122593","0.0-2.0-67.0-0.0","34","40201","male","291","","","","68","0","65","","Stimuli/Experimental_stims/localizer/faces/samuel-dixon--fQ5XNOcqFQ-unsplash.jpg","","1122184","1","faces","","0","0","1","400","68700","409","70392","","","","","","","","","","","","","","","","","","","","","","","","","","","","","","","","","","","","","","","","","","","","","","","","","","","","",""
"","iti_localizer","","html-keyboard-response","200","1136615","0.0-2.0-67.0-1.0","34","40201","male","null","","","","null","","65","","","","1122593","1","","","","","","14000","69100","14022","70801","14000","","","","","","","","","","","","","","","","","","","","","","","","","","","","","","","","","","","","","","","","","","","","","","","","","","","",""
"","localizer","","html-keyboard-response","201","1137029","0.0-2.0-68.0-0.0","34","40201","male","NaN","","","","null","NaN","66","","Stimuli/Experimental_stims/localizer/body_parts/nihal-karkala-LlOfbQD-IJ0-unsplash.jpg","","1136615","1","body_parts","","1","1","0","400","83100","414","84823","","","","","","","","","","","","","","","","","","","","","","","","","","","","","","","","","","","","","","","","","","","","","","","","","","","","",""
"","iti_localizer","","html-keyboard-response","202","1137344","0.0-2.0-68.0-1.0","34","40201","male","null","","","","null","","66","","","","1137029","1","","","","","","300","83500","315","85237","300","","","","","","","","","","","","","","","","","","","","","","","","","","","","","","","","","","","","","","","","","","","","","","","","","","","",""
"","localizer","","html-keyboard-response","203","1137755","0.0-2.0-69.0-0.0","34","40201","male","NaN","","","","null","NaN","67","","Stimuli/Experimental_stims/localizer/body_parts/nick-page-WTNmgJtwzGI-unsplash.jpg","","1137344","1","body_parts","","0","1","0","400","83800","411","85552","","","","","","","","","","","","","","","","","","","","","","","","","","","","","","","","","","","","","","","","","","","","","","","","","","","","",""
"","iti_localizer","","html-keyboard-response","204","1138062","0.0-2.0-69.0-1.0","34","40201","male","null","","","","null","","67","","","","1137755","1","","","","","","300","84200","307","85963","300","","","","","","","","","","","","","","","","","","","","","","","","","","","","","","","","","","","","","","","","","","","","","","","","","","","",""
"","localizer","","html-keyboard-response","205","1138472","0.0-2.0-70.0-0.0","34","40201","male","NaN","","","","null","NaN","68","","Stimuli/Experimental_stims/localizer/body_parts/sina-rezakhani-d1gQi0Jl05U-unsplash (1).jpg","","1138062","1","body_parts","","0","1","0","400","84500","410","86270","","","","","","","","","","","","","","","","","","","","","","","","","","","","","","","","","","","","","","","","","","","","","","","","","","","","",""
"","iti_localizer","","html-keyboard-response","206","1138782","0.0-2.0-70.0-1.0","34","40201","male","null","","","","null","","68","","","","1138472","1","","","","","","300","84900","310","86680","300","","","","","","","","","","","","","","","","","","","","","","","","","","","","","","","","","","","","","","","","","","","","","","","","","","","",""
"","localizer","","html-keyboard-response","207","1139191","0.0-2.0-71.0-0.0","34","40201","male","157","","","","75","1","69","","Stimuli/Experimental_stims/localizer/body_parts/meghan-thompson-U1b8OB0QpIo-unsplash.jpg","","1138782","1","body_parts","","0","0","0","400","85200","409","86990","","","","","","","","","","","","","","","","","","","","","","","","","","","","","","","","","","","","","","","","","","","","","","","","","","","","",""
"","iti_localizer","","html-keyboard-response","208","1139511","0.0-2.0-71.0-1.0","34","40201","male","null","","","","null","","69","","","","1139191","1","","","","","","300","85600","320","87399","300","","","","","","","","","","","","","","","","","","","","","","","","","","","","","","","","","","","","","","","","","","","","","","","","","","","",""
"","localizer","","html-keyboard-response","209","1139922","0.0-2.0-72.0-0.0","34","40201","male","0","","","","75","1","70","","Stimuli/Experimental_stims/localizer/body_parts/davidcohen-qghuLqyh3nE-unsplash.jpg","","1139511","1","body_parts","","0","0","0","400","85900","411","87719","","","","","","","","","","","","","","","","","","","","","","","","","","","","","","","","","","","","","","","","","","","","","","","","","","","","",""
"","iti_localizer","","html-keyboard-response","210","1140241","0.0-2.0-72.0-1.0","34","40201","male","null","","","","null","","70","","","","1139922","1","","","","","","300","86300","319","88130","300","","","","","","","","","","","","","","","","","","","","","","","","","","","","","","","","","","","","","","","","","","","","","","","","","","","",""
"","localizer","","html-keyboard-response","211","1140660","0.0-2.0-73.0-0.0","34","40201","male","66","","","","75","1","71","","Stimuli/Experimental_stims/localizer/body_parts/sincerely-media-QyzlAZjm0r0-unsplash.jpg","","1140241","1","body_parts","","0","0","0","400","86600","419","88449","","","","","","","","","","","","","","","","","","","","","","","","","","","","","","","","","","","","","","","","","","","","","","","","","","","","",""
"","iti_localizer","","html-keyboard-response","212","1140976","0.0-2.0-73.0-1.0","34","40201","male","null","","","","null","","71","","","","1140660","1","","","","","","300","87000","316","88868","300","","","","","","","","","","","","","","","","","","","","","","","","","","","","","","","","","","","","","","","","","","","","","","","","","","","",""
"","localizer","","html-keyboard-response","213","1141386","0.0-2.0-74.0-0.0","34","40201","male","136","","","","75","1","72","","Stimuli/Experimental_stims/localizer/body_parts/juja-han-Z8-6EI2tYtw-unsplash.jpg","","1140976","1","body_parts","","0","0","0","400","87300","410","89184","","","","","","","","","","","","","","","","","","","","","","","","","","","","","","","","","","","","","","","","","","","","","","","","","","","","",""
"","iti_localizer","","html-keyboard-response","214","1141704","0.0-2.0-74.0-1.0","34","40201","male","null","","","","null","","72","","","","1141386","1","","","","","","300","87700","318","89594","300","","","","","","","","","","","","","","","","","","","","","","","","","","","","","","","","","","","","","","","","","","","","","","","","","","","",""
"","localizer","","html-keyboard-response","215","1142115","0.0-2.0-75.0-0.0","34","40201","male","232","","","","75","1","73","","Stimuli/Experimental_stims/localizer/body_parts/natalie-grainger-8uB5kFKWWkk-unsplash.jpg","","1141704","1","body_parts","","0","0","0","400","88000","411","89912","","","","","","","","","","","","","","","","","","","","","","","","","","","","","","","","","","","","","","","","","","","","","","","","","","","","",""
"","iti_localizer","","html-keyboard-response","216","1142427","0.0-2.0-75.0-1.0","34","40201","male","null","","","","null","","73","","","","1142115","1","","","","","","300","88400","312","90323","300","","","","","","","","","","","","","","","","","","","","","","","","","","","","","","","","","","","","","","","","","","","","","","","","","","","",""
"","localizer","","html-keyboard-response","217","1142842","0.0-2.0-76.0-0.0","34","40201","male","87","","","","75","1","74","","Stimuli/Experimental_stims/localizer/body_parts/debby-hudson--B_757qSA4k-unsplash.jpg","","1142427","1","body_parts","","0","0","0","400","88700","415","90635","","","","","","","","","","","","","","","","","","","","","","","","","","","","","","","","","","","","","","","","","","","","","","","","","","","","",""
"","iti_localizer","","html-keyboard-response","218","1143152","0.0-2.0-76.0-1.0","34","40201","male","null","","","","null","","74","","","","1142842","1","","","","","","300","89100","310","91050","300","","","","","","","","","","","","","","","","","","","","","","","","","","","","","","","","","","","","","","","","","","","","","","","","","","","",""
"","localizer","","html-keyboard-response","219","1143563","0.0-2.0-77.0-0.0","34","40201","male","224","","","","75","1","75","","Stimuli/Experimental_stims/localizer/body_parts/pure-julia-E9Q4bqYHtIM-unsplash.jpg","","1143152","1","body_parts","","0","0","0","400","89400","411","91360","","","","","","","","","","","","","","","","","","","","","","","","","","","","","","","","","","","","","","","","","","","","","","","","","","","","",""
"","iti_localizer","","html-keyboard-response","220","1143878","0.0-2.0-77.0-1.0","34","40201","male","null","","","","null","","75","","","","1143563","1","","","","","","300","89800","315","91771","300","","","","","","","","","","","","","","","","","","","","","","","","","","","","","","","","","","","","","","","","","","","","","","","","","","","",""
"","localizer","","html-keyboard-response","221","1144286","0.0-2.0-78.0-0.0","34","40201","male","124","","","","68","0","76","","Stimuli/Experimental_stims/localizer/body_parts/charles-etoroma-1fo0biloDOc-unsplash.jpg","","1143878","1","body_parts","","0","0","1","400","90100","408","92086","","","","","","","","","","","","","","","","","","","","","","","","","","","","","","","","","","","","","","","","","","","","","","","","","","","","",""
"","iti_localizer","","html-keyboard-response","222","1144605","0.0-2.0-78.0-1.0","34","40201","male","null","","","","null","","76","","","","1144286","1","","","","","","300","90500","319","92494","300","","","","","","","","","","","","","","","","","","","","","","","","","","","","","","","","","","","","","","","","","","","","","","","","","","","",""
"","localizer","","html-keyboard-response","223","1145019","0.0-2.0-79.0-0.0","34","40201","male","2","","","","75","1","77","","Stimuli/Experimental_stims/localizer/body_parts/david-fanuel-qnV8X7OViNY-unsplash.jpg","","1144605","1","body_parts","","0","0","0","400","90800","414","92813","","","","","","","","","","","","","","","","","","","","","","","","","","","","","","","","","","","","","","","","","","","","","","","","","","","","",""
"","iti_localizer","","html-keyboard-response","224","1145328","0.0-2.0-79.0-1.0","34","40201","male","null","","","","null","","77","","","","1145019","1","","","","","","300","91200","309","93227","300","","","","","","","","","","","","","","","","","","","","","","","","","","","","","","","","","","","","","","","","","","","","","","","","","","","",""
"","localizer","","html-keyboard-response","225","1145742","0.0-2.0-80.0-0.0","34","40201","male","125","","","","75","1","78","","Stimuli/Experimental_stims/localizer/body_parts/diana-polekhina-SwWjCbIIoFE-unsplash.jpg","","1145328","1","body_parts","","0","0","0","400","91500","414","93536","","","","","","","","","","","","","","","","","","","","","","","","","","","","","","","","","","","","","","","","","","","","","","","","","","","","",""
"","iti_localizer","","html-keyboard-response","226","1146057","0.0-2.0-80.0-1.0","34","40201","male","null","","","","null","","78","","","","1145742","1","","","","","","300","91900","315","93950","300","","","","","","","","","","","","","","","","","","","","","","","","","","","","","","","","","","","","","","","","","","","","","","","","","","","",""
"","localizer","","html-keyboard-response","227","1146469","0.0-2.0-81.0-0.0","34","40201","male","4","","","","75","1","79","","Stimuli/Experimental_stims/localizer/body_parts/ant-rozetsky-bXQd8JXx0vs-unsplash.jpg","","1146057","1","body_parts","","0","0","0","400","92200","412","94265","","","","","","","","","","","","","","","","","","","","","","","","","","","","","","","","","","","","","","","","","","","","","","","","","","","","",""
"","iti_localizer","","html-keyboard-response","228","1146772","0.0-2.0-81.0-1.0","34","40201","male","null","","","","null","","79","","","","1146469","1","","","","","","300","92600","303","94677","300","","","","","","","","","","","","","","","","","","","","","","","","","","","","","","","","","","","","","","","","","","","","","","","","","","","",""
"","localizer","","html-keyboard-response","229","1147186","0.0-2.0-82.0-0.0","34","40201","male","106","","","","75","1","80","","Stimuli/Experimental_stims/localizer/body_parts/callum-skelton-3KLMq7y46nA-unsplash.jpg","","1146772","1","body_parts","","0","0","0","400","92900","414","94980","","","","","","","","","","","","","","","","","","","","","","","","","","","","","","","","","","","","","","","","","","","","","","","","","","","","",""
"","iti_localizer","","html-keyboard-response","230","1147498","0.0-2.0-82.0-1.0","34","40201","male","null","","","","null","","80","","","","1147186","1","","","","","","300","93300","312","95394","300","","","","","","","","","","","","","","","","","","","","","","","","","","","","","","","","","","","","","","","","","","","","","","","","","","","",""
"","localizer","","html-keyboard-response","231","1147922","0.0-2.0-83.0-0.0","34","40201","male","245","","","","75","1","81","","Stimuli/Experimental_stims/localizer/body_parts/freestocks-qw9LFf5T790-unsplash.jpg","","1147498","1","body_parts","","0","0","0","400","93600","424","95706","","","","","","","","","","","","","","","","","","","","","","","","","","","","","","","","","","","","","","","","","","","","","","","","","","","","",""
"","iti_localizer","","html-keyboard-response","232","1148233","0.0-2.0-83.0-1.0","34","40201","male","null","","","","null","","81","","","","1147922","1","","","","","","300","94000","311","96130","300","","","","","","","","","","","","","","","","","","","","","","","","","","","","","","","","","","","","","","","","","","","","","","","","","","","",""
"","localizer","","html-keyboard-response","233","1148646","0.0-2.0-84.0-0.0","34","40201","male","108","","","","75","1","82","","Stimuli/Experimental_stims/localizer/body_parts/carlos-henrique-NAOJKwZswbs-unsplash.jpg","","1148233","1","body_parts","","0","0","0","400","94300","413","96441","","","","","","","","","","","","","","","","","","","","","","","","","","","","","","","","","","","","","","","","","","","","","","","","","","","","",""
"","iti_localizer","","html-keyboard-response","234","1148965","0.0-2.0-84.0-1.0","34","40201","male","null","","","","null","","82","","","","1148646","1","","","","","","300","94700","319","96854","300","","","","","","","","","","","","","","","","","","","","","","","","","","","","","","","","","","","","","","","","","","","","","","","","","","","",""
"","localizer","","html-keyboard-response","235","1149383","0.0-2.0-85.0-0.0","34","40201","male","4","","","","75","1","83","","Stimuli/Experimental_stims/localizer/body_parts/boyd-christiansen-uVj7kewrZ-o-unsplash.jpg","","1148965","1","body_parts","","1","0","1","400","95000","418","97173","","","","","","","","","","","","","","","","","","","","","","","","","","","","","","","","","","","","","","","","","","","","","","","","","","","","",""
"","iti_localizer","","html-keyboard-response","236","1149694","0.0-2.0-85.0-1.0","34","40201","male","null","","","","null","","83","","","","1149383","1","","","","","","300","95400","311","97591","300","","","","","","","","","","","","","","","","","","","","","","","","","","","","","","","","","","","","","","","","","","","","","","","","","","","",""
"","localizer","","html-keyboard-response","237","1150105","0.0-2.0-86.0-0.0","34","40201","male","70","","","","75","1","84","","Stimuli/Experimental_stims/localizer/body_parts/nick-page-jAGdpOGvLAA-unsplash.jpg","","1149694","1","body_parts","","0","0","0","400","95700","411","97902","","","","","","","","","","","","","","","","","","","","","","","","","","","","","","","","","","","","","","","","","","","","","","","","","","","","",""
"","iti_localizer","","html-keyboard-response","238","1150422","0.0-2.0-86.0-1.0","34","40201","male","null","","","","null","","84","","","","1150105","1","","","","","","300","96100","317","98313","300","","","","","","","","","","","","","","","","","","","","","","","","","","","","","","","","","","","","","","","","","","","","","","","","","","","",""
"","localizer","","html-keyboard-response","239","1150845","0.0-2.0-87.0-0.0","34","40201","male","73","","","","68","0","85","","Stimuli/Experimental_stims/localizer/body_parts/lilartsy-1KkhQ8uL28g-unsplash.jpg","","1150422","1","body_parts","","0","0","1","400","96400","423","98630","","","","","","","","","","","","","","","","","","","","","","","","","","","","","","","","","","","","","","","","","","","","","","","","","","","","",""
"","iti_localizer","","html-keyboard-response","240","1164863","0.0-2.0-87.0-1.0","34","40201","male","null","","","","null","","85","","","","1150845","1","","","","","","14000","96800","14018","99053","14000","","","","","","","","","","","","","","","","","","","","","","","","","","","","","","","","","","","","","","","","","","","","","","","","","","","",""
"","localizer","","html-keyboard-response","241","1165284","0.0-2.0-88.0-0.0","34","40201","male","85","","","","68","0","86","","Stimuli/Experimental_stims/localizer/objects/yossy-made-yulian-WaEqwDSIeTY-unsplash.jpg","","1164863","1","objects","","1","0","0","400","110800","421","113071","","","","","","","","","","","","","","","","","","","","","","","","","","","","","","","","","","","","","","","","","","","","","","","","","","","","",""
"","iti_localizer","","html-keyboard-response","242","1165593","0.0-2.0-88.0-1.0","34","40201","male","null","","","","null","","86","","","","1165284","1","","","","","","300","111200","309","113492","300","","","","","","","","","","","","","","","","","","","","","","","","","","","","","","","","","","","","","","","","","","","","","","","","","","","",""
"","localizer","","html-keyboard-response","243","1166009","0.0-2.0-89.0-0.0","34","40201","male","139","","","","68","0","87","","Stimuli/Experimental_stims/localizer/objects/namroud-gorguis-FZWivbri0Xk-unsplash.jpg","","1165593","1","objects","","0","0","1","400","111500","416","113801","","","","","","","","","","","","","","","","","","","","","","","","","","","","","","","","","","","","","","","","","","","","","","","","","","","","",""
"","iti_localizer","","html-keyboard-response","244","1166316","0.0-2.0-89.0-1.0","34","40201","male","null","","","","null","","87","","","","1166009","1","","","","","","300","111900","307","114217","300","","","","","","","","","","","","","","","","","","","","","","","","","","","","","","","","","","","","","","","","","","","","","","","","","","","",""
"","localizer","","html-keyboard-response","245","1166727","0.0-2.0-90.0-0.0","34","40201","male","165","","","","75","1","88","","Stimuli/Experimental_stims/localizer/objects/muhammad-toqeer-NRJ9ipvz2iE-unsplash.jpg","","1166316","1","objects","","0","0","0","400","112200","411","114524","","","","","","","","","","","","","","","","","","","","","","","","","","","","","","","","","","","","","","","","","","","","","","","","","","","","",""
"","iti_localizer","","html-keyboard-response","246","1167041","0.0-2.0-90.0-1.0","34","40201","male","null","","","","null","","88","","","","1166727","1","","","","","","300","112600","314","114935","300","","","","","","","","","","","","","","","","","","","","","","","","","","","","","","","","","","","","","","","","","","","","","","","","","","","",""
