"success","ttype","start_time","trial_type","trial_index","time_elapsed","internal_node_id","age","PID","gender","rt","responses","view_history","repeat_instructions","key_press","response","index","stimulus_index","path","start_time_elapsed","run","task","isi","is_odd_ball","no_response","acc","duration","onset","duration_time_elapsed","onset_time_elapsed","trial_duration","missed_checkup","left_chosen","chosen_stimulus","unchosen_stimulus","chosen_category","unchosen_category","chosen_rating","unchosen_rating","chosen_path","unchosen_path","pair_id","practice","scramble_screen_time","scramble_instructed_side","stim_type","iti","block","left_stimulus","right_stimulus","left_category","right_category","left_path","right_path","left_rating","right_rating","warning","scramble_acc","scramble_no_response","stimulus_id","item_id","outcome","response_rt","deliberation_reward_tally","choice_type","gain_left","left_item_id","right_item_id","higher_outcome_chosen","chosen_left","old_pair","pair_type","old_response","pair_acc","reward_type","outcome_response","outcome_rt","outcome_acc","category","choice","deliberated_stim","old_rating","new_rating","total_reward_tally"
"true","full_screen","d08172023hr1455","fullscreen","0","6575","0.0-0.0-0.0","35","50734","Male","","","","","","","","","","","","","","","","","","","","","","","","","","","","","","","","","","","","","","","","","","","","","","","","","","","","","","","","","","","","","","","","","","","","","","","","","",""
"","get_id","","survey-text","1","17493","0.0-0.0-1.0","35","50734","Male","10889","{""Q0"":""35"",""Q1"":""Male""}","","","","","","","","","","","","","","","","","","","","","","","","","","","","","","","","","","","","","","","","","","","","","","","","","","","","","","","","","","","","","","","","","","","","","","","",""
"","ratings_instructions","","instructions","2","52539","0.0-1.0-0.0-0.0","35","50734","Male","33648","","[{""page_index"":0,""viewing_time"":23025},{""page_index"":1,""viewing_time"":10621}]","","","","","","","","","","","","","","","","","","","","","","","","","","","","","","","","","","","","","","","","","","","","","","","","","","","","","","","","","","","","","","","","","","","","","","",""
"","rating_comprehension_check","","survey-multi-choice","3","67761","0.0-1.0-0.0-1.0","35","50734","Male","15203","{""Q0"":""True"",""Q1"":""Mouse""}","","0","","","","","","","","","","","","","","","","","","","","","","","","","","","","","","","","","","","","","","","","","","","","","","","","","","","","","","","","","","","","","","","","","","","","","",""
"","","","html-keyboard-response","4","77047","0.0-1.0-1.0","35","50734","Male","9261","","","","68","","","","","","","","","","","","","","","","","","","","","","","","","","","","","","","","","","","","","","","","","","","","","","","","","","","","","","","","","","","","","","","","","","","","",""
"","rating","","html-slider-response","5","86143","0.0-1.0-2.0","35","50734","Male","9073","","","","","89","0","11","Stimuli/Experimental_stims/outdoor_scenes/stephen-leonardi-gyIRjKPXupE-unsplash.jpg","","","","","","","","","","","","","","","","","","","","","","","","","","","","","","","","","","","","","","","","","","","","","","","","","","","","","","","","","","","","","","","","",""
"","rating","","html-slider-response","6","90839","0.0-1.0-3.0","35","50734","Male","4677","","","","","76","1","37","Stimuli/Experimental_stims/objects/alexander-andrews-VLGWE_SumrA-unsplash.jpg","","","","","","","","","","","","","","","","","","","","","","","","","","","","","","","","","","","","","","","","","","","","","","","","","","","","","","","","","","","","","","","","",""
"","rating","","html-slider-response","7","96081","0.0-1.0-4.0","35","50734","Male","5226","","","","","38","2","43","Stimuli/Experimental_stims/objects/jonathan-greenaway-Y4hGgeiFn3s-unsplash.jpg","","","","","","","","","","","","","","","","","","","","","","","","","","","","","","","","","","","","","","","","","","","","","","","","","","","","","","","","","","","","","","","","",""
"","rating","","html-slider-response","8","99887","0.0-1.0-5.0","35","50734","Male","3798","","","","","94","3","45","Stimuli/Experimental_stims/objects/leohoho-rngTKHXumy0-unsplash.jpg","","","","","","","","","","","","","","","","","","","","","","","","","","","","","","","","","","","","","","","","","","","","","","","","","","","","","","","","","","","","","","","","",""
"","rating","","html-slider-response","9","103895","0.0-1.0-6.0","35","50734","Male","3994","","","","","84","4","1","Stimuli/Experimental_stims/outdoor_scenes/ashim-d-silva-S2Q5mdOrrVc-unsplash.jpg","","","","","","","","","","","","","","","","","","","","","","","","","","","","","","","","","","","","","","","","","","","","","","","","","","","","","","","","","","","","","","","","",""
"","rating","","html-slider-response","10","107889","0.0-1.0-7.0","35","50734","Male","3977","","","","","96","5","4","Stimuli/Experimental_stims/outdoor_scenes/jarrett-kow-1ZOyYPOBn7I-unsplash.jpg","","","","","","","","","","","","","","","","","","","","","","","","","","","","","","","","","","","","","","","","","","","","","","","","","","","","","","","","","","","","","","","","",""
"","rating","","html-slider-response","11","111878","0.0-1.0-8.0","35","50734","Male","3971","","","","","68","6","35","Stimuli/Experimental_stims/body_parts/wc-so-KH4AAPjb-tI-unsplash.jpg","","","","","","","","","","","","","","","","","","","","","","","","","","","","","","","","","","","","","","","","","","","","","","","","","","","","","","","","","","","","","","","","",""
"","rating","","html-slider-response","12","116264","0.0-1.0-9.0","35","50734","Male","4372","","","","","76","7","24","Stimuli/Experimental_stims/body_parts/clay-banks-LjqARJaJotc-unsplash.jpg","","","","","","","","","","","","","","","","","","","","","","","","","","","","","","","","","","","","","","","","","","","","","","","","","","","","","","","","","","","","","","","","",""
"","rating","","html-slider-response","13","120019","0.0-1.0-10.0","35","50734","Male","3741","","","","","99","8","6","Stimuli/Experimental_stims/outdoor_scenes/meng-ji-8BH_M-53CyA-unsplash.jpg","","","","","","","","","","","","","","","","","","","","","","","","","","","","","","","","","","","","","","","","","","","","","","","","","","","","","","","","","","","","","","","","",""
"","rating","","html-slider-response","14","124216","0.0-1.0-11.0","35","50734","Male","4179","","","","","99","9","3","Stimuli/Experimental_stims/outdoor_scenes/henry-be-NLF6hTe4PAg-unsplash.jpg","","","","","","","","","","","","","","","","","","","","","","","","","","","","","","","","","","","","","","","","","","","","","","","","","","","","","","","","","","","","","","","","",""
"","rating","","html-slider-response","15","127670","0.0-1.0-12.0","35","50734","Male","3443","","","","","93","10","5","Stimuli/Experimental_stims/outdoor_scenes/jeff-king-bJHWJeiHfHc-unsplash.jpg","","","","","","","","","","","","","","","","","","","","","","","","","","","","","","","","","","","","","","","","","","","","","","","","","","","","","","","","","","","","","","","","",""
"","rating","","html-slider-response","16","131266","0.0-1.0-13.0","35","50734","Male","3581","","","","","39","11","25","Stimuli/Experimental_stims/body_parts/engin-akyurt-Q2rfH3GW39c-unsplash.jpg","","","","","","","","","","","","","","","","","","","","","","","","","","","","","","","","","","","","","","","","","","","","","","","","","","","","","","","","","","","","","","","","",""
"","rating","","html-slider-response","17","134581","0.0-1.0-14.0","35","50734","Male","3295","","","","","54","12","21","Stimuli/Experimental_stims/faces/leilani-angel-K84vnnzxmTQ-unsplash.jpg","","","","","","","","","","","","","","","","","","","","","","","","","","","","","","","","","","","","","","","","","","","","","","","","","","","","","","","","","","","","","","","","",""
"","rating","","html-slider-response","18","137541","0.0-1.0-15.0","35","50734","Male","2943","","","","","76","13","40","Stimuli/Experimental_stims/objects/fabian-blank-pElSkGRA2NU-unsplash.jpg","","","","","","","","","","","","","","","","","","","","","","","","","","","","","","","","","","","","","","","","","","","","","","","","","","","","","","","","","","","","","","","","",""
"","rating","","html-slider-response","19","141093","0.0-1.0-16.0","35","50734","Male","3540","","","","","77","14","46","Stimuli/Experimental_stims/objects/mockup-graphics-PNsj6RiHAF4-unsplash.jpg","","","","","","","","","","","","","","","","","","","","","","","","","","","","","","","","","","","","","","","","","","","","","","","","","","","","","","","","","","","","","","","","",""
"","rating","","html-slider-response","20","158677","0.0-1.0-17.0","35","50734","Male","17565","","","","","53","15","34","Stimuli/Experimental_stims/body_parts/wagner-santos-mBWMvIuVnso-unsplash.jpg","","","","","","","","","","","","","","","","","","","","","","","","","","","","","","","","","","","","","","","","","","","","","","","","","","","","","","","","","","","","","","","","",""
"","rating","","html-slider-response","21","161578","0.0-1.0-18.0","35","50734","Male","2890","","","","","63","16","32","Stimuli/Experimental_stims/body_parts/towfiqu-barbhuiya-3AsiVDsZnHg-unsplash.jpg","","","","","","","","","","","","","","","","","","","","","","","","","","","","","","","","","","","","","","","","","","","","","","","","","","","","","","","","","","","","","","","","",""
"","rating","","html-slider-response","22","166016","0.0-1.0-19.0","35","50734","Male","4421","","","","","40","17","18","Stimuli/Experimental_stims/faces/jessica-radanavong-mrYkTuAesKE-unsplash.jpg","","","","","","","","","","","","","","","","","","","","","","","","","","","","","","","","","","","","","","","","","","","","","","","","","","","","","","","","","","","","","","","","",""
"","rating","","html-slider-response","23","170171","0.0-1.0-20.0","35","50734","Male","4140","","","","","53","18","22","Stimuli/Experimental_stims/faces/ravi-patel-VMGAbeeJTKo-unsplash.jpg","","","","","","","","","","","","","","","","","","","","","","","","","","","","","","","","","","","","","","","","","","","","","","","","","","","","","","","","","","","","","","","","",""
"","rating","","html-slider-response","24","173963","0.0-1.0-21.0","35","50734","Male","3781","","","","","92","19","33","Stimuli/Experimental_stims/body_parts/tucker-good-36skLT5jZcc-unsplash.jpg","","","","","","","","","","","","","","","","","","","","","","","","","","","","","","","","","","","","","","","","","","","","","","","","","","","","","","","","","","","","","","","","",""
"","rating","","html-slider-response","25","178902","0.0-1.0-22.0","35","50734","Male","4925","","","","","82","20","47","Stimuli/Experimental_stims/objects/ronaldo-arthur-vidal-Cdz_lvnl37k-unsplash.jpg","","","","","","","","","","","","","","","","","","","","","","","","","","","","","","","","","","","","","","","","","","","","","","","","","","","","","","","","","","","","","","","","",""
"","rating","","html-slider-response","26","181942","0.0-1.0-23.0","35","50734","Male","3031","","","","","58","21","20","Stimuli/Experimental_stims/faces/justin-chen-J7Cf1Gch49E-unsplash.jpg","","","","","","","","","","","","","","","","","","","","","","","","","","","","","","","","","","","","","","","","","","","","","","","","","","","","","","","","","","","","","","","","",""
"","rating","","html-slider-response","27","184598","0.0-1.0-24.0","35","50734","Male","2647","","","","","67","22","19","Stimuli/Experimental_stims/faces/joel-mott-LaK153ghdig-unsplash.jpg","","","","","","","","","","","","","","","","","","","","","","","","","","","","","","","","","","","","","","","","","","","","","","","","","","","","","","","","","","","","","","","","",""
"","rating","","html-slider-response","28","188164","0.0-1.0-25.0","35","50734","Male","3554","","","","","80","23","42","Stimuli/Experimental_stims/objects/jess-bailey-nOeVi8DsN8U-unsplash.jpg","","","","","","","","","","","","","","","","","","","","","","","","","","","","","","","","","","","","","","","","","","","","","","","","","","","","","","","","","","","","","","","","",""
"","rating","","html-slider-response","29","193746","0.0-1.0-26.0","35","50734","Male","5555","","","","","74","24","26","Stimuli/Experimental_stims/body_parts/engin-akyurt-x_3gyC42btc-unsplash.jpg","","","","","","","","","","","","","","","","","","","","","","","","","","","","","","","","","","","","","","","","","","","","","","","","","","","","","","","","","","","","","","","","",""
"","rating","","html-slider-response","30","197165","0.0-1.0-27.0","35","50734","Male","3402","","","","","81","25","36","Stimuli/Experimental_stims/objects/alexander-andrews-JYGnB9gTCls-unsplash.jpg","","","","","","","","","","","","","","","","","","","","","","","","","","","","","","","","","","","","","","","","","","","","","","","","","","","","","","","","","","","","","","","","",""
"","rating","","html-slider-response","31","200399","0.0-1.0-28.0","35","50734","Male","3224","","","","","95","26","41","Stimuli/Experimental_stims/objects/insung-yoon-w2JtIQQXoRU-unsplash.jpg","","","","","","","","","","","","","","","","","","","","","","","","","","","","","","","","","","","","","","","","","","","","","","","","","","","","","","","","","","","","","","","","",""
"","rating","","html-slider-response","32","204844","0.0-1.0-29.0","35","50734","Male","4436","","","","","99","27","0","Stimuli/Experimental_stims/outdoor_scenes/aleksandra-boguslawska-MS7KD9Ti7FQ-unsplash.jpg","","","","","","","","","","","","","","","","","","","","","","","","","","","","","","","","","","","","","","","","","","","","","","","","","","","","","","","","","","","","","","","","",""
"","rating","","html-slider-response","33","208466","0.0-1.0-30.0","35","50734","Male","3606","","","","","98","28","29","Stimuli/Experimental_stims/body_parts/manuel-schinner-ZwjFuJ7ebpk-unsplash.jpg","","","","","","","","","","","","","","","","","","","","","","","","","","","","","","","","","","","","","","","","","","","","","","","","","","","","","","","","","","","","","","","","",""
"","rating","","html-slider-response","34","212023","0.0-1.0-31.0","35","50734","Male","3545","","","","","95","29","39","Stimuli/Experimental_stims/objects/charlesdeluvio-1-nx1QR5dTE-unsplash.jpg","","","","","","","","","","","","","","","","","","","","","","","","","","","","","","","","","","","","","","","","","","","","","","","","","","","","","","","","","","","","","","","","",""
"","rating","","html-slider-response","35","216822","0.0-1.0-32.0","35","50734","Male","4785","","","","","96","30","27","Stimuli/Experimental_stims/body_parts/heike-mintel-i_Gns0ELnLw-unsplash.jpg","","","","","","","","","","","","","","","","","","","","","","","","","","","","","","","","","","","","","","","","","","","","","","","","","","","","","","","","","","","","","","","","",""
"","rating","","html-slider-response","36","220284","0.0-1.0-33.0","35","50734","Male","3449","","","","","55","31","16","Stimuli/Experimental_stims/faces/freddy-kearney-o-ioeoATbIM-unsplash.jpg","","","","","","","","","","","","","","","","","","","","","","","","","","","","","","","","","","","","","","","","","","","","","","","","","","","","","","","","","","","","","","","","",""
"","rating","","html-slider-response","37","223699","0.0-1.0-34.0","35","50734","Male","3404","","","","","94","32","8","Stimuli/Experimental_stims/outdoor_scenes/samsommer-vddccTqwal8-unsplash.jpg","","","","","","","","","","","","","","","","","","","","","","","","","","","","","","","","","","","","","","","","","","","","","","","","","","","","","","","","","","","","","","","","",""
"","rating","","html-slider-response","38","227380","0.0-1.0-35.0","35","50734","Male","3665","","","","","92","33","38","Stimuli/Experimental_stims/objects/art-lasovsky-8XddFc6NkBY-unsplash.jpg","","","","","","","","","","","","","","","","","","","","","","","","","","","","","","","","","","","","","","","","","","","","","","","","","","","","","","","","","","","","","","","","",""
"","rating","","html-slider-response","39","230807","0.0-1.0-36.0","35","50734","Male","3410","","","","","61","34","30","Stimuli/Experimental_stims/body_parts/mika-korhonen-Xodzxosar18-unsplash.jpg","","","","","","","","","","","","","","","","","","","","","","","","","","","","","","","","","","","","","","","","","","","","","","","","","","","","","","","","","","","","","","","","",""
"","rating","","html-slider-response","40","244475","0.0-1.0-37.0","35","50734","Male","13642","","","","","54","35","23","Stimuli/Experimental_stims/faces/rikonavt-HQjfrvdTfak-unsplash.jpg","","","","","","","","","","","","","","","","","","","","","","","","","","","","","","","","","","","","","","","","","","","","","","","","","","","","","","","","","","","","","","","","",""
"","rating","","html-slider-response","41","250172","0.0-1.0-38.0","35","50734","Male","5674","","","","","96","36","10","Stimuli/Experimental_stims/outdoor_scenes/shannon-kunkle-dM8INmkyDas-unsplash.jpg","","","","","","","","","","","","","","","","","","","","","","","","","","","","","","","","","","","","","","","","","","","","","","","","","","","","","","","","","","","","","","","","",""
"","rating","","html-slider-response","42","254341","0.0-1.0-39.0","35","50734","Male","4158","","","","","63","37","12","Stimuli/Experimental_stims/faces/aiony-haust-jmATI5Q_YgY-unsplash.jpg","","","","","","","","","","","","","","","","","","","","","","","","","","","","","","","","","","","","","","","","","","","","","","","","","","","","","","","","","","","","","","","","",""
"","rating","","html-slider-response","43","266258","0.0-1.0-40.0","35","50734","Male","11900","","","","","76","38","31","Stimuli/Experimental_stims/body_parts/sincerely-media-VN6DbKajo5s-unsplash.jpg","","","","","","","","","","","","","","","","","","","","","","","","","","","","","","","","","","","","","","","","","","","","","","","","","","","","","","","","","","","","","","","","",""
"","rating","","html-slider-response","44","295064","0.0-1.0-41.0","35","50734","Male","28782","","","","","81","39","7","Stimuli/Experimental_stims/outdoor_scenes/petr-vysohlid-9fqwGqGLUxc-unsplash.jpg","","","","","","","","","","","","","","","","","","","","","","","","","","","","","","","","","","","","","","","","","","","","","","","","","","","","","","","","","","","","","","","","",""
"","rating","","html-slider-response","45","298416","0.0-1.0-42.0","35","50734","Male","3341","","","","","38","40","15","Stimuli/Experimental_stims/faces/erik-lucatero-d2MSDujJl2g-unsplash.jpg","","","","","","","","","","","","","","","","","","","","","","","","","","","","","","","","","","","","","","","","","","","","","","","","","","","","","","","","","","","","","","","","",""
"","rating","","html-slider-response","46","303487","0.0-1.0-43.0","35","50734","Male","5059","","","","","60","41","28","Stimuli/Experimental_stims/body_parts/ira-vishnevskaya-8DQAvdCby1I-unsplash.jpg","","","","","","","","","","","","","","","","","","","","","","","","","","","","","","","","","","","","","","","","","","","","","","","","","","","","","","","","","","","","","","","","",""
"","rating","","html-slider-response","47","306223","0.0-1.0-44.0","35","50734","Male","2719","","","","","73","42","9","Stimuli/Experimental_stims/outdoor_scenes/sergey-pesterev-y-b_FOmJXdg-unsplash.jpg","","","","","","","","","","","","","","","","","","","","","","","","","","","","","","","","","","","","","","","","","","","","","","","","","","","","","","","","","","","","","","","","",""
"","rating","","html-slider-response","48","309511","0.0-1.0-45.0","35","50734","Male","3280","","","","","85","43","2","Stimuli/Experimental_stims/outdoor_scenes/bruno-van-der-kraan-qez8mNJ3ilU-unsplash.jpg","","","","","","","","","","","","","","","","","","","","","","","","","","","","","","","","","","","","","","","","","","","","","","","","","","","","","","","","","","","","","","","","",""
"","rating","","html-slider-response","49","312458","0.0-1.0-46.0","35","50734","Male","2931","","","","","38","44","17","Stimuli/Experimental_stims/faces/good-faces-xmSWVeGEnJw-unsplash.jpg","","","","","","","","","","","","","","","","","","","","","","","","","","","","","","","","","","","","","","","","","","","","","","","","","","","","","","","","","","","","","","","","",""
"","rating","","html-slider-response","50","315857","0.0-1.0-47.0","35","50734","Male","3390","","","","","63","45","44","Stimuli/Experimental_stims/objects/kuiye-chen-NuOGFo4PudE-unsplash.jpg","","","","","","","","","","","","","","","","","","","","","","","","","","","","","","","","","","","","","","","","","","","","","","","","","","","","","","","","","","","","","","","","",""
"","rating","","html-slider-response","51","321820","0.0-1.0-48.0","35","50734","Male","5954","","","","","40","46","13","Stimuli/Experimental_stims/faces/daniel-rigdon-dXmXKPP2L4E-unsplash.jpg","","","","","","","","","","","","","","","","","","","","","","","","","","","","","","","","","","","","","","","","","","","","","","","","","","","","","","","","","","","","","","","","",""
"","rating","","html-slider-response","52","324980","0.0-1.0-49.0","35","50734","Male","3149","","","","","32","47","14","Stimuli/Experimental_stims/faces/david-siglin-UuW4psOb388-unsplash.jpg","","","","","","","","","","","","","","","","","","","","","","","","","","","","","","","","","","","","","","","","","","","","","","","","","","","","","","","","","","","","","","","","",""
"","localizer_instructions","","instructions","53","380427","0.0-2.0-0.0-0.0","35","50734","Male","55347","","[{""page_index"":0,""viewing_time"":41944},{""page_index"":1,""viewing_time"":8030},{""page_index"":2,""viewing_time"":5371}]","","","","","","","","","","","","","","","","","","","","","","","","","","","","","","","","","","","","","","","","","","","","","","","","","","","","","","","","","","","","","","","","","","","","","","",""
"","localizer_comprehension_check","","survey-multi-choice","54","404847","0.0-2.0-0.0-1.0","35","50734","Male","24392","{""Q0"":""True"",""Q1"":""K"",""Q2"":""D""}","","0","","","","","","","","","","","","","","","","","","","","","","","","","","","","","","","","","","","","","","","","","","","","","","","","","","","","","","","","","","","","","","","","","","","","","",""
"","","","html-keyboard-response","55","412700","0.0-2.0-1.0","35","50734","Male","7829","","","","68","","","","","","","","","","","","","","","","","","","","","","","","","","","","","","","","","","","","","","","","","","","","","","","","","","","","","","","","","","","","","","","","","","","","",""
"","localizer","","html-keyboard-response","56","413117","0.0-2.0-2.0-0.0","35","50734","Male","NaN","","","","null","NaN","0","","Stimuli/Practice_stims/Localizer/annie-spratt-g9KFpAfQ5bc-unsplash.jpg","412700","0","NaN","","0","1","0","400","0","417","0","","","","","","","","","","","","","","","","","","","","","","","","","","","","","","","","","","","","","","","","","","","","","","","","","","","","","",""
"","iti_localizer","","html-keyboard-response","57","413425","0.0-2.0-2.0-1.0","35","50734","Male","null","","","","null","","0","","","413117","0","","","","","","300","400","308","417","300","","","","","","","","","","","","","","","","","","","","","","","","","","","","","","","","","","","","","","","","","","","","","","","","","","","","",""
"","localizer","","html-keyboard-response","58","413834","0.0-2.0-2.1-0.1","35","50734","Male","NaN","","","","null","NaN","0","","Stimuli/Practice_stims/Localizer/annie-spratt-g9KFpAfQ5bc-unsplash.jpg","413425","0","NaN","","0","1","0","400","700","409","725","","","","","","","","","","","","","","","","","","","","","","","","","","","","","","","","","","","","","","","","","","","","","","","","","","","","","",""
"","iti_localizer","","html-keyboard-response","59","414141","0.0-2.0-2.1-1.1","35","50734","Male","null","","","","null","","0","","","413834","0","","","","","","300","1100","307","1134","300","","","","","","","","","","","","","","","","","","","","","","","","","","","","","","","","","","","","","","","","","","","","","","","","","","","","",""
"","localizer","","html-keyboard-response","60","414553","0.0-2.0-2.2-0.2","35","50734","Male","NaN","","","","null","NaN","0","","Stimuli/Practice_stims/Localizer/annie-spratt-g9KFpAfQ5bc-unsplash.jpg","414141","0","NaN","","0","1","0","400","1400","412","1441","","","","","","","","","","","","","","","","","","","","","","","","","","","","","","","","","","","","","","","","","","","","","","","","","","","","","",""
"","iti_localizer","","html-keyboard-response","61","414865","0.0-2.0-2.2-1.2","35","50734","Male","null","","","","null","","0","","","414553","0","","","","","","300","1800","312","1853","300","","","","","","","","","","","","","","","","","","","","","","","","","","","","","","","","","","","","","","","","","","","","","","","","","","","","",""
"","localizer","","html-keyboard-response","62","415282","0.0-2.0-2.3-0.3","35","50734","Male","NaN","","","","null","NaN","0","","Stimuli/Practice_stims/Localizer/annie-spratt-g9KFpAfQ5bc-unsplash.jpg","414865","0","NaN","","0","1","0","400","2100","417","2165","","","","","","","","","","","","","","","","","","","","","","","","","","","","","","","","","","","","","","","","","","","","","","","","","","","","","",""
"","iti_localizer","","html-keyboard-response","63","415592","0.0-2.0-2.3-1.3","35","50734","Male","null","","","","null","","0","","","415282","0","","","","","","300","2500","310","2582","300","","","","","","","","","","","","","","","","","","","","","","","","","","","","","","","","","","","","","","","","","","","","","","","","","","","","",""
"","localizer","","html-keyboard-response","64","416001","0.0-2.0-2.4-0.4","35","50734","Male","36","","","","68","0","0","","Stimuli/Practice_stims/Localizer/annie-spratt-g9KFpAfQ5bc-unsplash.jpg","415592","0","NaN","","0","0","1","400","2800","409","2892","","","","","","","","","","","","","","","","","","","","","","","","","","","","","","","","","","","","","","","","","","","","","","","","","","","","","",""
"","iti_localizer","","html-keyboard-response","65","416311","0.0-2.0-2.4-1.4","35","50734","Male","null","","","","null","","0","","","416001","0","","","","","","300","3200","310","3301","300","","","","","","","","","","","","","","","","","","","","","","","","","","","","","","","","","","","","","","","","","","","","","","","","","","","","",""
"","localizer","","html-keyboard-response","66","416718","0.0-2.0-3.0-0.0","35","50734","Male","NaN","","","","null","NaN","1","","Stimuli/Practice_stims/Localizer/becca-tapert-sY5RjMB1KkE-unsplash.jpg","416311","0","NaN","","0","1","0","400","3500","407","3611","","","","","","","","","","","","","","","","","","","","","","","","","","","","","","","","","","","","","","","","","","","","","","","","","","","","","",""
"","iti_localizer","","html-keyboard-response","67","417026","0.0-2.0-3.0-1.0","35","50734","Male","null","","","","null","","1","","","416718","0","","","","","","300","3900","308","4018","300","","","","","","","","","","","","","","","","","","","","","","","","","","","","","","","","","","","","","","","","","","","","","","","","","","","","",""
"","localizer","","html-keyboard-response","68","417438","0.0-2.0-3.1-0.1","35","50734","Male","78","","","","68","0","1","","Stimuli/Practice_stims/Localizer/becca-tapert-sY5RjMB1KkE-unsplash.jpg","417026","0","NaN","","0","0","1","400","4200","412","4326","","","","","","","","","","","","","","","","","","","","","","","","","","","","","","","","","","","","","","","","","","","","","","","","","","","","","",""
"","iti_localizer","","html-keyboard-response","69","417748","0.0-2.0-3.1-1.1","35","50734","Male","null","","","","null","","1","","","417438","0","","","","","","300","4600","310","4738","300","","","","","","","","","","","","","","","","","","","","","","","","","","","","","","","","","","","","","","","","","","","","","","","","","","","","",""
"","localizer","","html-keyboard-response","70","418158","0.0-2.0-4.0-0.0","35","50734","Male","NaN","","","","null","NaN","2","","Stimuli/Practice_stims/Localizer/charl-durand-bsfXvI25iNg-unsplash.jpg","417748","0","NaN","","1","1","0","400","4900","410","5048","","","","","","","","","","","","","","","","","","","","","","","","","","","","","","","","","","","","","","","","","","","","","","","","","","","","","",""
"","iti_localizer","","html-keyboard-response","71","418464","0.0-2.0-4.0-1.0","35","50734","Male","null","","","","null","","2","","","418158","0","","","","","","300","5300","306","5458","300","","","","","","","","","","","","","","","","","","","","","","","","","","","","","","","","","","","","","","","","","","","","","","","","","","","","",""
"","localizer","","html-keyboard-response","72","418879","0.0-2.0-4.1-0.1","35","50734","Male","72","","","","68","0","2","","Stimuli/Practice_stims/Localizer/charl-durand-bsfXvI25iNg-unsplash.jpg","418464","0","NaN","","1","0","0","400","5600","415","5764","","","","","","","","","","","","","","","","","","","","","","","","","","","","","","","","","","","","","","","","","","","","","","","","","","","","","",""
"","iti_localizer","","html-keyboard-response","73","419187","0.0-2.0-4.1-1.1","35","50734","Male","null","","","","null","","2","","","418879","0","","","","","","300","6000","308","6179","300","","","","","","","","","","","","","","","","","","","","","","","","","","","","","","","","","","","","","","","","","","","","","","","","","","","","",""
"","localizer","","html-keyboard-response","74","419597","0.0-2.0-5.0-0.0","35","50734","Male","NaN","","","","null","NaN","3","","Stimuli/Practice_stims/Localizer/nizar-albusaidy-B2r2SWAf5CE-unsplash.jpg","419187","0","NaN","","0","1","0","400","6300","410","6487","","","","","","","","","","","","","","","","","","","","","","","","","","","","","","","","","","","","","","","","","","","","","","","","","","","","","",""
"","iti_localizer","","html-keyboard-response","75","419906","0.0-2.0-5.0-1.0","35","50734","Male","null","","","","null","","3","","","419597","0","","","","","","300","6700","309","6897","300","","","","","","","","","","","","","","","","","","","","","","","","","","","","","","","","","","","","","","","","","","","","","","","","","","","","",""
"","localizer","","html-keyboard-response","76","420316","0.0-2.0-5.1-0.1","35","50734","Male","68","","","","75","1","3","","Stimuli/Practice_stims/Localizer/nizar-albusaidy-B2r2SWAf5CE-unsplash.jpg","419906","0","NaN","","0","0","0","400","7000","410","7206","","","","","","","","","","","","","","","","","","","","","","","","","","","","","","","","","","","","","","","","","","","","","","","","","","","","","",""
"","iti_localizer","","html-keyboard-response","77","420633","0.0-2.0-5.1-1.1","35","50734","Male","null","","","","null","","3","","","420316","0","","","","","","300","7400","317","7616","300","","","","","","","","","","","","","","","","","","","","","","","","","","","","","","","","","","","","","","","","","","","","","","","","","","","","",""
"","localizer","","html-keyboard-response","78","421048","0.0-2.0-6.0-0.0","35","50734","Male","NaN","","","","null","NaN","4","","Stimuli/Practice_stims/Localizer/randy-fath-epf1tdtIIkM-unsplash.jpg","420633","0","NaN","","1","1","0","400","7700","415","7933","","","","","","","","","","","","","","","","","","","","","","","","","","","","","","","","","","","","","","","","","","","","","","","","","","","","","",""
"","iti_localizer","","html-keyboard-response","79","421356","0.0-2.0-6.0-1.0","35","50734","Male","null","","","","null","","4","","","421048","0","","","","","","300","8100","308","8348","300","","","","","","","","","","","","","","","","","","","","","","","","","","","","","","","","","","","","","","","","","","","","","","","","","","","","",""
"","localizer","","html-keyboard-response","80","421764","0.0-2.0-6.1-0.1","35","50734","Male","25","","","","75","1","4","","Stimuli/Practice_stims/Localizer/randy-fath-epf1tdtIIkM-unsplash.jpg","421356","0","NaN","","1","0","1","400","8400","408","8656","","","","","","","","","","","","","","","","","","","","","","","","","","","","","","","","","","","","","","","","","","","","","","","","","","","","","",""
"","iti_localizer","","html-keyboard-response","81","422074","0.0-2.0-6.1-1.1","35","50734","Male","null","","","","null","","4","","","421764","0","","","","","","300","8800","310","9064","300","","","","","","","","","","","","","","","","","","","","","","","","","","","","","","","","","","","","","","","","","","","","","","","","","","","","",""
"","localizer","","html-keyboard-response","82","422489","0.0-2.0-7.0-0.0","35","50734","Male","73","","","","75","1","5","","Stimuli/Practice_stims/Localizer/yassine-khalfalli-adsQ9d_Cx0c-unsplash.jpg","422074","0","NaN","","0","0","0","400","9100","415","9374","","","","","","","","","","","","","","","","","","","","","","","","","","","","","","","","","","","","","","","","","","","","","","","","","","","","","",""
"","iti_localizer","","html-keyboard-response","83","422796","0.0-2.0-7.0-1.0","35","50734","Male","null","","","","null","","5","","","422489","0","","","","","","300","9500","307","9789","300","","","","","","","","","","","","","","","","","","","","","","","","","","","","","","","","","","","","","","","","","","","","","","","","","","","","",""
"","practice_over","","html-keyboard-response","84","423073","0.0-2.0-7.0-2.0-0.0","35","50734","Male","270","","","","68","","","","","","","","","","","","","","","","","","","","","","","","","","","","","","","","","","","","","","","","","","","","","","","","","","","","","","","","","","","","","","","","","","","","",""
"","start_run","","html-keyboard-response","85","426188","0.0-2.0-7.0-2.0-1.0","35","50734","Male","3104","","","","84","","","","","","","","","","","","","","","","","","","","","","","","","","","","","","","","","","","","","","","","","","","","","","","","","","","","","","","","","","","","","","","","","","","","",""
"","localizer","","html-keyboard-response","86","426618","0.0-2.0-8.0-0.0","35","50734","Male","NaN","","","","null","NaN","6","","Stimuli/Experimental_stims/localizer/objects/jonny-caspari-wsvCC6UyKjs-unsplash.jpg","426188","1","objects","","0","1","0","400","0","430","0","","","","","","","","","","","","","","","","","","","","","","","","","","","","","","","","","","","","","","","","","","","","","","","","","","","","","",""
"","iti_localizer","","html-keyboard-response","87","426924","0.0-2.0-8.0-1.0","35","50734","Male","null","","","","null","","6","","","426618","1","","","","","","300","400","306","430","300","","","","","","","","","","","","","","","","","","","","","","","","","","","","","","","","","","","","","","","","","","","","","","","","","","","","",""
"","localizer","","html-keyboard-response","88","427333","0.0-2.0-9.0-0.0","35","50734","Male","NaN","","","","null","NaN","7","","Stimuli/Experimental_stims/localizer/objects/charlesdeluvio-RDjZh9dqlP4-unsplash.jpg","426924","1","objects","","0","1","0","400","700","409","736","","","","","","","","","","","","","","","","","","","","","","","","","","","","","","","","","","","","","","","","","","","","","","","","","","","","","",""
"","iti_localizer","","html-keyboard-response","89","427643","0.0-2.0-9.0-1.0","35","50734","Male","null","","","","null","","7","","","427333","1","","","","","","300","1100","310","1145","300","","","","","","","","","","","","","","","","","","","","","","","","","","","","","","","","","","","","","","","","","","","","","","","","","","","","",""
"","localizer","","html-keyboard-response","90","428055","0.0-2.0-10.0-0.0","35","50734","Male","NaN","","","","null","NaN","8","","Stimuli/Experimental_stims/localizer/objects/adriano-pucciarelli-Jl3S1yM8gi8-unsplash.jpg","427643","1","objects","","0","1","0","400","1400","412","1455","","","","","","","","","","","","","","","","","","","","","","","","","","","","","","","","","","","","","","","","","","","","","","","","","","","","","",""
"","iti_localizer","","html-keyboard-response","91","428381","0.0-2.0-10.0-1.0","35","50734","Male","null","","","","null","","8","","","428055","1","","","","","","300","1800","326","1867","300","","","","","","","","","","","","","","","","","","","","","","","","","","","","","","","","","","","","","","","","","","","","","","","","","","","","",""
"","localizer","","html-keyboard-response","92","428826","0.0-2.0-11.0-0.0","35","50734","Male","NaN","","","","null","NaN","9","","Stimuli/Experimental_stims/localizer/objects/mockup-graphics-Pj2PY-E-LfM-unsplash.jpg","428381","1","objects","","0","1","0","400","2100","445","2193","","","","","","","","","","","","","","","","","","","","","","","","","","","","","","","","","","","","","","","","","","","","","","","","","","","","","",""
"","iti_localizer","","html-keyboard-response","93","429137","0.0-2.0-11.0-1.0","35","50734","Male","null","","","","null","","9","","","428826","1","","","","","","300","2500","311","2638","300","","","","","","","","","","","","","","","","","","","","","","","","","","","","","","","","","","","","","","","","","","","","","","","","","","","","",""
"","localizer","","html-keyboard-response","94","429547","0.0-2.0-12.0-0.0","35","50734","Male","NaN","","","","null","NaN","10","","Stimuli/Experimental_stims/localizer/objects/chris-briggs-x9TCnxNBofE-unsplash.jpg","429137","1","objects","","0","1","0","400","2800","410","2949","","","","","","","","","","","","","","","","","","","","","","","","","","","","","","","","","","","","","","","","","","","","","","","","","","","","","",""
"","iti_localizer","","html-keyboard-response","95","429857","0.0-2.0-12.0-1.0","35","50734","Male","null","","","","null","","10","","","429547","1","","","","","","300","3200","310","3359","300","","","","","","","","","","","","","","","","","","","","","","","","","","","","","","","","","","","","","","","","","","","","","","","","","","","","",""
"","localizer","","html-keyboard-response","96","430268","0.0-2.0-13.0-0.0","35","50734","Male","NaN","","","","null","NaN","11","","Stimuli/Experimental_stims/localizer/objects/ignat-dolomanov-kFBDVnmskPA-unsplash.jpg","429857","1","objects","","1","1","0","400","3500","411","3669","","","","","","","","","","","","","","","","","","","","","","","","","","","","","","","","","","","","","","","","","","","","","","","","","","","","","",""
"","iti_localizer","","html-keyboard-response","97","430647","0.0-2.0-13.0-1.0","35","50734","Male","null","","","","null","","11","","","430268","1","","","","","","300","3900","379","4080","300","","","","","","","","","","","","","","","","","","","","","","","","","","","","","","","","","","","","","","","","","","","","","","","","","","","","",""
"","localizer","","html-keyboard-response","98","431059","0.0-2.0-14.0-0.0","35","50734","Male","30","","","","68","0","12","","Stimuli/Experimental_stims/localizer/objects/adriano-pucciarelli-BE7yaZnZX6o-unsplash.jpg","430647","1","objects","","0","0","1","400","4200","412","4459","","","","","","","","","","","","","","","","","","","","","","","","","","","","","","","","","","","","","","","","","","","","","","","","","","","","","",""
"","iti_localizer","","html-keyboard-response","99","431371","0.0-2.0-14.0-1.0","35","50734","Male","null","","","","null","","12","","","431059","1","","","","","","300","4600","312","4871","300","","","","","","","","","","","","","","","","","","","","","","","","","","","","","","","","","","","","","","","","","","","","","","","","","","","","",""
"","localizer","","html-keyboard-response","100","431779","0.0-2.0-15.0-0.0","35","50734","Male","NaN","","","","null","NaN","13","","Stimuli/Experimental_stims/localizer/objects/eugene-chystiakov-3neSwyntbQ8-unsplash.jpg","431371","1","objects","","0","1","0","400","4900","408","5183","","","","","","","","","","","","","","","","","","","","","","","","","","","","","","","","","","","","","","","","","","","","","","","","","","","","","",""
"","iti_localizer","","html-keyboard-response","101","432097","0.0-2.0-15.0-1.0","35","50734","Male","null","","","","null","","13","","","431779","1","","","","","","300","5300","318","5591","300","","","","","","","","","","","","","","","","","","","","","","","","","","","","","","","","","","","","","","","","","","","","","","","","","","","","",""
"","localizer","","html-keyboard-response","102","432505","0.0-2.0-16.0-0.0","35","50734","Male","NaN","","","","null","NaN","14","","Stimuli/Experimental_stims/localizer/objects/girl-with-red-hat-Xxg-r574pLE-unsplash.jpg","432097","1","objects","","0","1","0","400","5600","408","5909","","","","","","","","","","","","","","","","","","","","","","","","","","","","","","","","","","","","","","","","","","","","","","","","","","","","","",""
"","iti_localizer","","html-keyboard-response","103","432815","0.0-2.0-16.0-1.0","35","50734","Male","null","","","","null","","14","","","432505","1","","","","","","300","6000","310","6317","300","","","","","","","","","","","","","","","","","","","","","","","","","","","","","","","","","","","","","","","","","","","","","","","","","","","","",""
"","localizer","","html-keyboard-response","104","433224","0.0-2.0-17.0-0.0","35","50734","Male","7","","","","68","0","15","","Stimuli/Experimental_stims/localizer/objects/hipster-mum-XookgCxFw6Q-unsplash.jpg","432815","1","objects","","0","0","1","400","6300","409","6627","","","","","","","","","","","","","","","","","","","","","","","","","","","","","","","","","","","","","","","","","","","","","","","","","","","","","",""
"","iti_localizer","","html-keyboard-response","105","433535","0.0-2.0-17.0-1.0","35","50734","Male","null","","","","null","","15","","","433224","1","","","","","","300","6700","311","7036","300","","","","","","","","","","","","","","","","","","","","","","","","","","","","","","","","","","","","","","","","","","","","","","","","","","","","",""
"","localizer","","html-keyboard-response","106","433946","0.0-2.0-18.0-0.0","35","50734","Male","15","","","","68","0","16","","Stimuli/Experimental_stims/localizer/objects/quino-al-8gWEAAXJjtI-unsplash.jpg","433535","1","objects","","0","0","1","400","7000","411","7347","","","","","","","","","","","","","","","","","","","","","","","","","","","","","","","","","","","","","","","","","","","","","","","","","","","","","",""
"","iti_localizer","","html-keyboard-response","107","434266","0.0-2.0-18.0-1.0","35","50734","Male","null","","","","null","","16","","","433946","1","","","","","","300","7400","320","7758","300","","","","","","","","","","","","","","","","","","","","","","","","","","","","","","","","","","","","","","","","","","","","","","","","","","","","",""
"","localizer","","html-keyboard-response","108","434677","0.0-2.0-19.0-0.0","35","50734","Male","NaN","","","","null","NaN","17","","Stimuli/Experimental_stims/localizer/objects/florian-klauer-mk7D-4UCfmg-unsplash.jpg","434266","1","objects","","0","1","0","400","7700","411","8078","","","","","","","","","","","","","","","","","","","","","","","","","","","","","","","","","","","","","","","","","","","","","","","","","","","","","",""
"","iti_localizer","","html-keyboard-response","109","434985","0.0-2.0-19.0-1.0","35","50734","Male","null","","","","null","","17","","","434677","1","","","","","","300","8100","308","8489","300","","","","","","","","","","","","","","","","","","","","","","","","","","","","","","","","","","","","","","","","","","","","","","","","","","","","",""
"","localizer","","html-keyboard-response","110","435397","0.0-2.0-20.0-0.0","35","50734","Male","23","","","","68","0","18","","Stimuli/Experimental_stims/localizer/objects/andrew-petrov-TVJqDat4MAw-unsplash.jpg","434985","1","objects","","0","0","1","400","8400","412","8797","","","","","","","","","","","","","","","","","","","","","","","","","","","","","","","","","","","","","","","","","","","","","","","","","","","","","",""
"","iti_localizer","","html-keyboard-response","111","435706","0.0-2.0-20.0-1.0","35","50734","Male","null","","","","null","","18","","","435397","1","","","","","","300","8800","309","9209","300","","","","","","","","","","","","","","","","","","","","","","","","","","","","","","","","","","","","","","","","","","","","","","","","","","","","",""
"","localizer","","html-keyboard-response","112","436117","0.0-2.0-21.0-0.0","35","50734","Male","NaN","","","","null","NaN","19","","Stimuli/Experimental_stims/localizer/objects/carlos-felipe-ramirez-mesa-HW7bfB3ERSQ-unsplash.jpg","435706","1","objects","","0","1","0","400","9100","411","9518","","","","","","","","","","","","","","","","","","","","","","","","","","","","","","","","","","","","","","","","","","","","","","","","","","","","","",""
"","iti_localizer","","html-keyboard-response","113","436469","0.0-2.0-21.0-1.0","35","50734","Male","null","","","","null","","19","","","436117","1","","","","","","300","9500","352","9929","300","","","","","","","","","","","","","","","","","","","","","","","","","","","","","","","","","","","","","","","","","","","","","","","","","","","","",""
"","localizer","","html-keyboard-response","114","436876","0.0-2.0-22.0-0.0","35","50734","Male","NaN","","","","null","NaN","20","","Stimuli/Experimental_stims/localizer/objects/yoann-siloine-_T4w3JDm6ug-unsplash.jpg","436469","1","objects","","1","1","0","400","9800","407","10281","","","","","","","","","","","","","","","","","","","","","","","","","","","","","","","","","","","","","","","","","","","","","","","","","","","","","",""
"","iti_localizer","","html-keyboard-response","115","437183","0.0-2.0-22.0-1.0","35","50734","Male","null","","","","null","","20","","","436876","1","","","","","","300","10200","307","10688","300","","","","","","","","","","","","","","","","","","","","","","","","","","","","","","","","","","","","","","","","","","","","","","","","","","","","",""
"","localizer","","html-keyboard-response","116","437590","0.0-2.0-23.0-0.0","35","50734","Male","291","","","","75","1","21","","Stimuli/Experimental_stims/localizer/objects/ales-krivec-ZMZHcvIVgbg-unsplash.jpg","437183","1","objects","","0","0","0","400","10500","407","10995","","","","","","","","","","","","","","","","","","","","","","","","","","","","","","","","","","","","","","","","","","","","","","","","","","","","","",""
"","iti_localizer","","html-keyboard-response","117","437896","0.0-2.0-23.0-1.0","35","50734","Male","null","","","","null","","21","","","437590","1","","","","","","300","10900","306","11402","300","","","","","","","","","","","","","","","","","","","","","","","","","","","","","","","","","","","","","","","","","","","","","","","","","","","","",""
"","localizer","","html-keyboard-response","118","438303","0.0-2.0-24.0-0.0","35","50734","Male","33","","","","68","0","22","","Stimuli/Experimental_stims/localizer/objects/designecologist-hvgd0ygXuQQ-unsplash.jpg","437896","1","objects","","0","0","1","400","11200","407","11708","","","","","","","","","","","","","","","","","","","","","","","","","","","","","","","","","","","","","","","","","","","","","","","","","","","","","",""
"","iti_localizer","","html-keyboard-response","119","438656","0.0-2.0-24.0-1.0","35","50734","Male","null","","","","null","","22","","","438303","1","","","","","","300","11600","353","12115","300","","","","","","","","","","","","","","","","","","","","","","","","","","","","","","","","","","","","","","","","","","","","","","","","","","","","",""
"","localizer","","html-keyboard-response","120","439066","0.0-2.0-25.0-0.0","35","50734","Male","0","","","","68","0","23","","Stimuli/Experimental_stims/localizer/objects/dario-mendez-hnJ2VNZzbns-unsplash.jpg","438656","1","objects","","0","0","1","400","11900","410","12468","","","","","","","","","","","","","","","","","","","","","","","","","","","","","","","","","","","","","","","","","","","","","","","","","","","","","",""
"","iti_localizer","","html-keyboard-response","121","439378","0.0-2.0-25.0-1.0","35","50734","Male","null","","","","null","","23","","","439066","1","","","","","","300","12300","312","12878","300","","","","","","","","","","","","","","","","","","","","","","","","","","","","","","","","","","","","","","","","","","","","","","","","","","","","",""
"","localizer","","html-keyboard-response","122","439787","0.0-2.0-26.0-0.0","35","50734","Male","350","","","","68","0","24","","Stimuli/Experimental_stims/localizer/objects/muhammad-toqeer-NRJ9ipvz2iE-unsplash.jpg","439378","1","objects","","0","0","1","400","12600","409","13190","","","","","","","","","","","","","","","","","","","","","","","","","","","","","","","","","","","","","","","","","","","","","","","","","","","","","",""
"","iti_localizer","","html-keyboard-response","123","440096","0.0-2.0-26.0-1.0","35","50734","Male","null","","","","null","","24","","","439787","1","","","","","","300","13000","309","13599","300","","","","","","","","","","","","","","","","","","","","","","","","","","","","","","","","","","","","","","","","","","","","","","","","","","","","",""
"","localizer","","html-keyboard-response","124","440525","0.0-2.0-27.0-0.0","35","50734","Male","NaN","","","","null","NaN","25","","Stimuli/Experimental_stims/localizer/objects/markus-spiske-ANrVtttbNss-unsplash.jpg","440096","1","objects","","0","1","0","400","13300","429","13908","","","","","","","","","","","","","","","","","","","","","","","","","","","","","","","","","","","","","","","","","","","","","","","","","","","","","",""
"","iti_localizer","","html-keyboard-response","125","454552","0.0-2.0-27.0-1.0","35","50734","Male","null","","","","null","","25","","","440525","1","","","","","","14000","13700","14027","14337","14000","","","","","","","","","","","","","","","","","","","","","","","","","","","","","","","","","","","","","","","","","","","","","","","","","","","","",""
"","localizer","","html-keyboard-response","126","454966","0.0-2.0-28.0-0.0","35","50734","Male","NaN","","","","null","NaN","26","","Stimuli/Experimental_stims/localizer/body_parts/jan-romero-DL4DDQb8yjc-unsplash.jpg","454552","1","body_parts","","0","1","0","400","27700","414","28364","","","","","","","","","","","","","","","","","","","","","","","","","","","","","","","","","","","","","","","","","","","","","","","","","","","","","",""
"","iti_localizer","","html-keyboard-response","127","455275","0.0-2.0-28.0-1.0","35","50734","Male","null","","","","null","","26","","","454966","1","","","","","","300","28100","309","28778","300","","","","","","","","","","","","","","","","","","","","","","","","","","","","","","","","","","","","","","","","","","","","","","","","","","","","",""
"","localizer","","html-keyboard-response","128","455683","0.0-2.0-29.0-0.0","35","50734","Male","312","","","","68","0","27","","Stimuli/Experimental_stims/localizer/body_parts/juja-han-Z8-6EI2tYtw-unsplash.jpg","455275","1","body_parts","","0","0","1","400","28400","408","29087","","","","","","","","","","","","","","","","","","","","","","","","","","","","","","","","","","","","","","","","","","","","","","","","","","","","","",""
"","iti_localizer","","html-keyboard-response","129","455990","0.0-2.0-29.0-1.0","35","50734","Male","null","","","","null","","27","","","455683","1","","","","","","300","28800","307","29495","300","","","","","","","","","","","","","","","","","","","","","","","","","","","","","","","","","","","","","","","","","","","","","","","","","","","","",""
"","localizer","","html-keyboard-response","130","456406","0.0-2.0-30.0-0.0","35","50734","Male","10","","","","68","0","28","","Stimuli/Experimental_stims/localizer/body_parts/kai-wenzel-zYDJOxjaZrQ-unsplash.jpg","455990","1","body_parts","","1","0","0","400","29100","416","29802","","","","","","","","","","","","","","","","","","","","","","","","","","","","","","","","","","","","","","","","","","","","","","","","","","","","","",""
"","iti_localizer","","html-keyboard-response","131","456714","0.0-2.0-30.0-1.0","35","50734","Male","null","","","","null","","28","","","456406","1","","","","","","300","29500","308","30218","300","","","","","","","","","","","","","","","","","","","","","","","","","","","","","","","","","","","","","","","","","","","","","","","","","","","","",""
"","localizer","","html-keyboard-response","132","457127","0.0-2.0-31.0-0.0","35","50734","Male","NaN","","","","null","NaN","29","","Stimuli/Experimental_stims/localizer/body_parts/igordoon-primus-CdyHqfrbGIs-unsplash.jpg","456714","1","body_parts","","0","1","0","400","29800","413","30526","","","","","","","","","","","","","","","","","","","","","","","","","","","","","","","","","","","","","","","","","","","","","","","","","","","","","",""
"","iti_localizer","","html-keyboard-response","133","457439","0.0-2.0-31.0-1.0","35","50734","Male","null","","","","null","","29","","","457127","1","","","","","","300","30200","312","30939","300","","","","","","","","","","","","","","","","","","","","","","","","","","","","","","","","","","","","","","","","","","","","","","","","","","","","",""
"","localizer","","html-keyboard-response","134","457850","0.0-2.0-32.0-0.0","35","50734","Male","NaN","","","","null","NaN","30","","Stimuli/Experimental_stims/localizer/body_parts/nick-page-WTNmgJtwzGI-unsplash.jpg","457439","1","body_parts","","0","1","0","400","30500","411","31251","","","","","","","","","","","","","","","","","","","","","","","","","","","","","","","","","","","","","","","","","","","","","","","","","","","","","",""
"","iti_localizer","","html-keyboard-response","135","458160","0.0-2.0-32.0-1.0","35","50734","Male","null","","","","null","","30","","","457850","1","","","","","","300","30900","310","31662","300","","","","","","","","","","","","","","","","","","","","","","","","","","","","","","","","","","","","","","","","","","","","","","","","","","","","",""
"","localizer","","html-keyboard-response","136","458569","0.0-2.0-33.0-0.0","35","50734","Male","20","","","","68","0","31","","Stimuli/Experimental_stims/localizer/body_parts/callum-skelton-3KLMq7y46nA-unsplash.jpg","458160","1","body_parts","","0","0","1","400","31200","409","31972","","","","","","","","","","","","","","","","","","","","","","","","","","","","","","","","","","","","","","","","","","","","","","","","","","","","","",""
"","iti_localizer","","html-keyboard-response","137","458877","0.0-2.0-33.0-1.0","35","50734","Male","null","","","","null","","31","","","458569","1","","","","","","300","31600","308","32381","300","","","","","","","","","","","","","","","","","","","","","","","","","","","","","","","","","","","","","","","","","","","","","","","","","","","","",""
"","localizer","","html-keyboard-response","138","459288","0.0-2.0-34.0-0.0","35","50734","Male","NaN","","","","null","NaN","32","","Stimuli/Experimental_stims/localizer/body_parts/anelya-okapova-V69kmOyZ3SU-unsplash.jpg","458877","1","body_parts","","0","1","0","400","31900","411","32689","","","","","","","","","","","","","","","","","","","","","","","","","","","","","","","","","","","","","","","","","","","","","","","","","","","","","",""
"","iti_localizer","","html-keyboard-response","139","459604","0.0-2.0-34.0-1.0","35","50734","Male","null","","","","null","","32","","","459288","1","","","","","","300","32300","316","33100","300","","","","","","","","","","","","","","","","","","","","","","","","","","","","","","","","","","","","","","","","","","","","","","","","","","","","",""
"","localizer","","html-keyboard-response","140","460014","0.0-2.0-35.0-0.0","35","50734","Male","NaN","","","","null","NaN","33","","Stimuli/Experimental_stims/localizer/body_parts/jeremy-yap-TfJEi17kA0w-unsplash.jpg","459604","1","body_parts","","0","1","0","400","32600","410","33416","","","","","","","","","","","","","","","","","","","","","","","","","","","","","","","","","","","","","","","","","","","","","","","","","","","","","",""
"","iti_localizer","","html-keyboard-response","141","460333","0.0-2.0-35.0-1.0","35","50734","Male","null","","","","null","","33","","","460014","1","","","","","","300","33000","319","33826","300","","","","","","","","","","","","","","","","","","","","","","","","","","","","","","","","","","","","","","","","","","","","","","","","","","","","",""
"","localizer","","html-keyboard-response","142","460744","0.0-2.0-36.0-0.0","35","50734","Male","NaN","","","","null","NaN","34","","Stimuli/Experimental_stims/localizer/body_parts/debby-hudson--B_757qSA4k-unsplash.jpg","460333","1","body_parts","","0","1","0","400","33300","411","34145","","","","","","","","","","","","","","","","","","","","","","","","","","","","","","","","","","","","","","","","","","","","","","","","","","","","","",""
"","iti_localizer","","html-keyboard-response","143","461052","0.0-2.0-36.0-1.0","35","50734","Male","null","","","","null","","34","","","460744","1","","","","","","300","33700","308","34556","300","","","","","","","","","","","","","","","","","","","","","","","","","","","","","","","","","","","","","","","","","","","","","","","","","","","","",""
"","localizer","","html-keyboard-response","144","461460","0.0-2.0-37.0-0.0","35","50734","Male","NaN","","","","null","NaN","35","","Stimuli/Experimental_stims/localizer/body_parts/danie-franco-jyyNiSEcCl4-unsplash.jpg","461052","1","body_parts","","0","1","0","400","34000","408","34864","","","","","","","","","","","","","","","","","","","","","","","","","","","","","","","","","","","","","","","","","","","","","","","","","","","","","",""
"","iti_localizer","","html-keyboard-response","145","461767","0.0-2.0-37.0-1.0","35","50734","Male","null","","","","null","","35","","","461460","1","","","","","","300","34400","307","35272","300","","","","","","","","","","","","","","","","","","","","","","","","","","","","","","","","","","","","","","","","","","","","","","","","","","","","",""
"","localizer","","html-keyboard-response","146","462180","0.0-2.0-38.0-0.0","35","50734","Male","NaN","","","","null","NaN","36","","Stimuli/Experimental_stims/localizer/body_parts/toan-nguyen-VIeLuUFzesg-unsplash.jpg","461767","1","body_parts","","0","1","0","400","34700","413","35579","","","","","","","","","","","","","","","","","","","","","","","","","","","","","","","","","","","","","","","","","","","","","","","","","","","","","",""
"","iti_localizer","","html-keyboard-response","147","462525","0.0-2.0-38.0-1.0","35","50734","Male","null","","","","null","","36","","","462180","1","","","","","","300","35100","345","35992","300","","","","","","","","","","","","","","","","","","","","","","","","","","","","","","","","","","","","","","","","","","","","","","","","","","","","",""
"","localizer","","html-keyboard-response","148","462941","0.0-2.0-39.0-0.0","35","50734","Male","NaN","","","","null","NaN","37","","Stimuli/Experimental_stims/localizer/body_parts/femme-spirit-RGYBDUHYbyM-unsplash.jpg","462525","1","body_parts","","0","1","0","400","35400","416","36337","","","","","","","","","","","","","","","","","","","","","","","","","","","","","","","","","","","","","","","","","","","","","","","","","","","","","",""
"","iti_localizer","","html-keyboard-response","149","463279","0.0-2.0-39.0-1.0","35","50734","Male","null","","","","null","","37","","","462941","1","","","","","","300","35800","338","36753","300","","","","","","","","","","","","","","","","","","","","","","","","","","","","","","","","","","","","","","","","","","","","","","","","","","","","",""
"","localizer","","html-keyboard-response","150","463686","0.0-2.0-40.0-0.0","35","50734","Male","NaN","","","","null","NaN","38","","Stimuli/Experimental_stims/localizer/body_parts/sincerely-media-QyzlAZjm0r0-unsplash.jpg","463279","1","body_parts","","0","1","0","400","36100","407","37091","","","","","","","","","","","","","","","","","","","","","","","","","","","","","","","","","","","","","","","","","","","","","","","","","","","","","",""
"","iti_localizer","","html-keyboard-response","151","464020","0.0-2.0-40.0-1.0","35","50734","Male","null","","","","null","","38","","","463686","1","","","","","","300","36500","334","37498","300","","","","","","","","","","","","","","","","","","","","","","","","","","","","","","","","","","","","","","","","","","","","","","","","","","","","",""
"","localizer","","html-keyboard-response","152","464465","0.0-2.0-41.0-0.0","35","50734","Male","NaN","","","","null","NaN","39","","Stimuli/Experimental_stims/localizer/body_parts/betzy-arosemena-YHdgnygtVCQ-unsplash.jpg","464020","1","body_parts","","0","1","0","400","36800","445","37832","","","","","","","","","","","","","","","","","","","","","","","","","","","","","","","","","","","","","","","","","","","","","","","","","","","","","",""
"","iti_localizer","","html-keyboard-response","153","464773","0.0-2.0-41.0-1.0","35","50734","Male","null","","","","null","","39","","","464465","1","","","","","","300","37200","308","38277","300","","","","","","","","","","","","","","","","","","","","","","","","","","","","","","","","","","","","","","","","","","","","","","","","","","","","",""
"","localizer","","html-keyboard-response","154","465181","0.0-2.0-42.0-0.0","35","50734","Male","126","","","","68","0","40","","Stimuli/Experimental_stims/localizer/body_parts/nihal-karkala-LlOfbQD-IJ0-unsplash.jpg","464773","1","body_parts","","0","0","1","400","37500","408","38585","","","","","","","","","","","","","","","","","","","","","","","","","","","","","","","","","","","","","","","","","","","","","","","","","","","","","",""
"","iti_localizer","","html-keyboard-response","155","465488","0.0-2.0-42.0-1.0","35","50734","Male","null","","","","null","","40","","","465181","1","","","","","","300","37900","307","38993","300","","","","","","","","","","","","","","","","","","","","","","","","","","","","","","","","","","","","","","","","","","","","","","","","","","","","",""
"","localizer","","html-keyboard-response","156","465897","0.0-2.0-43.0-0.0","35","50734","Male","NaN","","","","null","NaN","41","","Stimuli/Experimental_stims/localizer/body_parts/nattalia-nunez-MB9sdDfZMSg-unsplash.jpg","465488","1","body_parts","","0","1","0","400","38200","409","39300","","","","","","","","","","","","","","","","","","","","","","","","","","","","","","","","","","","","","","","","","","","","","","","","","","","","","",""
"","iti_localizer","","html-keyboard-response","157","466207","0.0-2.0-43.0-1.0","35","50734","Male","null","","","","null","","41","","","465897","1","","","","","","300","38600","310","39709","300","","","","","","","","","","","","","","","","","","","","","","","","","","","","","","","","","","","","","","","","","","","","","","","","","","","","",""
"","localizer","","html-keyboard-response","158","466773","0.0-2.0-44.0-0.0","35","50734","Male","NaN","","","","null","NaN","42","","Stimuli/Experimental_stims/localizer/body_parts/xavier-foucrier-dLZUNHsT8vo-unsplash.jpg","466207","1","body_parts","","0","1","0","400","38900","566","40019","","","","","","","","","","","","","","","","","","","","","","","","","","","","","","","","","","","","","","","","","","","","","","","","","","","","","",""
"","iti_localizer","","html-keyboard-response","159","467089","0.0-2.0-44.0-1.0","35","50734","Male","null","","","","null","","42","","","466773","1","","","","","","300","39300","316","40585","300","","","","","","","","","","","","","","","","","","","","","","","","","","","","","","","","","","","","","","","","","","","","","","","","","","","","",""
"","localizer","","html-keyboard-response","160","467498","0.0-2.0-45.0-0.0","35","50734","Male","NaN","","","","null","NaN","43","","Stimuli/Experimental_stims/localizer/body_parts/i-am_nah--S4OsO0c6Ts-unsplash.jpg","467089","1","body_parts","","0","1","0","400","39600","409","40901","","","","","","","","","","","","","","","","","","","","","","","","","","","","","","","","","","","","","","","","","","","","","","","","","","","","","",""
"","iti_localizer","","html-keyboard-response","161","467810","0.0-2.0-45.0-1.0","35","50734","Male","null","","","","null","","43","","","467498","1","","","","","","300","40000","312","41310","300","","","","","","","","","","","","","","","","","","","","","","","","","","","","","","","","","","","","","","","","","","","","","","","","","","","","",""
"","localizer","","html-keyboard-response","162","468219","0.0-2.0-46.0-0.0","35","50734","Male","NaN","","","","null","NaN","44","","Stimuli/Experimental_stims/localizer/body_parts/megan-menegay-UojxG_BJxnI-unsplash.jpg","467810","1","body_parts","","0","1","0","400","40300","409","41622","","","","","","","","","","","","","","","","","","","","","","","","","","","","","","","","","","","","","","","","","","","","","","","","","","","","","",""
"","iti_localizer","","html-keyboard-response","163","468532","0.0-2.0-46.0-1.0","35","50734","Male","null","","","","null","","44","","","468219","1","","","","","","300","40700","313","42031","300","","","","","","","","","","","","","","","","","","","","","","","","","","","","","","","","","","","","","","","","","","","","","","","","","","","","",""
"","localizer","","html-keyboard-response","164","468945","0.0-2.0-47.0-0.0","35","50734","Male","97","","","","68","0","45","","Stimuli/Experimental_stims/localizer/body_parts/priscilla-du-preez-e6fcNpur53A-unsplash.jpg","468532","1","body_parts","","1","0","0","400","41000","413","42344","","","","","","","","","","","","","","","","","","","","","","","","","","","","","","","","","","","","","","","","","","","","","","","","","","","","","",""
"","iti_localizer","","html-keyboard-response","165","482988","0.0-2.0-47.0-1.0","35","50734","Male","null","","","","null","","45","","","468945","1","","","","","","14000","41400","14043","42757","14000","","","","","","","","","","","","","","","","","","","","","","","","","","","","","","","","","","","","","","","","","","","","","","","","","","","","",""
"","localizer","","html-keyboard-response","166","483403","0.0-2.0-48.0-0.0","35","50734","Male","NaN","","","","null","NaN","46","","Stimuli/Experimental_stims/localizer/faces/jake-nackos-IF9TK5Uy-KI-unsplash.jpg","482988","1","faces","","0","1","0","400","55400","415","56800","","","","","","","","","","","","","","","","","","","","","","","","","","","","","","","","","","","","","","","","","","","","","","","","","","","","","",""
"","iti_localizer","","html-keyboard-response","167","483709","0.0-2.0-48.0-1.0","35","50734","Male","null","","","","null","","46","","","483403","1","","","","","","300","55800","306","57215","300","","","","","","","","","","","","","","","","","","","","","","","","","","","","","","","","","","","","","","","","","","","","","","","","","","","","",""
"","localizer","","html-keyboard-response","168","484119","0.0-2.0-49.0-0.0","35","50734","Male","NaN","","","","null","NaN","47","","Stimuli/Experimental_stims/localizer/faces/ethan-haddox-__ng3cRXmFE-unsplash.jpg","483709","1","faces","","0","1","0","400","56100","410","57521","","","","","","","","","","","","","","","","","","","","","","","","","","","","","","","","","","","","","","","","","","","","","","","","","","","","","",""
"","iti_localizer","","html-keyboard-response","169","484441","0.0-2.0-49.0-1.0","35","50734","Male","null","","","","null","","47","","","484119","1","","","","","","300","56500","322","57931","300","","","","","","","","","","","","","","","","","","","","","","","","","","","","","","","","","","","","","","","","","","","","","","","","","","","","",""
"","localizer","","html-keyboard-response","170","484851","0.0-2.0-50.0-0.0","35","50734","Male","NaN","","","","null","NaN","48","","Stimuli/Experimental_stims/localizer/faces/samuel-dixon--fQ5XNOcqFQ-unsplash.jpg","484441","1","faces","","1","1","0","400","56800","410","58253","","","","","","","","","","","","","","","","","","","","","","","","","","","","","","","","","","","","","","","","","","","","","","","","","","","","","",""
"","iti_localizer","","html-keyboard-response","171","485161","0.0-2.0-50.0-1.0","35","50734","Male","null","","","","null","","48","","","484851","1","","","","","","300","57200","310","58663","300","","","","","","","","","","","","","","","","","","","","","","","","","","","","","","","","","","","","","","","","","","","","","","","","","","","","",""
"","localizer","","html-keyboard-response","172","485569","0.0-2.0-51.0-0.0","35","50734","Male","NaN","","","","null","NaN","49","","Stimuli/Experimental_stims/localizer/faces/jakob-owens-lkMJcGDZLVs-unsplash.jpg","485161","1","faces","","0","1","0","400","57500","408","58973","","","","","","","","","","","","","","","","","","","","","","","","","","","","","","","","","","","","","","","","","","","","","","","","","","","","","",""
"","iti_localizer","","html-keyboard-response","173","485883","0.0-2.0-51.0-1.0","35","50734","Male","null","","","","null","","49","","","485569","1","","","","","","300","57900","314","59381","300","","","","","","","","","","","","","","","","","","","","","","","","","","","","","","","","","","","","","","","","","","","","","","","","","","","","",""
"","localizer","","html-keyboard-response","174","486295","0.0-2.0-52.0-0.0","35","50734","Male","NaN","","","","null","NaN","50","","Stimuli/Experimental_stims/localizer/faces/joseph-gonzalez-iFgRcqHznqg-unsplash.jpg","485883","1","faces","","0","1","0","400","58200","412","59695","","","","","","","","","","","","","","","","","","","","","","","","","","","","","","","","","","","","","","","","","","","","","","","","","","","","","",""
"","iti_localizer","","html-keyboard-response","175","486641","0.0-2.0-52.0-1.0","35","50734","Male","null","","","","null","","50","","","486295","1","","","","","","300","58600","346","60107","300","","","","","","","","","","","","","","","","","","","","","","","","","","","","","","","","","","","","","","","","","","","","","","","","","","","","",""
"","localizer","","html-keyboard-response","176","487052","0.0-2.0-53.0-0.0","35","50734","Male","54","","","","68","0","51","","Stimuli/Experimental_stims/localizer/faces/tyler-nix-ZGa9d1a_4tA-unsplash.jpg","486641","1","faces","","0","0","1","400","58900","411","60453","","","","","","","","","","","","","","","","","","","","","","","","","","","","","","","","","","","","","","","","","","","","","","","","","","","","","",""
"","iti_localizer","","html-keyboard-response","177","487358","0.0-2.0-53.0-1.0","35","50734","Male","null","","","","null","","51","","","487052","1","","","","","","300","59300","306","60864","300","","","","","","","","","","","","","","","","","","","","","","","","","","","","","","","","","","","","","","","","","","","","","","","","","","","","",""
"","localizer","","html-keyboard-response","178","487765","0.0-2.0-54.0-0.0","35","50734","Male","172","","","","75","1","52","","Stimuli/Experimental_stims/localizer/faces/allef-vinicius-C_1jjFJioWg-unsplash.jpg","487358","1","faces","","0","0","0","400","59600","407","61170","","","","","","","","","","","","","","","","","","","","","","","","","","","","","","","","","","","","","","","","","","","","","","","","","","","","","",""
"","iti_localizer","","html-keyboard-response","179","488075","0.0-2.0-54.0-1.0","35","50734","Male","null","","","","null","","52","","","487765","1","","","","","","300","60000","310","61577","300","","","","","","","","","","","","","","","","","","","","","","","","","","","","","","","","","","","","","","","","","","","","","","","","","","","","",""
"","localizer","","html-keyboard-response","180","488492","0.0-2.0-55.0-0.0","35","50734","Male","1","","","","68","0","53","","Stimuli/Experimental_stims/localizer/faces/midas-hofstra-tidSLv-UaNs-unsplash.jpg","488075","1","faces","","0","0","1","400","60300","417","61887","","","","","","","","","","","","","","","","","","","","","","","","","","","","","","","","","","","","","","","","","","","","","","","","","","","","","",""
"","iti_localizer","","html-keyboard-response","181","488804","0.0-2.0-55.0-1.0","35","50734","Male","null","","","","null","","53","","","488492","1","","","","","","300","60700","312","62304","300","","","","","","","","","","","","","","","","","","","","","","","","","","","","","","","","","","","","","","","","","","","","","","","","","","","","",""
"","localizer","","html-keyboard-response","182","489214","0.0-2.0-56.0-0.0","35","50734","Male","NaN","","","","null","NaN","54","","Stimuli/Experimental_stims/localizer/faces/elijah-hiett-umfpFoKxIVg-unsplash.jpg","488804","1","faces","","0","1","0","400","61000","410","62616","","","","","","","","","","","","","","","","","","","","","","","","","","","","","","","","","","","","","","","","","","","","","","","","","","","","","",""
"","iti_localizer","","html-keyboard-response","183","489525","0.0-2.0-56.0-1.0","35","50734","Male","null","","","","null","","54","","","489214","1","","","","","","300","61400","311","63026","300","","","","","","","","","","","","","","","","","","","","","","","","","","","","","","","","","","","","","","","","","","","","","","","","","","","","",""
"","localizer","","html-keyboard-response","184","489934","0.0-2.0-57.0-0.0","35","50734","Male","NaN","","","","null","NaN","55","","Stimuli/Experimental_stims/localizer/faces/austin-wade-X6Uj51n5CE8-unsplash.jpg","489525","1","faces","","0","1","0","400","61700","409","63337","","","","","","","","","","","","","","","","","","","","","","","","","","","","","","","","","","","","","","","","","","","","","","","","","","","","","",""
"","iti_localizer","","html-keyboard-response","185","490242","0.0-2.0-57.0-1.0","35","50734","Male","null","","","","null","","55","","","489934","1","","","","","","300","62100","308","63746","300","","","","","","","","","","","","","","","","","","","","","","","","","","","","","","","","","","","","","","","","","","","","","","","","","","","","",""
"","localizer","","html-keyboard-response","186","490706","0.0-2.0-58.0-0.0","35","50734","Male","NaN","","","","null","NaN","56","","Stimuli/Experimental_stims/localizer/faces/mathias-huysmans-U4JDjYmjn1g-unsplash.jpg","490242","1","faces","","0","1","0","400","62400","464","64054","","","","","","","","","","","","","","","","","","","","","","","","","","","","","","","","","","","","","","","","","","","","","","","","","","","","","",""
"","iti_localizer","","html-keyboard-response","187","491014","0.0-2.0-58.0-1.0","35","50734","Male","null","","","","null","","56","","","490706","1","","","","","","300","62800","308","64518","300","","","","","","","","","","","","","","","","","","","","","","","","","","","","","","","","","","","","","","","","","","","","","","","","","","","","",""
"","localizer","","html-keyboard-response","188","491423","0.0-2.0-59.0-0.0","35","50734","Male","NaN","","","","null","NaN","57","","Stimuli/Experimental_stims/localizer/faces/ian-dooley-d1UPkiFd04A-unsplash.jpg","491014","1","faces","","0","1","0","400","63100","409","64826","","","","","","","","","","","","","","","","","","","","","","","","","","","","","","","","","","","","","","","","","","","","","","","","","","","","","",""
"","iti_localizer","","html-keyboard-response","189","491732","0.0-2.0-59.0-1.0","35","50734","Male","null","","","","null","","57","","","491423","1","","","","","","300","63500","309","65235","300","","","","","","","","","","","","","","","","","","","","","","","","","","","","","","","","","","","","","","","","","","","","","","","","","","","","",""
"","localizer","","html-keyboard-response","190","492142","0.0-2.0-60.0-0.0","35","50734","Male","NaN","","","","null","NaN","58","","Stimuli/Experimental_stims/localizer/faces/icons8-team-6LZuSzSwso0-unsplash.jpg","491732","1","faces","","0","1","0","400","63800","410","65544","","","","","","","","","","","","","","","","","","","","","","","","","","","","","","","","","","","","","","","","","","","","","","","","","","","","","",""
"","iti_localizer","","html-keyboard-response","191","492453","0.0-2.0-60.0-1.0","35","50734","Male","null","","","","null","","58","","","492142","1","","","","","","300","64200","311","65954","300","","","","","","","","","","","","","","","","","","","","","","","","","","","","","","","","","","","","","","","","","","","","","","","","","","","","",""
"","localizer","","html-keyboard-response","192","492862","0.0-2.0-61.0-0.0","35","50734","Male","NaN","","","","null","NaN","59","","Stimuli/Experimental_stims/localizer/faces/alexis-chloe-TYDkKEgc0Fg-unsplash.jpg","492453","1","faces","","0","1","0","400","64500","409","66265","","","","","","","","","","","","","","","","","","","","","","","","","","","","","","","","","","","","","","","","","","","","","","","","","","","","","",""
"","iti_localizer","","html-keyboard-response","193","493171","0.0-2.0-61.0-1.0","35","50734","Male","null","","","","null","","59","","","492862","1","","","","","","300","64900","309","66674","300","","","","","","","","","","","","","","","","","","","","","","","","","","","","","","","","","","","","","","","","","","","","","","","","","","","","",""
"","localizer","","html-keyboard-response","194","493580","0.0-2.0-62.0-0.0","35","50734","Male","NaN","","","","null","NaN","60","","Stimuli/Experimental_stims/localizer/faces/prince-akachi-LWkFHEGpleE-unsplash.jpg","493171","1","faces","","0","1","0","400","65200","409","66983","","","","","","","","","","","","","","","","","","","","","","","","","","","","","","","","","","","","","","","","","","","","","","","","","","","","","",""
"","iti_localizer","","html-keyboard-response","195","493889","0.0-2.0-62.0-1.0","35","50734","Male","null","","","","null","","60","","","493580","1","","","","","","300","65600","309","67392","300","","","","","","","","","","","","","","","","","","","","","","","","","","","","","","","","","","","","","","","","","","","","","","","","","","","","",""
"","localizer","","html-keyboard-response","196","494302","0.0-2.0-63.0-0.0","35","50734","Male","NaN","","","","null","NaN","61","","Stimuli/Experimental_stims/localizer/faces/katsiaryna-endruszkiewicz-BteCp6aq4GI-unsplash.jpg","493889","1","faces","","1","1","0","400","65900","413","67701","","","","","","","","","","","","","","","","","","","","","","","","","","","","","","","","","","","","","","","","","","","","","","","","","","","","","",""
"","iti_localizer","","html-keyboard-response","197","494677","0.0-2.0-63.0-1.0","35","50734","Male","null","","","","null","","61","","","494302","1","","","","","","300","66300","375","68114","300","","","","","","","","","","","","","","","","","","","","","","","","","","","","","","","","","","","","","","","","","","","","","","","","","","","","",""
"","localizer","","html-keyboard-response","198","495098","0.0-2.0-64.0-0.0","35","50734","Male","240","","","","68","0","62","","Stimuli/Experimental_stims/localizer/faces/hassan-khan-EGVccebWodM-unsplash.jpg","494677","1","faces","","0","0","1","400","66600","421","68489","","","","","","","","","","","","","","","","","","","","","","","","","","","","","","","","","","","","","","","","","","","","","","","","","","","","","",""
"","iti_localizer","","html-keyboard-response","199","495409","0.0-2.0-64.0-1.0","35","50734","Male","null","","","","null","","62","","","495098","1","","","","","","300","67000","311","68910","300","","","","","","","","","","","","","","","","","","","","","","","","","","","","","","","","","","","","","","","","","","","","","","","","","","","","",""
"","localizer","","html-keyboard-response","200","495819","0.0-2.0-65.0-0.0","35","50734","Male","NaN","","","","null","NaN","63","","Stimuli/Experimental_stims/localizer/faces/linkedin-sales-solutions-pAtA8xe_iVM-unsplash.jpg","495409","1","faces","","0","1","0","400","67300","410","69221","","","","","","","","","","","","","","","","","","","","","","","","","","","","","","","","","","","","","","","","","","","","","","","","","","","","","",""
"","iti_localizer","","html-keyboard-response","201","496125","0.0-2.0-65.0-1.0","35","50734","Male","null","","","","null","","63","","","495819","1","","","","","","300","67700","306","69631","300","","","","","","","","","","","","","","","","","","","","","","","","","","","","","","","","","","","","","","","","","","","","","","","","","","","","",""
"","localizer","","html-keyboard-response","202","496555","0.0-2.0-66.0-0.0","35","50734","Male","57","","","","68","0","64","","Stimuli/Experimental_stims/localizer/faces/philip-martin-5aGUyCW_PJw-unsplash.jpg","496125","1","faces","","0","0","1","400","68000","430","69937","","","","","","","","","","","","","","","","","","","","","","","","","","","","","","","","","","","","","","","","","","","","","","","","","","","","","",""
"","iti_localizer","","html-keyboard-response","203","496874","0.0-2.0-66.0-1.0","35","50734","Male","null","","","","null","","64","","","496555","1","","","","","","300","68400","319","70367","300","","","","","","","","","","","","","","","","","","","","","","","","","","","","","","","","","","","","","","","","","","","","","","","","","","","","",""
"","localizer","","html-keyboard-response","204","497353","0.0-2.0-67.0-0.0","35","50734","Male","NaN","","","","null","NaN","65","","Stimuli/Experimental_stims/localizer/faces/christina-wocintechchat-com-0Zx1bDv5BNY-unsplash.jpg","496874","1","faces","","0","1","0","400","68700","479","70686","","","","","","","","","","","","","","","","","","","","","","","","","","","","","","","","","","","","","","","","","","","","","","","","","","","","","",""
"","iti_localizer","","html-keyboard-response","205","511372","0.0-2.0-67.0-1.0","35","50734","Male","null","","","","null","","65","","","497353","1","","","","","","14000","69100","14019","71165","14000","","","","","","","","","","","","","","","","","","","","","","","","","","","","","","","","","","","","","","","","","","","","","","","","","","","","",""
"","localizer","","html-keyboard-response","206","511782","0.0-2.0-68.0-0.0","35","50734","Male","NaN","","","","null","NaN","66","","Stimuli/Experimental_stims/localizer/body_parts/bady-abbas-N-VEeMnm7gE-unsplash.jpg","511372","1","body_parts","","0","1","0","400","83100","410","85184","","","","","","","","","","","","","","","","","","","","","","","","","","","","","","","","","","","","","","","","","","","","","","","","","","","","","",""
"","iti_localizer","","html-keyboard-response","207","512095","0.0-2.0-68.0-1.0","35","50734","Male","null","","","","null","","66","","","511782","1","","","","","","300","83500","313","85594","300","","","","","","","","","","","","","","","","","","","","","","","","","","","","","","","","","","","","","","","","","","","","","","","","","","","","",""
"","localizer","","html-keyboard-response","208","512534","0.0-2.0-69.0-0.0","35","50734","Male","319","","","","68","0","67","","Stimuli/Experimental_stims/localizer/body_parts/hu-chen-tCbTGNwrFNM-unsplash.jpg","512095","1","body_parts","","0","0","1","400","83800","439","85907","","","","","","","","","","","","","","","","","","","","","","","","","","","","","","","","","","","","","","","","","","","","","","","","","","","","","",""
"","iti_localizer","","html-keyboard-response","209","512849","0.0-2.0-69.0-1.0","35","50734","Male","null","","","","null","","67","","","512534","1","","","","","","300","84200","315","86346","300","","","","","","","","","","","","","","","","","","","","","","","","","","","","","","","","","","","","","","","","","","","","","","","","","","","","",""
"","localizer","","html-keyboard-response","210","513260","0.0-2.0-70.0-0.0","35","50734","Male","NaN","","","","null","NaN","68","","Stimuli/Experimental_stims/localizer/body_parts/toa-heftiba-qxvWnfHb3-M-unsplash.jpg","512849","1","body_parts","","0","1","0","400","84500","411","86661","","","","","","","","","","","","","","","","","","","","","","","","","","","","","","","","","","","","","","","","","","","","","","","","","","","","","",""
"","iti_localizer","","html-keyboard-response","211","513570","0.0-2.0-70.0-1.0","35","50734","Male","null","","","","null","","68","","","513260","1","","","","","","300","84900","310","87072","300","","","","","","","","","","","","","","","","","","","","","","","","","","","","","","","","","","","","","","","","","","","","","","","","","","","","",""
"","localizer","","html-keyboard-response","212","513977","0.0-2.0-71.0-0.0","35","50734","Male","NaN","","","","null","NaN","69","","Stimuli/Experimental_stims/localizer/body_parts/matthew-wheeler-2_UxqsaDMmo-unsplash.jpg","513570","1","body_parts","","0","1","0","400","85200","407","87382","","","","","","","","","","","","","","","","","","","","","","","","","","","","","","","","","","","","","","","","","","","","","","","","","","","","","",""
"","iti_localizer","","html-keyboard-response","213","514357","0.0-2.0-71.0-1.0","35","50734","Male","null","","","","null","","69","","","513977","1","","","","","","300","85600","380","87789","300","","","","","","","","","","","","","","","","","","","","","","","","","","","","","","","","","","","","","","","","","","","","","","","","","","","","",""
"","localizer","","html-keyboard-response","214","514785","0.0-2.0-72.0-0.0","35","50734","Male","NaN","","","","null","NaN","70","","Stimuli/Experimental_stims/localizer/body_parts/billie-5OXE3KjDEfI-unsplash.jpg","514357","1","body_parts","","0","1","0","400","85900","428","88169","","","","","","","","","","","","","","","","","","","","","","","","","","","","","","","","","","","","","","","","","","","","","","","","","","","","","",""
"","iti_localizer","","html-keyboard-response","215","515095","0.0-2.0-72.0-1.0","35","50734","Male","null","","","","null","","70","","","514785","1","","","","","","300","86300","310","88597","300","","","","","","","","","","","","","","","","","","","","","","","","","","","","","","","","","","","","","","","","","","","","","","","","","","","","",""
"","localizer","","html-keyboard-response","216","515506","0.0-2.0-73.0-0.0","35","50734","Male","NaN","","","","null","NaN","71","","Stimuli/Experimental_stims/localizer/body_parts/lilartsy-1KkhQ8uL28g-unsplash.jpg","515095","1","body_parts","","1","1","0","400","86600","411","88907","","","","","","","","","","","","","","","","","","","","","","","","","","","","","","","","","","","","","","","","","","","","","","","","","","","","","",""
"","iti_localizer","","html-keyboard-response","217","515822","0.0-2.0-73.0-1.0","35","50734","Male","null","","","","null","","71","","","515506","1","","","","","","300","87000","316","89318","300","","","","","","","","","","","","","","","","","","","","","","","","","","","","","","","","","","","","","","","","","","","","","","","","","","","","",""
"","localizer","","html-keyboard-response","218","516242","0.0-2.0-74.0-0.0","35","50734","Male","166","","","","75","1","72","","Stimuli/Experimental_stims/localizer/body_parts/sincerely-media-Q7qRyaurQfo-unsplash.jpg","515822","1","body_parts","","0","0","0","400","87300","420","89634","","","","","","","","","","","","","","","","","","","","","","","","","","","","","","","","","","","","","","","","","","","","","","","","","","","","","",""
"","iti_localizer","","html-keyboard-response","219","516622","0.0-2.0-74.0-1.0","35","50734","Male","null","","","","null","","72","","","516242","1","","","","","","300","87700","380","90054","300","","","","","","","","","","","","","","","","","","","","","","","","","","","","","","","","","","","","","","","","","","","","","","","","","","","","",""
"","localizer","","html-keyboard-response","220","517042","0.0-2.0-75.0-0.0","35","50734","Male","23","","","","68","0","73","","Stimuli/Experimental_stims/localizer/body_parts/semen-zhuravlev-_XxH_mV8dnk-unsplash (1).jpg","516622","1","body_parts","","0","0","1","400","88000","420","90434","","","","","","","","","","","","","","","","","","","","","","","","","","","","","","","","","","","","","","","","","","","","","","","","","","","","","",""
"","iti_localizer","","html-keyboard-response","221","517352","0.0-2.0-75.0-1.0","35","50734","Male","null","","","","null","","73","","","517042","1","","","","","","300","88400","310","90854","300","","","","","","","","","","","","","","","","","","","","","","","","","","","","","","","","","","","","","","","","","","","","","","","","","","","","",""
"","localizer","","html-keyboard-response","222","517761","0.0-2.0-76.0-0.0","35","50734","Male","NaN","","","","null","NaN","74","","Stimuli/Experimental_stims/localizer/body_parts/sincerely-media-7TBFwUQA6Xk-unsplash.jpg","517352","1","body_parts","","0","1","0","400","88700","409","91164","","","","","","","","","","","","","","","","","","","","","","","","","","","","","","","","","","","","","","","","","","","","","","","","","","","","","",""
"","iti_localizer","","html-keyboard-response","223","518070","0.0-2.0-76.0-1.0","35","50734","Male","null","","","","null","","74","","","517761","1","","","","","","300","89100","309","91573","300","","","","","","","","","","","","","","","","","","","","","","","","","","","","","","","","","","","","","","","","","","","","","","","","","","","","",""
"","localizer","","html-keyboard-response","224","518493","0.0-2.0-77.0-0.0","35","50734","Male","0","","","","68","0","75","","Stimuli/Experimental_stims/localizer/body_parts/liv-bruce-M0oVPGsWk1E-unsplash.jpg","518070","1","body_parts","","0","0","1","400","89400","423","91882","","","","","","","","","","","","","","","","","","","","","","","","","","","","","","","","","","","","","","","","","","","","","","","","","","","","","",""
"","iti_localizer","","html-keyboard-response","225","518804","0.0-2.0-77.0-1.0","35","50734","Male","null","","","","null","","75","","","518493","1","","","","","","300","89800","311","92305","300","","","","","","","","","","","","","","","","","","","","","","","","","","","","","","","","","","","","","","","","","","","","","","","","","","","","",""
"","localizer","","html-keyboard-response","226","519211","0.0-2.0-78.0-0.0","35","50734","Male","NaN","","","","null","NaN","76","","Stimuli/Experimental_stims/localizer/body_parts/louis-hansel-FjKTMRTQYAs-unsplash.jpg","518804","1","body_parts","","0","1","0","400","90100","407","92616","","","","","","","","","","","","","","","","","","","","","","","","","","","","","","","","","","","","","","","","","","","","","","","","","","","","","",""
"","iti_localizer","","html-keyboard-response","227","519526","0.0-2.0-78.0-1.0","35","50734","Male","null","","","","null","","76","","","519211","1","","","","","","300","90500","315","93023","300","","","","","","","","","","","","","","","","","","","","","","","","","","","","","","","","","","","","","","","","","","","","","","","","","","","","",""
"","localizer","","html-keyboard-response","228","519936","0.0-2.0-79.0-0.0","35","50734","Male","17","","","","68","0","77","","Stimuli/Experimental_stims/localizer/body_parts/lucaxx-freire-CacZwMexYdk-unsplash.jpg","519526","1","body_parts","","0","0","1","400","90800","410","93338","","","","","","","","","","","","","","","","","","","","","","","","","","","","","","","","","","","","","","","","","","","","","","","","","","","","","",""
"","iti_localizer","","html-keyboard-response","229","520243","0.0-2.0-79.0-1.0","35","50734","Male","null","","","","null","","77","","","519936","1","","","","","","300","91200","307","93748","300","","","","","","","","","","","","","","","","","","","","","","","","","","","","","","","","","","","","","","","","","","","","","","","","","","","","",""
"","localizer","","html-keyboard-response","230","520653","0.0-2.0-80.0-0.0","35","50734","Male","0","","","","68","0","78","","Stimuli/Experimental_stims/localizer/body_parts/sippakorn-yamkasikorn-32_sJlJa5gA-unsplash.jpg","520243","1","body_parts","","0","0","1","400","91500","410","94055","","","","","","","","","","","","","","","","","","","","","","","","","","","","","","","","","","","","","","","","","","","","","","","","","","","","","",""
"","iti_localizer","","html-keyboard-response","231","520963","0.0-2.0-80.0-1.0","35","50734","Male","null","","","","null","","78","","","520653","1","","","","","","300","91900","310","94465","300","","","","","","","","","","","","","","","","","","","","","","","","","","","","","","","","","","","","","","","","","","","","","","","","","","","","",""
"","localizer","","html-keyboard-response","232","521374","0.0-2.0-81.0-0.0","35","50734","Male","NaN","","","","null","NaN","79","","Stimuli/Experimental_stims/localizer/body_parts/charles-etoroma-1fo0biloDOc-unsplash.jpg","520963","1","body_parts","","0","1","0","400","92200","411","94775","","","","","","","","","","","","","","","","","","","","","","","","","","","","","","","","","","","","","","","","","","","","","","","","","","","","","",""
"","iti_localizer","","html-keyboard-response","233","521682","0.0-2.0-81.0-1.0","35","50734","Male","null","","","","null","","79","","","521374","1","","","","","","300","92600","308","95186","300","","","","","","","","","","","","","","","","","","","","","","","","","","","","","","","","","","","","","","","","","","","","","","","","","","","","",""
"","localizer","","html-keyboard-response","234","522092","0.0-2.0-82.0-0.0","35","50734","Male","52","","","","68","0","80","","Stimuli/Experimental_stims/localizer/body_parts/nadine-shaabana-ypyaaEf2ntM-unsplash.jpg","521682","1","body_parts","","0","0","1","400","92900","410","95494","","","","","","","","","","","","","","","","","","","","","","","","","","","","","","","","","","","","","","","","","","","","","","","","","","","","","",""
"","iti_localizer","","html-keyboard-response","235","522426","0.0-2.0-82.0-1.0","35","50734","Male","null","","","","null","","80","","","522092","1","","","","","","300","93300","334","95904","300","","","","","","","","","","","","","","","","","","","","","","","","","","","","","","","","","","","","","","","","","","","","","","","","","","","","",""
"","localizer","","html-keyboard-response","236","522833","0.0-2.0-83.0-0.0","35","50734","Male","NaN","","","","null","NaN","81","","Stimuli/Experimental_stims/localizer/body_parts/diana-polekhina-SwWjCbIIoFE-unsplash.jpg","522426","1","body_parts","","1","1","0","400","93600","407","96238","","","","","","","","","","","","","","","","","","","","","","","","","","","","","","","","","","","","","","","","","","","","","","","","","","","","","",""
"","iti_localizer","","html-keyboard-response","237","523142","0.0-2.0-83.0-1.0","35","50734","Male","null","","","","null","","81","","","522833","1","","","","","","300","94000","309","96645","300","","","","","","","","","","","","","","","","","","","","","","","","","","","","","","","","","","","","","","","","","","","","","","","","","","","","",""
"","localizer","","html-keyboard-response","238","523555","0.0-2.0-84.0-0.0","35","50734","Male","0","","","","75","1","82","","Stimuli/Experimental_stims/localizer/body_parts/deborah-diem-ieVxpPjl1e0-unsplash.jpg","523142","1","body_parts","","0","0","0","400","94300","413","96954","","","","","","","","","","","","","","","","","","","","","","","","","","","","","","","","","","","","","","","","","","","","","","","","","","","","","",""
"","iti_localizer","","html-keyboard-response","239","523864","0.0-2.0-84.0-1.0","35","50734","Male","null","","","","null","","82","","","523555","1","","","","","","300","94700","309","97367","300","","","","","","","","","","","","","","","","","","","","","","","","","","","","","","","","","","","","","","","","","","","","","","","","","","","","",""
"","localizer","","html-keyboard-response","240","524279","0.0-2.0-85.0-0.0","35","50734","Male","NaN","","","","null","NaN","83","","Stimuli/Experimental_stims/localizer/body_parts/sincerely-media-pdynOoM7xmA-unsplash.jpg","523864","1","body_parts","","0","1","0","400","95000","415","97676","","","","","","","","","","","","","","","","","","","","","","","","","","","","","","","","","","","","","","","","","","","","","","","","","","","","","",""
"","iti_localizer","","html-keyboard-response","241","524602","0.0-2.0-85.0-1.0","35","50734","Male","null","","","","null","","83","","","524279","1","","","","","","300","95400","323","98091","300","","","","","","","","","","","","","","","","","","","","","","","","","","","","","","","","","","","","","","","","","","","","","","","","","","","","",""
"","localizer","","html-keyboard-response","242","525018","0.0-2.0-86.0-0.0","35","50734","Male","7","","","","68","0","84","","Stimuli/Experimental_stims/localizer/body_parts/ben-hartley-RbrsejLGVZ8-unsplash.jpg","524602","1","body_parts","","0","0","1","400","95700","416","98414","","","","","","","","","","","","","","","","","","","","","","","","","","","","","","","","","","","","","","","","","","","","","","","","","","","","","",""
"","iti_localizer","","html-keyboard-response","243","525327","0.0-2.0-86.0-1.0","35","50734","Male","null","","","","null","","84","","","525018","1","","","","","","300","96100","309","98830","300","","","","","","","","","","","","","","","","","","","","","","","","","","","","","","","","","","","","","","","","","","","","","","","","","","","","",""
"","localizer","","html-keyboard-response","244","525737","0.0-2.0-87.0-0.0","35","50734","Male","NaN","","","","null","NaN","85","","Stimuli/Experimental_stims/localizer/body_parts/apostolos-vamvouras-g5wKHRu2QW0-unsplash.jpg","525327","1","body_parts","","0","1","0","400","96400","410","99139","","","","","","","","","","","","","","","","","","","","","","","","","","","","","","","","","","","","","","","","","","","","","","","","","","","","","",""
"","iti_localizer","","html-keyboard-response","245","539763","0.0-2.0-87.0-1.0","35","50734","Male","null","","","","null","","85","","","525737","1","","","","","","14000","96800","14026","99549","14000","","","","","","","","","","","","","","","","","","","","","","","","","","","","","","","","","","","","","","","","","","","","","","","","","","","","",""
"","localizer","","html-keyboard-response","246","540179","0.0-2.0-88.0-0.0","35","50734","Male","NaN","","","","null","NaN","86","","Stimuli/Experimental_stims/localizer/objects/kelly-jean-cKjbI0Y00X0-unsplash.jpg","539763","1","objects","","1","1","0","400","110800","416","113575","","","","","","","","","","","","","","","","","","","","","","","","","","","","","","","","","","","","","","","","","","","","","","","","","","","","","",""
"","iti_localizer","","html-keyboard-response","247","540500","0.0-2.0-88.0-1.0","35","50734","Male","null","","","","null","","86","","","540179","1","","","","","","300","111200","321","113991","300","","","","","","","","","","","","","","","","","","","","","","","","","","","","","","","","","","","","","","","","","","","","","","","","","","","","",""
