"success","ttype","start_time","trial_type","trial_index","time_elapsed","internal_node_id","age","PID","gender","rt","responses","view_history","repeat_instructions","key_press","response","index","stimulus_index","path","start_time_elapsed","run","task","isi","is_odd_ball","no_response","acc","duration","onset","duration_time_elapsed","onset_time_elapsed","trial_duration","left_chosen","chosen_stimulus","unchosen_stimulus","chosen_category","unchosen_category","chosen_rating","unchosen_rating","chosen_path","unchosen_path","pair_id","practice","scramble_screen_time","scramble_instructed_side","stim_type","iti","block","left_stimulus","right_stimulus","left_category","right_category","left_path","right_path","left_rating","right_rating","warning","scramble_acc","missed_checkup","stimulus_id","item_id","outcome","response_rt","deliberation_reward_tally"
"true","full_screen","d08172023hr1452","fullscreen","0","3202","0.0-0.0-0.0","33","97001","female","","","","","","","","","","","","","","","","","","","","","","","","","","","","","","","","","","","","","","","","","","","","","","","","","","","","",""
"","get_id","","survey-text","1","10916","0.0-0.0-1.0","33","97001","female","7707","{""Q0"":""33"",""Q1"":""female""}","","","","","","","","","","","","","","","","","","","","","","","","","","","","","","","","","","","","","","","","","","","","","","","","","","",""
"","ratings_instructions","","instructions","2","18371","0.0-1.0-0.0-0.0","33","97001","female","6845","","[{""page_index"":0,""viewing_time"":4897},{""page_index"":1,""viewing_time"":1948}]","","","","","","","","","","","","","","","","","","","","","","","","","","","","","","","","","","","","","","","","","","","","","","","","","",""
"","rating_comprehension_check","","survey-multi-choice","3","21984","0.0-1.0-0.0-1.0","33","97001","female","3605","{""Q0"":""True"",""Q1"":""Mouse""}","","0","","","","","","","","","","","","","","","","","","","","","","","","","","","","","","","","","","","","","","","","","","","","","","","","",""
"","","","html-keyboard-response","4","24217","0.0-1.0-1.0","33","97001","female","2226","","","","68","","","","","","","","","","","","","","","","","","","","","","","","","","","","","","","","","","","","","","","","","","","","","","","",""
"","rating","","html-slider-response","5","27055","0.0-1.0-2.0","33","97001","female","2832","","","","","18","0","28","Stimuli/Experimental_stims/body_parts/ira-vishnevskaya-8DQAvdCby1I-unsplash.jpg","","","","","","","","","","","","","","","","","","","","","","","","","","","","","","","","","","","","","","","","","","","",""
"","rating","","html-slider-response","6","28787","0.0-1.0-3.0","33","97001","female","1726","","","","","71","1","4","Stimuli/Experimental_stims/outdoor_scenes/jarrett-kow-1ZOyYPOBn7I-unsplash.jpg","","","","","","","","","","","","","","","","","","","","","","","","","","","","","","","","","","","","","","","","","","","",""
"","rating","","html-slider-response","7","31207","0.0-1.0-4.0","33","97001","female","2415","","","","","21","2","35","Stimuli/Experimental_stims/body_parts/wc-so-KH4AAPjb-tI-unsplash.jpg","","","","","","","","","","","","","","","","","","","","","","","","","","","","","","","","","","","","","","","","","","","",""
"","rating","","html-slider-response","8","33399","0.0-1.0-5.0","33","97001","female","2186","","","","","37","3","47","Stimuli/Experimental_stims/objects/ronaldo-arthur-vidal-Cdz_lvnl37k-unsplash.jpg","","","","","","","","","","","","","","","","","","","","","","","","","","","","","","","","","","","","","","","","","","","",""
"","rating","","html-slider-response","9","36930","0.0-1.0-6.0","33","97001","female","3527","","","","","72","4","9","Stimuli/Experimental_stims/outdoor_scenes/sergey-pesterev-y-b_FOmJXdg-unsplash.jpg","","","","","","","","","","","","","","","","","","","","","","","","","","","","","","","","","","","","","","","","","","","",""
"","rating","","html-slider-response","10","39207","0.0-1.0-7.0","33","97001","female","2271","","","","","15","5","31","Stimuli/Experimental_stims/body_parts/sincerely-media-VN6DbKajo5s-unsplash.jpg","","","","","","","","","","","","","","","","","","","","","","","","","","","","","","","","","","","","","","","","","","","",""
"","rating","","html-slider-response","11","41051","0.0-1.0-8.0","33","97001","female","1839","","","","","79","6","5","Stimuli/Experimental_stims/outdoor_scenes/jeff-king-bJHWJeiHfHc-unsplash.jpg","","","","","","","","","","","","","","","","","","","","","","","","","","","","","","","","","","","","","","","","","","","",""
"","rating","","html-slider-response","12","43369","0.0-1.0-9.0","33","97001","female","2311","","","","","28","7","27","Stimuli/Experimental_stims/body_parts/heike-mintel-i_Gns0ELnLw-unsplash.jpg","","","","","","","","","","","","","","","","","","","","","","","","","","","","","","","","","","","","","","","","","","","",""
"","rating","","html-slider-response","13","44999","0.0-1.0-10.0","33","97001","female","1625","","","","","50","8","37","Stimuli/Experimental_stims/objects/alexander-andrews-VLGWE_SumrA-unsplash.jpg","","","","","","","","","","","","","","","","","","","","","","","","","","","","","","","","","","","","","","","","","","","",""
"","rating","","html-slider-response","14","46923","0.0-1.0-11.0","33","97001","female","1918","","","","","71","9","19","Stimuli/Experimental_stims/faces/joel-mott-LaK153ghdig-unsplash.jpg","","","","","","","","","","","","","","","","","","","","","","","","","","","","","","","","","","","","","","","","","","","",""
"","rating","","html-slider-response","15","50240","0.0-1.0-12.0","33","97001","female","3311","","","","","58","10","34","Stimuli/Experimental_stims/body_parts/wagner-santos-mBWMvIuVnso-unsplash.jpg","","","","","","","","","","","","","","","","","","","","","","","","","","","","","","","","","","","","","","","","","","","",""
"","rating","","html-slider-response","16","52120","0.0-1.0-13.0","33","97001","female","1873","","","","","69","11","22","Stimuli/Experimental_stims/faces/ravi-patel-VMGAbeeJTKo-unsplash.jpg","","","","","","","","","","","","","","","","","","","","","","","","","","","","","","","","","","","","","","","","","","","",""
"","rating","","html-slider-response","17","54157","0.0-1.0-14.0","33","97001","female","2030","","","","","70","12","1","Stimuli/Experimental_stims/outdoor_scenes/ashim-d-silva-S2Q5mdOrrVc-unsplash.jpg","","","","","","","","","","","","","","","","","","","","","","","","","","","","","","","","","","","","","","","","","","","",""
"","rating","","html-slider-response","18","56455","0.0-1.0-15.0","33","97001","female","2293","","","","","45","13","15","Stimuli/Experimental_stims/faces/erik-lucatero-d2MSDujJl2g-unsplash.jpg","","","","","","","","","","","","","","","","","","","","","","","","","","","","","","","","","","","","","","","","","","","",""
"","rating","","html-slider-response","19","59506","0.0-1.0-16.0","33","97001","female","3047","","","","","54","14","17","Stimuli/Experimental_stims/faces/good-faces-xmSWVeGEnJw-unsplash.jpg","","","","","","","","","","","","","","","","","","","","","","","","","","","","","","","","","","","","","","","","","","","",""
"","rating","","html-slider-response","20","62182","0.0-1.0-17.0","33","97001","female","2671","","","","","53","15","12","Stimuli/Experimental_stims/faces/aiony-haust-jmATI5Q_YgY-unsplash.jpg","","","","","","","","","","","","","","","","","","","","","","","","","","","","","","","","","","","","","","","","","","","",""
"","rating","","html-slider-response","21","64267","0.0-1.0-18.0","33","97001","female","2080","","","","","66","16","0","Stimuli/Experimental_stims/outdoor_scenes/aleksandra-boguslawska-MS7KD9Ti7FQ-unsplash.jpg","","","","","","","","","","","","","","","","","","","","","","","","","","","","","","","","","","","","","","","","","","","",""
"","rating","","html-slider-response","22","66606","0.0-1.0-19.0","33","97001","female","2335","","","","","38","17","41","Stimuli/Experimental_stims/objects/insung-yoon-w2JtIQQXoRU-unsplash.jpg","","","","","","","","","","","","","","","","","","","","","","","","","","","","","","","","","","","","","","","","","","","",""
"","rating","","html-slider-response","23","69087","0.0-1.0-20.0","33","97001","female","2476","","","","","36","18","18","Stimuli/Experimental_stims/faces/jessica-radanavong-mrYkTuAesKE-unsplash.jpg","","","","","","","","","","","","","","","","","","","","","","","","","","","","","","","","","","","","","","","","","","","",""
"","rating","","html-slider-response","24","71690","0.0-1.0-21.0","33","97001","female","2599","","","","","65","19","11","Stimuli/Experimental_stims/outdoor_scenes/stephen-leonardi-gyIRjKPXupE-unsplash.jpg","","","","","","","","","","","","","","","","","","","","","","","","","","","","","","","","","","","","","","","","","","","",""
"","rating","","html-slider-response","25","74699","0.0-1.0-22.0","33","97001","female","3004","","","","","10","20","20","Stimuli/Experimental_stims/faces/justin-chen-J7Cf1Gch49E-unsplash.jpg","","","","","","","","","","","","","","","","","","","","","","","","","","","","","","","","","","","","","","","","","","","",""
"","rating","","html-slider-response","26","77262","0.0-1.0-23.0","33","97001","female","2559","","","","","67","21","23","Stimuli/Experimental_stims/faces/rikonavt-HQjfrvdTfak-unsplash.jpg","","","","","","","","","","","","","","","","","","","","","","","","","","","","","","","","","","","","","","","","","","","",""
"","rating","","html-slider-response","27","79206","0.0-1.0-24.0","33","97001","female","1938","","","","","15","22","25","Stimuli/Experimental_stims/body_parts/engin-akyurt-Q2rfH3GW39c-unsplash.jpg","","","","","","","","","","","","","","","","","","","","","","","","","","","","","","","","","","","","","","","","","","","",""
"","rating","","html-slider-response","28","81434","0.0-1.0-25.0","33","97001","female","2223","","","","","1","23","33","Stimuli/Experimental_stims/body_parts/tucker-good-36skLT5jZcc-unsplash.jpg","","","","","","","","","","","","","","","","","","","","","","","","","","","","","","","","","","","","","","","","","","","",""
"","rating","","html-slider-response","29","83634","0.0-1.0-26.0","33","97001","female","2195","","","","","0","24","32","Stimuli/Experimental_stims/body_parts/towfiqu-barbhuiya-3AsiVDsZnHg-unsplash.jpg","","","","","","","","","","","","","","","","","","","","","","","","","","","","","","","","","","","","","","","","","","","",""
"","rating","","html-slider-response","30","86816","0.0-1.0-27.0","33","97001","female","3176","","","","","0","25","30","Stimuli/Experimental_stims/body_parts/mika-korhonen-Xodzxosar18-unsplash.jpg","","","","","","","","","","","","","","","","","","","","","","","","","","","","","","","","","","","","","","","","","","","",""
"","rating","","html-slider-response","31","89243","0.0-1.0-28.0","33","97001","female","2421","","","","","66","26","16","Stimuli/Experimental_stims/faces/freddy-kearney-o-ioeoATbIM-unsplash.jpg","","","","","","","","","","","","","","","","","","","","","","","","","","","","","","","","","","","","","","","","","","","",""
"","rating","","html-slider-response","32","92678","0.0-1.0-29.0","33","97001","female","3429","","","","","66","27","14","Stimuli/Experimental_stims/faces/david-siglin-UuW4psOb388-unsplash.jpg","","","","","","","","","","","","","","","","","","","","","","","","","","","","","","","","","","","","","","","","","","","",""
"","rating","","html-slider-response","33","96034","0.0-1.0-30.0","33","97001","female","3351","","","","","21","28","36","Stimuli/Experimental_stims/objects/alexander-andrews-JYGnB9gTCls-unsplash.jpg","","","","","","","","","","","","","","","","","","","","","","","","","","","","","","","","","","","","","","","","","","","",""
"","rating","","html-slider-response","34","98943","0.0-1.0-31.0","33","97001","female","2903","","","","","92","29","3","Stimuli/Experimental_stims/outdoor_scenes/henry-be-NLF6hTe4PAg-unsplash.jpg","","","","","","","","","","","","","","","","","","","","","","","","","","","","","","","","","","","","","","","","","","","",""
"","rating","","html-slider-response","35","101444","0.0-1.0-32.0","33","97001","female","2493","","","","","1","30","29","Stimuli/Experimental_stims/body_parts/manuel-schinner-ZwjFuJ7ebpk-unsplash.jpg","","","","","","","","","","","","","","","","","","","","","","","","","","","","","","","","","","","","","","","","","","","",""
"","rating","","html-slider-response","36","103774","0.0-1.0-33.0","33","97001","female","2324","","","","","57","31","43","Stimuli/Experimental_stims/objects/jonathan-greenaway-Y4hGgeiFn3s-unsplash.jpg","","","","","","","","","","","","","","","","","","","","","","","","","","","","","","","","","","","","","","","","","","","",""
"","rating","","html-slider-response","37","107362","0.0-1.0-34.0","33","97001","female","3583","","","","","64","32","40","Stimuli/Experimental_stims/objects/fabian-blank-pElSkGRA2NU-unsplash.jpg","","","","","","","","","","","","","","","","","","","","","","","","","","","","","","","","","","","","","","","","","","","",""
"","rating","","html-slider-response","38","109458","0.0-1.0-35.0","33","97001","female","2091","","","","","80","33","2","Stimuli/Experimental_stims/outdoor_scenes/bruno-van-der-kraan-qez8mNJ3ilU-unsplash.jpg","","","","","","","","","","","","","","","","","","","","","","","","","","","","","","","","","","","","","","","","","","","",""
"","rating","","html-slider-response","39","111825","0.0-1.0-36.0","33","97001","female","2363","","","","","1","34","26","Stimuli/Experimental_stims/body_parts/engin-akyurt-x_3gyC42btc-unsplash.jpg","","","","","","","","","","","","","","","","","","","","","","","","","","","","","","","","","","","","","","","","","","","",""
"","rating","","html-slider-response","40","115353","0.0-1.0-37.0","33","97001","female","3524","","","","","57","35","45","Stimuli/Experimental_stims/objects/leohoho-rngTKHXumy0-unsplash.jpg","","","","","","","","","","","","","","","","","","","","","","","","","","","","","","","","","","","","","","","","","","","",""
"","rating","","html-slider-response","41","117300","0.0-1.0-38.0","33","97001","female","1939","","","","","69","36","6","Stimuli/Experimental_stims/outdoor_scenes/meng-ji-8BH_M-53CyA-unsplash.jpg","","","","","","","","","","","","","","","","","","","","","","","","","","","","","","","","","","","","","","","","","","","",""
"","rating","","html-slider-response","42","120734","0.0-1.0-39.0","33","97001","female","3429","","","","","30","37","13","Stimuli/Experimental_stims/faces/daniel-rigdon-dXmXKPP2L4E-unsplash.jpg","","","","","","","","","","","","","","","","","","","","","","","","","","","","","","","","","","","","","","","","","","","",""
"","rating","","html-slider-response","43","123068","0.0-1.0-40.0","33","97001","female","2327","","","","","28","38","44","Stimuli/Experimental_stims/objects/kuiye-chen-NuOGFo4PudE-unsplash.jpg","","","","","","","","","","","","","","","","","","","","","","","","","","","","","","","","","","","","","","","","","","","",""
"","rating","","html-slider-response","44","124986","0.0-1.0-41.0","33","97001","female","1913","","","","","30","39","42","Stimuli/Experimental_stims/objects/jess-bailey-nOeVi8DsN8U-unsplash.jpg","","","","","","","","","","","","","","","","","","","","","","","","","","","","","","","","","","","","","","","","","","","",""
"","rating","","html-slider-response","45","127469","0.0-1.0-42.0","33","97001","female","2479","","","","","30","40","24","Stimuli/Experimental_stims/body_parts/clay-banks-LjqARJaJotc-unsplash.jpg","","","","","","","","","","","","","","","","","","","","","","","","","","","","","","","","","","","","","","","","","","","",""
"","rating","","html-slider-response","46","129461","0.0-1.0-43.0","33","97001","female","1987","","","","","65","41","21","Stimuli/Experimental_stims/faces/leilani-angel-K84vnnzxmTQ-unsplash.jpg","","","","","","","","","","","","","","","","","","","","","","","","","","","","","","","","","","","","","","","","","","","",""
"","rating","","html-slider-response","47","131489","0.0-1.0-44.0","33","97001","female","2023","","","","","89","42","7","Stimuli/Experimental_stims/outdoor_scenes/petr-vysohlid-9fqwGqGLUxc-unsplash.jpg","","","","","","","","","","","","","","","","","","","","","","","","","","","","","","","","","","","","","","","","","","","",""
"","rating","","html-slider-response","48","133622","0.0-1.0-45.0","33","97001","female","2128","","","","","44","43","46","Stimuli/Experimental_stims/objects/mockup-graphics-PNsj6RiHAF4-unsplash.jpg","","","","","","","","","","","","","","","","","","","","","","","","","","","","","","","","","","","","","","","","","","","",""
"","rating","","html-slider-response","49","135554","0.0-1.0-46.0","33","97001","female","1927","","","","","64","44","38","Stimuli/Experimental_stims/objects/art-lasovsky-8XddFc6NkBY-unsplash.jpg","","","","","","","","","","","","","","","","","","","","","","","","","","","","","","","","","","","","","","","","","","","",""
"","rating","","html-slider-response","50","137502","0.0-1.0-47.0","33","97001","female","1943","","","","","79","45","8","Stimuli/Experimental_stims/outdoor_scenes/samsommer-vddccTqwal8-unsplash.jpg","","","","","","","","","","","","","","","","","","","","","","","","","","","","","","","","","","","","","","","","","","","",""
"","rating","","html-slider-response","51","139774","0.0-1.0-48.0","33","97001","female","2267","","","","","93","46","10","Stimuli/Experimental_stims/outdoor_scenes/shannon-kunkle-dM8INmkyDas-unsplash.jpg","","","","","","","","","","","","","","","","","","","","","","","","","","","","","","","","","","","","","","","","","","","",""
"","rating","","html-slider-response","52","141530","0.0-1.0-49.0","33","97001","female","1751","","","","","33","47","39","Stimuli/Experimental_stims/objects/charlesdeluvio-1-nx1QR5dTE-unsplash.jpg","","","","","","","","","","","","","","","","","","","","","","","","","","","","","","","","","","","","","","","","","","","",""
"","localizer_instructions","","instructions","53","168290","0.0-2.0-0.0-0.0","33","97001","female","26704","","[{""page_index"":0,""viewing_time"":14576},{""page_index"":1,""viewing_time"":11012},{""page_index"":2,""viewing_time"":1116}]","","","","","","","","","","","","","","","","","","","","","","","","","","","","","","","","","","","","","","","","","","","","","","","","","",""
"","localizer_comprehension_check","","survey-multi-choice","54","173874","0.0-2.0-0.0-1.0","33","97001","female","5577","{""Q0"":""True"",""Q1"":""K"",""Q2"":""D""}","","0","","","","","","","","","","","","","","","","","","","","","","","","","","","","","","","","","","","","","","","","","","","","","","","","",""
"","","","html-keyboard-response","55","177327","0.0-2.0-1.0","33","97001","female","3447","","","","68","","","","","","","","","","","","","","","","","","","","","","","","","","","","","","","","","","","","","","","","","","","","","","","",""
"","localizer","","html-keyboard-response","56","177733","0.0-2.0-2.0-0.0","33","97001","female","NaN","","","","null","NaN","0","","Stimuli/Practice_stims/Localizer/annie-spratt-g9KFpAfQ5bc-unsplash.jpg","177327","0","NaN","","0","1","0","400","0","406","0","","","","","","","","","","","","","","","","","","","","","","","","","","","","","","","","",""
"","iti_localizer","","html-keyboard-response","57","178037","0.0-2.0-2.0-1.0","33","97001","female","null","","","","null","","0","","","177733","0","","","","","","300","400","304","406","300","","","","","","","","","","","","","","","","","","","","","","","","","","","","","","","",""
"","localizer","","html-keyboard-response","58","178444","0.0-2.0-2.1-0.1","33","97001","female","NaN","","","","null","NaN","0","","Stimuli/Practice_stims/Localizer/annie-spratt-g9KFpAfQ5bc-unsplash.jpg","178037","0","NaN","","0","1","0","400","700","407","710","","","","","","","","","","","","","","","","","","","","","","","","","","","","","","","","",""
"","iti_localizer","","html-keyboard-response","59","178749","0.0-2.0-2.1-1.1","33","97001","female","null","","","","null","","0","","","178444","0","","","","","","300","1100","305","1117","300","","","","","","","","","","","","","","","","","","","","","","","","","","","","","","","",""
"","localizer","","html-keyboard-response","60","179153","0.0-2.0-2.2-0.2","33","97001","female","NaN","","","","null","NaN","0","","Stimuli/Practice_stims/Localizer/annie-spratt-g9KFpAfQ5bc-unsplash.jpg","178749","0","NaN","","0","1","0","400","1400","404","1422","","","","","","","","","","","","","","","","","","","","","","","","","","","","","","","","",""
"","iti_localizer","","html-keyboard-response","61","179458","0.0-2.0-2.2-1.2","33","97001","female","null","","","","null","","0","","","179153","0","","","","","","300","1800","305","1826","300","","","","","","","","","","","","","","","","","","","","","","","","","","","","","","","",""
"","localizer","","html-keyboard-response","62","179864","0.0-2.0-2.3-0.3","33","97001","female","NaN","","","","null","NaN","0","","Stimuli/Practice_stims/Localizer/annie-spratt-g9KFpAfQ5bc-unsplash.jpg","179458","0","NaN","","0","1","0","400","2100","406","2131","","","","","","","","","","","","","","","","","","","","","","","","","","","","","","","","",""
"","iti_localizer","","html-keyboard-response","63","180169","0.0-2.0-2.3-1.3","33","97001","female","null","","","","null","","0","","","179864","0","","","","","","300","2500","305","2537","300","","","","","","","","","","","","","","","","","","","","","","","","","","","","","","","",""
"","localizer","","html-keyboard-response","64","180576","0.0-2.0-2.4-0.4","33","97001","female","24","","","","68","0","0","","Stimuli/Practice_stims/Localizer/annie-spratt-g9KFpAfQ5bc-unsplash.jpg","180169","0","NaN","","0","0","1","400","2800","407","2842","","","","","","","","","","","","","","","","","","","","","","","","","","","","","","","","",""
"","iti_localizer","","html-keyboard-response","65","180886","0.0-2.0-2.4-1.4","33","97001","female","null","","","","null","","0","","","180576","0","","","","","","300","3200","310","3249","300","","","","","","","","","","","","","","","","","","","","","","","","","","","","","","","",""
"","localizer","","html-keyboard-response","66","181292","0.0-2.0-3.0-0.0","33","97001","female","NaN","","","","null","NaN","1","","Stimuli/Practice_stims/Localizer/becca-tapert-sY5RjMB1KkE-unsplash.jpg","180886","0","NaN","","0","1","0","400","3500","406","3559","","","","","","","","","","","","","","","","","","","","","","","","","","","","","","","","",""
"","iti_localizer","","html-keyboard-response","67","181597","0.0-2.0-3.0-1.0","33","97001","female","null","","","","null","","1","","","181292","0","","","","","","300","3900","305","3965","300","","","","","","","","","","","","","","","","","","","","","","","","","","","","","","","",""
"","localizer","","html-keyboard-response","68","182003","0.0-2.0-3.1-0.1","33","97001","female","NaN","","","","null","NaN","1","","Stimuli/Practice_stims/Localizer/becca-tapert-sY5RjMB1KkE-unsplash.jpg","181597","0","NaN","","0","1","0","400","4200","406","4270","","","","","","","","","","","","","","","","","","","","","","","","","","","","","","","","",""
"","iti_localizer","","html-keyboard-response","69","182307","0.0-2.0-3.1-1.1","33","97001","female","null","","","","null","","1","","","182003","0","","","","","","300","4600","304","4676","300","","","","","","","","","","","","","","","","","","","","","","","","","","","","","","","",""
"","localizer","","html-keyboard-response","70","182713","0.0-2.0-3.2-0.2","33","97001","female","278","","","","68","0","1","","Stimuli/Practice_stims/Localizer/becca-tapert-sY5RjMB1KkE-unsplash.jpg","182307","0","NaN","","0","0","1","400","4900","406","4980","","","","","","","","","","","","","","","","","","","","","","","","","","","","","","","","",""
"","iti_localizer","","html-keyboard-response","71","183018","0.0-2.0-3.2-1.2","33","97001","female","null","","","","null","","1","","","182713","0","","","","","","300","5300","305","5386","300","","","","","","","","","","","","","","","","","","","","","","","","","","","","","","","",""
"","localizer","","html-keyboard-response","72","183423","0.0-2.0-4.0-0.0","33","97001","female","NaN","","","","null","NaN","2","","Stimuli/Practice_stims/Localizer/charl-durand-bsfXvI25iNg-unsplash.jpg","183018","0","NaN","","1","1","0","400","5600","405","5691","","","","","","","","","","","","","","","","","","","","","","","","","","","","","","","","",""
"","iti_localizer","","html-keyboard-response","73","183728","0.0-2.0-4.0-1.0","33","97001","female","null","","","","null","","2","","","183423","0","","","","","","300","6000","305","6096","300","","","","","","","","","","","","","","","","","","","","","","","","","","","","","","","",""
"","localizer","","html-keyboard-response","74","184134","0.0-2.0-4.1-0.1","33","97001","female","NaN","","","","null","NaN","2","","Stimuli/Practice_stims/Localizer/charl-durand-bsfXvI25iNg-unsplash.jpg","183728","0","NaN","","1","1","0","400","6300","406","6401","","","","","","","","","","","","","","","","","","","","","","","","","","","","","","","","",""
"","iti_localizer","","html-keyboard-response","75","184440","0.0-2.0-4.1-1.1","33","97001","female","null","","","","null","","2","","","184134","0","","","","","","300","6700","306","6807","300","","","","","","","","","","","","","","","","","","","","","","","","","","","","","","","",""
"","localizer","","html-keyboard-response","76","184846","0.0-2.0-4.2-0.2","33","97001","female","NaN","","","","null","NaN","2","","Stimuli/Practice_stims/Localizer/charl-durand-bsfXvI25iNg-unsplash.jpg","184440","0","NaN","","1","1","0","400","7000","406","7113","","","","","","","","","","","","","","","","","","","","","","","","","","","","","","","","",""
"","iti_localizer","","html-keyboard-response","77","185151","0.0-2.0-4.2-1.2","33","97001","female","null","","","","null","","2","","","184846","0","","","","","","300","7400","305","7519","300","","","","","","","","","","","","","","","","","","","","","","","","","","","","","","","",""
"","localizer","","html-keyboard-response","78","185557","0.0-2.0-4.3-0.3","33","97001","female","386","","","","75","1","2","","Stimuli/Practice_stims/Localizer/charl-durand-bsfXvI25iNg-unsplash.jpg","185151","0","NaN","","1","0","1","400","7700","406","7824","","","","","","","","","","","","","","","","","","","","","","","","","","","","","","","","",""
"","iti_localizer","","html-keyboard-response","79","185862","0.0-2.0-4.3-1.3","33","97001","female","null","","","","null","","2","","","185557","0","","","","","","300","8100","305","8230","300","","","","","","","","","","","","","","","","","","","","","","","","","","","","","","","",""
"","localizer","","html-keyboard-response","80","186267","0.0-2.0-5.0-0.0","33","97001","female","NaN","","","","null","NaN","3","","Stimuli/Practice_stims/Localizer/nizar-albusaidy-B2r2SWAf5CE-unsplash.jpg","185862","0","NaN","","0","1","0","400","8400","405","8535","","","","","","","","","","","","","","","","","","","","","","","","","","","","","","","","",""
"","iti_localizer","","html-keyboard-response","81","186571","0.0-2.0-5.0-1.0","33","97001","female","null","","","","null","","3","","","186267","0","","","","","","300","8800","304","8940","300","","","","","","","","","","","","","","","","","","","","","","","","","","","","","","","",""
"","localizer","","html-keyboard-response","82","186976","0.0-2.0-5.1-0.1","33","97001","female","70","","","","68","0","3","","Stimuli/Practice_stims/Localizer/nizar-albusaidy-B2r2SWAf5CE-unsplash.jpg","186571","0","NaN","","0","0","1","400","9100","405","9244","","","","","","","","","","","","","","","","","","","","","","","","","","","","","","","","",""
"","iti_localizer","","html-keyboard-response","83","187281","0.0-2.0-5.1-1.1","33","97001","female","null","","","","null","","3","","","186976","0","","","","","","300","9500","305","9649","300","","","","","","","","","","","","","","","","","","","","","","","","","","","","","","","",""
"","localizer","","html-keyboard-response","84","187685","0.0-2.0-6.0-0.0","33","97001","female","NaN","","","","null","NaN","4","","Stimuli/Practice_stims/Localizer/randy-fath-epf1tdtIIkM-unsplash.jpg","187281","0","NaN","","1","1","0","400","9800","404","9954","","","","","","","","","","","","","","","","","","","","","","","","","","","","","","","","",""
"","iti_localizer","","html-keyboard-response","85","187991","0.0-2.0-6.0-1.0","33","97001","female","null","","","","null","","4","","","187685","0","","","","","","300","10200","306","10358","300","","","","","","","","","","","","","","","","","","","","","","","","","","","","","","","",""
"","localizer","","html-keyboard-response","86","188396","0.0-2.0-6.1-0.1","33","97001","female","346","","","","75","1","4","","Stimuli/Practice_stims/Localizer/randy-fath-epf1tdtIIkM-unsplash.jpg","187991","0","NaN","","1","0","1","400","10500","405","10664","","","","","","","","","","","","","","","","","","","","","","","","","","","","","","","","",""
"","iti_localizer","","html-keyboard-response","87","188702","0.0-2.0-6.1-1.1","33","97001","female","null","","","","null","","4","","","188396","0","","","","","","300","10900","306","11069","300","","","","","","","","","","","","","","","","","","","","","","","","","","","","","","","",""
"","localizer","","html-keyboard-response","88","189108","0.0-2.0-7.0-0.0","33","97001","female","NaN","","","","null","NaN","5","","Stimuli/Practice_stims/Localizer/yassine-khalfalli-adsQ9d_Cx0c-unsplash.jpg","188702","0","NaN","","0","1","0","400","11200","406","11375","","","","","","","","","","","","","","","","","","","","","","","","","","","","","","","","",""
"","iti_localizer","","html-keyboard-response","89","189412","0.0-2.0-7.0-1.0","33","97001","female","null","","","","null","","5","","","189108","0","","","","","","300","11600","304","11781","300","","","","","","","","","","","","","","","","","","","","","","","","","","","","","","","",""
"","localizer","","html-keyboard-response","90","189818","0.0-2.0-7.1-0.1","33","97001","female","349","","","","68","0","5","","Stimuli/Practice_stims/Localizer/yassine-khalfalli-adsQ9d_Cx0c-unsplash.jpg","189412","0","NaN","","0","0","1","400","11900","406","12085","","","","","","","","","","","","","","","","","","","","","","","","","","","","","","","","",""
"","iti_localizer","","html-keyboard-response","91","190123","0.0-2.0-7.1-1.1","33","97001","female","null","","","","null","","5","","","189818","0","","","","","","300","12300","305","12491","300","","","","","","","","","","","","","","","","","","","","","","","","","","","","","","","",""
"","practice_over","","html-keyboard-response","92","191693","0.0-2.0-7.1-2.1-0.1","33","97001","female","1566","","","","68","","","","","","","","","","","","","","","","","","","","","","","","","","","","","","","","","","","","","","","","","","","","","","","",""
"","start_run","","html-keyboard-response","93","193590","0.0-2.0-7.1-2.1-1.1","33","97001","female","1892","","","","84","","","","","","","","","","","","","","","","","","","","","","","","","","","","","","","","","","","","","","","","","","","","","","","",""
"","localizer","","html-keyboard-response","94","193997","0.0-2.0-8.0-0.0","33","97001","female","NaN","","","","null","NaN","6","","Stimuli/Experimental_stims/localizer/body_parts/igordoon-primus-CdyHqfrbGIs-unsplash.jpg","193590","1","body_parts","","0","1","0","400","0","407","0","","","","","","","","","","","","","","","","","","","","","","","","","","","","","","","","",""
"","iti_localizer","","html-keyboard-response","95","194303","0.0-2.0-8.0-1.0","33","97001","female","null","","","","null","","6","","","193997","1","","","","","","300","400","306","407","300","","","","","","","","","","","","","","","","","","","","","","","","","","","","","","","",""
"","localizer","","html-keyboard-response","96","194708","0.0-2.0-9.0-0.0","33","97001","female","259","","","","68","0","7","","Stimuli/Experimental_stims/localizer/body_parts/jonathan-borba-hTwH8QFkPMs-unsplash.jpg","194303","1","body_parts","","0","0","1","400","700","405","713","","","","","","","","","","","","","","","","","","","","","","","","","","","","","","","","",""
"","iti_localizer","","html-keyboard-response","97","195013","0.0-2.0-9.0-1.0","33","97001","female","null","","","","null","","7","","","194708","1","","","","","","300","1100","305","1118","300","","","","","","","","","","","","","","","","","","","","","","","","","","","","","","","",""
"","localizer","","html-keyboard-response","98","195435","0.0-2.0-10.0-0.0","33","97001","female","NaN","","","","null","NaN","8","","Stimuli/Experimental_stims/localizer/body_parts/marcel-fagin-OUYg0Q3ec-Y-unsplash.jpg","195013","1","body_parts","","1","1","0","400","1400","422","1423","","","","","","","","","","","","","","","","","","","","","","","","","","","","","","","","",""
"","iti_localizer","","html-keyboard-response","99","195742","0.0-2.0-10.0-1.0","33","97001","female","null","","","","null","","8","","","195435","1","","","","","","300","1800","307","1845","300","","","","","","","","","","","","","","","","","","","","","","","","","","","","","","","",""
"","localizer","","html-keyboard-response","100","196149","0.0-2.0-11.0-0.0","33","97001","female","NaN","","","","null","NaN","9","","Stimuli/Experimental_stims/localizer/body_parts/anelya-okapova-V69kmOyZ3SU-unsplash.jpg","195742","1","body_parts","","0","1","0","400","2100","407","2152","","","","","","","","","","","","","","","","","","","","","","","","","","","","","","","","",""
"","iti_localizer","","html-keyboard-response","101","196454","0.0-2.0-11.0-1.0","33","97001","female","null","","","","null","","9","","","196149","1","","","","","","300","2500","305","2559","300","","","","","","","","","","","","","","","","","","","","","","","","","","","","","","","",""
"","localizer","","html-keyboard-response","102","196860","0.0-2.0-12.0-0.0","33","97001","female","371","","","","68","0","10","","Stimuli/Experimental_stims/localizer/body_parts/jan-romero-DL4DDQb8yjc-unsplash.jpg","196454","1","body_parts","","0","0","1","400","2800","406","2864","","","","","","","","","","","","","","","","","","","","","","","","","","","","","","","","",""
"","iti_localizer","","html-keyboard-response","103","197165","0.0-2.0-12.0-1.0","33","97001","female","null","","","","null","","10","","","196860","1","","","","","","300","3200","305","3270","300","","","","","","","","","","","","","","","","","","","","","","","","","","","","","","","",""
"","localizer","","html-keyboard-response","104","197570","0.0-2.0-13.0-0.0","33","97001","female","357","","","","68","0","11","","Stimuli/Experimental_stims/localizer/body_parts/pure-julia-9lVaya31sMk-unsplash.jpg","197165","1","body_parts","","0","0","1","400","3500","405","3575","","","","","","","","","","","","","","","","","","","","","","","","","","","","","","","","",""
"","iti_localizer","","html-keyboard-response","105","197876","0.0-2.0-13.0-1.0","33","97001","female","null","","","","null","","11","","","197570","1","","","","","","300","3900","306","3980","300","","","","","","","","","","","","","","","","","","","","","","","","","","","","","","","",""
"","localizer","","html-keyboard-response","106","198284","0.0-2.0-14.0-0.0","33","97001","female","NaN","","","","null","NaN","12","","Stimuli/Experimental_stims/localizer/body_parts/jasper-garratt-Ng_Kl7K6V8Y-unsplash.jpg","197876","1","body_parts","","0","1","0","400","4200","408","4286","","","","","","","","","","","","","","","","","","","","","","","","","","","","","","","","",""
"","iti_localizer","","html-keyboard-response","107","198588","0.0-2.0-14.0-1.0","33","97001","female","null","","","","null","","12","","","198284","1","","","","","","300","4600","304","4694","300","","","","","","","","","","","","","","","","","","","","","","","","","","","","","","","",""
"","localizer","","html-keyboard-response","108","198994","0.0-2.0-15.0-0.0","33","97001","female","325","","","","68","0","13","","Stimuli/Experimental_stims/localizer/body_parts/i-am_nah--S4OsO0c6Ts-unsplash.jpg","198588","1","body_parts","","0","0","1","400","4900","406","4998","","","","","","","","","","","","","","","","","","","","","","","","","","","","","","","","",""
"","iti_localizer","","html-keyboard-response","109","199303","0.0-2.0-15.0-1.0","33","97001","female","null","","","","null","","13","","","198994","1","","","","","","300","5300","309","5404","300","","","","","","","","","","","","","","","","","","","","","","","","","","","","","","","",""
"","localizer","","html-keyboard-response","110","199709","0.0-2.0-16.0-0.0","33","97001","female","330","","","","68","0","14","","Stimuli/Experimental_stims/localizer/body_parts/femme-spirit-RGYBDUHYbyM-unsplash.jpg","199303","1","body_parts","","0","0","1","400","5600","406","5713","","","","","","","","","","","","","","","","","","","","","","","","","","","","","","","","",""
"","iti_localizer","","html-keyboard-response","111","200015","0.0-2.0-16.0-1.0","33","97001","female","null","","","","null","","14","","","199709","1","","","","","","300","6000","306","6119","300","","","","","","","","","","","","","","","","","","","","","","","","","","","","","","","",""
"","localizer","","html-keyboard-response","112","200421","0.0-2.0-17.0-0.0","33","97001","female","275","","","","68","0","15","","Stimuli/Experimental_stims/localizer/body_parts/liv-bruce-M0oVPGsWk1E-unsplash.jpg","200015","1","body_parts","","0","0","1","400","6300","406","6425","","","","","","","","","","","","","","","","","","","","","","","","","","","","","","","","",""
"","iti_localizer","","html-keyboard-response","113","200727","0.0-2.0-17.0-1.0","33","97001","female","null","","","","null","","15","","","200421","1","","","","","","300","6700","306","6831","300","","","","","","","","","","","","","","","","","","","","","","","","","","","","","","","",""
"","localizer","","html-keyboard-response","114","201132","0.0-2.0-18.0-0.0","33","97001","female","258","","","","68","0","16","","Stimuli/Experimental_stims/localizer/body_parts/bady-abbas-N-VEeMnm7gE-unsplash.jpg","200727","1","body_parts","","0","0","1","400","7000","405","7137","","","","","","","","","","","","","","","","","","","","","","","","","","","","","","","","",""
"","iti_localizer","","html-keyboard-response","115","201438","0.0-2.0-18.0-1.0","33","97001","female","null","","","","null","","16","","","201132","1","","","","","","300","7400","306","7542","300","","","","","","","","","","","","","","","","","","","","","","","","","","","","","","","",""
"","localizer","","html-keyboard-response","116","201843","0.0-2.0-19.0-0.0","33","97001","female","252","","","","68","0","17","","Stimuli/Experimental_stims/localizer/body_parts/lucaxx-freire-CacZwMexYdk-unsplash.jpg","201438","1","body_parts","","0","0","1","400","7700","405","7848","","","","","","","","","","","","","","","","","","","","","","","","","","","","","","","","",""
"","iti_localizer","","html-keyboard-response","117","202148","0.0-2.0-19.0-1.0","33","97001","female","null","","","","null","","17","","","201843","1","","","","","","300","8100","305","8253","300","","","","","","","","","","","","","","","","","","","","","","","","","","","","","","","",""
"","localizer","","html-keyboard-response","118","202556","0.0-2.0-20.0-0.0","33","97001","female","373","","","","68","0","18","","Stimuli/Experimental_stims/localizer/body_parts/hu-chen-tCbTGNwrFNM-unsplash.jpg","202148","1","body_parts","","0","0","1","400","8400","408","8558","","","","","","","","","","","","","","","","","","","","","","","","","","","","","","","","",""
"","iti_localizer","","html-keyboard-response","119","202863","0.0-2.0-20.0-1.0","33","97001","female","null","","","","null","","18","","","202556","1","","","","","","300","8800","307","8966","300","","","","","","","","","","","","","","","","","","","","","","","","","","","","","","","",""
"","localizer","","html-keyboard-response","120","203268","0.0-2.0-21.0-0.0","33","97001","female","330","","","","68","0","19","","Stimuli/Experimental_stims/localizer/body_parts/megan-menegay-UojxG_BJxnI-unsplash.jpg","202863","1","body_parts","","0","0","1","400","9100","405","9273","","","","","","","","","","","","","","","","","","","","","","","","","","","","","","","","",""
"","iti_localizer","","html-keyboard-response","121","203575","0.0-2.0-21.0-1.0","33","97001","female","null","","","","null","","19","","","203268","1","","","","","","300","9500","307","9678","300","","","","","","","","","","","","","","","","","","","","","","","","","","","","","","","",""
"","localizer","","html-keyboard-response","122","203980","0.0-2.0-22.0-0.0","33","97001","female","NaN","","","","null","NaN","20","","Stimuli/Experimental_stims/localizer/body_parts/toan-nguyen-VIeLuUFzesg-unsplash.jpg","203575","1","body_parts","","1","1","0","400","9800","405","9985","","","","","","","","","","","","","","","","","","","","","","","","","","","","","","","","",""
"","iti_localizer","","html-keyboard-response","123","204285","0.0-2.0-22.0-1.0","33","97001","female","null","","","","null","","20","","","203980","1","","","","","","300","10200","305","10390","300","","","","","","","","","","","","","","","","","","","","","","","","","","","","","","","",""
"","localizer","","html-keyboard-response","124","204694","0.0-2.0-23.0-0.0","33","97001","female","NaN","","","","null","NaN","21","","Stimuli/Experimental_stims/localizer/body_parts/sippakorn-yamkasikorn-32_sJlJa5gA-unsplash.jpg","204285","1","body_parts","","0","1","0","400","10500","409","10695","","","","","","","","","","","","","","","","","","","","","","","","","","","","","","","","",""
"","iti_localizer","","html-keyboard-response","125","205000","0.0-2.0-23.0-1.0","33","97001","female","null","","","","null","","21","","","204694","1","","","","","","300","10900","306","11104","300","","","","","","","","","","","","","","","","","","","","","","","","","","","","","","","",""
"","localizer","","html-keyboard-response","126","205406","0.0-2.0-24.0-0.0","33","97001","female","NaN","","","","null","NaN","22","","Stimuli/Experimental_stims/localizer/body_parts/louis-hansel-FjKTMRTQYAs-unsplash.jpg","205000","1","body_parts","","0","1","0","400","11200","406","11410","","","","","","","","","","","","","","","","","","","","","","","","","","","","","","","","",""
"","iti_localizer","","html-keyboard-response","127","205712","0.0-2.0-24.0-1.0","33","97001","female","null","","","","null","","22","","","205406","1","","","","","","300","11600","306","11816","300","","","","","","","","","","","","","","","","","","","","","","","","","","","","","","","",""
"","localizer","","html-keyboard-response","128","206116","0.0-2.0-25.0-0.0","33","97001","female","345","","","","68","0","23","","Stimuli/Experimental_stims/localizer/body_parts/sydney-herron-b2W04fGuS70-unsplash.jpg","205712","1","body_parts","","0","0","1","400","11900","404","12122","","","","","","","","","","","","","","","","","","","","","","","","","","","","","","","","",""
"","iti_localizer","","html-keyboard-response","129","206426","0.0-2.0-25.0-1.0","33","97001","female","null","","","","null","","23","","","206116","1","","","","","","300","12300","310","12526","300","","","","","","","","","","","","","","","","","","","","","","","","","","","","","","","",""
"","localizer","","html-keyboard-response","130","206831","0.0-2.0-26.0-0.0","33","97001","female","359","","","","68","0","24","","Stimuli/Experimental_stims/localizer/body_parts/danie-franco-jyyNiSEcCl4-unsplash.jpg","206426","1","body_parts","","0","0","1","400","12600","405","12836","","","","","","","","","","","","","","","","","","","","","","","","","","","","","","","","",""
"","iti_localizer","","html-keyboard-response","131","207135","0.0-2.0-26.0-1.0","33","97001","female","null","","","","null","","24","","","206831","1","","","","","","300","13000","304","13241","300","","","","","","","","","","","","","","","","","","","","","","","","","","","","","","","",""
"","localizer","","html-keyboard-response","132","207541","0.0-2.0-27.0-0.0","33","97001","female","330","","","","68","0","25","","Stimuli/Experimental_stims/localizer/body_parts/ramesh-iyer-CRhznMXoJlc-unsplash.jpg","207135","1","body_parts","","0","0","1","400","13300","406","13545","","","","","","","","","","","","","","","","","","","","","","","","","","","","","","","","",""
"","iti_localizer","","html-keyboard-response","133","221548","0.0-2.0-27.0-1.0","33","97001","female","null","","","","null","","25","","","207541","1","","","","","","14000","13700","14007","13951","14000","","","","","","","","","","","","","","","","","","","","","","","","","","","","","","","",""
"","localizer","","html-keyboard-response","134","221954","0.0-2.0-28.0-0.0","33","97001","female","NaN","","","","null","NaN","26","","Stimuli/Experimental_stims/localizer/objects/adriano-pucciarelli-BE7yaZnZX6o-unsplash.jpg","221548","1","objects","","0","1","0","400","27700","406","27958","","","","","","","","","","","","","","","","","","","","","","","","","","","","","","","","",""
"","iti_localizer","","html-keyboard-response","135","222259","0.0-2.0-28.0-1.0","33","97001","female","null","","","","null","","26","","","221954","1","","","","","","300","28100","305","28364","300","","","","","","","","","","","","","","","","","","","","","","","","","","","","","","","",""
"","localizer","","html-keyboard-response","136","222667","0.0-2.0-29.0-0.0","33","97001","female","366","","","","68","0","27","","Stimuli/Experimental_stims/localizer/objects/petr-sidorov-3jm5TGqtULU-unsplash.jpg","222259","1","objects","","0","0","1","400","28400","408","28669","","","","","","","","","","","","","","","","","","","","","","","","","","","","","","","","",""
"","iti_localizer","","html-keyboard-response","137","222972","0.0-2.0-29.0-1.0","33","97001","female","null","","","","null","","27","","","222667","1","","","","","","300","28800","305","29077","300","","","","","","","","","","","","","","","","","","","","","","","","","","","","","","","",""
"","localizer","","html-keyboard-response","138","223378","0.0-2.0-30.0-0.0","33","97001","female","NaN","","","","null","NaN","28","","Stimuli/Experimental_stims/localizer/objects/carlos-felipe-ramirez-mesa-HW7bfB3ERSQ-unsplash.jpg","222972","1","objects","","0","1","0","400","29100","406","29382","","","","","","","","","","","","","","","","","","","","","","","","","","","","","","","","",""
"","iti_localizer","","html-keyboard-response","139","223684","0.0-2.0-30.0-1.0","33","97001","female","null","","","","null","","28","","","223378","1","","","","","","300","29500","306","29788","300","","","","","","","","","","","","","","","","","","","","","","","","","","","","","","","",""
"","localizer","","html-keyboard-response","140","224089","0.0-2.0-31.0-0.0","33","97001","female","NaN","","","","null","NaN","29","","Stimuli/Experimental_stims/localizer/objects/raimond-klavins-ZdvDPXVvcKs-unsplash.jpg","223684","1","objects","","1","1","0","400","29800","405","30094","","","","","","","","","","","","","","","","","","","","","","","","","","","","","","","","",""
"","iti_localizer","","html-keyboard-response","141","224395","0.0-2.0-31.0-1.0","33","97001","female","null","","","","null","","29","","","224089","1","","","","","","300","30200","306","30499","300","","","","","","","","","","","","","","","","","","","","","","","","","","","","","","","",""
"","localizer","","html-keyboard-response","142","224800","0.0-2.0-32.0-0.0","33","97001","female","NaN","","","","null","NaN","30","","Stimuli/Experimental_stims/localizer/objects/adriano-pucciarelli-Jl3S1yM8gi8-unsplash.jpg","224395","1","objects","","0","1","0","400","30500","405","30805","","","","","","","","","","","","","","","","","","","","","","","","","","","","","","","","",""
"","iti_localizer","","html-keyboard-response","143","225106","0.0-2.0-32.0-1.0","33","97001","female","null","","","","null","","30","","","224800","1","","","","","","300","30900","306","31210","300","","","","","","","","","","","","","","","","","","","","","","","","","","","","","","","",""
"","localizer","","html-keyboard-response","144","225511","0.0-2.0-33.0-0.0","33","97001","female","NaN","","","","null","NaN","31","","Stimuli/Experimental_stims/localizer/objects/engin-akyurt-bbbKzTmY2Gg-unsplash.jpg","225106","1","objects","","0","1","0","400","31200","405","31516","","","","","","","","","","","","","","","","","","","","","","","","","","","","","","","","",""
"","iti_localizer","","html-keyboard-response","145","225818","0.0-2.0-33.0-1.0","33","97001","female","null","","","","null","","31","","","225511","1","","","","","","300","31600","307","31921","300","","","","","","","","","","","","","","","","","","","","","","","","","","","","","","","",""
"","localizer","","html-keyboard-response","146","226224","0.0-2.0-34.0-0.0","33","97001","female","351","","","","68","0","32","","Stimuli/Experimental_stims/localizer/objects/sam-moghadam-khamseh-kvmdsTrGOBM-unsplash.jpg","225818","1","objects","","0","0","1","400","31900","406","32228","","","","","","","","","","","","","","","","","","","","","","","","","","","","","","","","",""
"","iti_localizer","","html-keyboard-response","147","226529","0.0-2.0-34.0-1.0","33","97001","female","null","","","","null","","32","","","226224","1","","","","","","300","32300","305","32634","300","","","","","","","","","","","","","","","","","","","","","","","","","","","","","","","",""
"","localizer","","html-keyboard-response","148","226934","0.0-2.0-35.0-0.0","33","97001","female","376","","","","68","0","33","","Stimuli/Experimental_stims/localizer/objects/jiangxulei1990-eIzzzwtkBjU-unsplash.jpg","226529","1","objects","","0","0","1","400","32600","405","32939","","","","","","","","","","","","","","","","","","","","","","","","","","","","","","","","",""
"","iti_localizer","","html-keyboard-response","149","227238","0.0-2.0-35.0-1.0","33","97001","female","null","","","","null","","33","","","226934","1","","","","","","300","33000","304","33344","300","","","","","","","","","","","","","","","","","","","","","","","","","","","","","","","",""
"","localizer","","html-keyboard-response","150","227643","0.0-2.0-36.0-0.0","33","97001","female","299","","","","68","0","34","","Stimuli/Experimental_stims/localizer/objects/florian-klauer-nptLmg6jqDo-unsplash.jpg","227238","1","objects","","0","0","1","400","33300","405","33648","","","","","","","","","","","","","","","","","","","","","","","","","","","","","","","","",""
"","iti_localizer","","html-keyboard-response","151","227948","0.0-2.0-36.0-1.0","33","97001","female","null","","","","null","","34","","","227643","1","","","","","","300","33700","305","34053","300","","","","","","","","","","","","","","","","","","","","","","","","","","","","","","","",""
"","localizer","","html-keyboard-response","152","228354","0.0-2.0-37.0-0.0","33","97001","female","278","","","","68","0","35","","Stimuli/Experimental_stims/localizer/objects/ignat-dolomanov-kFBDVnmskPA-unsplash.jpg","227948","1","objects","","0","0","1","400","34000","406","34358","","","","","","","","","","","","","","","","","","","","","","","","","","","","","","","","",""
"","iti_localizer","","html-keyboard-response","153","228659","0.0-2.0-37.0-1.0","33","97001","female","null","","","","null","","35","","","228354","1","","","","","","300","34400","305","34764","300","","","","","","","","","","","","","","","","","","","","","","","","","","","","","","","",""
"","localizer","","html-keyboard-response","154","229065","0.0-2.0-38.0-0.0","33","97001","female","214","","","","68","0","36","","Stimuli/Experimental_stims/localizer/objects/andrew-petrov-TVJqDat4MAw-unsplash.jpg","228659","1","objects","","0","0","1","400","34700","406","35069","","","","","","","","","","","","","","","","","","","","","","","","","","","","","","","","",""
"","iti_localizer","","html-keyboard-response","155","229370","0.0-2.0-38.0-1.0","33","97001","female","null","","","","null","","36","","","229065","1","","","","","","300","35100","305","35475","300","","","","","","","","","","","","","","","","","","","","","","","","","","","","","","","",""
"","localizer","","html-keyboard-response","156","229777","0.0-2.0-39.0-0.0","33","97001","female","143","","","","68","0","37","","Stimuli/Experimental_stims/localizer/objects/sam-moghadam-khamseh-L_7MQsHl_aU-unsplash.jpg","229370","1","objects","","0","0","1","400","35400","407","35780","","","","","","","","","","","","","","","","","","","","","","","","","","","","","","","","",""
"","iti_localizer","","html-keyboard-response","157","230082","0.0-2.0-39.0-1.0","33","97001","female","null","","","","null","","37","","","229777","1","","","","","","300","35800","305","36187","300","","","","","","","","","","","","","","","","","","","","","","","","","","","","","","","",""
"","localizer","","html-keyboard-response","158","230487","0.0-2.0-40.0-0.0","33","97001","female","336","","","","68","0","38","","Stimuli/Experimental_stims/localizer/objects/ana-9GmAaEMMKho-unsplash.jpg","230082","1","objects","","0","0","1","400","36100","405","36492","","","","","","","","","","","","","","","","","","","","","","","","","","","","","","","","",""
"","iti_localizer","","html-keyboard-response","159","230795","0.0-2.0-40.0-1.0","33","97001","female","null","","","","null","","38","","","230487","1","","","","","","300","36500","308","36897","300","","","","","","","","","","","","","","","","","","","","","","","","","","","","","","","",""
"","localizer","","html-keyboard-response","160","231201","0.0-2.0-41.0-0.0","33","97001","female","382","","","","68","0","39","","Stimuli/Experimental_stims/localizer/objects/mockup-graphics-U6ZMEefFGx8-unsplash.jpg","230795","1","objects","","0","0","1","400","36800","406","37205","","","","","","","","","","","","","","","","","","","","","","","","","","","","","","","","",""
"","iti_localizer","","html-keyboard-response","161","231507","0.0-2.0-41.0-1.0","33","97001","female","null","","","","null","","39","","","231201","1","","","","","","300","37200","306","37611","300","","","","","","","","","","","","","","","","","","","","","","","","","","","","","","","",""
"","localizer","","html-keyboard-response","162","231912","0.0-2.0-42.0-0.0","33","97001","female","318","","","","68","0","40","","Stimuli/Experimental_stims/localizer/objects/kelly-jean-cKjbI0Y00X0-unsplash.jpg","231507","1","objects","","0","0","1","400","37500","405","37917","","","","","","","","","","","","","","","","","","","","","","","","","","","","","","","","",""
"","iti_localizer","","html-keyboard-response","163","232217","0.0-2.0-42.0-1.0","33","97001","female","null","","","","null","","40","","","231912","1","","","","","","300","37900","305","38322","300","","","","","","","","","","","","","","","","","","","","","","","","","","","","","","","",""
"","localizer","","html-keyboard-response","164","232626","0.0-2.0-43.0-0.0","33","97001","female","266","","","","68","0","41","","Stimuli/Experimental_stims/localizer/objects/eugene-chystiakov-3neSwyntbQ8-unsplash.jpg","232217","1","objects","","0","0","1","400","38200","409","38627","","","","","","","","","","","","","","","","","","","","","","","","","","","","","","","","",""
"","iti_localizer","","html-keyboard-response","165","232933","0.0-2.0-43.0-1.0","33","97001","female","null","","","","null","","41","","","232626","1","","","","","","300","38600","307","39036","300","","","","","","","","","","","","","","","","","","","","","","","","","","","","","","","",""
"","localizer","","html-keyboard-response","166","233340","0.0-2.0-44.0-0.0","33","97001","female","243","","","","68","0","42","","Stimuli/Experimental_stims/localizer/objects/lance-reis-v0FYj9iioQg-unsplash.jpg","232933","1","objects","","0","0","1","400","38900","407","39343","","","","","","","","","","","","","","","","","","","","","","","","","","","","","","","","",""
"","iti_localizer","","html-keyboard-response","167","233645","0.0-2.0-44.0-1.0","33","97001","female","null","","","","null","","42","","","233340","1","","","","","","300","39300","305","39750","300","","","","","","","","","","","","","","","","","","","","","","","","","","","","","","","",""
"","localizer","","html-keyboard-response","168","234050","0.0-2.0-45.0-0.0","33","97001","female","261","","","","68","0","43","","Stimuli/Experimental_stims/localizer/objects/annie-spratt-fbAnIjhrOL4-unsplash.jpg","233645","1","objects","","0","0","1","400","39600","405","40055","","","","","","","","","","","","","","","","","","","","","","","","","","","","","","","","",""
"","iti_localizer","","html-keyboard-response","169","234356","0.0-2.0-45.0-1.0","33","97001","female","null","","","","null","","43","","","234050","1","","","","","","300","40000","306","40460","300","","","","","","","","","","","","","","","","","","","","","","","","","","","","","","","",""
"","localizer","","html-keyboard-response","170","234762","0.0-2.0-46.0-0.0","33","97001","female","269","","","","68","0","44","","Stimuli/Experimental_stims/localizer/objects/mockup-graphics-Pj2PY-E-LfM-unsplash.jpg","234356","1","objects","","1","0","0","400","40300","406","40766","","","","","","","","","","","","","","","","","","","","","","","","","","","","","","","","",""
"","iti_localizer","","html-keyboard-response","171","235067","0.0-2.0-46.0-1.0","33","97001","female","null","","","","null","","44","","","234762","1","","","","","","300","40700","305","41172","300","","","","","","","","","","","","","","","","","","","","","","","","","","","","","","","",""
"","localizer","","html-keyboard-response","172","235473","0.0-2.0-47.0-0.0","33","97001","female","NaN","","","","null","NaN","45","","Stimuli/Experimental_stims/localizer/objects/dario-mendez-hnJ2VNZzbns-unsplash.jpg","235067","1","objects","","0","1","0","400","41000","406","41477","","","","","","","","","","","","","","","","","","","","","","","","","","","","","","","","",""
"","iti_localizer","","html-keyboard-response","173","249478","0.0-2.0-47.0-1.0","33","97001","female","null","","","","null","","45","","","235473","1","","","","","","14000","41400","14005","41883","14000","","","","","","","","","","","","","","","","","","","","","","","","","","","","","","","",""
"","localizer","","html-keyboard-response","174","249885","0.0-2.0-48.0-0.0","33","97001","female","NaN","","","","null","NaN","46","","Stimuli/Experimental_stims/localizer/faces/christian-ferrer-8vT-DgHZDG4-unsplash.jpg","249478","1","faces","","1","1","0","400","55400","407","55888","","","","","","","","","","","","","","","","","","","","","","","","","","","","","","","","",""
"","iti_localizer","","html-keyboard-response","175","250204","0.0-2.0-48.0-1.0","33","97001","female","null","","","","null","","46","","","249885","1","","","","","","300","55800","319","56295","300","","","","","","","","","","","","","","","","","","","","","","","","","","","","","","","",""
"","localizer","","html-keyboard-response","176","250609","0.0-2.0-49.0-0.0","33","97001","female","101","","","","75","1","47","","Stimuli/Experimental_stims/localizer/faces/mathias-huysmans-U4JDjYmjn1g-unsplash.jpg","250204","1","faces","","0","0","0","400","56100","405","56614","","","","","","","","","","","","","","","","","","","","","","","","","","","","","","","","",""
"","iti_localizer","","html-keyboard-response","177","250914","0.0-2.0-49.0-1.0","33","97001","female","null","","","","null","","47","","","250609","1","","","","","","300","56500","305","57019","300","","","","","","","","","","","","","","","","","","","","","","","","","","","","","","","",""
"","localizer","","html-keyboard-response","178","251318","0.0-2.0-50.0-0.0","33","97001","female","344","","","","68","0","48","","Stimuli/Experimental_stims/localizer/faces/filipe-almeida-mnEWC72eWDM-unsplash.jpg","250914","1","faces","","0","0","1","400","56800","404","57324","","","","","","","","","","","","","","","","","","","","","","","","","","","","","","","","",""
"","iti_localizer","","html-keyboard-response","179","251624","0.0-2.0-50.0-1.0","33","97001","female","null","","","","null","","48","","","251318","1","","","","","","300","57200","306","57728","300","","","","","","","","","","","","","","","","","","","","","","","","","","","","","","","",""
"","localizer","","html-keyboard-response","180","252029","0.0-2.0-51.0-0.0","33","97001","female","17","","","","68","0","49","","Stimuli/Experimental_stims/localizer/faces/midas-hofstra-tidSLv-UaNs-unsplash.jpg","251624","1","faces","","0","0","1","400","57500","405","58034","","","","","","","","","","","","","","","","","","","","","","","","","","","","","","","","",""
"","iti_localizer","","html-keyboard-response","181","252334","0.0-2.0-51.0-1.0","33","97001","female","null","","","","null","","49","","","252029","1","","","","","","300","57900","305","58439","300","","","","","","","","","","","","","","","","","","","","","","","","","","","","","","","",""
"","localizer","","html-keyboard-response","182","252738","0.0-2.0-52.0-0.0","33","97001","female","300","","","","68","0","50","","Stimuli/Experimental_stims/localizer/faces/darshan-patel-QJEVpydulGs-unsplash.jpg","252334","1","faces","","0","0","1","400","58200","404","58744","","","","","","","","","","","","","","","","","","","","","","","","","","","","","","","","",""
"","iti_localizer","","html-keyboard-response","183","253043","0.0-2.0-52.0-1.0","33","97001","female","null","","","","null","","50","","","252738","1","","","","","","300","58600","305","59148","300","","","","","","","","","","","","","","","","","","","","","","","","","","","","","","","",""
"","localizer","","html-keyboard-response","184","253450","0.0-2.0-53.0-0.0","33","97001","female","NaN","","","","null","NaN","51","","Stimuli/Experimental_stims/localizer/faces/ivan-dodig-R21SyyJDFgc-unsplash.jpg","253043","1","faces","","0","1","0","400","58900","407","59453","","","","","","","","","","","","","","","","","","","","","","","","","","","","","","","","",""
"","iti_localizer","","html-keyboard-response","185","253757","0.0-2.0-53.0-1.0","33","97001","female","null","","","","null","","51","","","253450","1","","","","","","300","59300","307","59860","300","","","","","","","","","","","","","","","","","","","","","","","","","","","","","","","",""
"","localizer","","html-keyboard-response","186","254162","0.0-2.0-54.0-0.0","33","97001","female","NaN","","","","null","NaN","52","","Stimuli/Experimental_stims/localizer/faces/austin-wade-X6Uj51n5CE8-unsplash.jpg","253757","1","faces","","0","1","0","400","59600","405","60167","","","","","","","","","","","","","","","","","","","","","","","","","","","","","","","","",""
"","iti_localizer","","html-keyboard-response","187","254472","0.0-2.0-54.0-1.0","33","97001","female","null","","","","null","","52","","","254162","1","","","","","","300","60000","310","60572","300","","","","","","","","","","","","","","","","","","","","","","","","","","","","","","","",""
"","localizer","","html-keyboard-response","188","254879","0.0-2.0-55.0-0.0","33","97001","female","1","","","","68","0","53","","Stimuli/Experimental_stims/localizer/faces/linkedin-sales-solutions-pAtA8xe_iVM-unsplash.jpg","254472","1","faces","","0","0","1","400","60300","407","60882","","","","","","","","","","","","","","","","","","","","","","","","","","","","","","","","",""
"","iti_localizer","","html-keyboard-response","189","255184","0.0-2.0-55.0-1.0","33","97001","female","null","","","","null","","53","","","254879","1","","","","","","300","60700","305","61289","300","","","","","","","","","","","","","","","","","","","","","","","","","","","","","","","",""
"","localizer","","html-keyboard-response","190","255590","0.0-2.0-56.0-0.0","33","97001","female","281","","","","68","0","54","","Stimuli/Experimental_stims/localizer/faces/pavel-anoshin-d0peGya6R5Y-unsplash.jpg","255184","1","faces","","0","0","1","400","61000","406","61594","","","","","","","","","","","","","","","","","","","","","","","","","","","","","","","","",""
"","iti_localizer","","html-keyboard-response","191","255895","0.0-2.0-56.0-1.0","33","97001","female","null","","","","null","","54","","","255590","1","","","","","","300","61400","305","62000","300","","","","","","","","","","","","","","","","","","","","","","","","","","","","","","","",""
"","localizer","","html-keyboard-response","192","256301","0.0-2.0-57.0-0.0","33","97001","female","275","","","","68","0","55","","Stimuli/Experimental_stims/localizer/faces/jeffery-erhunse-vp9mRauo68c-unsplash.jpg","255895","1","faces","","0","0","1","400","61700","406","62305","","","","","","","","","","","","","","","","","","","","","","","","","","","","","","","","",""
"","iti_localizer","","html-keyboard-response","193","256605","0.0-2.0-57.0-1.0","33","97001","female","null","","","","null","","55","","","256301","1","","","","","","300","62100","304","62711","300","","","","","","","","","","","","","","","","","","","","","","","","","","","","","","","",""
"","localizer","","html-keyboard-response","194","257012","0.0-2.0-58.0-0.0","33","97001","female","364","","","","68","0","56","","Stimuli/Experimental_stims/localizer/faces/aatik-tasneem-7omHUGhhmZ0-unsplash.jpg","256605","1","faces","","0","0","1","400","62400","407","63015","","","","","","","","","","","","","","","","","","","","","","","","","","","","","","","","",""
"","iti_localizer","","html-keyboard-response","195","257318","0.0-2.0-58.0-1.0","33","97001","female","null","","","","null","","56","","","257012","1","","","","","","300","62800","306","63422","300","","","","","","","","","","","","","","","","","","","","","","","","","","","","","","","",""
"","localizer","","html-keyboard-response","196","257724","0.0-2.0-59.0-0.0","33","97001","female","291","","","","68","0","57","","Stimuli/Experimental_stims/localizer/faces/abstral-official-cyOKLSgkgCE-unsplash.jpg","257318","1","faces","","0","0","1","400","63100","406","63728","","","","","","","","","","","","","","","","","","","","","","","","","","","","","","","","",""
"","iti_localizer","","html-keyboard-response","197","258029","0.0-2.0-59.0-1.0","33","97001","female","null","","","","null","","57","","","257724","1","","","","","","300","63500","305","64134","300","","","","","","","","","","","","","","","","","","","","","","","","","","","","","","","",""
"","localizer","","html-keyboard-response","198","258434","0.0-2.0-60.0-0.0","33","97001","female","316","","","","68","0","58","","Stimuli/Experimental_stims/localizer/faces/brooke-cagle-Nm70URdtf3c-unsplash (1).jpg","258029","1","faces","","0","0","1","400","63800","405","64439","","","","","","","","","","","","","","","","","","","","","","","","","","","","","","","","",""
"","iti_localizer","","html-keyboard-response","199","258740","0.0-2.0-60.0-1.0","33","97001","female","null","","","","null","","58","","","258434","1","","","","","","300","64200","306","64844","300","","","","","","","","","","","","","","","","","","","","","","","","","","","","","","","",""
"","localizer","","html-keyboard-response","200","259145","0.0-2.0-61.0-0.0","33","97001","female","261","","","","68","0","59","","Stimuli/Experimental_stims/localizer/faces/icons8-team-6LZuSzSwso0-unsplash.jpg","258740","1","faces","","0","0","1","400","64500","405","65150","","","","","","","","","","","","","","","","","","","","","","","","","","","","","","","","",""
"","iti_localizer","","html-keyboard-response","201","259451","0.0-2.0-61.0-1.0","33","97001","female","null","","","","null","","59","","","259145","1","","","","","","300","64900","306","65555","300","","","","","","","","","","","","","","","","","","","","","","","","","","","","","","","",""
"","localizer","","html-keyboard-response","202","259858","0.0-2.0-62.0-0.0","33","97001","female","286","","","","68","0","60","","Stimuli/Experimental_stims/localizer/faces/christina-wocintechchat-com-0Zx1bDv5BNY-unsplash.jpg","259451","1","faces","","0","0","1","400","65200","407","65861","","","","","","","","","","","","","","","","","","","","","","","","","","","","","","","","",""
"","iti_localizer","","html-keyboard-response","203","260165","0.0-2.0-62.0-1.0","33","97001","female","null","","","","null","","60","","","259858","1","","","","","","300","65600","307","66268","300","","","","","","","","","","","","","","","","","","","","","","","","","","","","","","","",""
"","localizer","","html-keyboard-response","204","260570","0.0-2.0-63.0-0.0","33","97001","female","260","","","","68","0","61","","Stimuli/Experimental_stims/localizer/faces/juan-encalada-WC7KIHo13Fc-unsplash.jpg","260165","1","faces","","0","0","1","400","65900","405","66575","","","","","","","","","","","","","","","","","","","","","","","","","","","","","","","","",""
"","iti_localizer","","html-keyboard-response","205","260877","0.0-2.0-63.0-1.0","33","97001","female","null","","","","null","","61","","","260570","1","","","","","","300","66300","307","66980","300","","","","","","","","","","","","","","","","","","","","","","","","","","","","","","","",""
"","localizer","","html-keyboard-response","206","261282","0.0-2.0-64.0-0.0","33","97001","female","116","","","","68","0","62","","Stimuli/Experimental_stims/localizer/faces/nick-karvounis-JyO_szjGvUw-unsplash.jpg","260877","1","faces","","0","0","1","400","66600","405","67287","","","","","","","","","","","","","","","","","","","","","","","","","","","","","","","","",""
"","iti_localizer","","html-keyboard-response","207","261587","0.0-2.0-64.0-1.0","33","97001","female","null","","","","null","","62","","","261282","1","","","","","","300","67000","305","67692","300","","","","","","","","","","","","","","","","","","","","","","","","","","","","","","","",""
"","localizer","","html-keyboard-response","208","261991","0.0-2.0-65.0-0.0","33","97001","female","119","","","","68","0","63","","Stimuli/Experimental_stims/localizer/faces/carlos-vaz-KP4bxnxAilU-unsplash.jpg","261587","1","faces","","0","0","1","400","67300","404","67997","","","","","","","","","","","","","","","","","","","","","","","","","","","","","","","","",""
"","iti_localizer","","html-keyboard-response","209","262296","0.0-2.0-65.0-1.0","33","97001","female","null","","","","null","","63","","","261991","1","","","","","","300","67700","305","68401","300","","","","","","","","","","","","","","","","","","","","","","","","","","","","","","","",""
"","localizer","","html-keyboard-response","210","262701","0.0-2.0-66.0-0.0","33","97001","female","33","","","","68","0","64","","Stimuli/Experimental_stims/localizer/faces/tyler-nix-ZGa9d1a_4tA-unsplash.jpg","262296","1","faces","","1","0","0","400","68000","405","68706","","","","","","","","","","","","","","","","","","","","","","","","","","","","","","","","",""
"","iti_localizer","","html-keyboard-response","211","263007","0.0-2.0-66.0-1.0","33","97001","female","null","","","","null","","64","","","262701","1","","","","","","300","68400","306","69111","300","","","","","","","","","","","","","","","","","","","","","","","","","","","","","","","",""
"","localizer","","html-keyboard-response","212","263411","0.0-2.0-67.0-0.0","33","97001","female","371","","","","68","0","65","","Stimuli/Experimental_stims/localizer/faces/samuel-dixon--fQ5XNOcqFQ-unsplash.jpg","263007","1","faces","","0","0","1","400","68700","404","69417","","","","","","","","","","","","","","","","","","","","","","","","","","","","","","","","",""
"","iti_localizer","","html-keyboard-response","213","277416","0.0-2.0-67.0-1.0","33","97001","female","null","","","","null","","65","","","263411","1","","","","","","14000","69100","14005","69821","14000","","","","","","","","","","","","","","","","","","","","","","","","","","","","","","","",""
"","localizer","","html-keyboard-response","214","277823","0.0-2.0-68.0-0.0","33","97001","female","NaN","","","","null","NaN","66","","Stimuli/Experimental_stims/localizer/body_parts/nihal-karkala-LlOfbQD-IJ0-unsplash.jpg","277416","1","body_parts","","1","1","0","400","83100","407","83826","","","","","","","","","","","","","","","","","","","","","","","","","","","","","","","","",""
"","iti_localizer","","html-keyboard-response","215","278130","0.0-2.0-68.0-1.0","33","97001","female","null","","","","null","","66","","","277823","1","","","","","","300","83500","307","84233","300","","","","","","","","","","","","","","","","","","","","","","","","","","","","","","","",""
"","localizer","","html-keyboard-response","216","278536","0.0-2.0-69.0-0.0","33","97001","female","46","","","","75","1","67","","Stimuli/Experimental_stims/localizer/body_parts/nick-page-WTNmgJtwzGI-unsplash.jpg","278130","1","body_parts","","0","0","0","400","83800","406","84540","","","","","","","","","","","","","","","","","","","","","","","","","","","","","","","","",""
"","iti_localizer","","html-keyboard-response","217","278841","0.0-2.0-69.0-1.0","33","97001","female","null","","","","null","","67","","","278536","1","","","","","","300","84200","305","84946","300","","","","","","","","","","","","","","","","","","","","","","","","","","","","","","","",""
"","localizer","","html-keyboard-response","218","279247","0.0-2.0-70.0-0.0","33","97001","female","311","","","","68","0","68","","Stimuli/Experimental_stims/localizer/body_parts/sina-rezakhani-d1gQi0Jl05U-unsplash (1).jpg","278841","1","body_parts","","0","0","1","400","84500","406","85251","","","","","","","","","","","","","","","","","","","","","","","","","","","","","","","","",""
"","iti_localizer","","html-keyboard-response","219","279554","0.0-2.0-70.0-1.0","33","97001","female","null","","","","null","","68","","","279247","1","","","","","","300","84900","307","85657","300","","","","","","","","","","","","","","","","","","","","","","","","","","","","","","","",""
"","localizer","","html-keyboard-response","220","279959","0.0-2.0-71.0-0.0","33","97001","female","238","","","","68","0","69","","Stimuli/Experimental_stims/localizer/body_parts/meghan-thompson-U1b8OB0QpIo-unsplash.jpg","279554","1","body_parts","","0","0","1","400","85200","405","85964","","","","","","","","","","","","","","","","","","","","","","","","","","","","","","","","",""
"","iti_localizer","","html-keyboard-response","221","280265","0.0-2.0-71.0-1.0","33","97001","female","null","","","","null","","69","","","279959","1","","","","","","300","85600","306","86369","300","","","","","","","","","","","","","","","","","","","","","","","","","","","","","","","",""
"","localizer","","html-keyboard-response","222","280670","0.0-2.0-72.0-0.0","33","97001","female","111","","","","68","0","70","","Stimuli/Experimental_stims/localizer/body_parts/davidcohen-qghuLqyh3nE-unsplash.jpg","280265","1","body_parts","","0","0","1","400","85900","405","86675","","","","","","","","","","","","","","","","","","","","","","","","","","","","","","","","",""
"","iti_localizer","","html-keyboard-response","223","280975","0.0-2.0-72.0-1.0","33","97001","female","null","","","","null","","70","","","280670","1","","","","","","300","86300","305","87080","300","","","","","","","","","","","","","","","","","","","","","","","","","","","","","","","",""
"","localizer","","html-keyboard-response","224","281380","0.0-2.0-73.0-0.0","33","97001","female","74","","","","68","0","71","","Stimuli/Experimental_stims/localizer/body_parts/sincerely-media-QyzlAZjm0r0-unsplash.jpg","280975","1","body_parts","","0","0","1","400","86600","405","87385","","","","","","","","","","","","","","","","","","","","","","","","","","","","","","","","",""
"","iti_localizer","","html-keyboard-response","225","281686","0.0-2.0-73.0-1.0","33","97001","female","null","","","","null","","71","","","281380","1","","","","","","300","87000","306","87790","300","","","","","","","","","","","","","","","","","","","","","","","","","","","","","","","",""
"","localizer","","html-keyboard-response","226","282092","0.0-2.0-74.0-0.0","33","97001","female","NaN","","","","null","NaN","72","","Stimuli/Experimental_stims/localizer/body_parts/juja-han-Z8-6EI2tYtw-unsplash.jpg","281686","1","body_parts","","0","1","0","400","87300","406","88096","","","","","","","","","","","","","","","","","","","","","","","","","","","","","","","","",""
"","iti_localizer","","html-keyboard-response","227","282398","0.0-2.0-74.0-1.0","33","97001","female","null","","","","null","","72","","","282092","1","","","","","","300","87700","306","88502","300","","","","","","","","","","","","","","","","","","","","","","","","","","","","","","","",""
"","localizer","","html-keyboard-response","228","282803","0.0-2.0-75.0-0.0","33","97001","female","306","","","","68","0","73","","Stimuli/Experimental_stims/localizer/body_parts/natalie-grainger-8uB5kFKWWkk-unsplash.jpg","282398","1","body_parts","","0","0","1","400","88000","405","88808","","","","","","","","","","","","","","","","","","","","","","","","","","","","","","","","",""
"","iti_localizer","","html-keyboard-response","229","283108","0.0-2.0-75.0-1.0","33","97001","female","null","","","","null","","73","","","282803","1","","","","","","300","88400","305","89213","300","","","","","","","","","","","","","","","","","","","","","","","","","","","","","","","",""
"","localizer","","html-keyboard-response","230","283515","0.0-2.0-76.0-0.0","33","97001","female","284","","","","68","0","74","","Stimuli/Experimental_stims/localizer/body_parts/debby-hudson--B_757qSA4k-unsplash.jpg","283108","1","body_parts","","0","0","1","400","88700","407","89518","","","","","","","","","","","","","","","","","","","","","","","","","","","","","","","","",""
"","iti_localizer","","html-keyboard-response","231","283822","0.0-2.0-76.0-1.0","33","97001","female","null","","","","null","","74","","","283515","1","","","","","","300","89100","307","89925","300","","","","","","","","","","","","","","","","","","","","","","","","","","","","","","","",""
"","localizer","","html-keyboard-response","232","284227","0.0-2.0-77.0-0.0","33","97001","female","266","","","","68","0","75","","Stimuli/Experimental_stims/localizer/body_parts/pure-julia-E9Q4bqYHtIM-unsplash.jpg","283822","1","body_parts","","0","0","1","400","89400","405","90232","","","","","","","","","","","","","","","","","","","","","","","","","","","","","","","","",""
"","iti_localizer","","html-keyboard-response","233","284533","0.0-2.0-77.0-1.0","33","97001","female","null","","","","null","","75","","","284227","1","","","","","","300","89800","306","90637","300","","","","","","","","","","","","","","","","","","","","","","","","","","","","","","","",""
"","localizer","","html-keyboard-response","234","284938","0.0-2.0-78.0-0.0","33","97001","female","251","","","","68","0","76","","Stimuli/Experimental_stims/localizer/body_parts/charles-etoroma-1fo0biloDOc-unsplash.jpg","284533","1","body_parts","","0","0","1","400","90100","405","90943","","","","","","","","","","","","","","","","","","","","","","","","","","","","","","","","",""
"","iti_localizer","","html-keyboard-response","235","285243","0.0-2.0-78.0-1.0","33","97001","female","null","","","","null","","76","","","284938","1","","","","","","300","90500","305","91348","300","","","","","","","","","","","","","","","","","","","","","","","","","","","","","","","",""
"","localizer","","html-keyboard-response","236","285650","0.0-2.0-79.0-0.0","33","97001","female","197","","","","68","0","77","","Stimuli/Experimental_stims/localizer/body_parts/david-fanuel-qnV8X7OViNY-unsplash.jpg","285243","1","body_parts","","0","0","1","400","90800","407","91653","","","","","","","","","","","","","","","","","","","","","","","","","","","","","","","","",""
"","iti_localizer","","html-keyboard-response","237","285954","0.0-2.0-79.0-1.0","33","97001","female","null","","","","null","","77","","","285650","1","","","","","","300","91200","304","92060","300","","","","","","","","","","","","","","","","","","","","","","","","","","","","","","","",""
"","localizer","","html-keyboard-response","238","286360","0.0-2.0-80.0-0.0","33","97001","female","206","","","","68","0","78","","Stimuli/Experimental_stims/localizer/body_parts/diana-polekhina-SwWjCbIIoFE-unsplash.jpg","285954","1","body_parts","","0","0","1","400","91500","406","92364","","","","","","","","","","","","","","","","","","","","","","","","","","","","","","","","",""
"","iti_localizer","","html-keyboard-response","239","286666","0.0-2.0-80.0-1.0","33","97001","female","null","","","","null","","78","","","286360","1","","","","","","300","91900","306","92770","300","","","","","","","","","","","","","","","","","","","","","","","","","","","","","","","",""
"","localizer","","html-keyboard-response","240","287083","0.0-2.0-81.0-0.0","33","97001","female","287","","","","68","0","79","","Stimuli/Experimental_stims/localizer/body_parts/ant-rozetsky-bXQd8JXx0vs-unsplash.jpg","286666","1","body_parts","","0","0","1","400","92200","417","93076","","","","","","","","","","","","","","","","","","","","","","","","","","","","","","","","",""
"","iti_localizer","","html-keyboard-response","241","287388","0.0-2.0-81.0-1.0","33","97001","female","null","","","","null","","79","","","287083","1","","","","","","300","92600","305","93493","300","","","","","","","","","","","","","","","","","","","","","","","","","","","","","","","",""
"","localizer","","html-keyboard-response","242","287794","0.0-2.0-82.0-0.0","33","97001","female","373","","","","68","0","80","","Stimuli/Experimental_stims/localizer/body_parts/callum-skelton-3KLMq7y46nA-unsplash.jpg","287388","1","body_parts","","0","0","1","400","92900","406","93798","","","","","","","","","","","","","","","","","","","","","","","","","","","","","","","","",""
"","iti_localizer","","html-keyboard-response","243","288100","0.0-2.0-82.0-1.0","33","97001","female","null","","","","null","","80","","","287794","1","","","","","","300","93300","306","94204","300","","","","","","","","","","","","","","","","","","","","","","","","","","","","","","","",""
"","localizer","","html-keyboard-response","244","288504","0.0-2.0-83.0-0.0","33","97001","female","365","","","","68","0","81","","Stimuli/Experimental_stims/localizer/body_parts/freestocks-qw9LFf5T790-unsplash.jpg","288100","1","body_parts","","0","0","1","400","93600","404","94510","","","","","","","","","","","","","","","","","","","","","","","","","","","","","","","","",""
"","iti_localizer","","html-keyboard-response","245","288811","0.0-2.0-83.0-1.0","33","97001","female","null","","","","null","","81","","","288504","1","","","","","","300","94000","307","94914","300","","","","","","","","","","","","","","","","","","","","","","","","","","","","","","","",""
"","localizer","","html-keyboard-response","246","289216","0.0-2.0-84.0-0.0","33","97001","female","301","","","","68","0","82","","Stimuli/Experimental_stims/localizer/body_parts/carlos-henrique-NAOJKwZswbs-unsplash.jpg","288811","1","body_parts","","0","0","1","400","94300","405","95221","","","","","","","","","","","","","","","","","","","","","","","","","","","","","","","","",""
"","iti_localizer","","html-keyboard-response","247","289521","0.0-2.0-84.0-1.0","33","97001","female","null","","","","null","","82","","","289216","1","","","","","","300","94700","305","95626","300","","","","","","","","","","","","","","","","","","","","","","","","","","","","","","","",""
"","localizer","","html-keyboard-response","248","289926","0.0-2.0-85.0-0.0","33","97001","female","NaN","","","","null","NaN","83","","Stimuli/Experimental_stims/localizer/body_parts/boyd-christiansen-uVj7kewrZ-o-unsplash.jpg","289521","1","body_parts","","1","1","0","400","95000","405","95931","","","","","","","","","","","","","","","","","","","","","","","","","","","","","","","","",""
"","iti_localizer","","html-keyboard-response","249","290231","0.0-2.0-85.0-1.0","33","97001","female","null","","","","null","","83","","","289926","1","","","","","","300","95400","305","96336","300","","","","","","","","","","","","","","","","","","","","","","","","","","","","","","","",""
"","localizer","","html-keyboard-response","250","290635","0.0-2.0-86.0-0.0","33","97001","female","353","","","","68","0","84","","Stimuli/Experimental_stims/localizer/body_parts/nick-page-jAGdpOGvLAA-unsplash.jpg","290231","1","body_parts","","0","0","1","400","95700","404","96641","","","","","","","","","","","","","","","","","","","","","","","","","","","","","","","","",""
"","iti_localizer","","html-keyboard-response","251","290940","0.0-2.0-86.0-1.0","33","97001","female","null","","","","null","","84","","","290635","1","","","","","","300","96100","305","97045","300","","","","","","","","","","","","","","","","","","","","","","","","","","","","","","","",""
"","localizer","","html-keyboard-response","252","291346","0.0-2.0-87.0-0.0","33","97001","female","276","","","","68","0","85","","Stimuli/Experimental_stims/localizer/body_parts/lilartsy-1KkhQ8uL28g-unsplash.jpg","290940","1","body_parts","","0","0","1","400","96400","406","97350","","","","","","","","","","","","","","","","","","","","","","","","","","","","","","","","",""
"","iti_localizer","","html-keyboard-response","253","305352","0.0-2.0-87.0-1.0","33","97001","female","null","","","","null","","85","","","291346","1","","","","","","14000","96800","14006","97756","14000","","","","","","","","","","","","","","","","","","","","","","","","","","","","","","","",""
"","localizer","","html-keyboard-response","254","305759","0.0-2.0-88.0-0.0","33","97001","female","NaN","","","","null","NaN","86","","Stimuli/Experimental_stims/localizer/objects/yossy-made-yulian-WaEqwDSIeTY-unsplash.jpg","305352","1","objects","","1","1","0","400","110800","407","111762","","","","","","","","","","","","","","","","","","","","","","","","","","","","","","","","",""
"","iti_localizer","","html-keyboard-response","255","306065","0.0-2.0-88.0-1.0","33","97001","female","null","","","","null","","86","","","305759","1","","","","","","300","111200","306","112169","300","","","","","","","","","","","","","","","","","","","","","","","","","","","","","","","",""
"","localizer","","html-keyboard-response","256","306471","0.0-2.0-89.0-0.0","33","97001","female","255","","","","68","0","87","","Stimuli/Experimental_stims/localizer/objects/namroud-gorguis-FZWivbri0Xk-unsplash.jpg","306065","1","objects","","0","0","1","400","111500","406","112475","","","","","","","","","","","","","","","","","","","","","","","","","","","","","","","","",""
"","iti_localizer","","html-keyboard-response","257","306776","0.0-2.0-89.0-1.0","33","97001","female","null","","","","null","","87","","","306471","1","","","","","","300","111900","305","112881","300","","","","","","","","","","","","","","","","","","","","","","","","","","","","","","","",""
"","localizer","","html-keyboard-response","258","307183","0.0-2.0-90.0-0.0","33","97001","female","320","","","","68","0","88","","Stimuli/Experimental_stims/localizer/objects/muhammad-toqeer-NRJ9ipvz2iE-unsplash.jpg","306776","1","objects","","0","0","1","400","112200","407","113186","","","","","","","","","","","","","","","","","","","","","","","","","","","","","","","","",""
"","iti_localizer","","html-keyboard-response","259","307488","0.0-2.0-90.0-1.0","33","97001","female","null","","","","null","","88","","","307183","1","","","","","","300","112600","305","113593","300","","","","","","","","","","","","","","","","","","","","","","","","","","","","","","","",""
"","localizer","","html-keyboard-response","260","307893","0.0-2.0-91.0-0.0","33","97001","female","264","","","","68","0","89","","Stimuli/Experimental_stims/localizer/objects/chris-briggs-x9TCnxNBofE-unsplash.jpg","307488","1","objects","","0","0","1","400","112900","405","113898","","","","","","","","","","","","","","","","","","","","","","","","","","","","","","","","",""
"","iti_localizer","","html-keyboard-response","261","308203","0.0-2.0-91.0-1.0","33","97001","female","null","","","","null","","89","","","307893","1","","","","","","300","113300","310","114303","300","","","","","","","","","","","","","","","","","","","","","","","","","","","","","","","",""
"","localizer","","html-keyboard-response","262","308608","0.0-2.0-92.0-0.0","33","97001","female","230","","","","68","0","90","","Stimuli/Experimental_stims/localizer/objects/collab-media-eddtBBbaw0Y-unsplash.jpg","308203","1","objects","","0","0","1","400","113600","405","114613","","","","","","","","","","","","","","","","","","","","","","","","","","","","","","","","",""
"","iti_localizer","","html-keyboard-response","263","308914","0.0-2.0-92.0-1.0","33","97001","female","null","","","","null","","90","","","308608","1","","","","","","300","114000","306","115018","300","","","","","","","","","","","","","","","","","","","","","","","","","","","","","","","",""
"","localizer","","html-keyboard-response","264","309320","0.0-2.0-93.0-0.0","33","97001","female","166","","","","68","0","91","","Stimuli/Experimental_stims/localizer/objects/nordwood-themes-E9tFH39iRPE-unsplash.jpg","308914","1","objects","","0","0","1","400","114300","406","115324","","","","","","","","","","","","","","","","","","","","","","","","","","","","","","","","",""
"","iti_localizer","","html-keyboard-response","265","309626","0.0-2.0-93.0-1.0","33","97001","female","null","","","","null","","91","","","309320","1","","","","","","300","114700","306","115730","300","","","","","","","","","","","","","","","","","","","","","","","","","","","","","","","",""
"","localizer","","html-keyboard-response","266","310032","0.0-2.0-94.0-0.0","33","97001","female","254","","","","68","0","92","","Stimuli/Experimental_stims/localizer/objects/oriento-maVIpNNtmlQ-unsplash.jpg","309626","1","objects","","0","0","1","400","115000","406","116036","","","","","","","","","","","","","","","","","","","","","","","","","","","","","","","","",""
"","iti_localizer","","html-keyboard-response","267","310342","0.0-2.0-94.0-1.0","33","97001","female","null","","","","null","","92","","","310032","1","","","","","","300","115400","310","116442","300","","","","","","","","","","","","","","","","","","","","","","","","","","","","","","","",""
"","localizer","","html-keyboard-response","268","310747","0.0-2.0-95.0-0.0","33","97001","female","290","","","","68","0","93","","Stimuli/Experimental_stims/localizer/objects/alex-lvrs-2zDw14yCYqk-unsplash.jpg","310342","1","objects","","0","0","1","400","115700","405","116752","","","","","","","","","","","","","","","","","","","","","","","","","","","","","","","","",""
"","iti_localizer","","html-keyboard-response","269","311053","0.0-2.0-95.0-1.0","33","97001","female","null","","","","null","","93","","","310747","1","","","","","","300","116100","306","117157","300","","","","","","","","","","","","","","","","","","","","","","","","","","","","","","","",""
"","localizer","","html-keyboard-response","270","311458","0.0-2.0-96.0-0.0","33","97001","female","339","","","","68","0","94","","Stimuli/Experimental_stims/localizer/objects/quaritsch-photography-lZ8onQ1wuY8-unsplash.jpg","311053","1","objects","","0","0","1","400","116400","405","117463","","","","","","","","","","","","","","","","","","","","","","","","","","","","","","","","",""
"","iti_localizer","","html-keyboard-response","271","311764","0.0-2.0-96.0-1.0","33","97001","female","null","","","","null","","94","","","311458","1","","","","","","300","116800","306","117868","300","","","","","","","","","","","","","","","","","","","","","","","","","","","","","","","",""
"","localizer","","html-keyboard-response","272","312170","0.0-2.0-97.0-0.0","33","97001","female","316","","","","68","0","95","","Stimuli/Experimental_stims/localizer/objects/saif71-com-VIKdvmGUhq8-unsplash.jpg","311764","1","objects","","0","0","1","400","117100","406","118174","","","","","","","","","","","","","","","","","","","","","","","","","","","","","","","","",""
"","iti_localizer","","html-keyboard-response","273","312475","0.0-2.0-97.0-1.0","33","97001","female","null","","","","null","","95","","","312170","1","","","","","","300","117500","305","118580","300","","","","","","","","","","","","","","","","","","","","","","","","","","","","","","","",""
"","localizer","","html-keyboard-response","274","312881","0.0-2.0-98.0-0.0","33","97001","female","NaN","","","","null","NaN","96","","Stimuli/Experimental_stims/localizer/objects/yoann-siloine-_T4w3JDm6ug-unsplash.jpg","312475","1","objects","","0","1","0","400","117800","406","118885","","","","","","","","","","","","","","","","","","","","","","","","","","","","","","","","",""
"","iti_localizer","","html-keyboard-response","275","313186","0.0-2.0-98.0-1.0","33","97001","female","null","","","","null","","96","","","312881","1","","","","","","300","118200","305","119291","300","","","","","","","","","","","","","","","","","","","","","","","","","","","","","","","",""
"","localizer","","html-keyboard-response","276","313593","0.0-2.0-99.0-0.0","33","97001","female","246","","","","68","0","97","","Stimuli/Experimental_stims/localizer/objects/nicolas-hippert-kfr_eSrR08M-unsplash.jpg","313186","1","objects","","0","0","1","400","118500","407","119596","","","","","","","","","","","","","","","","","","","","","","","","","","","","","","","","",""
"","iti_localizer","","html-keyboard-response","277","313898","0.0-2.0-99.0-1.0","33","97001","female","null","","","","null","","97","","","313593","1","","","","","","300","118900","305","120003","300","","","","","","","","","","","","","","","","","","","","","","","","","","","","","","","",""
"","localizer","","html-keyboard-response","278","314305","0.0-2.0-100.0-0.0","33","97001","female","254","","","","68","0","98","","Stimuli/Experimental_stims/localizer/objects/designecologist-hvgd0ygXuQQ-unsplash.jpg","313898","1","objects","","0","0","1","400","119200","407","120308","","","","","","","","","","","","","","","","","","","","","","","","","","","","","","","","",""
"","iti_localizer","","html-keyboard-response","279","314610","0.0-2.0-100.0-1.0","33","97001","female","null","","","","null","","98","","","314305","1","","","","","","300","119600","305","120715","300","","","","","","","","","","","","","","","","","","","","","","","","","","","","","","","",""
"","localizer","","html-keyboard-response","280","315018","0.0-2.0-101.0-0.0","33","97001","female","262","","","","68","0","99","","Stimuli/Experimental_stims/localizer/objects/dario-mendez-WmF_XLF4-Rs-unsplash.jpg","314610","1","objects","","0","0","1","400","119900","408","121020","","","","","","","","","","","","","","","","","","","","","","","","","","","","","","","","",""
"","iti_localizer","","html-keyboard-response","281","315324","0.0-2.0-101.0-1.0","33","97001","female","null","","","","null","","99","","","315018","1","","","","","","300","120300","306","121428","300","","","","","","","","","","","","","","","","","","","","","","","","","","","","","","","",""
"","localizer","","html-keyboard-response","282","315731","0.0-2.0-102.0-0.0","33","97001","female","292","","","","68","0","100","","Stimuli/Experimental_stims/localizer/objects/quino-al-4SNUcHPiC8c-unsplash.jpg","315324","1","objects","","0","0","1","400","120600","407","121734","","","","","","","","","","","","","","","","","","","","","","","","","","","","","","","","",""
"","iti_localizer","","html-keyboard-response","283","316036","0.0-2.0-102.0-1.0","33","97001","female","null","","","","null","","100","","","315731","1","","","","","","300","121000","305","122141","300","","","","","","","","","","","","","","","","","","","","","","","","","","","","","","","",""
"","localizer","","html-keyboard-response","284","316440","0.0-2.0-103.0-0.0","33","97001","female","196","","","","68","0","101","","Stimuli/Experimental_stims/localizer/objects/hipster-mum-XookgCxFw6Q-unsplash.jpg","316036","1","objects","","0","0","1","400","121300","404","122446","","","","","","","","","","","","","","","","","","","","","","","","","","","","","","","","",""
"","iti_localizer","","html-keyboard-response","285","316750","0.0-2.0-103.0-1.0","33","97001","female","null","","","","null","","101","","","316440","1","","","","","","300","121700","310","122850","300","","","","","","","","","","","","","","","","","","","","","","","","","","","","","","","",""
"","localizer","","html-keyboard-response","286","317155","0.0-2.0-104.0-0.0","33","97001","female","314","","","","68","0","102","","Stimuli/Experimental_stims/localizer/objects/ryunosuke-kikuno-viEzuL1ouDs-unsplash.jpg","316750","1","objects","","0","0","1","400","122000","405","123160","","","","","","","","","","","","","","","","","","","","","","","","","","","","","","","","",""
"","iti_localizer","","html-keyboard-response","287","317459","0.0-2.0-104.0-1.0","33","97001","female","null","","","","null","","102","","","317155","1","","","","","","300","122400","304","123565","300","","","","","","","","","","","","","","","","","","","","","","","","","","","","","","","",""
"","localizer","","html-keyboard-response","288","317865","0.0-2.0-105.0-0.0","33","97001","female","277","","","","68","0","103","","Stimuli/Experimental_stims/localizer/objects/mae-mu-yl2d0CKW130-unsplash.jpg","317459","1","objects","","1","0","0","400","122700","406","123869","","","","","","","","","","","","","","","","","","","","","","","","","","","","","","","","",""
"","iti_localizer","","html-keyboard-response","289","318172","0.0-2.0-105.0-1.0","33","97001","female","null","","","","null","","103","","","317865","1","","","","","","300","123100","307","124275","300","","","","","","","","","","","","","","","","","","","","","","","","","","","","","","","",""
"","localizer","","html-keyboard-response","290","318577","0.0-2.0-106.0-0.0","33","97001","female","292","","","","68","0","104","","Stimuli/Experimental_stims/localizer/objects/jonny-caspari-wsvCC6UyKjs-unsplash.jpg","318172","1","objects","","0","0","1","400","123400","405","124582","","","","","","","","","","","","","","","","","","","","","","","","","","","","","","","","",""
"","iti_localizer","","html-keyboard-response","291","318883","0.0-2.0-106.0-1.0","33","97001","female","null","","","","null","","104","","","318577","1","","","","","","300","123800","306","124987","300","","","","","","","","","","","","","","","","","","","","","","","","","","","","","","","",""
"","localizer","","html-keyboard-response","292","319289","0.0-2.0-107.0-0.0","33","97001","female","357","","","","68","0","105","","Stimuli/Experimental_stims/localizer/objects/mulyadi-tWp0VSlSdMI-unsplash.jpg","318883","1","objects","","0","0","1","400","124100","406","125293","","","","","","","","","","","","","","","","","","","","","","","","","","","","","","","","",""
