"success","ttype","start_time","trial_type","trial_index","time_elapsed","internal_node_id","age","PID","gender","rt","responses","view_history","repeat_instructions","key_press","response","index","stimulus_index","path","start_time_elapsed","run","task","isi","is_odd_ball","no_response","acc","duration","onset","duration_time_elapsed","onset_time_elapsed","trial_duration","left_chosen","chosen_stimulus","unchosen_stimulus","chosen_category","unchosen_category","chosen_rating","unchosen_rating","chosen_path","unchosen_path","pair_id","practice","scramble_screen_time","scramble_instructed_side","stim_type","iti","block","left_stimulus","right_stimulus","left_category","right_category","left_path","right_path","left_rating","right_rating","scramble_acc","scramble_no_response","warning","missed_checkup","stimulus_id","item_id","outcome","response_rt","deliberation_reward_tally","choice_type","gain_left","left_item_id","right_item_id","higher_outcome_chosen","chosen_left","old_pair","pair_type","old_response","pair_acc","reward_type","outcome_response","outcome_rt","outcome_acc","category","choice","deliberated_stim","old_rating","new_rating","total_reward_tally"
"true","full_screen","d08162023hr1926","fullscreen","0","341587","0.0-0.0-0.0","35","51659","female","","","","","","","","","","","","","","","","","","","","","","","","","","","","","","","","","","","","","","","","","","","","","","","","","","","","","","","","","","","","","","","","","","","","","","","","","",""
"","get_id","","survey-text","1","357596","0.0-0.0-1.0","35","51659","female","16005","{""Q0"":""35"",""Q1"":""female""}","","","","","","","","","","","","","","","","","","","","","","","","","","","","","","","","","","","","","","","","","","","","","","","","","","","","","","","","","","","","","","","","","","","","","","","",""
"","ratings_instructions","","instructions","2","376345","0.0-1.0-0.0-0.0","35","51659","female","17920","","[{""page_index"":0,""viewing_time"":14575},{""page_index"":1,""viewing_time"":3344}]","","","","","","","","","","","","","","","","","","","","","","","","","","","","","","","","","","","","","","","","","","","","","","","","","","","","","","","","","","","","","","","","","","","","","","",""
"","rating_comprehension_check","","survey-multi-choice","3","386475","0.0-1.0-0.0-1.0","35","51659","female","10124","{""Q0"":""True"",""Q1"":""Mouse""}","","0","","","","","","","","","","","","","","","","","","","","","","","","","","","","","","","","","","","","","","","","","","","","","","","","","","","","","","","","","","","","","","","","","","","","","",""
"","","","html-keyboard-response","4","389709","0.0-1.0-1.0","35","51659","female","3224","","","","68","","","","","","","","","","","","","","","","","","","","","","","","","","","","","","","","","","","","","","","","","","","","","","","","","","","","","","","","","","","","","","","","","","","","",""
"","rating","","html-slider-response","5","397406","0.0-1.0-2.0","35","51659","female","7693","","","","","90","0","23","Stimuli/Experimental_stims/faces/rikonavt-HQjfrvdTfak-unsplash.jpg","","","","","","","","","","","","","","","","","","","","","","","","","","","","","","","","","","","","","","","","","","","","","","","","","","","","","","","","","","","","","","","","",""
"","rating","","html-slider-response","6","401986","0.0-1.0-3.0","35","51659","female","4572","","","","","88","1","17","Stimuli/Experimental_stims/faces/good-faces-xmSWVeGEnJw-unsplash.jpg","","","","","","","","","","","","","","","","","","","","","","","","","","","","","","","","","","","","","","","","","","","","","","","","","","","","","","","","","","","","","","","","",""
"","rating","","html-slider-response","7","407035","0.0-1.0-4.0","35","51659","female","5044","","","","","67","2","10","Stimuli/Experimental_stims/outdoor_scenes/shannon-kunkle-dM8INmkyDas-unsplash.jpg","","","","","","","","","","","","","","","","","","","","","","","","","","","","","","","","","","","","","","","","","","","","","","","","","","","","","","","","","","","","","","","","",""
"","rating","","html-slider-response","8","412187","0.0-1.0-5.0","35","51659","female","5147","","","","","64","3","37","Stimuli/Experimental_stims/objects/alexander-andrews-VLGWE_SumrA-unsplash.jpg","","","","","","","","","","","","","","","","","","","","","","","","","","","","","","","","","","","","","","","","","","","","","","","","","","","","","","","","","","","","","","","","",""
"","rating","","html-slider-response","9","417808","0.0-1.0-6.0","35","51659","female","5614","","","","","82","4","12","Stimuli/Experimental_stims/faces/aiony-haust-jmATI5Q_YgY-unsplash.jpg","","","","","","","","","","","","","","","","","","","","","","","","","","","","","","","","","","","","","","","","","","","","","","","","","","","","","","","","","","","","","","","","",""
"","rating","","html-slider-response","10","422795","0.0-1.0-7.0","35","51659","female","4982","","","","","61","5","13","Stimuli/Experimental_stims/faces/daniel-rigdon-dXmXKPP2L4E-unsplash.jpg","","","","","","","","","","","","","","","","","","","","","","","","","","","","","","","","","","","","","","","","","","","","","","","","","","","","","","","","","","","","","","","","",""
"","rating","","html-slider-response","11","426751","0.0-1.0-8.0","35","51659","female","3952","","","","","20","6","46","Stimuli/Experimental_stims/objects/mockup-graphics-PNsj6RiHAF4-unsplash.jpg","","","","","","","","","","","","","","","","","","","","","","","","","","","","","","","","","","","","","","","","","","","","","","","","","","","","","","","","","","","","","","","","",""
"","rating","","html-slider-response","12","430803","0.0-1.0-9.0","35","51659","female","4044","","","","","67","7","0","Stimuli/Experimental_stims/outdoor_scenes/aleksandra-boguslawska-MS7KD9Ti7FQ-unsplash.jpg","","","","","","","","","","","","","","","","","","","","","","","","","","","","","","","","","","","","","","","","","","","","","","","","","","","","","","","","","","","","","","","","",""
"","rating","","html-slider-response","13","435058","0.0-1.0-10.0","35","51659","female","4250","","","","","30","8","42","Stimuli/Experimental_stims/objects/jess-bailey-nOeVi8DsN8U-unsplash.jpg","","","","","","","","","","","","","","","","","","","","","","","","","","","","","","","","","","","","","","","","","","","","","","","","","","","","","","","","","","","","","","","","",""
"","rating","","html-slider-response","14","441967","0.0-1.0-11.0","35","51659","female","6901","","","","","69","9","29","Stimuli/Experimental_stims/body_parts/manuel-schinner-ZwjFuJ7ebpk-unsplash.jpg","","","","","","","","","","","","","","","","","","","","","","","","","","","","","","","","","","","","","","","","","","","","","","","","","","","","","","","","","","","","","","","","",""
"","rating","","html-slider-response","15","446823","0.0-1.0-12.0","35","51659","female","4844","","","","","44","10","45","Stimuli/Experimental_stims/objects/leohoho-rngTKHXumy0-unsplash.jpg","","","","","","","","","","","","","","","","","","","","","","","","","","","","","","","","","","","","","","","","","","","","","","","","","","","","","","","","","","","","","","","","",""
"","rating","","html-slider-response","16","453686","0.0-1.0-13.0","35","51659","female","6859","","","","","73","11","16","Stimuli/Experimental_stims/faces/freddy-kearney-o-ioeoATbIM-unsplash.jpg","","","","","","","","","","","","","","","","","","","","","","","","","","","","","","","","","","","","","","","","","","","","","","","","","","","","","","","","","","","","","","","","",""
"","rating","","html-slider-response","17","459657","0.0-1.0-14.0","35","51659","female","5966","","","","","26","12","35","Stimuli/Experimental_stims/body_parts/wc-so-KH4AAPjb-tI-unsplash.jpg","","","","","","","","","","","","","","","","","","","","","","","","","","","","","","","","","","","","","","","","","","","","","","","","","","","","","","","","","","","","","","","","",""
"","rating","","html-slider-response","18","472632","0.0-1.0-15.0","35","51659","female","12965","","","","","61","13","8","Stimuli/Experimental_stims/outdoor_scenes/samsommer-vddccTqwal8-unsplash.jpg","","","","","","","","","","","","","","","","","","","","","","","","","","","","","","","","","","","","","","","","","","","","","","","","","","","","","","","","","","","","","","","","",""
"","rating","","html-slider-response","19","479291","0.0-1.0-16.0","35","51659","female","6653","","","","","77","14","18","Stimuli/Experimental_stims/faces/jessica-radanavong-mrYkTuAesKE-unsplash.jpg","","","","","","","","","","","","","","","","","","","","","","","","","","","","","","","","","","","","","","","","","","","","","","","","","","","","","","","","","","","","","","","","",""
"","rating","","html-slider-response","20","483295","0.0-1.0-17.0","35","51659","female","3999","","","","","71","15","6","Stimuli/Experimental_stims/outdoor_scenes/meng-ji-8BH_M-53CyA-unsplash.jpg","","","","","","","","","","","","","","","","","","","","","","","","","","","","","","","","","","","","","","","","","","","","","","","","","","","","","","","","","","","","","","","","",""
"","rating","","html-slider-response","21","489615","0.0-1.0-18.0","35","51659","female","6315","","","","","39","16","2","Stimuli/Experimental_stims/outdoor_scenes/bruno-van-der-kraan-qez8mNJ3ilU-unsplash.jpg","","","","","","","","","","","","","","","","","","","","","","","","","","","","","","","","","","","","","","","","","","","","","","","","","","","","","","","","","","","","","","","","",""
"","rating","","html-slider-response","22","494794","0.0-1.0-19.0","35","51659","female","5174","","","","","62","17","33","Stimuli/Experimental_stims/body_parts/tucker-good-36skLT5jZcc-unsplash.jpg","","","","","","","","","","","","","","","","","","","","","","","","","","","","","","","","","","","","","","","","","","","","","","","","","","","","","","","","","","","","","","","","",""
"","rating","","html-slider-response","23","499359","0.0-1.0-20.0","35","51659","female","4561","","","","","38","18","25","Stimuli/Experimental_stims/body_parts/engin-akyurt-Q2rfH3GW39c-unsplash.jpg","","","","","","","","","","","","","","","","","","","","","","","","","","","","","","","","","","","","","","","","","","","","","","","","","","","","","","","","","","","","","","","","",""
"","rating","","html-slider-response","24","504755","0.0-1.0-21.0","35","51659","female","5391","","","","","78","19","4","Stimuli/Experimental_stims/outdoor_scenes/jarrett-kow-1ZOyYPOBn7I-unsplash.jpg","","","","","","","","","","","","","","","","","","","","","","","","","","","","","","","","","","","","","","","","","","","","","","","","","","","","","","","","","","","","","","","","",""
"","rating","","html-slider-response","25","513240","0.0-1.0-22.0","35","51659","female","8480","","","","","85","20","11","Stimuli/Experimental_stims/outdoor_scenes/stephen-leonardi-gyIRjKPXupE-unsplash.jpg","","","","","","","","","","","","","","","","","","","","","","","","","","","","","","","","","","","","","","","","","","","","","","","","","","","","","","","","","","","","","","","","",""
"","rating","","html-slider-response","26","518179","0.0-1.0-23.0","35","51659","female","4934","","","","","34","21","47","Stimuli/Experimental_stims/objects/ronaldo-arthur-vidal-Cdz_lvnl37k-unsplash.jpg","","","","","","","","","","","","","","","","","","","","","","","","","","","","","","","","","","","","","","","","","","","","","","","","","","","","","","","","","","","","","","","","",""
"","rating","","html-slider-response","27","521979","0.0-1.0-24.0","35","51659","female","3795","","","","","32","22","39","Stimuli/Experimental_stims/objects/charlesdeluvio-1-nx1QR5dTE-unsplash.jpg","","","","","","","","","","","","","","","","","","","","","","","","","","","","","","","","","","","","","","","","","","","","","","","","","","","","","","","","","","","","","","","","",""
"","rating","","html-slider-response","28","526450","0.0-1.0-25.0","35","51659","female","4465","","","","","77","23","3","Stimuli/Experimental_stims/outdoor_scenes/henry-be-NLF6hTe4PAg-unsplash.jpg","","","","","","","","","","","","","","","","","","","","","","","","","","","","","","","","","","","","","","","","","","","","","","","","","","","","","","","","","","","","","","","","",""
"","rating","","html-slider-response","29","535801","0.0-1.0-26.0","35","51659","female","9346","","","","","51","24","34","Stimuli/Experimental_stims/body_parts/wagner-santos-mBWMvIuVnso-unsplash.jpg","","","","","","","","","","","","","","","","","","","","","","","","","","","","","","","","","","","","","","","","","","","","","","","","","","","","","","","","","","","","","","","","",""
"","rating","","html-slider-response","30","540596","0.0-1.0-27.0","35","51659","female","4790","","","","","78","25","27","Stimuli/Experimental_stims/body_parts/heike-mintel-i_Gns0ELnLw-unsplash.jpg","","","","","","","","","","","","","","","","","","","","","","","","","","","","","","","","","","","","","","","","","","","","","","","","","","","","","","","","","","","","","","","","",""
"","rating","","html-slider-response","31","544947","0.0-1.0-28.0","35","51659","female","4347","","","","","32","26","43","Stimuli/Experimental_stims/objects/jonathan-greenaway-Y4hGgeiFn3s-unsplash.jpg","","","","","","","","","","","","","","","","","","","","","","","","","","","","","","","","","","","","","","","","","","","","","","","","","","","","","","","","","","","","","","","","",""
"","rating","","html-slider-response","32","551035","0.0-1.0-29.0","35","51659","female","6084","","","","","17","27","40","Stimuli/Experimental_stims/objects/fabian-blank-pElSkGRA2NU-unsplash.jpg","","","","","","","","","","","","","","","","","","","","","","","","","","","","","","","","","","","","","","","","","","","","","","","","","","","","","","","","","","","","","","","","",""
"","rating","","html-slider-response","33","557332","0.0-1.0-30.0","35","51659","female","6288","","","","","61","28","38","Stimuli/Experimental_stims/objects/art-lasovsky-8XddFc6NkBY-unsplash.jpg","","","","","","","","","","","","","","","","","","","","","","","","","","","","","","","","","","","","","","","","","","","","","","","","","","","","","","","","","","","","","","","","",""
"","rating","","html-slider-response","34","564484","0.0-1.0-31.0","35","51659","female","7147","","","","","81","29","9","Stimuli/Experimental_stims/outdoor_scenes/sergey-pesterev-y-b_FOmJXdg-unsplash.jpg","","","","","","","","","","","","","","","","","","","","","","","","","","","","","","","","","","","","","","","","","","","","","","","","","","","","","","","","","","","","","","","","",""
"","rating","","html-slider-response","35","574433","0.0-1.0-32.0","35","51659","female","9944","","","","","68","30","19","Stimuli/Experimental_stims/faces/joel-mott-LaK153ghdig-unsplash.jpg","","","","","","","","","","","","","","","","","","","","","","","","","","","","","","","","","","","","","","","","","","","","","","","","","","","","","","","","","","","","","","","","",""
"","rating","","html-slider-response","36","583507","0.0-1.0-33.0","35","51659","female","9069","","","","","68","31","24","Stimuli/Experimental_stims/body_parts/clay-banks-LjqARJaJotc-unsplash.jpg","","","","","","","","","","","","","","","","","","","","","","","","","","","","","","","","","","","","","","","","","","","","","","","","","","","","","","","","","","","","","","","","",""
"","rating","","html-slider-response","37","587884","0.0-1.0-34.0","35","51659","female","4370","","","","","77","32","14","Stimuli/Experimental_stims/faces/david-siglin-UuW4psOb388-unsplash.jpg","","","","","","","","","","","","","","","","","","","","","","","","","","","","","","","","","","","","","","","","","","","","","","","","","","","","","","","","","","","","","","","","",""
"","rating","","html-slider-response","38","591945","0.0-1.0-35.0","35","51659","female","4053","","","","","15","33","44","Stimuli/Experimental_stims/objects/kuiye-chen-NuOGFo4PudE-unsplash.jpg","","","","","","","","","","","","","","","","","","","","","","","","","","","","","","","","","","","","","","","","","","","","","","","","","","","","","","","","","","","","","","","","",""
"","rating","","html-slider-response","39","599977","0.0-1.0-36.0","35","51659","female","8026","","","","","78","34","15","Stimuli/Experimental_stims/faces/erik-lucatero-d2MSDujJl2g-unsplash.jpg","","","","","","","","","","","","","","","","","","","","","","","","","","","","","","","","","","","","","","","","","","","","","","","","","","","","","","","","","","","","","","","","",""
"","rating","","html-slider-response","40","604497","0.0-1.0-37.0","35","51659","female","4514","","","","","66","35","1","Stimuli/Experimental_stims/outdoor_scenes/ashim-d-silva-S2Q5mdOrrVc-unsplash.jpg","","","","","","","","","","","","","","","","","","","","","","","","","","","","","","","","","","","","","","","","","","","","","","","","","","","","","","","","","","","","","","","","",""
"","rating","","html-slider-response","41","609832","0.0-1.0-38.0","35","51659","female","5329","","","","","86","36","22","Stimuli/Experimental_stims/faces/ravi-patel-VMGAbeeJTKo-unsplash.jpg","","","","","","","","","","","","","","","","","","","","","","","","","","","","","","","","","","","","","","","","","","","","","","","","","","","","","","","","","","","","","","","","",""
"","rating","","html-slider-response","42","623039","0.0-1.0-39.0","35","51659","female","13203","","","","","28","37","26","Stimuli/Experimental_stims/body_parts/engin-akyurt-x_3gyC42btc-unsplash.jpg","","","","","","","","","","","","","","","","","","","","","","","","","","","","","","","","","","","","","","","","","","","","","","","","","","","","","","","","","","","","","","","","",""
"","rating","","html-slider-response","43","632480","0.0-1.0-40.0","35","51659","female","9430","","","","","60","38","31","Stimuli/Experimental_stims/body_parts/sincerely-media-VN6DbKajo5s-unsplash.jpg","","","","","","","","","","","","","","","","","","","","","","","","","","","","","","","","","","","","","","","","","","","","","","","","","","","","","","","","","","","","","","","","",""
"","rating","","html-slider-response","44","640167","0.0-1.0-41.0","35","51659","female","7682","","","","","44","39","36","Stimuli/Experimental_stims/objects/alexander-andrews-JYGnB9gTCls-unsplash.jpg","","","","","","","","","","","","","","","","","","","","","","","","","","","","","","","","","","","","","","","","","","","","","","","","","","","","","","","","","","","","","","","","",""
"","rating","","html-slider-response","45","644219","0.0-1.0-42.0","35","51659","female","4047","","","","","69","40","28","Stimuli/Experimental_stims/body_parts/ira-vishnevskaya-8DQAvdCby1I-unsplash.jpg","","","","","","","","","","","","","","","","","","","","","","","","","","","","","","","","","","","","","","","","","","","","","","","","","","","","","","","","","","","","","","","","",""
"","rating","","html-slider-response","46","648426","0.0-1.0-43.0","35","51659","female","4202","","","","","58","41","20","Stimuli/Experimental_stims/faces/justin-chen-J7Cf1Gch49E-unsplash.jpg","","","","","","","","","","","","","","","","","","","","","","","","","","","","","","","","","","","","","","","","","","","","","","","","","","","","","","","","","","","","","","","","",""
"","rating","","html-slider-response","47","653747","0.0-1.0-44.0","35","51659","female","5315","","","","","41","42","41","Stimuli/Experimental_stims/objects/insung-yoon-w2JtIQQXoRU-unsplash.jpg","","","","","","","","","","","","","","","","","","","","","","","","","","","","","","","","","","","","","","","","","","","","","","","","","","","","","","","","","","","","","","","","",""
"","rating","","html-slider-response","48","659321","0.0-1.0-45.0","35","51659","female","5569","","","","","71","43","7","Stimuli/Experimental_stims/outdoor_scenes/petr-vysohlid-9fqwGqGLUxc-unsplash.jpg","","","","","","","","","","","","","","","","","","","","","","","","","","","","","","","","","","","","","","","","","","","","","","","","","","","","","","","","","","","","","","","","",""
"","rating","","html-slider-response","49","665831","0.0-1.0-46.0","35","51659","female","6504","","","","","64","44","5","Stimuli/Experimental_stims/outdoor_scenes/jeff-king-bJHWJeiHfHc-unsplash.jpg","","","","","","","","","","","","","","","","","","","","","","","","","","","","","","","","","","","","","","","","","","","","","","","","","","","","","","","","","","","","","","","","",""
"","rating","","html-slider-response","50","670014","0.0-1.0-47.0","35","51659","female","4178","","","","","61","45","30","Stimuli/Experimental_stims/body_parts/mika-korhonen-Xodzxosar18-unsplash.jpg","","","","","","","","","","","","","","","","","","","","","","","","","","","","","","","","","","","","","","","","","","","","","","","","","","","","","","","","","","","","","","","","",""
"","rating","","html-slider-response","51","674198","0.0-1.0-48.0","35","51659","female","4178","","","","","42","46","32","Stimuli/Experimental_stims/body_parts/towfiqu-barbhuiya-3AsiVDsZnHg-unsplash.jpg","","","","","","","","","","","","","","","","","","","","","","","","","","","","","","","","","","","","","","","","","","","","","","","","","","","","","","","","","","","","","","","","",""
"","rating","","html-slider-response","52","677638","0.0-1.0-49.0","35","51659","female","3436","","","","","80","47","21","Stimuli/Experimental_stims/faces/leilani-angel-K84vnnzxmTQ-unsplash.jpg","","","","","","","","","","","","","","","","","","","","","","","","","","","","","","","","","","","","","","","","","","","","","","","","","","","","","","","","","","","","","","","","",""
"","localizer_instructions","","instructions","53","793348","0.0-2.0-0.0-0.0","35","51659","female","115464","","[{""page_index"":0,""viewing_time"":90603},{""page_index"":1,""viewing_time"":22751},{""page_index"":2,""viewing_time"":2110}]","","","","","","","","","","","","","","","","","","","","","","","","","","","","","","","","","","","","","","","","","","","","","","","","","","","","","","","","","","","","","","","","","","","","","","",""
"","localizer_comprehension_check","","survey-multi-choice","54","807553","0.0-2.0-0.0-1.0","35","51659","female","14196","{""Q0"":""True"",""Q1"":""K"",""Q2"":""D""}","","0","","","","","","","","","","","","","","","","","","","","","","","","","","","","","","","","","","","","","","","","","","","","","","","","","","","","","","","","","","","","","","","","","","","","","",""
"","","","html-keyboard-response","55","811317","0.0-2.0-1.0","35","51659","female","3757","","","","68","","","","","","","","","","","","","","","","","","","","","","","","","","","","","","","","","","","","","","","","","","","","","","","","","","","","","","","","","","","","","","","","","","","","",""
"","localizer","","html-keyboard-response","56","811723","0.0-2.0-2.0-0.0","35","51659","female","NaN","","","","null","NaN","0","","Stimuli/Practice_stims/Localizer/annie-spratt-g9KFpAfQ5bc-unsplash.jpg","811317","0","NaN","","0","1","0","400","0","406","0","","","","","","","","","","","","","","","","","","","","","","","","","","","","","","","","","","","","","","","","","","","","","","","","","","","","","",""
"","iti_localizer","","html-keyboard-response","57","812034","0.0-2.0-2.0-1.0","35","51659","female","null","","","","null","","0","","","811723","0","","","","","","300","400","311","406","300","","","","","","","","","","","","","","","","","","","","","","","","","","","","","","","","","","","","","","","","","","","","","","","","","","","","",""
"","localizer","","html-keyboard-response","58","812442","0.0-2.0-2.1-0.1","35","51659","female","NaN","","","","null","NaN","0","","Stimuli/Practice_stims/Localizer/annie-spratt-g9KFpAfQ5bc-unsplash.jpg","812034","0","NaN","","0","1","0","400","700","408","717","","","","","","","","","","","","","","","","","","","","","","","","","","","","","","","","","","","","","","","","","","","","","","","","","","","","","",""
"","iti_localizer","","html-keyboard-response","59","812747","0.0-2.0-2.1-1.1","35","51659","female","null","","","","null","","0","","","812442","0","","","","","","300","1100","305","1125","300","","","","","","","","","","","","","","","","","","","","","","","","","","","","","","","","","","","","","","","","","","","","","","","","","","","","",""
"","localizer","","html-keyboard-response","60","813155","0.0-2.0-2.2-0.2","35","51659","female","NaN","","","","null","NaN","0","","Stimuli/Practice_stims/Localizer/annie-spratt-g9KFpAfQ5bc-unsplash.jpg","812747","0","NaN","","0","1","0","400","1400","408","1430","","","","","","","","","","","","","","","","","","","","","","","","","","","","","","","","","","","","","","","","","","","","","","","","","","","","","",""
"","iti_localizer","","html-keyboard-response","61","813460","0.0-2.0-2.2-1.2","35","51659","female","null","","","","null","","0","","","813155","0","","","","","","300","1800","305","1838","300","","","","","","","","","","","","","","","","","","","","","","","","","","","","","","","","","","","","","","","","","","","","","","","","","","","","",""
"","localizer","","html-keyboard-response","62","813869","0.0-2.0-2.3-0.3","35","51659","female","NaN","","","","null","NaN","0","","Stimuli/Practice_stims/Localizer/annie-spratt-g9KFpAfQ5bc-unsplash.jpg","813460","0","NaN","","0","1","0","400","2100","409","2143","","","","","","","","","","","","","","","","","","","","","","","","","","","","","","","","","","","","","","","","","","","","","","","","","","","","","",""
"","iti_localizer","","html-keyboard-response","63","814174","0.0-2.0-2.3-1.3","35","51659","female","null","","","","null","","0","","","813869","0","","","","","","300","2500","305","2552","300","","","","","","","","","","","","","","","","","","","","","","","","","","","","","","","","","","","","","","","","","","","","","","","","","","","","",""
"","localizer","","html-keyboard-response","64","814579","0.0-2.0-2.4-0.4","35","51659","female","225","","","","68","0","0","","Stimuli/Practice_stims/Localizer/annie-spratt-g9KFpAfQ5bc-unsplash.jpg","814174","0","NaN","","0","0","1","400","2800","405","2857","","","","","","","","","","","","","","","","","","","","","","","","","","","","","","","","","","","","","","","","","","","","","","","","","","","","","",""
"","iti_localizer","","html-keyboard-response","65","814883","0.0-2.0-2.4-1.4","35","51659","female","null","","","","null","","0","","","814579","0","","","","","","300","3200","304","3262","300","","","","","","","","","","","","","","","","","","","","","","","","","","","","","","","","","","","","","","","","","","","","","","","","","","","","",""
"","localizer","","html-keyboard-response","66","815297","0.0-2.0-3.0-0.0","35","51659","female","256","","","","68","0","1","","Stimuli/Practice_stims/Localizer/becca-tapert-sY5RjMB1KkE-unsplash.jpg","814883","0","NaN","","0","0","1","400","3500","414","3566","","","","","","","","","","","","","","","","","","","","","","","","","","","","","","","","","","","","","","","","","","","","","","","","","","","","","",""
"","iti_localizer","","html-keyboard-response","67","815601","0.0-2.0-3.0-1.0","35","51659","female","null","","","","null","","1","","","815297","0","","","","","","300","3900","304","3980","300","","","","","","","","","","","","","","","","","","","","","","","","","","","","","","","","","","","","","","","","","","","","","","","","","","","","",""
"","localizer","","html-keyboard-response","68","816006","0.0-2.0-4.0-0.0","35","51659","female","257","","","","68","0","2","","Stimuli/Practice_stims/Localizer/charl-durand-bsfXvI25iNg-unsplash.jpg","815601","0","NaN","","1","0","0","400","4200","405","4284","","","","","","","","","","","","","","","","","","","","","","","","","","","","","","","","","","","","","","","","","","","","","","","","","","","","","",""
"","iti_localizer","","html-keyboard-response","69","816310","0.0-2.0-4.0-1.0","35","51659","female","null","","","","null","","2","","","816006","0","","","","","","300","4600","304","4689","300","","","","","","","","","","","","","","","","","","","","","","","","","","","","","","","","","","","","","","","","","","","","","","","","","","","","",""
"","localizer","","html-keyboard-response","70","816715","0.0-2.0-5.0-0.0","35","51659","female","29","","","","75","1","3","","Stimuli/Practice_stims/Localizer/nizar-albusaidy-B2r2SWAf5CE-unsplash.jpg","816310","0","NaN","","0","0","0","400","4900","405","4993","","","","","","","","","","","","","","","","","","","","","","","","","","","","","","","","","","","","","","","","","","","","","","","","","","","","","",""
"","iti_localizer","","html-keyboard-response","71","817019","0.0-2.0-5.0-1.0","35","51659","female","null","","","","null","","3","","","816715","0","","","","","","300","5300","304","5398","300","","","","","","","","","","","","","","","","","","","","","","","","","","","","","","","","","","","","","","","","","","","","","","","","","","","","",""
"","localizer","","html-keyboard-response","72","817425","0.0-2.0-6.0-0.0","35","51659","female","13","","","","68","0","4","","Stimuli/Practice_stims/Localizer/randy-fath-epf1tdtIIkM-unsplash.jpg","817019","0","NaN","","1","0","0","400","5600","406","5702","","","","","","","","","","","","","","","","","","","","","","","","","","","","","","","","","","","","","","","","","","","","","","","","","","","","","",""
"","iti_localizer","","html-keyboard-response","73","817729","0.0-2.0-6.0-1.0","35","51659","female","null","","","","null","","4","","","817425","0","","","","","","300","6000","304","6108","300","","","","","","","","","","","","","","","","","","","","","","","","","","","","","","","","","","","","","","","","","","","","","","","","","","","","",""
"","localizer","","html-keyboard-response","74","818137","0.0-2.0-7.0-0.0","35","51659","female","324","","","","68","0","5","","Stimuli/Practice_stims/Localizer/yassine-khalfalli-adsQ9d_Cx0c-unsplash.jpg","817729","0","NaN","","0","0","1","400","6300","408","6412","","","","","","","","","","","","","","","","","","","","","","","","","","","","","","","","","","","","","","","","","","","","","","","","","","","","","",""
"","iti_localizer","","html-keyboard-response","75","818442","0.0-2.0-7.0-1.0","35","51659","female","null","","","","null","","5","","","818137","0","","","","","","300","6700","305","6820","300","","","","","","","","","","","","","","","","","","","","","","","","","","","","","","","","","","","","","","","","","","","","","","","","","","","","",""
"","practice_over","","html-keyboard-response","76","823020","0.0-2.0-7.0-2.0-0.0","35","51659","female","4575","","","","68","","","","","","","","","","","","","","","","","","","","","","","","","","","","","","","","","","","","","","","","","","","","","","","","","","","","","","","","","","","","","","","","","","","","",""
"","start_run","","html-keyboard-response","77","825768","0.0-2.0-7.0-2.0-1.0","35","51659","female","2744","","","","84","","","","","","","","","","","","","","","","","","","","","","","","","","","","","","","","","","","","","","","","","","","","","","","","","","","","","","","","","","","","","","","","","","","","",""
"","localizer","","html-keyboard-response","78","826173","0.0-2.0-8.0-0.0","35","51659","female","NaN","","","","null","NaN","6","","Stimuli/Experimental_stims/localizer/faces/allef-vinicius-C_1jjFJioWg-unsplash.jpg","825768","1","faces","","0","1","0","400","0","405","0","","","","","","","","","","","","","","","","","","","","","","","","","","","","","","","","","","","","","","","","","","","","","","","","","","","","","",""
"","iti_localizer","","html-keyboard-response","79","826477","0.0-2.0-8.0-1.0","35","51659","female","null","","","","null","","6","","","826173","1","","","","","","300","400","304","405","300","","","","","","","","","","","","","","","","","","","","","","","","","","","","","","","","","","","","","","","","","","","","","","","","","","","","",""
"","localizer","","html-keyboard-response","80","826881","0.0-2.0-9.0-0.0","35","51659","female","344","","","","68","0","7","","Stimuli/Experimental_stims/localizer/faces/ayo-ogunseinde-sibVwORYqs0-unsplash.jpg","826477","1","faces","","1","0","0","400","700","404","709","","","","","","","","","","","","","","","","","","","","","","","","","","","","","","","","","","","","","","","","","","","","","","","","","","","","","",""
"","iti_localizer","","html-keyboard-response","81","827185","0.0-2.0-9.0-1.0","35","51659","female","null","","","","null","","7","","","826881","1","","","","","","300","1100","304","1113","300","","","","","","","","","","","","","","","","","","","","","","","","","","","","","","","","","","","","","","","","","","","","","","","","","","","","",""
"","localizer","","html-keyboard-response","82","827590","0.0-2.0-10.0-0.0","35","51659","female","294","","","","75","1","8","","Stimuli/Experimental_stims/localizer/faces/abstral-official-cyOKLSgkgCE-unsplash.jpg","827185","1","faces","","0","0","0","400","1400","405","1417","","","","","","","","","","","","","","","","","","","","","","","","","","","","","","","","","","","","","","","","","","","","","","","","","","","","","",""
"","iti_localizer","","html-keyboard-response","83","827896","0.0-2.0-10.0-1.0","35","51659","female","null","","","","null","","8","","","827590","1","","","","","","300","1800","306","1822","300","","","","","","","","","","","","","","","","","","","","","","","","","","","","","","","","","","","","","","","","","","","","","","","","","","","","",""
"","localizer","","html-keyboard-response","84","828303","0.0-2.0-11.0-0.0","35","51659","female","141","","","","68","0","9","","Stimuli/Experimental_stims/localizer/faces/hisu-lee-2qvxIr_DXGo-unsplash.jpg","827896","1","faces","","0","0","1","400","2100","407","2128","","","","","","","","","","","","","","","","","","","","","","","","","","","","","","","","","","","","","","","","","","","","","","","","","","","","","",""
"","iti_localizer","","html-keyboard-response","85","828607","0.0-2.0-11.0-1.0","35","51659","female","null","","","","null","","9","","","828303","1","","","","","","300","2500","304","2535","300","","","","","","","","","","","","","","","","","","","","","","","","","","","","","","","","","","","","","","","","","","","","","","","","","","","","",""
"","localizer","","html-keyboard-response","86","829023","0.0-2.0-12.0-0.0","35","51659","female","NaN","","","","null","NaN","10","","Stimuli/Experimental_stims/localizer/faces/austin-wade-X6Uj51n5CE8-unsplash.jpg","828607","1","faces","","0","1","0","400","2800","416","2839","","","","","","","","","","","","","","","","","","","","","","","","","","","","","","","","","","","","","","","","","","","","","","","","","","","","","",""
"","iti_localizer","","html-keyboard-response","87","829328","0.0-2.0-12.0-1.0","35","51659","female","null","","","","null","","10","","","829023","1","","","","","","300","3200","305","3255","300","","","","","","","","","","","","","","","","","","","","","","","","","","","","","","","","","","","","","","","","","","","","","","","","","","","","",""
"","localizer","","html-keyboard-response","88","829733","0.0-2.0-13.0-0.0","35","51659","female","356","","","","68","0","11","","Stimuli/Experimental_stims/localizer/faces/darshan-patel-QJEVpydulGs-unsplash.jpg","829328","1","faces","","0","0","1","400","3500","405","3560","","","","","","","","","","","","","","","","","","","","","","","","","","","","","","","","","","","","","","","","","","","","","","","","","","","","","",""
"","iti_localizer","","html-keyboard-response","89","830037","0.0-2.0-13.0-1.0","35","51659","female","null","","","","null","","11","","","829733","1","","","","","","300","3900","304","3965","300","","","","","","","","","","","","","","","","","","","","","","","","","","","","","","","","","","","","","","","","","","","","","","","","","","","","",""
"","localizer","","html-keyboard-response","90","830441","0.0-2.0-14.0-0.0","35","51659","female","310","","","","68","0","12","","Stimuli/Experimental_stims/localizer/faces/aleksandar-popovski-Jy4ELSGPHTc-unsplash.jpg","830037","1","faces","","0","0","1","400","4200","404","4269","","","","","","","","","","","","","","","","","","","","","","","","","","","","","","","","","","","","","","","","","","","","","","","","","","","","","",""
"","iti_localizer","","html-keyboard-response","91","830745","0.0-2.0-14.0-1.0","35","51659","female","null","","","","null","","12","","","830441","1","","","","","","300","4600","304","4673","300","","","","","","","","","","","","","","","","","","","","","","","","","","","","","","","","","","","","","","","","","","","","","","","","","","","","",""
"","localizer","","html-keyboard-response","92","831150","0.0-2.0-15.0-0.0","35","51659","female","259","","","","68","0","13","","Stimuli/Experimental_stims/localizer/faces/ethan-haddox-__ng3cRXmFE-unsplash.jpg","830745","1","faces","","0","0","1","400","4900","405","4977","","","","","","","","","","","","","","","","","","","","","","","","","","","","","","","","","","","","","","","","","","","","","","","","","","","","","",""
"","iti_localizer","","html-keyboard-response","93","831455","0.0-2.0-15.0-1.0","35","51659","female","null","","","","null","","13","","","831150","1","","","","","","300","5300","305","5382","300","","","","","","","","","","","","","","","","","","","","","","","","","","","","","","","","","","","","","","","","","","","","","","","","","","","","",""
"","localizer","","html-keyboard-response","94","831860","0.0-2.0-16.0-0.0","35","51659","female","162","","","","68","0","14","","Stimuli/Experimental_stims/localizer/faces/jake-nackos-IF9TK5Uy-KI-unsplash.jpg","831455","1","faces","","0","0","1","400","5600","405","5687","","","","","","","","","","","","","","","","","","","","","","","","","","","","","","","","","","","","","","","","","","","","","","","","","","","","","",""
"","iti_localizer","","html-keyboard-response","95","832164","0.0-2.0-16.0-1.0","35","51659","female","null","","","","null","","14","","","831860","1","","","","","","300","6000","304","6092","300","","","","","","","","","","","","","","","","","","","","","","","","","","","","","","","","","","","","","","","","","","","","","","","","","","","","",""
"","localizer","","html-keyboard-response","96","832569","0.0-2.0-17.0-0.0","35","51659","female","NaN","","","","null","NaN","15","","Stimuli/Experimental_stims/localizer/faces/mubariz-mehdizadeh-o-wlIFT4zE4-unsplash.jpg","832164","1","faces","","0","1","0","400","6300","405","6396","","","","","","","","","","","","","","","","","","","","","","","","","","","","","","","","","","","","","","","","","","","","","","","","","","","","","",""
"","iti_localizer","","html-keyboard-response","97","832874","0.0-2.0-17.0-1.0","35","51659","female","null","","","","null","","15","","","832569","1","","","","","","300","6700","305","6801","300","","","","","","","","","","","","","","","","","","","","","","","","","","","","","","","","","","","","","","","","","","","","","","","","","","","","",""
"","localizer","","html-keyboard-response","98","833283","0.0-2.0-18.0-0.0","35","51659","female","336","","","","68","0","16","","Stimuli/Experimental_stims/localizer/faces/stephanie-nakagawa-ADSKIn0ScDg-unsplash.jpg","832874","1","faces","","0","0","1","400","7000","409","7106","","","","","","","","","","","","","","","","","","","","","","","","","","","","","","","","","","","","","","","","","","","","","","","","","","","","","",""
"","iti_localizer","","html-keyboard-response","99","833588","0.0-2.0-18.0-1.0","35","51659","female","null","","","","null","","16","","","833283","1","","","","","","300","7400","305","7515","300","","","","","","","","","","","","","","","","","","","","","","","","","","","","","","","","","","","","","","","","","","","","","","","","","","","","",""
"","localizer","","html-keyboard-response","100","834003","0.0-2.0-19.0-0.0","35","51659","female","394","","","","68","0","17","","Stimuli/Experimental_stims/localizer/faces/foto-sushi-6anudmpILw4-unsplash.jpg","833588","1","faces","","0","0","1","400","7700","415","7820","","","","","","","","","","","","","","","","","","","","","","","","","","","","","","","","","","","","","","","","","","","","","","","","","","","","","",""
"","iti_localizer","","html-keyboard-response","101","834307","0.0-2.0-19.0-1.0","35","51659","female","null","","","","null","","17","","","834003","1","","","","","","300","8100","304","8235","300","","","","","","","","","","","","","","","","","","","","","","","","","","","","","","","","","","","","","","","","","","","","","","","","","","","","",""
"","localizer","","html-keyboard-response","102","834712","0.0-2.0-20.0-0.0","35","51659","female","380","","","","68","0","18","","Stimuli/Experimental_stims/localizer/faces/samuel-dixon--fQ5XNOcqFQ-unsplash.jpg","834307","1","faces","","0","0","1","400","8400","405","8539","","","","","","","","","","","","","","","","","","","","","","","","","","","","","","","","","","","","","","","","","","","","","","","","","","","","","",""
"","iti_localizer","","html-keyboard-response","103","835017","0.0-2.0-20.0-1.0","35","51659","female","null","","","","null","","18","","","834712","1","","","","","","300","8800","305","8944","300","","","","","","","","","","","","","","","","","","","","","","","","","","","","","","","","","","","","","","","","","","","","","","","","","","","","",""
"","localizer","","html-keyboard-response","104","835422","0.0-2.0-21.0-0.0","35","51659","female","NaN","","","","null","NaN","19","","Stimuli/Experimental_stims/localizer/faces/jeffery-erhunse-vp9mRauo68c-unsplash.jpg","835017","1","faces","","0","1","0","400","9100","405","9249","","","","","","","","","","","","","","","","","","","","","","","","","","","","","","","","","","","","","","","","","","","","","","","","","","","","","",""
"","iti_localizer","","html-keyboard-response","105","835727","0.0-2.0-21.0-1.0","35","51659","female","null","","","","null","","19","","","835422","1","","","","","","300","9500","305","9654","300","","","","","","","","","","","","","","","","","","","","","","","","","","","","","","","","","","","","","","","","","","","","","","","","","","","","",""
"","localizer","","html-keyboard-response","106","836132","0.0-2.0-22.0-0.0","35","51659","female","363","","","","68","0","20","","Stimuli/Experimental_stims/localizer/faces/ayo-ogunseinde-6W4F62sN_yI-unsplash.jpg","835727","1","faces","","0","0","1","400","9800","405","9959","","","","","","","","","","","","","","","","","","","","","","","","","","","","","","","","","","","","","","","","","","","","","","","","","","","","","",""
"","iti_localizer","","html-keyboard-response","107","836436","0.0-2.0-22.0-1.0","35","51659","female","null","","","","null","","20","","","836132","1","","","","","","300","10200","304","10364","300","","","","","","","","","","","","","","","","","","","","","","","","","","","","","","","","","","","","","","","","","","","","","","","","","","","","",""
"","localizer","","html-keyboard-response","108","836842","0.0-2.0-23.0-0.0","35","51659","female","342","","","","68","0","21","","Stimuli/Experimental_stims/localizer/faces/whereslugo-zl_fPgiwduo-unsplash.jpg","836436","1","faces","","0","0","1","400","10500","406","10668","","","","","","","","","","","","","","","","","","","","","","","","","","","","","","","","","","","","","","","","","","","","","","","","","","","","","",""
"","iti_localizer","","html-keyboard-response","109","837146","0.0-2.0-23.0-1.0","35","51659","female","null","","","","null","","21","","","836842","1","","","","","","300","10900","304","11074","300","","","","","","","","","","","","","","","","","","","","","","","","","","","","","","","","","","","","","","","","","","","","","","","","","","","","",""
"","localizer","","html-keyboard-response","110","837551","0.0-2.0-24.0-0.0","35","51659","female","292","","","","68","0","22","","Stimuli/Experimental_stims/localizer/faces/chanvre-quebec-mXu1SpzHq6w-unsplash.jpg","837146","1","faces","","0","0","1","400","11200","405","11378","","","","","","","","","","","","","","","","","","","","","","","","","","","","","","","","","","","","","","","","","","","","","","","","","","","","","",""
"","iti_localizer","","html-keyboard-response","111","837856","0.0-2.0-24.0-1.0","35","51659","female","null","","","","null","","22","","","837551","1","","","","","","300","11600","305","11783","300","","","","","","","","","","","","","","","","","","","","","","","","","","","","","","","","","","","","","","","","","","","","","","","","","","","","",""
"","localizer","","html-keyboard-response","112","838264","0.0-2.0-25.0-0.0","35","51659","female","180","","","","68","0","23","","Stimuli/Experimental_stims/localizer/faces/ian-dooley-d1UPkiFd04A-unsplash.jpg","837856","1","faces","","0","0","1","400","11900","408","12088","","","","","","","","","","","","","","","","","","","","","","","","","","","","","","","","","","","","","","","","","","","","","","","","","","","","","",""
"","iti_localizer","","html-keyboard-response","113","838568","0.0-2.0-25.0-1.0","35","51659","female","null","","","","null","","23","","","838264","1","","","","","","300","12300","304","12496","300","","","","","","","","","","","","","","","","","","","","","","","","","","","","","","","","","","","","","","","","","","","","","","","","","","","","",""
"","localizer","","html-keyboard-response","114","838975","0.0-2.0-26.0-0.0","35","51659","female","49","","","","68","0","24","","Stimuli/Experimental_stims/localizer/faces/matheus-ferrero-W7b3eDUb_2I-unsplash.jpg","838568","1","faces","","1","0","0","400","12600","407","12800","","","","","","","","","","","","","","","","","","","","","","","","","","","","","","","","","","","","","","","","","","","","","","","","","","","","","",""
"","iti_localizer","","html-keyboard-response","115","839282","0.0-2.0-26.0-1.0","35","51659","female","null","","","","null","","24","","","838975","1","","","","","","300","13000","307","13207","300","","","","","","","","","","","","","","","","","","","","","","","","","","","","","","","","","","","","","","","","","","","","","","","","","","","","",""
"","localizer","","html-keyboard-response","116","839689","0.0-2.0-27.0-0.0","35","51659","female","NaN","","","","null","NaN","25","","Stimuli/Experimental_stims/localizer/faces/jeffery-erhunse-BQMZ5ligqps-unsplash.jpg","839282","1","faces","","0","1","0","400","13300","407","13514","","","","","","","","","","","","","","","","","","","","","","","","","","","","","","","","","","","","","","","","","","","","","","","","","","","","","",""
"","iti_localizer","","html-keyboard-response","117","853697","0.0-2.0-27.0-1.0","35","51659","female","null","","","","null","","25","","","839689","1","","","","","","14000","13700","14008","13921","14000","","","","","","","","","","","","","","","","","","","","","","","","","","","","","","","","","","","","","","","","","","","","","","","","","","","","",""
"","localizer","","html-keyboard-response","118","854102","0.0-2.0-28.0-0.0","35","51659","female","NaN","","","","null","NaN","26","","Stimuli/Experimental_stims/localizer/body_parts/jeremy-bishop-mLd3hAaH2ns-unsplash.jpg","853697","1","body_parts","","0","1","0","400","27700","405","27929","","","","","","","","","","","","","","","","","","","","","","","","","","","","","","","","","","","","","","","","","","","","","","","","","","","","","",""
"","iti_localizer","","html-keyboard-response","119","854406","0.0-2.0-28.0-1.0","35","51659","female","null","","","","null","","26","","","854102","1","","","","","","300","28100","304","28334","300","","","","","","","","","","","","","","","","","","","","","","","","","","","","","","","","","","","","","","","","","","","","","","","","","","","","",""
"","localizer","","html-keyboard-response","120","854811","0.0-2.0-29.0-0.0","35","51659","female","NaN","","","","null","NaN","27","","Stimuli/Experimental_stims/localizer/body_parts/sincerely-media-3DZHTq_i7Qk-unsplash.jpg","854406","1","body_parts","","0","1","0","400","28400","405","28638","","","","","","","","","","","","","","","","","","","","","","","","","","","","","","","","","","","","","","","","","","","","","","","","","","","","","",""
"","iti_localizer","","html-keyboard-response","121","855115","0.0-2.0-29.0-1.0","35","51659","female","null","","","","null","","27","","","854811","1","","","","","","300","28800","304","29043","300","","","","","","","","","","","","","","","","","","","","","","","","","","","","","","","","","","","","","","","","","","","","","","","","","","","","",""
"","localizer","","html-keyboard-response","122","855520","0.0-2.0-30.0-0.0","35","51659","female","324","","","","68","0","28","","Stimuli/Experimental_stims/localizer/body_parts/nick-page-jAGdpOGvLAA-unsplash.jpg","855115","1","body_parts","","0","0","1","400","29100","405","29347","","","","","","","","","","","","","","","","","","","","","","","","","","","","","","","","","","","","","","","","","","","","","","","","","","","","","",""
"","iti_localizer","","html-keyboard-response","123","855825","0.0-2.0-30.0-1.0","35","51659","female","null","","","","null","","28","","","855520","1","","","","","","300","29500","305","29752","300","","","","","","","","","","","","","","","","","","","","","","","","","","","","","","","","","","","","","","","","","","","","","","","","","","","","",""
"","localizer","","html-keyboard-response","124","856231","0.0-2.0-31.0-0.0","35","51659","female","151","","","","68","0","29","","Stimuli/Experimental_stims/localizer/body_parts/priscilla-du-preez-e6fcNpur53A-unsplash.jpg","855825","1","body_parts","","1","0","0","400","29800","406","30057","","","","","","","","","","","","","","","","","","","","","","","","","","","","","","","","","","","","","","","","","","","","","","","","","","","","","",""
"","iti_localizer","","html-keyboard-response","125","856535","0.0-2.0-31.0-1.0","35","51659","female","null","","","","null","","29","","","856231","1","","","","","","300","30200","304","30463","300","","","","","","","","","","","","","","","","","","","","","","","","","","","","","","","","","","","","","","","","","","","","","","","","","","","","",""
"","localizer","","html-keyboard-response","126","856942","0.0-2.0-32.0-0.0","35","51659","female","328","","","","68","0","30","","Stimuli/Experimental_stims/localizer/body_parts/lilartsy-1KkhQ8uL28g-unsplash.jpg","856535","1","body_parts","","0","0","1","400","30500","407","30767","","","","","","","","","","","","","","","","","","","","","","","","","","","","","","","","","","","","","","","","","","","","","","","","","","","","","",""
"","iti_localizer","","html-keyboard-response","127","857246","0.0-2.0-32.0-1.0","35","51659","female","null","","","","null","","30","","","856942","1","","","","","","300","30900","304","31174","300","","","","","","","","","","","","","","","","","","","","","","","","","","","","","","","","","","","","","","","","","","","","","","","","","","","","",""
"","localizer","","html-keyboard-response","128","857650","0.0-2.0-33.0-0.0","35","51659","female","141","","","","68","0","31","","Stimuli/Experimental_stims/localizer/body_parts/sippakorn-yamkasikorn-32_sJlJa5gA-unsplash.jpg","857246","1","body_parts","","0","0","1","400","31200","404","31478","","","","","","","","","","","","","","","","","","","","","","","","","","","","","","","","","","","","","","","","","","","","","","","","","","","","","",""
"","iti_localizer","","html-keyboard-response","129","857956","0.0-2.0-33.0-1.0","35","51659","female","null","","","","null","","31","","","857650","1","","","","","","300","31600","306","31882","300","","","","","","","","","","","","","","","","","","","","","","","","","","","","","","","","","","","","","","","","","","","","","","","","","","","","",""
"","localizer","","html-keyboard-response","130","858364","0.0-2.0-34.0-0.0","35","51659","female","0","","","","68","0","32","","Stimuli/Experimental_stims/localizer/body_parts/meghan-thompson-U1b8OB0QpIo-unsplash.jpg","857956","1","body_parts","","0","0","1","400","31900","408","32188","","","","","","","","","","","","","","","","","","","","","","","","","","","","","","","","","","","","","","","","","","","","","","","","","","","","","",""
"","iti_localizer","","html-keyboard-response","131","858671","0.0-2.0-34.0-1.0","35","51659","female","null","","","","null","","32","","","858364","1","","","","","","300","32300","307","32596","300","","","","","","","","","","","","","","","","","","","","","","","","","","","","","","","","","","","","","","","","","","","","","","","","","","","","",""
"","localizer","","html-keyboard-response","132","859080","0.0-2.0-35.0-0.0","35","51659","female","319","","","","68","0","33","","Stimuli/Experimental_stims/localizer/body_parts/semen-zhuravlev-_XxH_mV8dnk-unsplash (1).jpg","858671","1","body_parts","","0","0","1","400","32600","409","32903","","","","","","","","","","","","","","","","","","","","","","","","","","","","","","","","","","","","","","","","","","","","","","","","","","","","","",""
"","iti_localizer","","html-keyboard-response","133","859387","0.0-2.0-35.0-1.0","35","51659","female","null","","","","null","","33","","","859080","1","","","","","","300","33000","307","33312","300","","","","","","","","","","","","","","","","","","","","","","","","","","","","","","","","","","","","","","","","","","","","","","","","","","","","",""
"","localizer","","html-keyboard-response","134","859794","0.0-2.0-36.0-0.0","35","51659","female","116","","","","68","0","34","","Stimuli/Experimental_stims/localizer/body_parts/betzy-arosemena-YHdgnygtVCQ-unsplash.jpg","859387","1","body_parts","","0","0","1","400","33300","407","33619","","","","","","","","","","","","","","","","","","","","","","","","","","","","","","","","","","","","","","","","","","","","","","","","","","","","","",""
"","iti_localizer","","html-keyboard-response","135","860099","0.0-2.0-36.0-1.0","35","51659","female","null","","","","null","","34","","","859794","1","","","","","","300","33700","305","34026","300","","","","","","","","","","","","","","","","","","","","","","","","","","","","","","","","","","","","","","","","","","","","","","","","","","","","",""
"","localizer","","html-keyboard-response","136","860504","0.0-2.0-37.0-0.0","35","51659","female","203","","","","68","0","35","","Stimuli/Experimental_stims/localizer/body_parts/davidcohen-qghuLqyh3nE-unsplash.jpg","860099","1","body_parts","","0","0","1","400","34000","405","34331","","","","","","","","","","","","","","","","","","","","","","","","","","","","","","","","","","","","","","","","","","","","","","","","","","","","","",""
"","iti_localizer","","html-keyboard-response","137","860809","0.0-2.0-37.0-1.0","35","51659","female","null","","","","null","","35","","","860504","1","","","","","","300","34400","305","34736","300","","","","","","","","","","","","","","","","","","","","","","","","","","","","","","","","","","","","","","","","","","","","","","","","","","","","",""
"","localizer","","html-keyboard-response","138","861214","0.0-2.0-38.0-0.0","35","51659","female","117","","","","68","0","36","","Stimuli/Experimental_stims/localizer/body_parts/niu-niu-5HzOtV-FSlw-unsplash.jpg","860809","1","body_parts","","0","0","1","400","34700","405","35041","","","","","","","","","","","","","","","","","","","","","","","","","","","","","","","","","","","","","","","","","","","","","","","","","","","","","",""
"","iti_localizer","","html-keyboard-response","139","861518","0.0-2.0-38.0-1.0","35","51659","female","null","","","","null","","36","","","861214","1","","","","","","300","35100","304","35446","300","","","","","","","","","","","","","","","","","","","","","","","","","","","","","","","","","","","","","","","","","","","","","","","","","","","","",""
"","localizer","","html-keyboard-response","140","861923","0.0-2.0-39.0-0.0","35","51659","female","74","","","","68","0","37","","Stimuli/Experimental_stims/localizer/body_parts/liv-bruce-M0oVPGsWk1E-unsplash.jpg","861518","1","body_parts","","0","0","1","400","35400","405","35750","","","","","","","","","","","","","","","","","","","","","","","","","","","","","","","","","","","","","","","","","","","","","","","","","","","","","",""
"","iti_localizer","","html-keyboard-response","141","862228","0.0-2.0-39.0-1.0","35","51659","female","null","","","","null","","37","","","861923","1","","","","","","300","35800","305","36155","300","","","","","","","","","","","","","","","","","","","","","","","","","","","","","","","","","","","","","","","","","","","","","","","","","","","","",""
"","localizer","","html-keyboard-response","142","862632","0.0-2.0-40.0-0.0","35","51659","female","30","","","","68","0","38","","Stimuli/Experimental_stims/localizer/body_parts/nick-page-WTNmgJtwzGI-unsplash.jpg","862228","1","body_parts","","0","0","1","400","36100","404","36460","","","","","","","","","","","","","","","","","","","","","","","","","","","","","","","","","","","","","","","","","","","","","","","","","","","","","",""
"","iti_localizer","","html-keyboard-response","143","862937","0.0-2.0-40.0-1.0","35","51659","female","null","","","","null","","38","","","862632","1","","","","","","300","36500","305","36864","300","","","","","","","","","","","","","","","","","","","","","","","","","","","","","","","","","","","","","","","","","","","","","","","","","","","","",""
"","localizer","","html-keyboard-response","144","863341","0.0-2.0-41.0-0.0","35","51659","female","19","","","","68","0","39","","Stimuli/Experimental_stims/localizer/body_parts/billie-5OXE3KjDEfI-unsplash.jpg","862937","1","body_parts","","0","0","1","400","36800","404","37169","","","","","","","","","","","","","","","","","","","","","","","","","","","","","","","","","","","","","","","","","","","","","","","","","","","","","",""
"","iti_localizer","","html-keyboard-response","145","863646","0.0-2.0-41.0-1.0","35","51659","female","null","","","","null","","39","","","863341","1","","","","","","300","37200","305","37573","300","","","","","","","","","","","","","","","","","","","","","","","","","","","","","","","","","","","","","","","","","","","","","","","","","","","","",""
"","localizer","","html-keyboard-response","146","864061","0.0-2.0-42.0-0.0","35","51659","female","NaN","","","","null","NaN","40","","Stimuli/Experimental_stims/localizer/body_parts/apostolos-vamvouras-g5wKHRu2QW0-unsplash.jpg","863646","1","body_parts","","0","1","0","400","37500","415","37878","","","","","","","","","","","","","","","","","","","","","","","","","","","","","","","","","","","","","","","","","","","","","","","","","","","","","",""
"","iti_localizer","","html-keyboard-response","147","864365","0.0-2.0-42.0-1.0","35","51659","female","null","","","","null","","40","","","864061","1","","","","","","300","37900","304","38293","300","","","","","","","","","","","","","","","","","","","","","","","","","","","","","","","","","","","","","","","","","","","","","","","","","","","","",""
"","localizer","","html-keyboard-response","148","864770","0.0-2.0-43.0-0.0","35","51659","female","NaN","","","","null","NaN","41","","Stimuli/Experimental_stims/localizer/body_parts/david-fanuel-qnV8X7OViNY-unsplash.jpg","864365","1","body_parts","","0","1","0","400","38200","405","38597","","","","","","","","","","","","","","","","","","","","","","","","","","","","","","","","","","","","","","","","","","","","","","","","","","","","","",""
"","iti_localizer","","html-keyboard-response","149","865075","0.0-2.0-43.0-1.0","35","51659","female","null","","","","null","","41","","","864770","1","","","","","","300","38600","305","39002","300","","","","","","","","","","","","","","","","","","","","","","","","","","","","","","","","","","","","","","","","","","","","","","","","","","","","",""
"","localizer","","html-keyboard-response","150","865479","0.0-2.0-44.0-0.0","35","51659","female","NaN","","","","null","NaN","42","","Stimuli/Experimental_stims/localizer/body_parts/nattalia-nunez-MB9sdDfZMSg-unsplash.jpg","865075","1","body_parts","","0","1","0","400","38900","404","39307","","","","","","","","","","","","","","","","","","","","","","","","","","","","","","","","","","","","","","","","","","","","","","","","","","","","","",""
"","iti_localizer","","html-keyboard-response","151","865784","0.0-2.0-44.0-1.0","35","51659","female","null","","","","null","","42","","","865479","1","","","","","","300","39300","305","39711","300","","","","","","","","","","","","","","","","","","","","","","","","","","","","","","","","","","","","","","","","","","","","","","","","","","","","",""
"","localizer","","html-keyboard-response","152","866189","0.0-2.0-45.0-0.0","35","51659","female","30","","","","68","0","43","","Stimuli/Experimental_stims/localizer/body_parts/carlos-henrique-NAOJKwZswbs-unsplash.jpg","865784","1","body_parts","","0","0","1","400","39600","405","40016","","","","","","","","","","","","","","","","","","","","","","","","","","","","","","","","","","","","","","","","","","","","","","","","","","","","","",""
"","iti_localizer","","html-keyboard-response","153","866493","0.0-2.0-45.0-1.0","35","51659","female","null","","","","null","","43","","","866189","1","","","","","","300","40000","304","40421","300","","","","","","","","","","","","","","","","","","","","","","","","","","","","","","","","","","","","","","","","","","","","","","","","","","","","",""
"","localizer","","html-keyboard-response","154","866898","0.0-2.0-46.0-0.0","35","51659","female","82","","","","68","0","44","","Stimuli/Experimental_stims/localizer/body_parts/jeremy-yap-TfJEi17kA0w-unsplash.jpg","866493","1","body_parts","","1","0","0","400","40300","405","40725","","","","","","","","","","","","","","","","","","","","","","","","","","","","","","","","","","","","","","","","","","","","","","","","","","","","","",""
"","iti_localizer","","html-keyboard-response","155","867203","0.0-2.0-46.0-1.0","35","51659","female","null","","","","null","","44","","","866898","1","","","","","","300","40700","305","41130","300","","","","","","","","","","","","","","","","","","","","","","","","","","","","","","","","","","","","","","","","","","","","","","","","","","","","",""
"","localizer","","html-keyboard-response","156","867608","0.0-2.0-47.0-0.0","35","51659","female","NaN","","","","null","NaN","45","","Stimuli/Experimental_stims/localizer/body_parts/danie-franco-jyyNiSEcCl4-unsplash.jpg","867203","1","body_parts","","0","1","0","400","41000","405","41435","","","","","","","","","","","","","","","","","","","","","","","","","","","","","","","","","","","","","","","","","","","","","","","","","","","","","",""
"","iti_localizer","","html-keyboard-response","157","881613","0.0-2.0-47.0-1.0","35","51659","female","null","","","","null","","45","","","867608","1","","","","","","14000","41400","14005","41840","14000","","","","","","","","","","","","","","","","","","","","","","","","","","","","","","","","","","","","","","","","","","","","","","","","","","","","",""
"","localizer","","html-keyboard-response","158","882019","0.0-2.0-48.0-0.0","35","51659","female","NaN","","","","null","NaN","46","","Stimuli/Experimental_stims/localizer/objects/chris-briggs-x9TCnxNBofE-unsplash.jpg","881613","1","objects","","0","1","0","400","55400","406","55845","","","","","","","","","","","","","","","","","","","","","","","","","","","","","","","","","","","","","","","","","","","","","","","","","","","","","",""
"","iti_localizer","","html-keyboard-response","159","882329","0.0-2.0-48.0-1.0","35","51659","female","null","","","","null","","46","","","882019","1","","","","","","300","55800","310","56251","300","","","","","","","","","","","","","","","","","","","","","","","","","","","","","","","","","","","","","","","","","","","","","","","","","","","","",""
"","localizer","","html-keyboard-response","160","882734","0.0-2.0-49.0-0.0","35","51659","female","173","","","","68","0","47","","Stimuli/Experimental_stims/localizer/objects/quino-al-8gWEAAXJjtI-unsplash.jpg","882329","1","objects","","0","0","1","400","56100","405","56561","","","","","","","","","","","","","","","","","","","","","","","","","","","","","","","","","","","","","","","","","","","","","","","","","","","","","",""
"","iti_localizer","","html-keyboard-response","161","883040","0.0-2.0-49.0-1.0","35","51659","female","null","","","","null","","47","","","882734","1","","","","","","300","56500","306","56966","300","","","","","","","","","","","","","","","","","","","","","","","","","","","","","","","","","","","","","","","","","","","","","","","","","","","","",""
"","localizer","","html-keyboard-response","162","883448","0.0-2.0-50.0-0.0","35","51659","female","178","","","","68","0","48","","Stimuli/Experimental_stims/localizer/objects/recha-oktaviani-t__61ap00Mc-unsplash.jpg","883040","1","objects","","0","0","1","400","56800","408","57272","","","","","","","","","","","","","","","","","","","","","","","","","","","","","","","","","","","","","","","","","","","","","","","","","","","","","",""
"","iti_localizer","","html-keyboard-response","163","883756","0.0-2.0-50.0-1.0","35","51659","female","null","","","","null","","48","","","883448","1","","","","","","300","57200","308","57680","300","","","","","","","","","","","","","","","","","","","","","","","","","","","","","","","","","","","","","","","","","","","","","","","","","","","","",""
"","localizer","","html-keyboard-response","164","884162","0.0-2.0-51.0-0.0","35","51659","female","112","","","","68","0","49","","Stimuli/Experimental_stims/localizer/objects/kelly-jean-cKjbI0Y00X0-unsplash.jpg","883756","1","objects","","1","0","0","400","57500","406","57988","","","","","","","","","","","","","","","","","","","","","","","","","","","","","","","","","","","","","","","","","","","","","","","","","","","","","",""
"","iti_localizer","","html-keyboard-response","165","884471","0.0-2.0-51.0-1.0","35","51659","female","null","","","","null","","49","","","884162","1","","","","","","300","57900","309","58394","300","","","","","","","","","","","","","","","","","","","","","","","","","","","","","","","","","","","","","","","","","","","","","","","","","","","","",""
"","localizer","","html-keyboard-response","166","884877","0.0-2.0-52.0-0.0","35","51659","female","393","","","","68","0","50","","Stimuli/Experimental_stims/localizer/objects/mockup-graphics-Pj2PY-E-LfM-unsplash.jpg","884471","1","objects","","0","0","1","400","58200","406","58703","","","","","","","","","","","","","","","","","","","","","","","","","","","","","","","","","","","","","","","","","","","","","","","","","","","","","",""
"","iti_localizer","","html-keyboard-response","167","885181","0.0-2.0-52.0-1.0","35","51659","female","null","","","","null","","50","","","884877","1","","","","","","300","58600","304","59109","300","","","","","","","","","","","","","","","","","","","","","","","","","","","","","","","","","","","","","","","","","","","","","","","","","","","","",""
"","localizer","","html-keyboard-response","168","885586","0.0-2.0-53.0-0.0","35","51659","female","337","","","","68","0","51","","Stimuli/Experimental_stims/localizer/objects/andrew-petrov-TVJqDat4MAw-unsplash.jpg","885181","1","objects","","0","0","1","400","58900","405","59413","","","","","","","","","","","","","","","","","","","","","","","","","","","","","","","","","","","","","","","","","","","","","","","","","","","","","",""
"","iti_localizer","","html-keyboard-response","169","885890","0.0-2.0-53.0-1.0","35","51659","female","null","","","","null","","51","","","885586","1","","","","","","300","59300","304","59818","300","","","","","","","","","","","","","","","","","","","","","","","","","","","","","","","","","","","","","","","","","","","","","","","","","","","","",""
"","localizer","","html-keyboard-response","170","886296","0.0-2.0-54.0-0.0","35","51659","female","NaN","","","","null","NaN","52","","Stimuli/Experimental_stims/localizer/objects/ignat-dolomanov-kFBDVnmskPA-unsplash.jpg","885890","1","objects","","0","1","0","400","59600","406","60122","","","","","","","","","","","","","","","","","","","","","","","","","","","","","","","","","","","","","","","","","","","","","","","","","","","","","",""
"","iti_localizer","","html-keyboard-response","171","886600","0.0-2.0-54.0-1.0","35","51659","female","null","","","","null","","52","","","886296","1","","","","","","300","60000","304","60528","300","","","","","","","","","","","","","","","","","","","","","","","","","","","","","","","","","","","","","","","","","","","","","","","","","","","","",""
"","localizer","","html-keyboard-response","172","887004","0.0-2.0-55.0-0.0","35","51659","female","NaN","","","","null","NaN","53","","Stimuli/Experimental_stims/localizer/objects/ana-9GmAaEMMKho-unsplash.jpg","886600","1","objects","","0","1","0","400","60300","404","60832","","","","","","","","","","","","","","","","","","","","","","","","","","","","","","","","","","","","","","","","","","","","","","","","","","","","","",""
"","iti_localizer","","html-keyboard-response","173","887309","0.0-2.0-55.0-1.0","35","51659","female","null","","","","null","","53","","","887004","1","","","","","","300","60700","305","61236","300","","","","","","","","","","","","","","","","","","","","","","","","","","","","","","","","","","","","","","","","","","","","","","","","","","","","",""
"","localizer","","html-keyboard-response","174","887714","0.0-2.0-56.0-0.0","35","51659","female","NaN","","","","null","NaN","54","","Stimuli/Experimental_stims/localizer/objects/yossy-made-yulian-WaEqwDSIeTY-unsplash.jpg","887309","1","objects","","0","1","0","400","61000","405","61541","","","","","","","","","","","","","","","","","","","","","","","","","","","","","","","","","","","","","","","","","","","","","","","","","","","","","",""
"","iti_localizer","","html-keyboard-response","175","888023","0.0-2.0-56.0-1.0","35","51659","female","null","","","","null","","54","","","887714","1","","","","","","300","61400","309","61946","300","","","","","","","","","","","","","","","","","","","","","","","","","","","","","","","","","","","","","","","","","","","","","","","","","","","","",""
"","localizer","","html-keyboard-response","176","888428","0.0-2.0-57.0-0.0","35","51659","female","189","","","","68","0","55","","Stimuli/Experimental_stims/localizer/objects/mockup-graphics-U6ZMEefFGx8-unsplash.jpg","888023","1","objects","","0","0","1","400","61700","405","62255","","","","","","","","","","","","","","","","","","","","","","","","","","","","","","","","","","","","","","","","","","","","","","","","","","","","","",""
"","iti_localizer","","html-keyboard-response","177","888737","0.0-2.0-57.0-1.0","35","51659","female","null","","","","null","","55","","","888428","1","","","","","","300","62100","309","62660","300","","","","","","","","","","","","","","","","","","","","","","","","","","","","","","","","","","","","","","","","","","","","","","","","","","","","",""
"","localizer","","html-keyboard-response","178","889142","0.0-2.0-58.0-0.0","35","51659","female","281","","","","68","0","56","","Stimuli/Experimental_stims/localizer/objects/raimond-klavins-ZdvDPXVvcKs-unsplash.jpg","888737","1","objects","","0","0","1","400","62400","405","62969","","","","","","","","","","","","","","","","","","","","","","","","","","","","","","","","","","","","","","","","","","","","","","","","","","","","","",""
"","iti_localizer","","html-keyboard-response","179","889452","0.0-2.0-58.0-1.0","35","51659","female","null","","","","null","","56","","","889142","1","","","","","","300","62800","310","63374","300","","","","","","","","","","","","","","","","","","","","","","","","","","","","","","","","","","","","","","","","","","","","","","","","","","","","",""
"","localizer","","html-keyboard-response","180","889857","0.0-2.0-59.0-0.0","35","51659","female","318","","","","68","0","57","","Stimuli/Experimental_stims/localizer/objects/sam-moghadam-khamseh-L_7MQsHl_aU-unsplash.jpg","889452","1","objects","","0","0","1","400","63100","405","63684","","","","","","","","","","","","","","","","","","","","","","","","","","","","","","","","","","","","","","","","","","","","","","","","","","","","","",""
"","iti_localizer","","html-keyboard-response","181","890162","0.0-2.0-59.0-1.0","35","51659","female","null","","","","null","","57","","","889857","1","","","","","","300","63500","305","64089","300","","","","","","","","","","","","","","","","","","","","","","","","","","","","","","","","","","","","","","","","","","","","","","","","","","","","",""
"","localizer","","html-keyboard-response","182","890566","0.0-2.0-60.0-0.0","35","51659","female","305","","","","68","0","58","","Stimuli/Experimental_stims/localizer/objects/engin-akyurt-bbbKzTmY2Gg-unsplash.jpg","890162","1","objects","","0","0","1","400","63800","404","64394","","","","","","","","","","","","","","","","","","","","","","","","","","","","","","","","","","","","","","","","","","","","","","","","","","","","","",""
"","iti_localizer","","html-keyboard-response","183","890871","0.0-2.0-60.0-1.0","35","51659","female","null","","","","null","","58","","","890566","1","","","","","","300","64200","305","64798","300","","","","","","","","","","","","","","","","","","","","","","","","","","","","","","","","","","","","","","","","","","","","","","","","","","","","",""
"","localizer","","html-keyboard-response","184","891276","0.0-2.0-61.0-0.0","35","51659","female","NaN","","","","null","NaN","59","","Stimuli/Experimental_stims/localizer/objects/eugene-chystiakov-3neSwyntbQ8-unsplash.jpg","890871","1","objects","","1","1","0","400","64500","405","65103","","","","","","","","","","","","","","","","","","","","","","","","","","","","","","","","","","","","","","","","","","","","","","","","","","","","","",""
"","iti_localizer","","html-keyboard-response","185","891580","0.0-2.0-61.0-1.0","35","51659","female","null","","","","null","","59","","","891276","1","","","","","","300","64900","304","65508","300","","","","","","","","","","","","","","","","","","","","","","","","","","","","","","","","","","","","","","","","","","","","","","","","","","","","",""
"","localizer","","html-keyboard-response","186","891985","0.0-2.0-62.0-0.0","35","51659","female","356","","","","68","0","60","","Stimuli/Experimental_stims/localizer/objects/mae-mu-yl2d0CKW130-unsplash.jpg","891580","1","objects","","0","0","1","400","65200","405","65812","","","","","","","","","","","","","","","","","","","","","","","","","","","","","","","","","","","","","","","","","","","","","","","","","","","","","",""
"","iti_localizer","","html-keyboard-response","187","892289","0.0-2.0-62.0-1.0","35","51659","female","null","","","","null","","60","","","891985","1","","","","","","300","65600","304","66217","300","","","","","","","","","","","","","","","","","","","","","","","","","","","","","","","","","","","","","","","","","","","","","","","","","","","","",""
"","localizer","","html-keyboard-response","188","892694","0.0-2.0-63.0-0.0","35","51659","female","230","","","","68","0","61","","Stimuli/Experimental_stims/localizer/objects/sam-moghadam-khamseh-kvmdsTrGOBM-unsplash.jpg","892289","1","objects","","0","0","1","400","65900","405","66521","","","","","","","","","","","","","","","","","","","","","","","","","","","","","","","","","","","","","","","","","","","","","","","","","","","","","",""
"","iti_localizer","","html-keyboard-response","189","892998","0.0-2.0-63.0-1.0","35","51659","female","null","","","","null","","61","","","892694","1","","","","","","300","66300","304","66926","300","","","","","","","","","","","","","","","","","","","","","","","","","","","","","","","","","","","","","","","","","","","","","","","","","","","","",""
"","localizer","","html-keyboard-response","190","893402","0.0-2.0-64.0-0.0","35","51659","female","165","","","","68","0","62","","Stimuli/Experimental_stims/localizer/objects/nordwood-themes-E9tFH39iRPE-unsplash.jpg","892998","1","objects","","0","0","1","400","66600","404","67230","","","","","","","","","","","","","","","","","","","","","","","","","","","","","","","","","","","","","","","","","","","","","","","","","","","","","",""
"","iti_localizer","","html-keyboard-response","191","893707","0.0-2.0-64.0-1.0","35","51659","female","null","","","","null","","62","","","893402","1","","","","","","300","67000","305","67634","300","","","","","","","","","","","","","","","","","","","","","","","","","","","","","","","","","","","","","","","","","","","","","","","","","","","","",""
"","localizer","","html-keyboard-response","192","894115","0.0-2.0-65.0-0.0","35","51659","female","259","","","","68","0","63","","Stimuli/Experimental_stims/localizer/objects/mockup-graphics-aUkYaG12Dgs-unsplash.jpg","893707","1","objects","","0","0","1","400","67300","408","67939","","","","","","","","","","","","","","","","","","","","","","","","","","","","","","","","","","","","","","","","","","","","","","","","","","","","","",""
"","iti_localizer","","html-keyboard-response","193","894422","0.0-2.0-65.0-1.0","35","51659","female","null","","","","null","","63","","","894115","1","","","","","","300","67700","307","68347","300","","","","","","","","","","","","","","","","","","","","","","","","","","","","","","","","","","","","","","","","","","","","","","","","","","","","",""
"","localizer","","html-keyboard-response","194","894827","0.0-2.0-66.0-0.0","35","51659","female","322","","","","68","0","64","","Stimuli/Experimental_stims/localizer/objects/maria-lupan-Rlakka_pZMU-unsplash.jpg","894422","1","objects","","0","0","1","400","68000","405","68654","","","","","","","","","","","","","","","","","","","","","","","","","","","","","","","","","","","","","","","","","","","","","","","","","","","","","",""
"","iti_localizer","","html-keyboard-response","195","895131","0.0-2.0-66.0-1.0","35","51659","female","null","","","","null","","64","","","894827","1","","","","","","300","68400","304","69059","300","","","","","","","","","","","","","","","","","","","","","","","","","","","","","","","","","","","","","","","","","","","","","","","","","","","","",""
"","localizer","","html-keyboard-response","196","895538","0.0-2.0-67.0-0.0","35","51659","female","342","","","","68","0","65","","Stimuli/Experimental_stims/localizer/objects/quaritsch-photography-lZ8onQ1wuY8-unsplash.jpg","895131","1","objects","","0","0","1","400","68700","407","69363","","","","","","","","","","","","","","","","","","","","","","","","","","","","","","","","","","","","","","","","","","","","","","","","","","","","","",""
"","iti_localizer","","html-keyboard-response","197","909548","0.0-2.0-67.0-1.0","35","51659","female","null","","","","null","","65","","","895538","1","","","","","","14000","69100","14010","69770","14000","","","","","","","","","","","","","","","","","","","","","","","","","","","","","","","","","","","","","","","","","","","","","","","","","","","","",""
"","localizer","","html-keyboard-response","198","909953","0.0-2.0-68.0-0.0","35","51659","female","NaN","","","","null","NaN","66","","Stimuli/Experimental_stims/localizer/faces/brooke-cagle-Nm70URdtf3c-unsplash (1).jpg","909548","1","faces","","0","1","0","400","83100","405","83780","","","","","","","","","","","","","","","","","","","","","","","","","","","","","","","","","","","","","","","","","","","","","","","","","","","","","",""
"","iti_localizer","","html-keyboard-response","199","910257","0.0-2.0-68.0-1.0","35","51659","female","null","","","","null","","66","","","909953","1","","","","","","300","83500","304","84185","300","","","","","","","","","","","","","","","","","","","","","","","","","","","","","","","","","","","","","","","","","","","","","","","","","","","","",""
"","localizer","","html-keyboard-response","200","910662","0.0-2.0-69.0-0.0","35","51659","female","NaN","","","","null","NaN","67","","Stimuli/Experimental_stims/localizer/faces/joseph-gonzalez-iFgRcqHznqg-unsplash.jpg","910257","1","faces","","0","1","0","400","83800","405","84489","","","","","","","","","","","","","","","","","","","","","","","","","","","","","","","","","","","","","","","","","","","","","","","","","","","","","",""
"","iti_localizer","","html-keyboard-response","201","910967","0.0-2.0-69.0-1.0","35","51659","female","null","","","","null","","67","","","910662","1","","","","","","300","84200","305","84894","300","","","","","","","","","","","","","","","","","","","","","","","","","","","","","","","","","","","","","","","","","","","","","","","","","","","","",""
"","localizer","","html-keyboard-response","202","911372","0.0-2.0-70.0-0.0","35","51659","female","4","","","","68","0","68","","Stimuli/Experimental_stims/localizer/faces/pavel-anoshin-d0peGya6R5Y-unsplash.jpg","910967","1","faces","","0","0","1","400","84500","405","85199","","","","","","","","","","","","","","","","","","","","","","","","","","","","","","","","","","","","","","","","","","","","","","","","","","","","","",""
"","iti_localizer","","html-keyboard-response","203","911676","0.0-2.0-70.0-1.0","35","51659","female","null","","","","null","","68","","","911372","1","","","","","","300","84900","304","85604","300","","","","","","","","","","","","","","","","","","","","","","","","","","","","","","","","","","","","","","","","","","","","","","","","","","","","",""
"","localizer","","html-keyboard-response","204","912081","0.0-2.0-71.0-0.0","35","51659","female","53","","","","68","0","69","","Stimuli/Experimental_stims/localizer/faces/alexis-chloe-TYDkKEgc0Fg-unsplash.jpg","911676","1","faces","","0","0","1","400","85200","405","85908","","","","","","","","","","","","","","","","","","","","","","","","","","","","","","","","","","","","","","","","","","","","","","","","","","","","","",""
"","iti_localizer","","html-keyboard-response","205","912386","0.0-2.0-71.0-1.0","35","51659","female","null","","","","null","","69","","","912081","1","","","","","","300","85600","305","86313","300","","","","","","","","","","","","","","","","","","","","","","","","","","","","","","","","","","","","","","","","","","","","","","","","","","","","",""
"","localizer","","html-keyboard-response","206","912791","0.0-2.0-72.0-0.0","35","51659","female","53","","","","68","0","70","","Stimuli/Experimental_stims/localizer/faces/aiony-haust-K0DxxljcRv0-unsplash.jpg","912386","1","faces","","1","0","0","400","85900","405","86618","","","","","","","","","","","","","","","","","","","","","","","","","","","","","","","","","","","","","","","","","","","","","","","","","","","","","",""
"","iti_localizer","","html-keyboard-response","207","913097","0.0-2.0-72.0-1.0","35","51659","female","null","","","","null","","70","","","912791","1","","","","","","300","86300","306","87023","300","","","","","","","","","","","","","","","","","","","","","","","","","","","","","","","","","","","","","","","","","","","","","","","","","","","","",""
"","localizer","","html-keyboard-response","208","913502","0.0-2.0-73.0-0.0","35","51659","female","NaN","","","","null","NaN","71","","Stimuli/Experimental_stims/localizer/faces/olena-sergienko-0TSd6uCKTKc-unsplash.jpg","913097","1","faces","","0","1","0","400","86600","405","87329","","","","","","","","","","","","","","","","","","","","","","","","","","","","","","","","","","","","","","","","","","","","","","","","","","","","","",""
"","iti_localizer","","html-keyboard-response","209","913808","0.0-2.0-73.0-1.0","35","51659","female","null","","","","null","","71","","","913502","1","","","","","","300","87000","306","87734","300","","","","","","","","","","","","","","","","","","","","","","","","","","","","","","","","","","","","","","","","","","","","","","","","","","","","",""
"","localizer","","html-keyboard-response","210","914217","0.0-2.0-74.0-0.0","35","51659","female","313","","","","68","0","72","","Stimuli/Experimental_stims/localizer/faces/aatik-tasneem-7omHUGhhmZ0-unsplash.jpg","913808","1","faces","","0","0","1","400","87300","409","88040","","","","","","","","","","","","","","","","","","","","","","","","","","","","","","","","","","","","","","","","","","","","","","","","","","","","","",""
"","iti_localizer","","html-keyboard-response","211","914521","0.0-2.0-74.0-1.0","35","51659","female","null","","","","null","","72","","","914217","1","","","","","","300","87700","304","88449","300","","","","","","","","","","","","","","","","","","","","","","","","","","","","","","","","","","","","","","","","","","","","","","","","","","","","",""
"","localizer","","html-keyboard-response","212","914928","0.0-2.0-75.0-0.0","35","51659","female","223","","","","68","0","73","","Stimuli/Experimental_stims/localizer/faces/tyler-nix-ZGa9d1a_4tA-unsplash.jpg","914521","1","faces","","0","0","1","400","88000","407","88753","","","","","","","","","","","","","","","","","","","","","","","","","","","","","","","","","","","","","","","","","","","","","","","","","","","","","",""
"","iti_localizer","","html-keyboard-response","213","915232","0.0-2.0-75.0-1.0","35","51659","female","null","","","","null","","73","","","914928","1","","","","","","300","88400","304","89160","300","","","","","","","","","","","","","","","","","","","","","","","","","","","","","","","","","","","","","","","","","","","","","","","","","","","","",""
"","localizer","","html-keyboard-response","214","915637","0.0-2.0-76.0-0.0","35","51659","female","177","","","","68","0","74","","Stimuli/Experimental_stims/localizer/faces/imansyah-muhamad-putera-n4KewLKFOZw-unsplash.jpg","915232","1","faces","","0","0","1","400","88700","405","89464","","","","","","","","","","","","","","","","","","","","","","","","","","","","","","","","","","","","","","","","","","","","","","","","","","","","","",""
"","iti_localizer","","html-keyboard-response","215","915942","0.0-2.0-76.0-1.0","35","51659","female","null","","","","null","","74","","","915637","1","","","","","","300","89100","305","89869","300","","","","","","","","","","","","","","","","","","","","","","","","","","","","","","","","","","","","","","","","","","","","","","","","","","","","",""
"","localizer","","html-keyboard-response","216","916348","0.0-2.0-77.0-0.0","35","51659","female","98","","","","68","0","75","","Stimuli/Experimental_stims/localizer/faces/philip-martin-5aGUyCW_PJw-unsplash.jpg","915942","1","faces","","0","0","1","400","89400","406","90174","","","","","","","","","","","","","","","","","","","","","","","","","","","","","","","","","","","","","","","","","","","","","","","","","","","","","",""
"","iti_localizer","","html-keyboard-response","217","916652","0.0-2.0-77.0-1.0","35","51659","female","null","","","","null","","75","","","916348","1","","","","","","300","89800","304","90580","300","","","","","","","","","","","","","","","","","","","","","","","","","","","","","","","","","","","","","","","","","","","","","","","","","","","","",""
"","localizer","","html-keyboard-response","218","917057","0.0-2.0-78.0-0.0","35","51659","female","56","","","","68","0","76","","Stimuli/Experimental_stims/localizer/faces/vince-fleming-j3lf-Jn6deo-unsplash.jpg","916652","1","faces","","0","0","1","400","90100","405","90884","","","","","","","","","","","","","","","","","","","","","","","","","","","","","","","","","","","","","","","","","","","","","","","","","","","","","",""
"","iti_localizer","","html-keyboard-response","219","917361","0.0-2.0-78.0-1.0","35","51659","female","null","","","","null","","76","","","917057","1","","","","","","300","90500","304","91289","300","","","","","","","","","","","","","","","","","","","","","","","","","","","","","","","","","","","","","","","","","","","","","","","","","","","","",""
"","localizer","","html-keyboard-response","220","917766","0.0-2.0-79.0-0.0","35","51659","female","295","","","","68","0","77","","Stimuli/Experimental_stims/localizer/faces/hassan-khan-EGVccebWodM-unsplash.jpg","917361","1","faces","","0","0","1","400","90800","405","91593","","","","","","","","","","","","","","","","","","","","","","","","","","","","","","","","","","","","","","","","","","","","","","","","","","","","","",""
"","iti_localizer","","html-keyboard-response","221","918070","0.0-2.0-79.0-1.0","35","51659","female","null","","","","null","","77","","","917766","1","","","","","","300","91200","304","91998","300","","","","","","","","","","","","","","","","","","","","","","","","","","","","","","","","","","","","","","","","","","","","","","","","","","","","",""
"","localizer","","html-keyboard-response","222","918476","0.0-2.0-80.0-0.0","35","51659","female","287","","","","68","0","78","","Stimuli/Experimental_stims/localizer/faces/toa-heftiba-O3ymvT7Wf9U-unsplash.jpg","918070","1","faces","","0","0","1","400","91500","406","92302","","","","","","","","","","","","","","","","","","","","","","","","","","","","","","","","","","","","","","","","","","","","","","","","","","","","","",""
"","iti_localizer","","html-keyboard-response","223","918781","0.0-2.0-80.0-1.0","35","51659","female","null","","","","null","","78","","","918476","1","","","","","","300","91900","305","92708","300","","","","","","","","","","","","","","","","","","","","","","","","","","","","","","","","","","","","","","","","","","","","","","","","","","","","",""
"","localizer","","html-keyboard-response","224","919186","0.0-2.0-81.0-0.0","35","51659","female","270","","","","68","0","79","","Stimuli/Experimental_stims/localizer/faces/jurica-koletic-7YVZYZeITc8-unsplash.jpg","918781","1","faces","","0","0","1","400","92200","405","93013","","","","","","","","","","","","","","","","","","","","","","","","","","","","","","","","","","","","","","","","","","","","","","","","","","","","","",""
"","iti_localizer","","html-keyboard-response","225","919496","0.0-2.0-81.0-1.0","35","51659","female","null","","","","null","","79","","","919186","1","","","","","","300","92600","310","93418","300","","","","","","","","","","","","","","","","","","","","","","","","","","","","","","","","","","","","","","","","","","","","","","","","","","","","",""
"","localizer","","html-keyboard-response","226","919902","0.0-2.0-82.0-0.0","35","51659","female","357","","","","68","0","80","","Stimuli/Experimental_stims/localizer/faces/rui-silvestre-hAMJpesMeDE-unsplash.jpg","919496","1","faces","","0","0","1","400","92900","406","93728","","","","","","","","","","","","","","","","","","","","","","","","","","","","","","","","","","","","","","","","","","","","","","","","","","","","","",""
"","iti_localizer","","html-keyboard-response","227","920206","0.0-2.0-82.0-1.0","35","51659","female","null","","","","null","","80","","","919902","1","","","","","","300","93300","304","94134","300","","","","","","","","","","","","","","","","","","","","","","","","","","","","","","","","","","","","","","","","","","","","","","","","","","","","",""
"","localizer","","html-keyboard-response","228","920611","0.0-2.0-83.0-0.0","35","51659","female","383","","","","68","0","81","","Stimuli/Experimental_stims/localizer/faces/ben-scott-tWb7IsL9CnY-unsplash.jpg","920206","1","faces","","1","0","0","400","93600","405","94438","","","","","","","","","","","","","","","","","","","","","","","","","","","","","","","","","","","","","","","","","","","","","","","","","","","","","",""
"","iti_localizer","","html-keyboard-response","229","920916","0.0-2.0-83.0-1.0","35","51659","female","null","","","","null","","81","","","920611","1","","","","","","300","94000","305","94843","300","","","","","","","","","","","","","","","","","","","","","","","","","","","","","","","","","","","","","","","","","","","","","","","","","","","","",""
"","localizer","","html-keyboard-response","230","921321","0.0-2.0-84.0-0.0","35","51659","female","NaN","","","","null","NaN","82","","Stimuli/Experimental_stims/localizer/faces/mathias-huysmans-U4JDjYmjn1g-unsplash.jpg","920916","1","faces","","0","1","0","400","94300","405","95148","","","","","","","","","","","","","","","","","","","","","","","","","","","","","","","","","","","","","","","","","","","","","","","","","","","","","",""
"","iti_localizer","","html-keyboard-response","231","921626","0.0-2.0-84.0-1.0","35","51659","female","null","","","","null","","82","","","921321","1","","","","","","300","94700","305","95553","300","","","","","","","","","","","","","","","","","","","","","","","","","","","","","","","","","","","","","","","","","","","","","","","","","","","","",""
"","localizer","","html-keyboard-response","232","922031","0.0-2.0-85.0-0.0","35","51659","female","NaN","","","","null","NaN","83","","Stimuli/Experimental_stims/localizer/faces/james-marty-h1BuNJZzpC8-unsplash.jpg","921626","1","faces","","0","1","0","400","95000","405","95858","","","","","","","","","","","","","","","","","","","","","","","","","","","","","","","","","","","","","","","","","","","","","","","","","","","","","",""
"","iti_localizer","","html-keyboard-response","233","922335","0.0-2.0-85.0-1.0","35","51659","female","null","","","","null","","83","","","922031","1","","","","","","300","95400","304","96263","300","","","","","","","","","","","","","","","","","","","","","","","","","","","","","","","","","","","","","","","","","","","","","","","","","","","","",""
"","localizer","","html-keyboard-response","234","922741","0.0-2.0-86.0-0.0","35","51659","female","400","","","","68","0","84","","Stimuli/Experimental_stims/localizer/faces/drew-hays-agGIKYs4mYs-unsplash.jpg","922335","1","faces","","0","0","1","400","95700","406","96567","","","","","","","","","","","","","","","","","","","","","","","","","","","","","","","","","","","","","","","","","","","","","","","","","","","","","",""
"","iti_localizer","","html-keyboard-response","235","923048","0.0-2.0-86.0-1.0","35","51659","female","null","","","","null","","84","","","922741","1","","","","","","300","96100","307","96973","300","","","","","","","","","","","","","","","","","","","","","","","","","","","","","","","","","","","","","","","","","","","","","","","","","","","","",""
"","localizer","","html-keyboard-response","236","923455","0.0-2.0-87.0-0.0","35","51659","female","364","","","","68","0","85","","Stimuli/Experimental_stims/localizer/faces/jakob-owens-lkMJcGDZLVs-unsplash.jpg","923048","1","faces","","0","0","1","400","96400","407","97280","","","","","","","","","","","","","","","","","","","","","","","","","","","","","","","","","","","","","","","","","","","","","","","","","","","","","",""
"","iti_localizer","","html-keyboard-response","237","937459","0.0-2.0-87.0-1.0","35","51659","female","null","","","","null","","85","","","923455","1","","","","","","14000","96800","14004","97687","14000","","","","","","","","","","","","","","","","","","","","","","","","","","","","","","","","","","","","","","","","","","","","","","","","","","","","",""
"","localizer","","html-keyboard-response","238","937864","0.0-2.0-88.0-0.0","35","51659","female","NaN","","","","null","NaN","86","","Stimuli/Experimental_stims/localizer/body_parts/marcel-fagin-OUYg0Q3ec-Y-unsplash.jpg","937459","1","body_parts","","0","1","0","400","110800","405","111691","","","","","","","","","","","","","","","","","","","","","","","","","","","","","","","","","","","","","","","","","","","","","","","","","","","","","",""
"","iti_localizer","","html-keyboard-response","239","938168","0.0-2.0-88.0-1.0","35","51659","female","null","","","","null","","86","","","937864","1","","","","","","300","111200","304","112096","300","","","","","","","","","","","","","","","","","","","","","","","","","","","","","","","","","","","","","","","","","","","","","","","","","","","","",""
"","localizer","","html-keyboard-response","240","938573","0.0-2.0-89.0-0.0","35","51659","female","NaN","","","","null","NaN","87","","Stimuli/Experimental_stims/localizer/body_parts/helen-ast-l2iY5Sh0mTg-unsplash.jpg","938168","1","body_parts","","0","1","0","400","111500","405","112400","","","","","","","","","","","","","","","","","","","","","","","","","","","","","","","","","","","","","","","","","","","","","","","","","","","","","",""
"","iti_localizer","","html-keyboard-response","241","938878","0.0-2.0-89.0-1.0","35","51659","female","null","","","","null","","87","","","938573","1","","","","","","300","111900","305","112805","300","","","","","","","","","","","","","","","","","","","","","","","","","","","","","","","","","","","","","","","","","","","","","","","","","","","","",""
"","localizer","","html-keyboard-response","242","939286","0.0-2.0-90.0-0.0","35","51659","female","345","","","","68","0","88","","Stimuli/Experimental_stims/localizer/body_parts/luisa-denu-o5EU_lUB1rg-unsplash.jpg","938878","1","body_parts","","0","0","1","400","112200","408","113110","","","","","","","","","","","","","","","","","","","","","","","","","","","","","","","","","","","","","","","","","","","","","","","","","","","","","",""
"","iti_localizer","","html-keyboard-response","243","939593","0.0-2.0-90.0-1.0","35","51659","female","null","","","","null","","88","","","939286","1","","","","","","300","112600","307","113518","300","","","","","","","","","","","","","","","","","","","","","","","","","","","","","","","","","","","","","","","","","","","","","","","","","","","","",""
"","localizer","","html-keyboard-response","244","939998","0.0-2.0-91.0-0.0","35","51659","female","339","","","","68","0","89","","Stimuli/Experimental_stims/localizer/body_parts/megan-menegay-UojxG_BJxnI-unsplash.jpg","939593","1","body_parts","","0","0","1","400","112900","405","113825","","","","","","","","","","","","","","","","","","","","","","","","","","","","","","","","","","","","","","","","","","","","","","","","","","","","","",""
"","iti_localizer","","html-keyboard-response","245","940303","0.0-2.0-91.0-1.0","35","51659","female","null","","","","null","","89","","","939998","1","","","","","","300","113300","305","114230","300","","","","","","","","","","","","","","","","","","","","","","","","","","","","","","","","","","","","","","","","","","","","","","","","","","","","",""
"","localizer","","html-keyboard-response","246","940708","0.0-2.0-92.0-0.0","35","51659","female","316","","","","68","0","90","","Stimuli/Experimental_stims/localizer/body_parts/sincerely-media-9Zf6yh7RYbQ-unsplash.jpg","940303","1","body_parts","","0","0","1","400","113600","405","114535","","","","","","","","","","","","","","","","","","","","","","","","","","","","","","","","","","","","","","","","","","","","","","","","","","","","","",""
