"success","ttype","start_time","trial_type","trial_index","time_elapsed","internal_node_id","age","PID","gender","rt","responses","view_history","repeat_instructions","key_press","response","index","stimulus_index","path","start_time_elapsed","run","task","isi","is_odd_ball","no_response","acc","duration","onset","duration_time_elapsed","onset_time_elapsed","trial_duration","left_chosen","chosen_stimulus","unchosen_stimulus","chosen_category","unchosen_category","chosen_rating","unchosen_rating","chosen_path","unchosen_path","pair_id","practice","scramble_screen_time","scramble_instructed_side","stim_type","iti","block","left_stimulus","right_stimulus","left_category","right_category","left_path","right_path","left_rating","right_rating","scramble_acc","warning","missed_checkup","stimulus_id","item_id","outcome","response_rt","deliberation_reward_tally","choice_type","gain_left","left_item_id","right_item_id","higher_outcome_chosen","chosen_left","old_pair","pair_type","old_response","pair_acc","reward_type","outcome_response","outcome_rt","outcome_acc","category","choice","deliberated_stim","old_rating","new_rating","total_reward_tally"
"true","full_screen","d08172023hr1835","fullscreen","0","8744","0.0-0.0-0.0","32","21592","female","","","","","","","","","","","","","","","","","","","","","","","","","","","","","","","","","","","","","","","","","","","","","","","","","","","","","","","","","","","","","","","","","","","","","","","","",""
"","get_id","","survey-text","1","13046","0.0-0.0-1.0","32","21592","female","4301","{""Q0"":""32"",""Q1"":""female""}","","","","","","","","","","","","","","","","","","","","","","","","","","","","","","","","","","","","","","","","","","","","","","","","","","","","","","","","","","","","","","","","","","","","","","",""
"","ratings_instructions","","instructions","2","28073","0.0-1.0-0.0-0.0","32","21592","female","11987","","[{""page_index"":0,""viewing_time"":9251},{""page_index"":1,""viewing_time"":2736}]","","","","","","","","","","","","","","","","","","","","","","","","","","","","","","","","","","","","","","","","","","","","","","","","","","","","","","","","","","","","","","","","","","","","","",""
"","rating_comprehension_check","","survey-multi-choice","3","33043","0.0-1.0-0.0-1.0","32","21592","female","4968","{""Q0"":""True"",""Q1"":""Mouse""}","","0","","","","","","","","","","","","","","","","","","","","","","","","","","","","","","","","","","","","","","","","","","","","","","","","","","","","","","","","","","","","","","","","","","","","",""
"","","","html-keyboard-response","4","37432","0.0-1.0-1.0","32","21592","female","4386","","","","68","","","","","","","","","","","","","","","","","","","","","","","","","","","","","","","","","","","","","","","","","","","","","","","","","","","","","","","","","","","","","","","","","","","",""
"","rating","","html-slider-response","5","39857","0.0-1.0-2.0","32","21592","female","2422","","","","","61","0","38","Stimuli/Experimental_stims/objects/art-lasovsky-8XddFc6NkBY-unsplash.jpg","","","","","","","","","","","","","","","","","","","","","","","","","","","","","","","","","","","","","","","","","","","","","","","","","","","","","","","","","","","","","","","",""
"","rating","","html-slider-response","6","41988","0.0-1.0-3.0","32","21592","female","2130","","","","","68","1","24","Stimuli/Experimental_stims/body_parts/clay-banks-LjqARJaJotc-unsplash.jpg","","","","","","","","","","","","","","","","","","","","","","","","","","","","","","","","","","","","","","","","","","","","","","","","","","","","","","","","","","","","","","","",""
"","rating","","html-slider-response","7","45028","0.0-1.0-4.0","32","21592","female","3038","","","","","83","2","13","Stimuli/Experimental_stims/faces/daniel-rigdon-dXmXKPP2L4E-unsplash.jpg","","","","","","","","","","","","","","","","","","","","","","","","","","","","","","","","","","","","","","","","","","","","","","","","","","","","","","","","","","","","","","","",""
"","rating","","html-slider-response","8","47206","0.0-1.0-5.0","32","21592","female","2176","","","","","83","3","2","Stimuli/Experimental_stims/outdoor_scenes/bruno-van-der-kraan-qez8mNJ3ilU-unsplash.jpg","","","","","","","","","","","","","","","","","","","","","","","","","","","","","","","","","","","","","","","","","","","","","","","","","","","","","","","","","","","","","","","",""
"","rating","","html-slider-response","9","49184","0.0-1.0-6.0","32","21592","female","1976","","","","","55","4","36","Stimuli/Experimental_stims/objects/alexander-andrews-JYGnB9gTCls-unsplash.jpg","","","","","","","","","","","","","","","","","","","","","","","","","","","","","","","","","","","","","","","","","","","","","","","","","","","","","","","","","","","","","","","",""
"","rating","","html-slider-response","10","51219","0.0-1.0-7.0","32","21592","female","2033","","","","","69","5","7","Stimuli/Experimental_stims/outdoor_scenes/petr-vysohlid-9fqwGqGLUxc-unsplash.jpg","","","","","","","","","","","","","","","","","","","","","","","","","","","","","","","","","","","","","","","","","","","","","","","","","","","","","","","","","","","","","","","",""
"","rating","","html-slider-response","11","53511","0.0-1.0-8.0","32","21592","female","2289","","","","","77","6","28","Stimuli/Experimental_stims/body_parts/ira-vishnevskaya-8DQAvdCby1I-unsplash.jpg","","","","","","","","","","","","","","","","","","","","","","","","","","","","","","","","","","","","","","","","","","","","","","","","","","","","","","","","","","","","","","","",""
"","rating","","html-slider-response","12","56206","0.0-1.0-9.0","32","21592","female","2693","","","","","42","7","14","Stimuli/Experimental_stims/faces/david-siglin-UuW4psOb388-unsplash.jpg","","","","","","","","","","","","","","","","","","","","","","","","","","","","","","","","","","","","","","","","","","","","","","","","","","","","","","","","","","","","","","","",""
"","rating","","html-slider-response","13","58547","0.0-1.0-10.0","32","21592","female","2340","","","","","89","8","23","Stimuli/Experimental_stims/faces/rikonavt-HQjfrvdTfak-unsplash.jpg","","","","","","","","","","","","","","","","","","","","","","","","","","","","","","","","","","","","","","","","","","","","","","","","","","","","","","","","","","","","","","","",""
"","rating","","html-slider-response","14","60739","0.0-1.0-11.0","32","21592","female","2190","","","","","59","9","39","Stimuli/Experimental_stims/objects/charlesdeluvio-1-nx1QR5dTE-unsplash.jpg","","","","","","","","","","","","","","","","","","","","","","","","","","","","","","","","","","","","","","","","","","","","","","","","","","","","","","","","","","","","","","","",""
"","rating","","html-slider-response","15","64606","0.0-1.0-12.0","32","21592","female","3865","","","","","100","10","11","Stimuli/Experimental_stims/outdoor_scenes/stephen-leonardi-gyIRjKPXupE-unsplash.jpg","","","","","","","","","","","","","","","","","","","","","","","","","","","","","","","","","","","","","","","","","","","","","","","","","","","","","","","","","","","","","","","",""
"","rating","","html-slider-response","16","66886","0.0-1.0-13.0","32","21592","female","2278","","","","","84","11","16","Stimuli/Experimental_stims/faces/freddy-kearney-o-ioeoATbIM-unsplash.jpg","","","","","","","","","","","","","","","","","","","","","","","","","","","","","","","","","","","","","","","","","","","","","","","","","","","","","","","","","","","","","","","",""
"","rating","","html-slider-response","17","68856","0.0-1.0-14.0","32","21592","female","1968","","","","","54","12","46","Stimuli/Experimental_stims/objects/mockup-graphics-PNsj6RiHAF4-unsplash.jpg","","","","","","","","","","","","","","","","","","","","","","","","","","","","","","","","","","","","","","","","","","","","","","","","","","","","","","","","","","","","","","","",""
"","rating","","html-slider-response","18","71528","0.0-1.0-15.0","32","21592","female","2670","","","","","68","13","20","Stimuli/Experimental_stims/faces/justin-chen-J7Cf1Gch49E-unsplash.jpg","","","","","","","","","","","","","","","","","","","","","","","","","","","","","","","","","","","","","","","","","","","","","","","","","","","","","","","","","","","","","","","",""
"","rating","","html-slider-response","19","75204","0.0-1.0-16.0","32","21592","female","3674","","","","","77","14","18","Stimuli/Experimental_stims/faces/jessica-radanavong-mrYkTuAesKE-unsplash.jpg","","","","","","","","","","","","","","","","","","","","","","","","","","","","","","","","","","","","","","","","","","","","","","","","","","","","","","","","","","","","","","","",""
"","rating","","html-slider-response","20","77603","0.0-1.0-17.0","32","21592","female","2397","","","","","54","15","42","Stimuli/Experimental_stims/objects/jess-bailey-nOeVi8DsN8U-unsplash.jpg","","","","","","","","","","","","","","","","","","","","","","","","","","","","","","","","","","","","","","","","","","","","","","","","","","","","","","","","","","","","","","","",""
"","rating","","html-slider-response","21","80072","0.0-1.0-18.0","32","21592","female","2467","","","","","86","16","5","Stimuli/Experimental_stims/outdoor_scenes/jeff-king-bJHWJeiHfHc-unsplash.jpg","","","","","","","","","","","","","","","","","","","","","","","","","","","","","","","","","","","","","","","","","","","","","","","","","","","","","","","","","","","","","","","",""
"","rating","","html-slider-response","22","84553","0.0-1.0-19.0","32","21592","female","4479","","","","","53","17","25","Stimuli/Experimental_stims/body_parts/engin-akyurt-Q2rfH3GW39c-unsplash.jpg","","","","","","","","","","","","","","","","","","","","","","","","","","","","","","","","","","","","","","","","","","","","","","","","","","","","","","","","","","","","","","","",""
"","rating","","html-slider-response","23","87120","0.0-1.0-20.0","32","21592","female","2565","","","","","59","18","29","Stimuli/Experimental_stims/body_parts/manuel-schinner-ZwjFuJ7ebpk-unsplash.jpg","","","","","","","","","","","","","","","","","","","","","","","","","","","","","","","","","","","","","","","","","","","","","","","","","","","","","","","","","","","","","","","",""
"","rating","","html-slider-response","24","95149","0.0-1.0-21.0","32","21592","female","8027","","","","","55","19","47","Stimuli/Experimental_stims/objects/ronaldo-arthur-vidal-Cdz_lvnl37k-unsplash.jpg","","","","","","","","","","","","","","","","","","","","","","","","","","","","","","","","","","","","","","","","","","","","","","","","","","","","","","","","","","","","","","","",""
"","rating","","html-slider-response","25","97183","0.0-1.0-22.0","32","21592","female","2032","","","","","58","20","4","Stimuli/Experimental_stims/outdoor_scenes/jarrett-kow-1ZOyYPOBn7I-unsplash.jpg","","","","","","","","","","","","","","","","","","","","","","","","","","","","","","","","","","","","","","","","","","","","","","","","","","","","","","","","","","","","","","","",""
"","rating","","html-slider-response","26","103122","0.0-1.0-23.0","32","21592","female","5937","","","","","54","21","31","Stimuli/Experimental_stims/body_parts/sincerely-media-VN6DbKajo5s-unsplash.jpg","","","","","","","","","","","","","","","","","","","","","","","","","","","","","","","","","","","","","","","","","","","","","","","","","","","","","","","","","","","","","","","",""
"","rating","","html-slider-response","27","105226","0.0-1.0-24.0","32","21592","female","2102","","","","","46","22","44","Stimuli/Experimental_stims/objects/kuiye-chen-NuOGFo4PudE-unsplash.jpg","","","","","","","","","","","","","","","","","","","","","","","","","","","","","","","","","","","","","","","","","","","","","","","","","","","","","","","","","","","","","","","",""
"","rating","","html-slider-response","28","107369","0.0-1.0-25.0","32","21592","female","2140","","","","","55","23","37","Stimuli/Experimental_stims/objects/alexander-andrews-VLGWE_SumrA-unsplash.jpg","","","","","","","","","","","","","","","","","","","","","","","","","","","","","","","","","","","","","","","","","","","","","","","","","","","","","","","","","","","","","","","",""
"","rating","","html-slider-response","29","111594","0.0-1.0-26.0","32","21592","female","4224","","","","","58","24","10","Stimuli/Experimental_stims/outdoor_scenes/shannon-kunkle-dM8INmkyDas-unsplash.jpg","","","","","","","","","","","","","","","","","","","","","","","","","","","","","","","","","","","","","","","","","","","","","","","","","","","","","","","","","","","","","","","",""
"","rating","","html-slider-response","30","123176","0.0-1.0-27.0","32","21592","female","11580","","","","","36","25","40","Stimuli/Experimental_stims/objects/fabian-blank-pElSkGRA2NU-unsplash.jpg","","","","","","","","","","","","","","","","","","","","","","","","","","","","","","","","","","","","","","","","","","","","","","","","","","","","","","","","","","","","","","","",""
"","rating","","html-slider-response","31","125754","0.0-1.0-28.0","32","21592","female","2576","","","","","71","26","9","Stimuli/Experimental_stims/outdoor_scenes/sergey-pesterev-y-b_FOmJXdg-unsplash.jpg","","","","","","","","","","","","","","","","","","","","","","","","","","","","","","","","","","","","","","","","","","","","","","","","","","","","","","","","","","","","","","","",""
"","rating","","html-slider-response","32","133793","0.0-1.0-29.0","32","21592","female","8037","","","","","66","27","41","Stimuli/Experimental_stims/objects/insung-yoon-w2JtIQQXoRU-unsplash.jpg","","","","","","","","","","","","","","","","","","","","","","","","","","","","","","","","","","","","","","","","","","","","","","","","","","","","","","","","","","","","","","","",""
"","rating","","html-slider-response","33","135595","0.0-1.0-30.0","32","21592","female","1800","","","","","73","28","8","Stimuli/Experimental_stims/outdoor_scenes/samsommer-vddccTqwal8-unsplash.jpg","","","","","","","","","","","","","","","","","","","","","","","","","","","","","","","","","","","","","","","","","","","","","","","","","","","","","","","","","","","","","","","",""
"","rating","","html-slider-response","34","138871","0.0-1.0-31.0","32","21592","female","3274","","","","","73","29","3","Stimuli/Experimental_stims/outdoor_scenes/henry-be-NLF6hTe4PAg-unsplash.jpg","","","","","","","","","","","","","","","","","","","","","","","","","","","","","","","","","","","","","","","","","","","","","","","","","","","","","","","","","","","","","","","",""
"","rating","","html-slider-response","35","140480","0.0-1.0-32.0","32","21592","female","1607","","","","","61","30","27","Stimuli/Experimental_stims/body_parts/heike-mintel-i_Gns0ELnLw-unsplash.jpg","","","","","","","","","","","","","","","","","","","","","","","","","","","","","","","","","","","","","","","","","","","","","","","","","","","","","","","","","","","","","","","",""
"","rating","","html-slider-response","36","142141","0.0-1.0-33.0","32","21592","female","1659","","","","","77","31","19","Stimuli/Experimental_stims/faces/joel-mott-LaK153ghdig-unsplash.jpg","","","","","","","","","","","","","","","","","","","","","","","","","","","","","","","","","","","","","","","","","","","","","","","","","","","","","","","","","","","","","","","",""
"","rating","","html-slider-response","37","144389","0.0-1.0-34.0","32","21592","female","2246","","","","","54","32","45","Stimuli/Experimental_stims/objects/leohoho-rngTKHXumy0-unsplash.jpg","","","","","","","","","","","","","","","","","","","","","","","","","","","","","","","","","","","","","","","","","","","","","","","","","","","","","","","","","","","","","","","",""
"","rating","","html-slider-response","38","146134","0.0-1.0-35.0","32","21592","female","1742","","","","","55","33","30","Stimuli/Experimental_stims/body_parts/mika-korhonen-Xodzxosar18-unsplash.jpg","","","","","","","","","","","","","","","","","","","","","","","","","","","","","","","","","","","","","","","","","","","","","","","","","","","","","","","","","","","","","","","",""
"","rating","","html-slider-response","39","147788","0.0-1.0-36.0","32","21592","female","1652","","","","","68","34","21","Stimuli/Experimental_stims/faces/leilani-angel-K84vnnzxmTQ-unsplash.jpg","","","","","","","","","","","","","","","","","","","","","","","","","","","","","","","","","","","","","","","","","","","","","","","","","","","","","","","","","","","","","","","",""
"","rating","","html-slider-response","40","149813","0.0-1.0-37.0","32","21592","female","2024","","","","","40","35","34","Stimuli/Experimental_stims/body_parts/wagner-santos-mBWMvIuVnso-unsplash.jpg","","","","","","","","","","","","","","","","","","","","","","","","","","","","","","","","","","","","","","","","","","","","","","","","","","","","","","","","","","","","","","","",""
"","rating","","html-slider-response","41","151969","0.0-1.0-38.0","32","21592","female","2154","","","","","36","36","35","Stimuli/Experimental_stims/body_parts/wc-so-KH4AAPjb-tI-unsplash.jpg","","","","","","","","","","","","","","","","","","","","","","","","","","","","","","","","","","","","","","","","","","","","","","","","","","","","","","","","","","","","","","","",""
"","rating","","html-slider-response","42","154302","0.0-1.0-39.0","32","21592","female","2331","","","","","73","37","15","Stimuli/Experimental_stims/faces/erik-lucatero-d2MSDujJl2g-unsplash.jpg","","","","","","","","","","","","","","","","","","","","","","","","","","","","","","","","","","","","","","","","","","","","","","","","","","","","","","","","","","","","","","","",""
"","rating","","html-slider-response","43","157242","0.0-1.0-40.0","32","21592","female","2937","","","","","62","38","1","Stimuli/Experimental_stims/outdoor_scenes/ashim-d-silva-S2Q5mdOrrVc-unsplash.jpg","","","","","","","","","","","","","","","","","","","","","","","","","","","","","","","","","","","","","","","","","","","","","","","","","","","","","","","","","","","","","","","",""
"","rating","","html-slider-response","44","161026","0.0-1.0-41.0","32","21592","female","3783","","","","","38","39","22","Stimuli/Experimental_stims/faces/ravi-patel-VMGAbeeJTKo-unsplash.jpg","","","","","","","","","","","","","","","","","","","","","","","","","","","","","","","","","","","","","","","","","","","","","","","","","","","","","","","","","","","","","","","",""
"","rating","","html-slider-response","45","163532","0.0-1.0-42.0","32","21592","female","2504","","","","","56","40","26","Stimuli/Experimental_stims/body_parts/engin-akyurt-x_3gyC42btc-unsplash.jpg","","","","","","","","","","","","","","","","","","","","","","","","","","","","","","","","","","","","","","","","","","","","","","","","","","","","","","","","","","","","","","","",""
"","rating","","html-slider-response","46","165794","0.0-1.0-43.0","32","21592","female","2261","","","","","57","41","0","Stimuli/Experimental_stims/outdoor_scenes/aleksandra-boguslawska-MS7KD9Ti7FQ-unsplash.jpg","","","","","","","","","","","","","","","","","","","","","","","","","","","","","","","","","","","","","","","","","","","","","","","","","","","","","","","","","","","","","","","",""
"","rating","","html-slider-response","47","167826","0.0-1.0-44.0","32","21592","female","2031","","","","","41","42","43","Stimuli/Experimental_stims/objects/jonathan-greenaway-Y4hGgeiFn3s-unsplash.jpg","","","","","","","","","","","","","","","","","","","","","","","","","","","","","","","","","","","","","","","","","","","","","","","","","","","","","","","","","","","","","","","",""
"","rating","","html-slider-response","48","170618","0.0-1.0-45.0","32","21592","female","2790","","","","","30","43","32","Stimuli/Experimental_stims/body_parts/towfiqu-barbhuiya-3AsiVDsZnHg-unsplash.jpg","","","","","","","","","","","","","","","","","","","","","","","","","","","","","","","","","","","","","","","","","","","","","","","","","","","","","","","","","","","","","","","",""
"","rating","","html-slider-response","49","172614","0.0-1.0-46.0","32","21592","female","1994","","","","","91","44","17","Stimuli/Experimental_stims/faces/good-faces-xmSWVeGEnJw-unsplash.jpg","","","","","","","","","","","","","","","","","","","","","","","","","","","","","","","","","","","","","","","","","","","","","","","","","","","","","","","","","","","","","","","",""
"","rating","","html-slider-response","50","174607","0.0-1.0-47.0","32","21592","female","1991","","","","","71","45","6","Stimuli/Experimental_stims/outdoor_scenes/meng-ji-8BH_M-53CyA-unsplash.jpg","","","","","","","","","","","","","","","","","","","","","","","","","","","","","","","","","","","","","","","","","","","","","","","","","","","","","","","","","","","","","","","",""
"","rating","","html-slider-response","51","177742","0.0-1.0-48.0","32","21592","female","3133","","","","","43","46","33","Stimuli/Experimental_stims/body_parts/tucker-good-36skLT5jZcc-unsplash.jpg","","","","","","","","","","","","","","","","","","","","","","","","","","","","","","","","","","","","","","","","","","","","","","","","","","","","","","","","","","","","","","","",""
"","rating","","html-slider-response","52","179678","0.0-1.0-49.0","32","21592","female","1934","","","","","69","47","12","Stimuli/Experimental_stims/faces/aiony-haust-jmATI5Q_YgY-unsplash.jpg","","","","","","","","","","","","","","","","","","","","","","","","","","","","","","","","","","","","","","","","","","","","","","","","","","","","","","","","","","","","","","","",""
"","localizer_instructions","","instructions","53","218948","0.0-2.0-0.0-0.0","32","21592","female","39257","","[{""page_index"":0,""viewing_time"":19359},{""page_index"":1,""viewing_time"":18747},{""page_index"":2,""viewing_time"":1151}]","","","","","","","","","","","","","","","","","","","","","","","","","","","","","","","","","","","","","","","","","","","","","","","","","","","","","","","","","","","","","","","","","","","","","",""
"","localizer_comprehension_check","","survey-multi-choice","54","229602","0.0-2.0-0.0-1.0","32","21592","female","10653","{""Q0"":""True"",""Q1"":""K"",""Q2"":""D""}","","0","","","","","","","","","","","","","","","","","","","","","","","","","","","","","","","","","","","","","","","","","","","","","","","","","","","","","","","","","","","","","","","","","","","","",""
"","","","html-keyboard-response","55","235300","0.0-2.0-1.0","32","21592","female","5696","","","","68","","","","","","","","","","","","","","","","","","","","","","","","","","","","","","","","","","","","","","","","","","","","","","","","","","","","","","","","","","","","","","","","","","","",""
"","localizer","","html-keyboard-response","56","235702","0.0-2.0-2.0-0.0","32","21592","female","NaN","","","","null","NaN","0","","Stimuli/Practice_stims/Localizer/annie-spratt-g9KFpAfQ5bc-unsplash.jpg","235300","0","NaN","","0","1","0","400","0","402","0","","","","","","","","","","","","","","","","","","","","","","","","","","","","","","","","","","","","","","","","","","","","","","","","","","","","",""
"","iti_localizer","","html-keyboard-response","57","236004","0.0-2.0-2.0-1.0","32","21592","female","null","","","","null","","0","","","235702","0","","","","","","300","400","302","402","300","","","","","","","","","","","","","","","","","","","","","","","","","","","","","","","","","","","","","","","","","","","","","","","","","","","",""
"","localizer","","html-keyboard-response","58","236408","0.0-2.0-2.1-0.1","32","21592","female","NaN","","","","null","NaN","0","","Stimuli/Practice_stims/Localizer/annie-spratt-g9KFpAfQ5bc-unsplash.jpg","236004","0","NaN","","0","1","0","400","700","404","704","","","","","","","","","","","","","","","","","","","","","","","","","","","","","","","","","","","","","","","","","","","","","","","","","","","","",""
"","iti_localizer","","html-keyboard-response","59","236712","0.0-2.0-2.1-1.1","32","21592","female","null","","","","null","","0","","","236408","0","","","","","","300","1100","304","1108","300","","","","","","","","","","","","","","","","","","","","","","","","","","","","","","","","","","","","","","","","","","","","","","","","","","","",""
"","localizer","","html-keyboard-response","60","237116","0.0-2.0-2.2-0.2","32","21592","female","12","","","","68","0","0","","Stimuli/Practice_stims/Localizer/annie-spratt-g9KFpAfQ5bc-unsplash.jpg","236712","0","NaN","","0","0","1","400","1400","404","1412","","","","","","","","","","","","","","","","","","","","","","","","","","","","","","","","","","","","","","","","","","","","","","","","","","","","",""
"","iti_localizer","","html-keyboard-response","61","237418","0.0-2.0-2.2-1.2","32","21592","female","null","","","","null","","0","","","237116","0","","","","","","300","1800","302","1816","300","","","","","","","","","","","","","","","","","","","","","","","","","","","","","","","","","","","","","","","","","","","","","","","","","","","",""
"","localizer","","html-keyboard-response","62","237821","0.0-2.0-3.0-0.0","32","21592","female","14","","","","68","0","1","","Stimuli/Practice_stims/Localizer/becca-tapert-sY5RjMB1KkE-unsplash.jpg","237418","0","NaN","","0","0","1","400","2100","403","2118","","","","","","","","","","","","","","","","","","","","","","","","","","","","","","","","","","","","","","","","","","","","","","","","","","","","",""
"","iti_localizer","","html-keyboard-response","63","238123","0.0-2.0-3.0-1.0","32","21592","female","null","","","","null","","1","","","237821","0","","","","","","300","2500","302","2521","300","","","","","","","","","","","","","","","","","","","","","","","","","","","","","","","","","","","","","","","","","","","","","","","","","","","",""
"","localizer","","html-keyboard-response","64","238529","0.0-2.0-4.0-0.0","32","21592","female","NaN","","","","null","NaN","2","","Stimuli/Practice_stims/Localizer/charl-durand-bsfXvI25iNg-unsplash.jpg","238123","0","NaN","","1","1","0","400","2800","406","2823","","","","","","","","","","","","","","","","","","","","","","","","","","","","","","","","","","","","","","","","","","","","","","","","","","","","",""
"","iti_localizer","","html-keyboard-response","65","238832","0.0-2.0-4.0-1.0","32","21592","female","null","","","","null","","2","","","238529","0","","","","","","300","3200","303","3229","300","","","","","","","","","","","","","","","","","","","","","","","","","","","","","","","","","","","","","","","","","","","","","","","","","","","",""
"","localizer","","html-keyboard-response","66","239234","0.0-2.0-4.1-0.1","32","21592","female","400","","","","75","1","2","","Stimuli/Practice_stims/Localizer/charl-durand-bsfXvI25iNg-unsplash.jpg","238832","0","NaN","","1","0","1","400","3500","402","3532","","","","","","","","","","","","","","","","","","","","","","","","","","","","","","","","","","","","","","","","","","","","","","","","","","","","",""
"","iti_localizer","","html-keyboard-response","67","239537","0.0-2.0-4.1-1.1","32","21592","female","null","","","","null","","2","","","239234","0","","","","","","300","3900","303","3934","300","","","","","","","","","","","","","","","","","","","","","","","","","","","","","","","","","","","","","","","","","","","","","","","","","","","",""
"","localizer","","html-keyboard-response","68","239939","0.0-2.0-5.0-0.0","32","21592","female","NaN","","","","null","NaN","3","","Stimuli/Practice_stims/Localizer/nizar-albusaidy-B2r2SWAf5CE-unsplash.jpg","239537","0","NaN","","0","1","0","400","4200","402","4237","","","","","","","","","","","","","","","","","","","","","","","","","","","","","","","","","","","","","","","","","","","","","","","","","","","","",""
"","iti_localizer","","html-keyboard-response","69","240242","0.0-2.0-5.0-1.0","32","21592","female","null","","","","null","","3","","","239939","0","","","","","","300","4600","303","4639","300","","","","","","","","","","","","","","","","","","","","","","","","","","","","","","","","","","","","","","","","","","","","","","","","","","","",""
"","localizer","","html-keyboard-response","70","240644","0.0-2.0-5.1-0.1","32","21592","female","382","","","","68","0","3","","Stimuli/Practice_stims/Localizer/nizar-albusaidy-B2r2SWAf5CE-unsplash.jpg","240242","0","NaN","","0","0","1","400","4900","402","4942","","","","","","","","","","","","","","","","","","","","","","","","","","","","","","","","","","","","","","","","","","","","","","","","","","","","",""
"","iti_localizer","","html-keyboard-response","71","240947","0.0-2.0-5.1-1.1","32","21592","female","null","","","","null","","3","","","240644","0","","","","","","300","5300","303","5344","300","","","","","","","","","","","","","","","","","","","","","","","","","","","","","","","","","","","","","","","","","","","","","","","","","","","",""
"","localizer","","html-keyboard-response","72","241350","0.0-2.0-6.0-0.0","32","21592","female","380","","","","75","1","4","","Stimuli/Practice_stims/Localizer/randy-fath-epf1tdtIIkM-unsplash.jpg","240947","0","NaN","","1","0","1","400","5600","403","5647","","","","","","","","","","","","","","","","","","","","","","","","","","","","","","","","","","","","","","","","","","","","","","","","","","","","",""
"","iti_localizer","","html-keyboard-response","73","241653","0.0-2.0-6.0-1.0","32","21592","female","null","","","","null","","4","","","241350","0","","","","","","300","6000","303","6050","300","","","","","","","","","","","","","","","","","","","","","","","","","","","","","","","","","","","","","","","","","","","","","","","","","","","",""
"","localizer","","html-keyboard-response","74","242055","0.0-2.0-7.0-0.0","32","21592","female","NaN","","","","null","NaN","5","","Stimuli/Practice_stims/Localizer/yassine-khalfalli-adsQ9d_Cx0c-unsplash.jpg","241653","0","NaN","","0","1","0","400","6300","402","6353","","","","","","","","","","","","","","","","","","","","","","","","","","","","","","","","","","","","","","","","","","","","","","","","","","","","",""
"","iti_localizer","","html-keyboard-response","75","242358","0.0-2.0-7.0-1.0","32","21592","female","null","","","","null","","5","","","242055","0","","","","","","300","6700","303","6755","300","","","","","","","","","","","","","","","","","","","","","","","","","","","","","","","","","","","","","","","","","","","","","","","","","","","",""
"","localizer","","html-keyboard-response","76","242760","0.0-2.0-7.1-0.1","32","21592","female","331","","","","68","0","5","","Stimuli/Practice_stims/Localizer/yassine-khalfalli-adsQ9d_Cx0c-unsplash.jpg","242358","0","NaN","","0","0","1","400","7000","402","7058","","","","","","","","","","","","","","","","","","","","","","","","","","","","","","","","","","","","","","","","","","","","","","","","","","","","",""
"","iti_localizer","","html-keyboard-response","77","243062","0.0-2.0-7.1-1.1","32","21592","female","null","","","","null","","5","","","242760","0","","","","","","300","7400","302","7460","300","","","","","","","","","","","","","","","","","","","","","","","","","","","","","","","","","","","","","","","","","","","","","","","","","","","",""
"","practice_over","","html-keyboard-response","78","245276","0.0-2.0-7.1-2.1-0.1","32","21592","female","2213","","","","68","","","","","","","","","","","","","","","","","","","","","","","","","","","","","","","","","","","","","","","","","","","","","","","","","","","","","","","","","","","","","","","","","","","",""
"","start_run","","html-keyboard-response","79","247076","0.0-2.0-7.1-2.1-1.1","32","21592","female","1796","","","","84","","","","","","","","","","","","","","","","","","","","","","","","","","","","","","","","","","","","","","","","","","","","","","","","","","","","","","","","","","","","","","","","","","","",""
"","localizer","","html-keyboard-response","80","247482","0.0-2.0-8.0-0.0","32","21592","female","NaN","","","","null","NaN","6","","Stimuli/Experimental_stims/localizer/faces/christina-wocintechchat-com-0Zx1bDv5BNY-unsplash.jpg","247076","1","faces","","0","1","0","400","0","406","0","","","","","","","","","","","","","","","","","","","","","","","","","","","","","","","","","","","","","","","","","","","","","","","","","","","","",""
"","iti_localizer","","html-keyboard-response","81","247785","0.0-2.0-8.0-1.0","32","21592","female","null","","","","null","","6","","","247482","1","","","","","","300","400","303","406","300","","","","","","","","","","","","","","","","","","","","","","","","","","","","","","","","","","","","","","","","","","","","","","","","","","","",""
"","localizer","","html-keyboard-response","82","248188","0.0-2.0-9.0-0.0","32","21592","female","397","","","","68","0","7","","Stimuli/Experimental_stims/localizer/faces/jeffery-erhunse-BQMZ5ligqps-unsplash.jpg","247785","1","faces","","0","0","1","400","700","403","709","","","","","","","","","","","","","","","","","","","","","","","","","","","","","","","","","","","","","","","","","","","","","","","","","","","","",""
"","iti_localizer","","html-keyboard-response","83","248490","0.0-2.0-9.0-1.0","32","21592","female","null","","","","null","","7","","","248188","1","","","","","","300","1100","302","1112","300","","","","","","","","","","","","","","","","","","","","","","","","","","","","","","","","","","","","","","","","","","","","","","","","","","","",""
"","localizer","","html-keyboard-response","84","248892","0.0-2.0-10.0-0.0","32","21592","female","355","","","","68","0","8","","Stimuli/Experimental_stims/localizer/faces/matheus-ferrero-W7b3eDUb_2I-unsplash.jpg","248490","1","faces","","0","0","1","400","1400","402","1414","","","","","","","","","","","","","","","","","","","","","","","","","","","","","","","","","","","","","","","","","","","","","","","","","","","","",""
"","iti_localizer","","html-keyboard-response","85","249194","0.0-2.0-10.0-1.0","32","21592","female","null","","","","null","","8","","","248892","1","","","","","","300","1800","302","1816","300","","","","","","","","","","","","","","","","","","","","","","","","","","","","","","","","","","","","","","","","","","","","","","","","","","","",""
"","localizer","","html-keyboard-response","86","249599","0.0-2.0-11.0-0.0","32","21592","female","NaN","","","","null","NaN","9","","Stimuli/Experimental_stims/localizer/faces/jurica-koletic-7YVZYZeITc8-unsplash.jpg","249194","1","faces","","1","1","0","400","2100","405","2118","","","","","","","","","","","","","","","","","","","","","","","","","","","","","","","","","","","","","","","","","","","","","","","","","","","","",""
"","iti_localizer","","html-keyboard-response","87","249902","0.0-2.0-11.0-1.0","32","21592","female","null","","","","null","","9","","","249599","1","","","","","","300","2500","303","2523","300","","","","","","","","","","","","","","","","","","","","","","","","","","","","","","","","","","","","","","","","","","","","","","","","","","","",""
"","localizer","","html-keyboard-response","88","250305","0.0-2.0-12.0-0.0","32","21592","female","NaN","","","","null","NaN","10","","Stimuli/Experimental_stims/localizer/faces/drew-hays-agGIKYs4mYs-unsplash.jpg","249902","1","faces","","0","1","0","400","2800","403","2826","","","","","","","","","","","","","","","","","","","","","","","","","","","","","","","","","","","","","","","","","","","","","","","","","","","","",""
"","iti_localizer","","html-keyboard-response","89","250609","0.0-2.0-12.0-1.0","32","21592","female","null","","","","null","","10","","","250305","1","","","","","","300","3200","304","3229","300","","","","","","","","","","","","","","","","","","","","","","","","","","","","","","","","","","","","","","","","","","","","","","","","","","","",""
"","localizer","","html-keyboard-response","90","251013","0.0-2.0-13.0-0.0","32","21592","female","NaN","","","","null","NaN","11","","Stimuli/Experimental_stims/localizer/faces/rui-silvestre-hAMJpesMeDE-unsplash.jpg","250609","1","faces","","0","1","0","400","3500","404","3533","","","","","","","","","","","","","","","","","","","","","","","","","","","","","","","","","","","","","","","","","","","","","","","","","","","","",""
"","iti_localizer","","html-keyboard-response","91","251317","0.0-2.0-13.0-1.0","32","21592","female","null","","","","null","","11","","","251013","1","","","","","","300","3900","304","3937","300","","","","","","","","","","","","","","","","","","","","","","","","","","","","","","","","","","","","","","","","","","","","","","","","","","","",""
"","localizer","","html-keyboard-response","92","251728","0.0-2.0-14.0-0.0","32","21592","female","NaN","","","","null","NaN","12","","Stimuli/Experimental_stims/localizer/faces/sean-kong--1B_y4wGs-s-unsplash.jpg","251317","1","faces","","0","1","0","400","4200","411","4241","","","","","","","","","","","","","","","","","","","","","","","","","","","","","","","","","","","","","","","","","","","","","","","","","","","","",""
"","iti_localizer","","html-keyboard-response","93","252031","0.0-2.0-14.0-1.0","32","21592","female","null","","","","null","","12","","","251728","1","","","","","","300","4600","303","4652","300","","","","","","","","","","","","","","","","","","","","","","","","","","","","","","","","","","","","","","","","","","","","","","","","","","","",""
"","localizer","","html-keyboard-response","94","252433","0.0-2.0-15.0-0.0","32","21592","female","339","","","","68","0","13","","Stimuli/Experimental_stims/localizer/faces/vince-fleming-j3lf-Jn6deo-unsplash.jpg","252031","1","faces","","0","0","1","400","4900","402","4955","","","","","","","","","","","","","","","","","","","","","","","","","","","","","","","","","","","","","","","","","","","","","","","","","","","","",""
"","iti_localizer","","html-keyboard-response","95","252735","0.0-2.0-15.0-1.0","32","21592","female","null","","","","null","","13","","","252433","1","","","","","","300","5300","302","5357","300","","","","","","","","","","","","","","","","","","","","","","","","","","","","","","","","","","","","","","","","","","","","","","","","","","","",""
"","localizer","","html-keyboard-response","96","253137","0.0-2.0-16.0-0.0","32","21592","female","345","","","","68","0","14","","Stimuli/Experimental_stims/localizer/faces/tyler-nix-ZGa9d1a_4tA-unsplash.jpg","252735","1","faces","","0","0","1","400","5600","402","5659","","","","","","","","","","","","","","","","","","","","","","","","","","","","","","","","","","","","","","","","","","","","","","","","","","","","",""
"","iti_localizer","","html-keyboard-response","97","253440","0.0-2.0-16.0-1.0","32","21592","female","null","","","","null","","14","","","253137","1","","","","","","300","6000","303","6061","300","","","","","","","","","","","","","","","","","","","","","","","","","","","","","","","","","","","","","","","","","","","","","","","","","","","",""
"","localizer","","html-keyboard-response","98","253841","0.0-2.0-17.0-0.0","32","21592","female","391","","","","68","0","15","","Stimuli/Experimental_stims/localizer/faces/abstral-official-cyOKLSgkgCE-unsplash.jpg","253440","1","faces","","0","0","1","400","6300","401","6364","","","","","","","","","","","","","","","","","","","","","","","","","","","","","","","","","","","","","","","","","","","","","","","","","","","","",""
"","iti_localizer","","html-keyboard-response","99","254143","0.0-2.0-17.0-1.0","32","21592","female","null","","","","null","","15","","","253841","1","","","","","","300","6700","302","6765","300","","","","","","","","","","","","","","","","","","","","","","","","","","","","","","","","","","","","","","","","","","","","","","","","","","","",""
"","localizer","","html-keyboard-response","100","254545","0.0-2.0-18.0-0.0","32","21592","female","366","","","","68","0","16","","Stimuli/Experimental_stims/localizer/faces/ethan-haddox-__ng3cRXmFE-unsplash.jpg","254143","1","faces","","0","0","1","400","7000","402","7067","","","","","","","","","","","","","","","","","","","","","","","","","","","","","","","","","","","","","","","","","","","","","","","","","","","","",""
"","iti_localizer","","html-keyboard-response","101","254847","0.0-2.0-18.0-1.0","32","21592","female","null","","","","null","","16","","","254545","1","","","","","","300","7400","302","7469","300","","","","","","","","","","","","","","","","","","","","","","","","","","","","","","","","","","","","","","","","","","","","","","","","","","","",""
"","localizer","","html-keyboard-response","102","255252","0.0-2.0-19.0-0.0","32","21592","female","364","","","","68","0","17","","Stimuli/Experimental_stims/localizer/faces/foto-sushi-6anudmpILw4-unsplash.jpg","254847","1","faces","","0","0","1","400","7700","405","7771","","","","","","","","","","","","","","","","","","","","","","","","","","","","","","","","","","","","","","","","","","","","","","","","","","","","",""
"","iti_localizer","","html-keyboard-response","103","255555","0.0-2.0-19.0-1.0","32","21592","female","null","","","","null","","17","","","255252","1","","","","","","300","8100","303","8176","300","","","","","","","","","","","","","","","","","","","","","","","","","","","","","","","","","","","","","","","","","","","","","","","","","","","",""
"","localizer","","html-keyboard-response","104","255957","0.0-2.0-20.0-0.0","32","21592","female","358","","","","68","0","18","","Stimuli/Experimental_stims/localizer/faces/christian-ferrer-8vT-DgHZDG4-unsplash.jpg","255555","1","faces","","0","0","1","400","8400","402","8479","","","","","","","","","","","","","","","","","","","","","","","","","","","","","","","","","","","","","","","","","","","","","","","","","","","","",""
"","iti_localizer","","html-keyboard-response","105","256259","0.0-2.0-20.0-1.0","32","21592","female","null","","","","null","","18","","","255957","1","","","","","","300","8800","302","8881","300","","","","","","","","","","","","","","","","","","","","","","","","","","","","","","","","","","","","","","","","","","","","","","","","","","","",""
"","localizer","","html-keyboard-response","106","256663","0.0-2.0-21.0-0.0","32","21592","female","353","","","","68","0","19","","Stimuli/Experimental_stims/localizer/faces/stephanie-nakagawa-ADSKIn0ScDg-unsplash.jpg","256259","1","faces","","0","0","1","400","9100","404","9183","","","","","","","","","","","","","","","","","","","","","","","","","","","","","","","","","","","","","","","","","","","","","","","","","","","","",""
"","iti_localizer","","html-keyboard-response","107","256965","0.0-2.0-21.0-1.0","32","21592","female","null","","","","null","","19","","","256663","1","","","","","","300","9500","302","9587","300","","","","","","","","","","","","","","","","","","","","","","","","","","","","","","","","","","","","","","","","","","","","","","","","","","","",""
"","localizer","","html-keyboard-response","108","257368","0.0-2.0-22.0-0.0","32","21592","female","NaN","","","","null","NaN","20","","Stimuli/Experimental_stims/localizer/faces/toa-heftiba-2O1EUSTRBrY-unsplash.jpg","256965","1","faces","","1","1","0","400","9800","403","9889","","","","","","","","","","","","","","","","","","","","","","","","","","","","","","","","","","","","","","","","","","","","","","","","","","","","",""
"","iti_localizer","","html-keyboard-response","109","257671","0.0-2.0-22.0-1.0","32","21592","female","null","","","","null","","20","","","257368","1","","","","","","300","10200","303","10292","300","","","","","","","","","","","","","","","","","","","","","","","","","","","","","","","","","","","","","","","","","","","","","","","","","","","",""
"","localizer","","html-keyboard-response","110","258076","0.0-2.0-23.0-0.0","32","21592","female","NaN","","","","null","NaN","21","","Stimuli/Experimental_stims/localizer/faces/darshan-patel-QJEVpydulGs-unsplash.jpg","257671","1","faces","","0","1","0","400","10500","405","10595","","","","","","","","","","","","","","","","","","","","","","","","","","","","","","","","","","","","","","","","","","","","","","","","","","","","",""
"","iti_localizer","","html-keyboard-response","111","258378","0.0-2.0-23.0-1.0","32","21592","female","null","","","","null","","21","","","258076","1","","","","","","300","10900","302","11000","300","","","","","","","","","","","","","","","","","","","","","","","","","","","","","","","","","","","","","","","","","","","","","","","","","","","",""
"","localizer","","html-keyboard-response","112","258781","0.0-2.0-24.0-0.0","32","21592","female","NaN","","","","null","NaN","22","","Stimuli/Experimental_stims/localizer/faces/mubariz-mehdizadeh-o-wlIFT4zE4-unsplash.jpg","258378","1","faces","","0","1","0","400","11200","403","11302","","","","","","","","","","","","","","","","","","","","","","","","","","","","","","","","","","","","","","","","","","","","","","","","","","","","",""
"","iti_localizer","","html-keyboard-response","113","259083","0.0-2.0-24.0-1.0","32","21592","female","null","","","","null","","22","","","258781","1","","","","","","300","11600","302","11705","300","","","","","","","","","","","","","","","","","","","","","","","","","","","","","","","","","","","","","","","","","","","","","","","","","","","",""
"","localizer","","html-keyboard-response","114","259485","0.0-2.0-25.0-0.0","32","21592","female","NaN","","","","null","NaN","23","","Stimuli/Experimental_stims/localizer/faces/midas-hofstra-tidSLv-UaNs-unsplash.jpg","259083","1","faces","","0","1","0","400","11900","402","12007","","","","","","","","","","","","","","","","","","","","","","","","","","","","","","","","","","","","","","","","","","","","","","","","","","","","",""
"","iti_localizer","","html-keyboard-response","115","259787","0.0-2.0-25.0-1.0","32","21592","female","null","","","","null","","23","","","259485","1","","","","","","300","12300","302","12409","300","","","","","","","","","","","","","","","","","","","","","","","","","","","","","","","","","","","","","","","","","","","","","","","","","","","",""
"","localizer","","html-keyboard-response","116","260189","0.0-2.0-26.0-0.0","32","21592","female","380","","","","68","0","24","","Stimuli/Experimental_stims/localizer/faces/toa-heftiba-O3ymvT7Wf9U-unsplash.jpg","259787","1","faces","","0","0","1","400","12600","402","12711","","","","","","","","","","","","","","","","","","","","","","","","","","","","","","","","","","","","","","","","","","","","","","","","","","","","",""
"","iti_localizer","","html-keyboard-response","117","260494","0.0-2.0-26.0-1.0","32","21592","female","null","","","","null","","24","","","260189","1","","","","","","300","13000","305","13113","300","","","","","","","","","","","","","","","","","","","","","","","","","","","","","","","","","","","","","","","","","","","","","","","","","","","",""
"","localizer","","html-keyboard-response","118","260897","0.0-2.0-27.0-0.0","32","21592","female","NaN","","","","null","NaN","25","","Stimuli/Experimental_stims/localizer/faces/katsiaryna-endruszkiewicz-BteCp6aq4GI-unsplash.jpg","260494","1","faces","","0","1","0","400","13300","403","13418","","","","","","","","","","","","","","","","","","","","","","","","","","","","","","","","","","","","","","","","","","","","","","","","","","","","",""
"","iti_localizer","","html-keyboard-response","119","274900","0.0-2.0-27.0-1.0","32","21592","female","null","","","","null","","25","","","260897","1","","","","","","14000","13700","14003","13821","14000","","","","","","","","","","","","","","","","","","","","","","","","","","","","","","","","","","","","","","","","","","","","","","","","","","","",""
"","localizer","","html-keyboard-response","120","275302","0.0-2.0-28.0-0.0","32","21592","female","NaN","","","","null","NaN","26","","Stimuli/Experimental_stims/localizer/outdoor_scenes/jaanus-jagomagi-FddgewYQF2M-unsplash.jpg","274900","1","outdoor_scenes","","0","1","0","400","27700","402","27824","","","","","","","","","","","","","","","","","","","","","","","","","","","","","","","","","","","","","","","","","","","","","","","","","","","","",""
"","iti_localizer","","html-keyboard-response","121","275604","0.0-2.0-28.0-1.0","32","21592","female","null","","","","null","","26","","","275302","1","","","","","","300","28100","302","28226","300","","","","","","","","","","","","","","","","","","","","","","","","","","","","","","","","","","","","","","","","","","","","","","","","","","","",""
"","localizer","","html-keyboard-response","122","276008","0.0-2.0-29.0-0.0","32","21592","female","NaN","","","","null","NaN","27","","Stimuli/Experimental_stims/localizer/outdoor_scenes/v2osk-1Z2niiBPg5A-unsplash.jpg","275604","1","outdoor_scenes","","1","1","0","400","28400","404","28528","","","","","","","","","","","","","","","","","","","","","","","","","","","","","","","","","","","","","","","","","","","","","","","","","","","","",""
"","iti_localizer","","html-keyboard-response","123","276311","0.0-2.0-29.0-1.0","32","21592","female","null","","","","null","","27","","","276008","1","","","","","","300","28800","303","28932","300","","","","","","","","","","","","","","","","","","","","","","","","","","","","","","","","","","","","","","","","","","","","","","","","","","","",""
"","localizer","","html-keyboard-response","124","276713","0.0-2.0-30.0-0.0","32","21592","female","NaN","","","","null","NaN","28","","Stimuli/Experimental_stims/localizer/outdoor_scenes/wai-siew-mTFyV8oNDzU-unsplash.jpg","276311","1","outdoor_scenes","","0","1","0","400","29100","402","29235","","","","","","","","","","","","","","","","","","","","","","","","","","","","","","","","","","","","","","","","","","","","","","","","","","","","",""
"","iti_localizer","","html-keyboard-response","125","277015","0.0-2.0-30.0-1.0","32","21592","female","null","","","","null","","28","","","276713","1","","","","","","300","29500","302","29637","300","","","","","","","","","","","","","","","","","","","","","","","","","","","","","","","","","","","","","","","","","","","","","","","","","","","",""
"","localizer","","html-keyboard-response","126","277418","0.0-2.0-31.0-0.0","32","21592","female","NaN","","","","null","NaN","29","","Stimuli/Experimental_stims/localizer/outdoor_scenes/jay-cai-F_laX9E8CUo-unsplash.jpg","277015","1","outdoor_scenes","","0","1","0","400","29800","403","29939","","","","","","","","","","","","","","","","","","","","","","","","","","","","","","","","","","","","","","","","","","","","","","","","","","","","",""
"","iti_localizer","","html-keyboard-response","127","277720","0.0-2.0-31.0-1.0","32","21592","female","null","","","","null","","29","","","277418","1","","","","","","300","30200","302","30342","300","","","","","","","","","","","","","","","","","","","","","","","","","","","","","","","","","","","","","","","","","","","","","","","","","","","",""
"","localizer","","html-keyboard-response","128","278123","0.0-2.0-32.0-0.0","32","21592","female","354","","","","68","0","30","","Stimuli/Experimental_stims/localizer/outdoor_scenes/jeremy-cai-ucYWe5mzTMU-unsplash.jpg","277720","1","outdoor_scenes","","0","0","1","400","30500","403","30644","","","","","","","","","","","","","","","","","","","","","","","","","","","","","","","","","","","","","","","","","","","","","","","","","","","","",""
"","iti_localizer","","html-keyboard-response","129","278425","0.0-2.0-32.0-1.0","32","21592","female","null","","","","null","","30","","","278123","1","","","","","","300","30900","302","31047","300","","","","","","","","","","","","","","","","","","","","","","","","","","","","","","","","","","","","","","","","","","","","","","","","","","","",""
"","localizer","","html-keyboard-response","130","278827","0.0-2.0-33.0-0.0","32","21592","female","352","","","","68","0","31","","Stimuli/Experimental_stims/localizer/outdoor_scenes/erol-ahmed-d3pTF3r_hwY-unsplash.jpg","278425","1","outdoor_scenes","","0","0","1","400","31200","402","31349","","","","","","","","","","","","","","","","","","","","","","","","","","","","","","","","","","","","","","","","","","","","","","","","","","","","",""
"","iti_localizer","","html-keyboard-response","131","279130","0.0-2.0-33.0-1.0","32","21592","female","null","","","","null","","31","","","278827","1","","","","","","300","31600","303","31751","300","","","","","","","","","","","","","","","","","","","","","","","","","","","","","","","","","","","","","","","","","","","","","","","","","","","",""
"","localizer","","html-keyboard-response","132","279532","0.0-2.0-34.0-0.0","32","21592","female","367","","","","68","0","32","","Stimuli/Experimental_stims/localizer/outdoor_scenes/quino-al-vmZ2DehWQ3Q-unsplash.jpg","279130","1","outdoor_scenes","","0","0","1","400","31900","402","32054","","","","","","","","","","","","","","","","","","","","","","","","","","","","","","","","","","","","","","","","","","","","","","","","","","","","",""
"","iti_localizer","","html-keyboard-response","133","279834","0.0-2.0-34.0-1.0","32","21592","female","null","","","","null","","32","","","279532","1","","","","","","300","32300","302","32456","300","","","","","","","","","","","","","","","","","","","","","","","","","","","","","","","","","","","","","","","","","","","","","","","","","","","",""
"","localizer","","html-keyboard-response","134","280236","0.0-2.0-35.0-0.0","32","21592","female","352","","","","68","0","33","","Stimuli/Experimental_stims/localizer/outdoor_scenes/kenneth-thewissen-D76DklsG-5U-unsplash.jpg","279834","1","outdoor_scenes","","0","0","1","400","32600","402","32758","","","","","","","","","","","","","","","","","","","","","","","","","","","","","","","","","","","","","","","","","","","","","","","","","","","","",""
"","iti_localizer","","html-keyboard-response","135","280539","0.0-2.0-35.0-1.0","32","21592","female","null","","","","null","","33","","","280236","1","","","","","","300","33000","303","33160","300","","","","","","","","","","","","","","","","","","","","","","","","","","","","","","","","","","","","","","","","","","","","","","","","","","","",""
"","localizer","","html-keyboard-response","136","280941","0.0-2.0-36.0-0.0","32","21592","female","356","","","","68","0","34","","Stimuli/Experimental_stims/localizer/outdoor_scenes/johny-goerend-U_diPCXCBxU-unsplash.jpg","280539","1","outdoor_scenes","","0","0","1","400","33300","402","33463","","","","","","","","","","","","","","","","","","","","","","","","","","","","","","","","","","","","","","","","","","","","","","","","","","","","",""
"","iti_localizer","","html-keyboard-response","137","281244","0.0-2.0-36.0-1.0","32","21592","female","null","","","","null","","34","","","280941","1","","","","","","300","33700","303","33865","300","","","","","","","","","","","","","","","","","","","","","","","","","","","","","","","","","","","","","","","","","","","","","","","","","","","",""
"","localizer","","html-keyboard-response","138","281648","0.0-2.0-37.0-0.0","32","21592","female","328","","","","68","0","35","","Stimuli/Experimental_stims/localizer/outdoor_scenes/ken-cheung-KonWFWUaAuk-unsplash.jpg","281244","1","outdoor_scenes","","0","0","1","400","34000","404","34168","","","","","","","","","","","","","","","","","","","","","","","","","","","","","","","","","","","","","","","","","","","","","","","","","","","","",""
"","iti_localizer","","html-keyboard-response","139","281951","0.0-2.0-37.0-1.0","32","21592","female","null","","","","null","","35","","","281648","1","","","","","","300","34400","303","34572","300","","","","","","","","","","","","","","","","","","","","","","","","","","","","","","","","","","","","","","","","","","","","","","","","","","","",""
"","localizer","","html-keyboard-response","140","282353","0.0-2.0-38.0-0.0","32","21592","female","350","","","","68","0","36","","Stimuli/Experimental_stims/localizer/outdoor_scenes/alessio-furlan-Vw3a0HgE7AM-unsplash.jpg","281951","1","outdoor_scenes","","0","0","1","400","34700","402","34875","","","","","","","","","","","","","","","","","","","","","","","","","","","","","","","","","","","","","","","","","","","","","","","","","","","","",""
"","iti_localizer","","html-keyboard-response","141","282657","0.0-2.0-38.0-1.0","32","21592","female","null","","","","null","","36","","","282353","1","","","","","","300","35100","304","35277","300","","","","","","","","","","","","","","","","","","","","","","","","","","","","","","","","","","","","","","","","","","","","","","","","","","","",""
"","localizer","","html-keyboard-response","142","283060","0.0-2.0-39.0-0.0","32","21592","female","339","","","","68","0","37","","Stimuli/Experimental_stims/localizer/outdoor_scenes/ricardo-gomez-angel-dTSaC-S-7fs-unsplash.jpg","282657","1","outdoor_scenes","","0","0","1","400","35400","403","35581","","","","","","","","","","","","","","","","","","","","","","","","","","","","","","","","","","","","","","","","","","","","","","","","","","","","",""
"","iti_localizer","","html-keyboard-response","143","283363","0.0-2.0-39.0-1.0","32","21592","female","null","","","","null","","37","","","283060","1","","","","","","300","35800","303","35984","300","","","","","","","","","","","","","","","","","","","","","","","","","","","","","","","","","","","","","","","","","","","","","","","","","","","",""
"","localizer","","html-keyboard-response","144","283766","0.0-2.0-40.0-0.0","32","21592","female","336","","","","68","0","38","","Stimuli/Experimental_stims/localizer/outdoor_scenes/samuel-ferrara-IEHPDNk2-8w-unsplash.jpg","283363","1","outdoor_scenes","","0","0","1","400","36100","403","36287","","","","","","","","","","","","","","","","","","","","","","","","","","","","","","","","","","","","","","","","","","","","","","","","","","","","",""
"","iti_localizer","","html-keyboard-response","145","284068","0.0-2.0-40.0-1.0","32","21592","female","null","","","","null","","38","","","283766","1","","","","","","300","36500","302","36690","300","","","","","","","","","","","","","","","","","","","","","","","","","","","","","","","","","","","","","","","","","","","","","","","","","","","",""
"","localizer","","html-keyboard-response","146","284470","0.0-2.0-41.0-0.0","32","21592","female","349","","","","68","0","39","","Stimuli/Experimental_stims/localizer/outdoor_scenes/pietro-de-grandi-T7K4aEPoGGk-unsplash.jpg","284068","1","outdoor_scenes","","0","0","1","400","36800","402","36992","","","","","","","","","","","","","","","","","","","","","","","","","","","","","","","","","","","","","","","","","","","","","","","","","","","","",""
"","iti_localizer","","html-keyboard-response","147","284773","0.0-2.0-41.0-1.0","32","21592","female","null","","","","null","","39","","","284470","1","","","","","","300","37200","303","37394","300","","","","","","","","","","","","","","","","","","","","","","","","","","","","","","","","","","","","","","","","","","","","","","","","","","","",""
"","localizer","","html-keyboard-response","148","285175","0.0-2.0-42.0-0.0","32","21592","female","300","","","","68","0","40","","Stimuli/Experimental_stims/localizer/outdoor_scenes/tomasz-filipek-CUWC-6MRcNg-unsplash.jpg","284773","1","outdoor_scenes","","0","0","1","400","37500","402","37697","","","","","","","","","","","","","","","","","","","","","","","","","","","","","","","","","","","","","","","","","","","","","","","","","","","","",""
"","iti_localizer","","html-keyboard-response","149","285478","0.0-2.0-42.0-1.0","32","21592","female","null","","","","null","","40","","","285175","1","","","","","","300","37900","303","38099","300","","","","","","","","","","","","","","","","","","","","","","","","","","","","","","","","","","","","","","","","","","","","","","","","","","","",""
"","localizer","","html-keyboard-response","150","285880","0.0-2.0-43.0-0.0","32","21592","female","367","","","","68","0","41","","Stimuli/Experimental_stims/localizer/outdoor_scenes/cayetano-gil-rguHxZmOF5U-unsplash.jpg","285478","1","outdoor_scenes","","0","0","1","400","38200","402","38402","","","","","","","","","","","","","","","","","","","","","","","","","","","","","","","","","","","","","","","","","","","","","","","","","","","","",""
"","iti_localizer","","html-keyboard-response","151","286183","0.0-2.0-43.0-1.0","32","21592","female","null","","","","null","","41","","","285880","1","","","","","","300","38600","303","38804","300","","","","","","","","","","","","","","","","","","","","","","","","","","","","","","","","","","","","","","","","","","","","","","","","","","","",""
"","localizer","","html-keyboard-response","152","286584","0.0-2.0-44.0-0.0","32","21592","female","355","","","","68","0","42","","Stimuli/Experimental_stims/localizer/outdoor_scenes/nikola-majksner-hXNGeAFOgT4-unsplash.jpg","286183","1","outdoor_scenes","","0","0","1","400","38900","401","39107","","","","","","","","","","","","","","","","","","","","","","","","","","","","","","","","","","","","","","","","","","","","","","","","","","","","",""
"","iti_localizer","","html-keyboard-response","153","286887","0.0-2.0-44.0-1.0","32","21592","female","null","","","","null","","42","","","286584","1","","","","","","300","39300","303","39508","300","","","","","","","","","","","","","","","","","","","","","","","","","","","","","","","","","","","","","","","","","","","","","","","","","","","",""
"","localizer","","html-keyboard-response","154","287290","0.0-2.0-45.0-0.0","32","21592","female","394","","","","75","1","43","","Stimuli/Experimental_stims/localizer/outdoor_scenes/wil-stewart-pHANr-CpbYM-unsplash.jpg","286887","1","outdoor_scenes","","1","0","1","400","39600","403","39811","","","","","","","","","","","","","","","","","","","","","","","","","","","","","","","","","","","","","","","","","","","","","","","","","","","","",""
"","iti_localizer","","html-keyboard-response","155","287594","0.0-2.0-45.0-1.0","32","21592","female","null","","","","null","","43","","","287290","1","","","","","","300","40000","304","40214","300","","","","","","","","","","","","","","","","","","","","","","","","","","","","","","","","","","","","","","","","","","","","","","","","","","","",""
"","localizer","","html-keyboard-response","156","287999","0.0-2.0-46.0-0.0","32","21592","female","323","","","","68","0","44","","Stimuli/Experimental_stims/localizer/outdoor_scenes/chang-qing-2YQoKbyGvDc-unsplash.jpg","287594","1","outdoor_scenes","","0","0","1","400","40300","405","40518","","","","","","","","","","","","","","","","","","","","","","","","","","","","","","","","","","","","","","","","","","","","","","","","","","","","",""
"","iti_localizer","","html-keyboard-response","157","288300","0.0-2.0-46.0-1.0","32","21592","female","null","","","","null","","44","","","287999","1","","","","","","300","40700","301","40923","300","","","","","","","","","","","","","","","","","","","","","","","","","","","","","","","","","","","","","","","","","","","","","","","","","","","",""
"","localizer","","html-keyboard-response","158","288706","0.0-2.0-47.0-0.0","32","21592","female","NaN","","","","null","NaN","45","","Stimuli/Experimental_stims/localizer/outdoor_scenes/solotravelgoals-7kLufxYoqWk-unsplash.jpg","288300","1","outdoor_scenes","","0","1","0","400","41000","406","41224","","","","","","","","","","","","","","","","","","","","","","","","","","","","","","","","","","","","","","","","","","","","","","","","","","","","",""
"","iti_localizer","","html-keyboard-response","159","302712","0.0-2.0-47.0-1.0","32","21592","female","null","","","","null","","45","","","288706","1","","","","","","14000","41400","14006","41630","14000","","","","","","","","","","","","","","","","","","","","","","","","","","","","","","","","","","","","","","","","","","","","","","","","","","","",""
"","localizer","","html-keyboard-response","160","303117","0.0-2.0-48.0-0.0","32","21592","female","NaN","","","","null","NaN","46","","Stimuli/Experimental_stims/localizer/body_parts/jeremy-bishop-mLd3hAaH2ns-unsplash.jpg","302712","1","body_parts","","0","1","0","400","55400","405","55636","","","","","","","","","","","","","","","","","","","","","","","","","","","","","","","","","","","","","","","","","","","","","","","","","","","","",""
"","iti_localizer","","html-keyboard-response","161","303419","0.0-2.0-48.0-1.0","32","21592","female","null","","","","null","","46","","","303117","1","","","","","","300","55800","302","56041","300","","","","","","","","","","","","","","","","","","","","","","","","","","","","","","","","","","","","","","","","","","","","","","","","","","","",""
"","localizer","","html-keyboard-response","162","303822","0.0-2.0-49.0-0.0","32","21592","female","345","","","","68","0","47","","Stimuli/Experimental_stims/localizer/body_parts/lilartsy-1KkhQ8uL28g-unsplash.jpg","303419","1","body_parts","","0","0","1","400","56100","403","56343","","","","","","","","","","","","","","","","","","","","","","","","","","","","","","","","","","","","","","","","","","","","","","","","","","","","",""
"","iti_localizer","","html-keyboard-response","163","304125","0.0-2.0-49.0-1.0","32","21592","female","null","","","","null","","47","","","303822","1","","","","","","300","56500","303","56746","300","","","","","","","","","","","","","","","","","","","","","","","","","","","","","","","","","","","","","","","","","","","","","","","","","","","",""
"","localizer","","html-keyboard-response","164","304528","0.0-2.0-50.0-0.0","32","21592","female","371","","","","68","0","48","","Stimuli/Experimental_stims/localizer/body_parts/toa-heftiba-qxvWnfHb3-M-unsplash.jpg","304125","1","body_parts","","0","0","1","400","56800","403","57049","","","","","","","","","","","","","","","","","","","","","","","","","","","","","","","","","","","","","","","","","","","","","","","","","","","","",""
"","iti_localizer","","html-keyboard-response","165","304833","0.0-2.0-50.0-1.0","32","21592","female","null","","","","null","","48","","","304528","1","","","","","","300","57200","305","57452","300","","","","","","","","","","","","","","","","","","","","","","","","","","","","","","","","","","","","","","","","","","","","","","","","","","","",""
"","localizer","","html-keyboard-response","166","305236","0.0-2.0-51.0-0.0","32","21592","female","396","","","","75","1","49","","Stimuli/Experimental_stims/localizer/body_parts/callum-skelton-3KLMq7y46nA-unsplash.jpg","304833","1","body_parts","","1","0","1","400","57500","403","57757","","","","","","","","","","","","","","","","","","","","","","","","","","","","","","","","","","","","","","","","","","","","","","","","","","","","",""
"","iti_localizer","","html-keyboard-response","167","305539","0.0-2.0-51.0-1.0","32","21592","female","null","","","","null","","49","","","305236","1","","","","","","300","57900","303","58160","300","","","","","","","","","","","","","","","","","","","","","","","","","","","","","","","","","","","","","","","","","","","","","","","","","","","",""
"","localizer","","html-keyboard-response","168","305942","0.0-2.0-52.0-0.0","32","21592","female","NaN","","","","null","NaN","50","","Stimuli/Experimental_stims/localizer/body_parts/ant-rozetsky-bXQd8JXx0vs-unsplash.jpg","305539","1","body_parts","","0","1","0","400","58200","403","58463","","","","","","","","","","","","","","","","","","","","","","","","","","","","","","","","","","","","","","","","","","","","","","","","","","","","",""
"","iti_localizer","","html-keyboard-response","169","306244","0.0-2.0-52.0-1.0","32","21592","female","null","","","","null","","50","","","305942","1","","","","","","300","58600","302","58866","300","","","","","","","","","","","","","","","","","","","","","","","","","","","","","","","","","","","","","","","","","","","","","","","","","","","",""
"","localizer","","html-keyboard-response","170","306648","0.0-2.0-53.0-0.0","32","21592","female","371","","","","68","0","51","","Stimuli/Experimental_stims/localizer/body_parts/boyd-christiansen-uVj7kewrZ-o-unsplash.jpg","306244","1","body_parts","","0","0","1","400","58900","404","59168","","","","","","","","","","","","","","","","","","","","","","","","","","","","","","","","","","","","","","","","","","","","","","","","","","","","",""
"","iti_localizer","","html-keyboard-response","171","306951","0.0-2.0-53.0-1.0","32","21592","female","null","","","","null","","51","","","306648","1","","","","","","300","59300","303","59572","300","","","","","","","","","","","","","","","","","","","","","","","","","","","","","","","","","","","","","","","","","","","","","","","","","","","",""
"","localizer","","html-keyboard-response","172","307353","0.0-2.0-54.0-0.0","32","21592","female","320","","","","68","0","52","","Stimuli/Experimental_stims/localizer/body_parts/helen-ast-l2iY5Sh0mTg-unsplash.jpg","306951","1","body_parts","","0","0","1","400","59600","402","59875","","","","","","","","","","","","","","","","","","","","","","","","","","","","","","","","","","","","","","","","","","","","","","","","","","","","",""
"","iti_localizer","","html-keyboard-response","173","307657","0.0-2.0-54.0-1.0","32","21592","female","null","","","","null","","52","","","307353","1","","","","","","300","60000","304","60277","300","","","","","","","","","","","","","","","","","","","","","","","","","","","","","","","","","","","","","","","","","","","","","","","","","","","",""
"","localizer","","html-keyboard-response","174","308060","0.0-2.0-55.0-0.0","32","21592","female","323","","","","68","0","53","","Stimuli/Experimental_stims/localizer/body_parts/pure-julia-E9Q4bqYHtIM-unsplash.jpg","307657","1","body_parts","","0","0","1","400","60300","403","60581","","","","","","","","","","","","","","","","","","","","","","","","","","","","","","","","","","","","","","","","","","","","","","","","","","","","",""
"","iti_localizer","","html-keyboard-response","175","308363","0.0-2.0-55.0-1.0","32","21592","female","null","","","","null","","53","","","308060","1","","","","","","300","60700","303","60984","300","","","","","","","","","","","","","","","","","","","","","","","","","","","","","","","","","","","","","","","","","","","","","","","","","","","",""
"","localizer","","html-keyboard-response","176","308777","0.0-2.0-56.0-0.0","32","21592","female","334","","","","68","0","54","","Stimuli/Experimental_stims/localizer/body_parts/sina-rezakhani-d1gQi0Jl05U-unsplash (1).jpg","308363","1","body_parts","","0","0","1","400","61000","414","61287","","","","","","","","","","","","","","","","","","","","","","","","","","","","","","","","","","","","","","","","","","","","","","","","","","","","",""
"","iti_localizer","","html-keyboard-response","177","309082","0.0-2.0-56.0-1.0","32","21592","female","null","","","","null","","54","","","308777","1","","","","","","300","61400","305","61701","300","","","","","","","","","","","","","","","","","","","","","","","","","","","","","","","","","","","","","","","","","","","","","","","","","","","",""
"","localizer","","html-keyboard-response","178","309487","0.0-2.0-57.0-0.0","32","21592","female","365","","","","68","0","55","","Stimuli/Experimental_stims/localizer/body_parts/megan-menegay-UojxG_BJxnI-unsplash.jpg","309082","1","body_parts","","0","0","1","400","61700","405","62006","","","","","","","","","","","","","","","","","","","","","","","","","","","","","","","","","","","","","","","","","","","","","","","","","","","","",""
"","iti_localizer","","html-keyboard-response","179","309790","0.0-2.0-57.0-1.0","32","21592","female","null","","","","null","","55","","","309487","1","","","","","","300","62100","303","62411","300","","","","","","","","","","","","","","","","","","","","","","","","","","","","","","","","","","","","","","","","","","","","","","","","","","","",""
"","localizer","","html-keyboard-response","180","310191","0.0-2.0-58.0-0.0","32","21592","female","347","","","","68","0","56","","Stimuli/Experimental_stims/localizer/body_parts/sincerely-media-7TBFwUQA6Xk-unsplash.jpg","309790","1","body_parts","","0","0","1","400","62400","401","62714","","","","","","","","","","","","","","","","","","","","","","","","","","","","","","","","","","","","","","","","","","","","","","","","","","","","",""
"","iti_localizer","","html-keyboard-response","181","310494","0.0-2.0-58.0-1.0","32","21592","female","null","","","","null","","56","","","310191","1","","","","","","300","62800","303","63115","300","","","","","","","","","","","","","","","","","","","","","","","","","","","","","","","","","","","","","","","","","","","","","","","","","","","",""
"","localizer","","html-keyboard-response","182","310897","0.0-2.0-59.0-0.0","32","21592","female","311","","","","68","0","57","","Stimuli/Experimental_stims/localizer/body_parts/sincerely-media-pdynOoM7xmA-unsplash.jpg","310494","1","body_parts","","0","0","1","400","63100","403","63418","","","","","","","","","","","","","","","","","","","","","","","","","","","","","","","","","","","","","","","","","","","","","","","","","","","","",""
"","iti_localizer","","html-keyboard-response","183","311199","0.0-2.0-59.0-1.0","32","21592","female","null","","","","null","","57","","","310897","1","","","","","","300","63500","302","63821","300","","","","","","","","","","","","","","","","","","","","","","","","","","","","","","","","","","","","","","","","","","","","","","","","","","","",""
"","localizer","","html-keyboard-response","184","311601","0.0-2.0-60.0-0.0","32","21592","female","344","","","","68","0","58","","Stimuli/Experimental_stims/localizer/body_parts/adrien-king-XzBluXxBoyQ-unsplash.jpg","311199","1","body_parts","","0","0","1","400","63800","402","64123","","","","","","","","","","","","","","","","","","","","","","","","","","","","","","","","","","","","","","","","","","","","","","","","","","","","",""
"","iti_localizer","","html-keyboard-response","185","311905","0.0-2.0-60.0-1.0","32","21592","female","null","","","","null","","58","","","311601","1","","","","","","300","64200","304","64525","300","","","","","","","","","","","","","","","","","","","","","","","","","","","","","","","","","","","","","","","","","","","","","","","","","","","",""
"","localizer","","html-keyboard-response","186","312307","0.0-2.0-61.0-0.0","32","21592","female","NaN","","","","null","NaN","59","","Stimuli/Experimental_stims/localizer/body_parts/nattalia-nunez-MB9sdDfZMSg-unsplash.jpg","311905","1","body_parts","","1","1","0","400","64500","402","64829","","","","","","","","","","","","","","","","","","","","","","","","","","","","","","","","","","","","","","","","","","","","","","","","","","","","",""
"","iti_localizer","","html-keyboard-response","187","312610","0.0-2.0-61.0-1.0","32","21592","female","null","","","","null","","59","","","312307","1","","","","","","300","64900","303","65231","300","","","","","","","","","","","","","","","","","","","","","","","","","","","","","","","","","","","","","","","","","","","","","","","","","","","",""
"","localizer","","html-keyboard-response","188","313011","0.0-2.0-62.0-0.0","32","21592","female","359","","","","68","0","60","","Stimuli/Experimental_stims/localizer/body_parts/louis-hansel-FjKTMRTQYAs-unsplash.jpg","312610","1","body_parts","","0","0","1","400","65200","401","65534","","","","","","","","","","","","","","","","","","","","","","","","","","","","","","","","","","","","","","","","","","","","","","","","","","","","",""
"","iti_localizer","","html-keyboard-response","189","313313","0.0-2.0-62.0-1.0","32","21592","female","null","","","","null","","60","","","313011","1","","","","","","300","65600","302","65935","300","","","","","","","","","","","","","","","","","","","","","","","","","","","","","","","","","","","","","","","","","","","","","","","","","","","",""
"","localizer","","html-keyboard-response","190","313717","0.0-2.0-63.0-0.0","32","21592","female","337","","","","68","0","61","","Stimuli/Experimental_stims/localizer/body_parts/jonathan-borba-hTwH8QFkPMs-unsplash.jpg","313313","1","body_parts","","0","0","1","400","65900","404","66237","","","","","","","","","","","","","","","","","","","","","","","","","","","","","","","","","","","","","","","","","","","","","","","","","","","","",""
"","iti_localizer","","html-keyboard-response","191","314023","0.0-2.0-63.0-1.0","32","21592","female","null","","","","null","","61","","","313717","1","","","","","","300","66300","306","66641","300","","","","","","","","","","","","","","","","","","","","","","","","","","","","","","","","","","","","","","","","","","","","","","","","","","","",""
"","localizer","","html-keyboard-response","192","314427","0.0-2.0-64.0-0.0","32","21592","female","332","","","","68","0","62","","Stimuli/Experimental_stims/localizer/body_parts/hu-chen-tCbTGNwrFNM-unsplash.jpg","314023","1","body_parts","","0","0","1","400","66600","404","66947","","","","","","","","","","","","","","","","","","","","","","","","","","","","","","","","","","","","","","","","","","","","","","","","","","","","",""
"","iti_localizer","","html-keyboard-response","193","314729","0.0-2.0-64.0-1.0","32","21592","female","null","","","","null","","62","","","314427","1","","","","","","300","67000","302","67351","300","","","","","","","","","","","","","","","","","","","","","","","","","","","","","","","","","","","","","","","","","","","","","","","","","","","",""
"","localizer","","html-keyboard-response","194","315131","0.0-2.0-65.0-0.0","32","21592","female","340","","","","68","0","63","","Stimuli/Experimental_stims/localizer/body_parts/danie-franco-jyyNiSEcCl4-unsplash.jpg","314729","1","body_parts","","0","0","1","400","67300","402","67653","","","","","","","","","","","","","","","","","","","","","","","","","","","","","","","","","","","","","","","","","","","","","","","","","","","","",""
"","iti_localizer","","html-keyboard-response","195","315433","0.0-2.0-65.0-1.0","32","21592","female","null","","","","null","","63","","","315131","1","","","","","","300","67700","302","68055","300","","","","","","","","","","","","","","","","","","","","","","","","","","","","","","","","","","","","","","","","","","","","","","","","","","","",""
"","localizer","","html-keyboard-response","196","315835","0.0-2.0-66.0-0.0","32","21592","female","391","","","","68","0","64","","Stimuli/Experimental_stims/localizer/body_parts/natalie-grainger-8uB5kFKWWkk-unsplash.jpg","315433","1","body_parts","","0","0","1","400","68000","402","68357","","","","","","","","","","","","","","","","","","","","","","","","","","","","","","","","","","","","","","","","","","","","","","","","","","","","",""
"","iti_localizer","","html-keyboard-response","197","316138","0.0-2.0-66.0-1.0","32","21592","female","null","","","","null","","64","","","315835","1","","","","","","300","68400","303","68759","300","","","","","","","","","","","","","","","","","","","","","","","","","","","","","","","","","","","","","","","","","","","","","","","","","","","",""
"","localizer","","html-keyboard-response","198","316540","0.0-2.0-67.0-0.0","32","21592","female","369","","","","68","0","65","","Stimuli/Experimental_stims/localizer/body_parts/apostolos-vamvouras-g5wKHRu2QW0-unsplash.jpg","316138","1","body_parts","","0","0","1","400","68700","402","69062","","","","","","","","","","","","","","","","","","","","","","","","","","","","","","","","","","","","","","","","","","","","","","","","","","","","",""
"","iti_localizer","","html-keyboard-response","199","330542","0.0-2.0-67.0-1.0","32","21592","female","null","","","","null","","65","","","316540","1","","","","","","14000","69100","14002","69464","14000","","","","","","","","","","","","","","","","","","","","","","","","","","","","","","","","","","","","","","","","","","","","","","","","","","","",""
"","localizer","","html-keyboard-response","200","330945","0.0-2.0-68.0-0.0","32","21592","female","NaN","","","","null","NaN","66","","Stimuli/Experimental_stims/localizer/objects/quaritsch-photography-lZ8onQ1wuY8-unsplash.jpg","330542","1","objects","","1","1","0","400","83100","403","83466","","","","","","","","","","","","","","","","","","","","","","","","","","","","","","","","","","","","","","","","","","","","","","","","","","","","",""
"","iti_localizer","","html-keyboard-response","201","331250","0.0-2.0-68.0-1.0","32","21592","female","null","","","","null","","66","","","330945","1","","","","","","300","83500","305","83869","300","","","","","","","","","","","","","","","","","","","","","","","","","","","","","","","","","","","","","","","","","","","","","","","","","","","",""
"","localizer","","html-keyboard-response","202","331654","0.0-2.0-69.0-0.0","32","21592","female","NaN","","","","null","NaN","67","","Stimuli/Experimental_stims/localizer/objects/ana-9GmAaEMMKho-unsplash.jpg","331250","1","objects","","0","1","0","400","83800","404","84174","","","","","","","","","","","","","","","","","","","","","","","","","","","","","","","","","","","","","","","","","","","","","","","","","","","","",""
"","iti_localizer","","html-keyboard-response","203","331956","0.0-2.0-69.0-1.0","32","21592","female","null","","","","null","","67","","","331654","1","","","","","","300","84200","302","84578","300","","","","","","","","","","","","","","","","","","","","","","","","","","","","","","","","","","","","","","","","","","","","","","","","","","","",""
"","localizer","","html-keyboard-response","204","332358","0.0-2.0-70.0-0.0","32","21592","female","325","","","","68","0","68","","Stimuli/Experimental_stims/localizer/objects/nordwood-themes-nDd3dIkkOLo-unsplash.jpg","331956","1","objects","","0","0","1","400","84500","402","84880","","","","","","","","","","","","","","","","","","","","","","","","","","","","","","","","","","","","","","","","","","","","","","","","","","","","",""
"","iti_localizer","","html-keyboard-response","205","332660","0.0-2.0-70.0-1.0","32","21592","female","null","","","","null","","68","","","332358","1","","","","","","300","84900","302","85282","300","","","","","","","","","","","","","","","","","","","","","","","","","","","","","","","","","","","","","","","","","","","","","","","","","","","",""
"","localizer","","html-keyboard-response","206","333062","0.0-2.0-71.0-0.0","32","21592","female","338","","","","68","0","69","","Stimuli/Experimental_stims/localizer/objects/kelly-jean-cKjbI0Y00X0-unsplash.jpg","332660","1","objects","","0","0","1","400","85200","402","85584","","","","","","","","","","","","","","","","","","","","","","","","","","","","","","","","","","","","","","","","","","","","","","","","","","","","",""
"","iti_localizer","","html-keyboard-response","207","333368","0.0-2.0-71.0-1.0","32","21592","female","null","","","","null","","69","","","333062","1","","","","","","300","85600","306","85986","300","","","","","","","","","","","","","","","","","","","","","","","","","","","","","","","","","","","","","","","","","","","","","","","","","","","",""
"","localizer","","html-keyboard-response","208","333772","0.0-2.0-72.0-0.0","32","21592","female","322","","","","68","0","70","","Stimuli/Experimental_stims/localizer/objects/florian-klauer-nptLmg6jqDo-unsplash.jpg","333368","1","objects","","0","0","1","400","85900","404","86292","","","","","","","","","","","","","","","","","","","","","","","","","","","","","","","","","","","","","","","","","","","","","","","","","","","","",""
"","iti_localizer","","html-keyboard-response","209","334074","0.0-2.0-72.0-1.0","32","21592","female","null","","","","null","","70","","","333772","1","","","","","","300","86300","302","86696","300","","","","","","","","","","","","","","","","","","","","","","","","","","","","","","","","","","","","","","","","","","","","","","","","","","","",""
"","localizer","","html-keyboard-response","210","334477","0.0-2.0-73.0-0.0","32","21592","female","372","","","","68","0","71","","Stimuli/Experimental_stims/localizer/objects/nicolas-hippert-SVgX47QIUlc-unsplash.jpg","334074","1","objects","","0","0","1","400","86600","403","86998","","","","","","","","","","","","","","","","","","","","","","","","","","","","","","","","","","","","","","","","","","","","","","","","","","","","",""
"","iti_localizer","","html-keyboard-response","211","334779","0.0-2.0-73.0-1.0","32","21592","female","null","","","","null","","71","","","334477","1","","","","","","300","87000","302","87401","300","","","","","","","","","","","","","","","","","","","","","","","","","","","","","","","","","","","","","","","","","","","","","","","","","","","",""
"","localizer","","html-keyboard-response","212","335183","0.0-2.0-74.0-0.0","32","21592","female","358","","","","68","0","72","","Stimuli/Experimental_stims/localizer/objects/florian-klauer-mk7D-4UCfmg-unsplash.jpg","334779","1","objects","","0","0","1","400","87300","404","87703","","","","","","","","","","","","","","","","","","","","","","","","","","","","","","","","","","","","","","","","","","","","","","","","","","","","",""
"","iti_localizer","","html-keyboard-response","213","335488","0.0-2.0-74.0-1.0","32","21592","female","null","","","","null","","72","","","335183","1","","","","","","300","87700","305","88107","300","","","","","","","","","","","","","","","","","","","","","","","","","","","","","","","","","","","","","","","","","","","","","","","","","","","",""
"","localizer","","html-keyboard-response","214","335891","0.0-2.0-75.0-0.0","32","21592","female","344","","","","68","0","73","","Stimuli/Experimental_stims/localizer/objects/alex-lvrs-2zDw14yCYqk-unsplash.jpg","335488","1","objects","","0","0","1","400","88000","403","88412","","","","","","","","","","","","","","","","","","","","","","","","","","","","","","","","","","","","","","","","","","","","","","","","","","","","",""
"","iti_localizer","","html-keyboard-response","215","336192","0.0-2.0-75.0-1.0","32","21592","female","null","","","","null","","73","","","335891","1","","","","","","300","88400","301","88815","300","","","","","","","","","","","","","","","","","","","","","","","","","","","","","","","","","","","","","","","","","","","","","","","","","","","",""
"","localizer","","html-keyboard-response","216","336594","0.0-2.0-76.0-0.0","32","21592","female","355","","","","68","0","74","","Stimuli/Experimental_stims/localizer/objects/hipster-mum-XookgCxFw6Q-unsplash.jpg","336192","1","objects","","0","0","1","400","88700","402","89116","","","","","","","","","","","","","","","","","","","","","","","","","","","","","","","","","","","","","","","","","","","","","","","","","","","","",""
"","iti_localizer","","html-keyboard-response","217","336896","0.0-2.0-76.0-1.0","32","21592","female","null","","","","null","","74","","","336594","1","","","","","","300","89100","302","89518","300","","","","","","","","","","","","","","","","","","","","","","","","","","","","","","","","","","","","","","","","","","","","","","","","","","","",""
"","localizer","","html-keyboard-response","218","337300","0.0-2.0-77.0-0.0","32","21592","female","358","","","","68","0","75","","Stimuli/Experimental_stims/localizer/objects/ian-talmacs-ugqU0a4P18U-unsplash.jpg","336896","1","objects","","0","0","1","400","89400","404","89820","","","","","","","","","","","","","","","","","","","","","","","","","","","","","","","","","","","","","","","","","","","","","","","","","","","","",""
"","iti_localizer","","html-keyboard-response","219","337602","0.0-2.0-77.0-1.0","32","21592","female","null","","","","null","","75","","","337300","1","","","","","","300","89800","302","90224","300","","","","","","","","","","","","","","","","","","","","","","","","","","","","","","","","","","","","","","","","","","","","","","","","","","","",""
"","localizer","","html-keyboard-response","220","338007","0.0-2.0-78.0-0.0","32","21592","female","398","","","","68","0","76","","Stimuli/Experimental_stims/localizer/objects/chris-briggs-FobzAZJGM9M-unsplash.jpg","337602","1","objects","","0","0","1","400","90100","405","90526","","","","","","","","","","","","","","","","","","","","","","","","","","","","","","","","","","","","","","","","","","","","","","","","","","","","",""
"","iti_localizer","","html-keyboard-response","221","338310","0.0-2.0-78.0-1.0","32","21592","female","null","","","","null","","76","","","338007","1","","","","","","300","90500","303","90931","300","","","","","","","","","","","","","","","","","","","","","","","","","","","","","","","","","","","","","","","","","","","","","","","","","","","",""
"","localizer","","html-keyboard-response","222","338712","0.0-2.0-79.0-0.0","32","21592","female","357","","","","68","0","77","","Stimuli/Experimental_stims/localizer/objects/recha-oktaviani-t__61ap00Mc-unsplash.jpg","338310","1","objects","","0","0","1","400","90800","402","91234","","","","","","","","","","","","","","","","","","","","","","","","","","","","","","","","","","","","","","","","","","","","","","","","","","","","",""
"","iti_localizer","","html-keyboard-response","223","339014","0.0-2.0-79.0-1.0","32","21592","female","null","","","","null","","77","","","338712","1","","","","","","300","91200","302","91636","300","","","","","","","","","","","","","","","","","","","","","","","","","","","","","","","","","","","","","","","","","","","","","","","","","","","",""
"","localizer","","html-keyboard-response","224","339416","0.0-2.0-80.0-0.0","32","21592","female","383","","","","68","0","78","","Stimuli/Experimental_stims/localizer/objects/jonny-caspari-wsvCC6UyKjs-unsplash.jpg","339014","1","objects","","0","0","1","400","91500","402","91938","","","","","","","","","","","","","","","","","","","","","","","","","","","","","","","","","","","","","","","","","","","","","","","","","","","","",""
"","iti_localizer","","html-keyboard-response","225","339719","0.0-2.0-80.0-1.0","32","21592","female","null","","","","null","","78","","","339416","1","","","","","","300","91900","303","92340","300","","","","","","","","","","","","","","","","","","","","","","","","","","","","","","","","","","","","","","","","","","","","","","","","","","","",""
"","localizer","","html-keyboard-response","226","340124","0.0-2.0-81.0-0.0","32","21592","female","359","","","","68","0","79","","Stimuli/Experimental_stims/localizer/objects/markus-spiske-ANrVtttbNss-unsplash.jpg","339719","1","objects","","0","0","1","400","92200","405","92643","","","","","","","","","","","","","","","","","","","","","","","","","","","","","","","","","","","","","","","","","","","","","","","","","","","","",""
"","iti_localizer","","html-keyboard-response","227","340426","0.0-2.0-81.0-1.0","32","21592","female","null","","","","null","","79","","","340124","1","","","","","","300","92600","302","93048","300","","","","","","","","","","","","","","","","","","","","","","","","","","","","","","","","","","","","","","","","","","","","","","","","","","","",""
"","localizer","","html-keyboard-response","228","340837","0.0-2.0-82.0-0.0","32","21592","female","370","","","","75","1","80","","Stimuli/Experimental_stims/localizer/objects/ignat-dolomanov-kFBDVnmskPA-unsplash.jpg","340426","1","objects","","0","0","0","400","92900","411","93350","","","","","","","","","","","","","","","","","","","","","","","","","","","","","","","","","","","","","","","","","","","","","","","","","","","","",""
"","iti_localizer","","html-keyboard-response","229","341141","0.0-2.0-82.0-1.0","32","21592","female","null","","","","null","","80","","","340837","1","","","","","","300","93300","304","93761","300","","","","","","","","","","","","","","","","","","","","","","","","","","","","","","","","","","","","","","","","","","","","","","","","","","","",""
"","localizer","","html-keyboard-response","230","341545","0.0-2.0-83.0-0.0","32","21592","female","353","","","","68","0","81","","Stimuli/Experimental_stims/localizer/objects/mockup-graphics-Pj2PY-E-LfM-unsplash.jpg","341141","1","objects","","0","0","1","400","93600","404","94065","","","","","","","","","","","","","","","","","","","","","","","","","","","","","","","","","","","","","","","","","","","","","","","","","","","","",""
"","iti_localizer","","html-keyboard-response","231","341847","0.0-2.0-83.0-1.0","32","21592","female","null","","","","null","","81","","","341545","1","","","","","","300","94000","302","94469","300","","","","","","","","","","","","","","","","","","","","","","","","","","","","","","","","","","","","","","","","","","","","","","","","","","","",""
"","localizer","","html-keyboard-response","232","342250","0.0-2.0-84.0-0.0","32","21592","female","340","","","","68","0","82","","Stimuli/Experimental_stims/localizer/objects/lance-reis-v0FYj9iioQg-unsplash.jpg","341847","1","objects","","0","0","1","400","94300","403","94771","","","","","","","","","","","","","","","","","","","","","","","","","","","","","","","","","","","","","","","","","","","","","","","","","","","","",""
"","iti_localizer","","html-keyboard-response","233","342552","0.0-2.0-84.0-1.0","32","21592","female","null","","","","null","","82","","","342250","1","","","","","","300","94700","302","95174","300","","","","","","","","","","","","","","","","","","","","","","","","","","","","","","","","","","","","","","","","","","","","","","","","","","","",""
"","localizer","","html-keyboard-response","234","342954","0.0-2.0-85.0-0.0","32","21592","female","390","","","","68","0","83","","Stimuli/Experimental_stims/localizer/objects/mockup-graphics-U6ZMEefFGx8-unsplash.jpg","342552","1","objects","","0","0","1","400","95000","402","95476","","","","","","","","","","","","","","","","","","","","","","","","","","","","","","","","","","","","","","","","","","","","","","","","","","","","",""
"","iti_localizer","","html-keyboard-response","235","343258","0.0-2.0-85.0-1.0","32","21592","female","null","","","","null","","83","","","342954","1","","","","","","300","95400","304","95878","300","","","","","","","","","","","","","","","","","","","","","","","","","","","","","","","","","","","","","","","","","","","","","","","","","","","",""
"","localizer","","html-keyboard-response","236","343662","0.0-2.0-86.0-0.0","32","21592","female","NaN","","","","null","NaN","84","","Stimuli/Experimental_stims/localizer/objects/engin-akyurt-bbbKzTmY2Gg-unsplash.jpg","343258","1","objects","","1","1","0","400","95700","404","96182","","","","","","","","","","","","","","","","","","","","","","","","","","","","","","","","","","","","","","","","","","","","","","","","","","","","",""
"","iti_localizer","","html-keyboard-response","237","343965","0.0-2.0-86.0-1.0","32","21592","female","null","","","","null","","84","","","343662","1","","","","","","300","96100","303","96586","300","","","","","","","","","","","","","","","","","","","","","","","","","","","","","","","","","","","","","","","","","","","","","","","","","","","",""
"","localizer","","html-keyboard-response","238","344368","0.0-2.0-87.0-0.0","32","21592","female","NaN","","","","null","NaN","85","","Stimuli/Experimental_stims/localizer/objects/eugene-chystiakov-3neSwyntbQ8-unsplash.jpg","343965","1","objects","","0","1","0","400","96400","403","96889","","","","","","","","","","","","","","","","","","","","","","","","","","","","","","","","","","","","","","","","","","","","","","","","","","","","",""
"","iti_localizer","","html-keyboard-response","239","358372","0.0-2.0-87.0-1.0","32","21592","female","null","","","","null","","85","","","344368","1","","","","","","14000","96800","14004","97292","14000","","","","","","","","","","","","","","","","","","","","","","","","","","","","","","","","","","","","","","","","","","","","","","","","","","","",""
"","localizer","","html-keyboard-response","240","358777","0.0-2.0-88.0-0.0","32","21592","female","NaN","","","","null","NaN","86","","Stimuli/Experimental_stims/localizer/body_parts/bady-abbas-N-VEeMnm7gE-unsplash.jpg","358372","1","body_parts","","0","1","0","400","110800","405","111296","","","","","","","","","","","","","","","","","","","","","","","","","","","","","","","","","","","","","","","","","","","","","","","","","","","","",""
"","iti_localizer","","html-keyboard-response","241","359081","0.0-2.0-88.0-1.0","32","21592","female","null","","","","null","","86","","","358777","1","","","","","","300","111200","304","111701","300","","","","","","","","","","","","","","","","","","","","","","","","","","","","","","","","","","","","","","","","","","","","","","","","","","","",""
"","localizer","","html-keyboard-response","242","359485","0.0-2.0-89.0-0.0","32","21592","female","NaN","","","","null","NaN","87","","Stimuli/Experimental_stims/localizer/body_parts/sincerely-media-QyzlAZjm0r0-unsplash.jpg","359081","1","body_parts","","1","1","0","400","111500","404","112005","","","","","","","","","","","","","","","","","","","","","","","","","","","","","","","","","","","","","","","","","","","","","","","","","","","","",""
"","iti_localizer","","html-keyboard-response","243","359787","0.0-2.0-89.0-1.0","32","21592","female","null","","","","null","","87","","","359485","1","","","","","","300","111900","302","112409","300","","","","","","","","","","","","","","","","","","","","","","","","","","","","","","","","","","","","","","","","","","","","","","","","","","","",""
"","localizer","","html-keyboard-response","244","360190","0.0-2.0-90.0-0.0","32","21592","female","324","","","","68","0","88","","Stimuli/Experimental_stims/localizer/body_parts/jeremy-yap-TfJEi17kA0w-unsplash.jpg","359787","1","body_parts","","0","0","1","400","112200","403","112711","","","","","","","","","","","","","","","","","","","","","","","","","","","","","","","","","","","","","","","","","","","","","","","","","","","","",""
"","iti_localizer","","html-keyboard-response","245","360492","0.0-2.0-90.0-1.0","32","21592","female","null","","","","null","","88","","","360190","1","","","","","","300","112600","302","113114","300","","","","","","","","","","","","","","","","","","","","","","","","","","","","","","","","","","","","","","","","","","","","","","","","","","","",""
"","localizer","","html-keyboard-response","246","360895","0.0-2.0-91.0-0.0","32","21592","female","374","","","","68","0","89","","Stimuli/Experimental_stims/localizer/body_parts/matheus-frade-eyzdb1C3JDM-unsplash.jpg","360492","1","body_parts","","0","0","1","400","112900","403","113416","","","","","","","","","","","","","","","","","","","","","","","","","","","","","","","","","","","","","","","","","","","","","","","","","","","","",""
"","iti_localizer","","html-keyboard-response","247","361199","0.0-2.0-91.0-1.0","32","21592","female","null","","","","null","","89","","","360895","1","","","","","","300","113300","304","113819","300","","","","","","","","","","","","","","","","","","","","","","","","","","","","","","","","","","","","","","","","","","","","","","","","","","","",""
