"success","ttype","start_time","trial_type","trial_index","time_elapsed","internal_node_id","age","PID","gender","rt","responses","view_history","repeat_instructions","key_press","response","index","stimulus_index","path","start_time_elapsed","left_chosen","chosen_stimulus","unchosen_stimulus","chosen_category","unchosen_category","chosen_rating","unchosen_rating","chosen_path","unchosen_path","no_response","pair_id","practice","scramble_screen_time","scramble_instructed_side","stim_type","iti","block","run","left_stimulus","right_stimulus","left_category","right_category","left_path","right_path","left_rating","right_rating","duration","onset","duration_time_elapsed","onset_time_elapsed","trial_duration","scramble_acc","scramble_no_response","warning","chosen_left","old_pair","pair_type","old_response","pair_acc","choice_type","reward_type","stimulus_id","outcome_response","outcome_rt","outcome_acc"
"true","full_screen","d08132023hr0047","fullscreen","0","1887","0.0-0.0-0.0","11","36963","11","","","","","","","","","","","","","","","","","","","","","","","","","","","","","","","","","","","","","","","","","","","","","","","","","","","","","","",""
"","get_id","","survey-text","1","6314","0.0-0.0-1.0","11","36963","11","4425","{""Q0"":""11"",""Q1"":""11""}","","","","","","","","","","","","","","","","","","","","","","","","","","","","","","","","","","","","","","","","","","","","","","","","","","","","",""
"","ratings_instructions","","instructions","2","7571","0.0-1.0-0.0-0.0","11","36963","11","1214","","[{""page_index"":0,""viewing_time"":1043},{""page_index"":1,""viewing_time"":170}]","","","","","","","","","","","","","","","","","","","","","","","","","","","","","","","","","","","","","","","","","","","","","","","","","","","",""
"","rating_comprehension_check","","survey-multi-choice","3","10914","0.0-1.0-0.0-1.0","11","36963","11","3338","{""Q0"":""True"",""Q1"":""Mouse""}","","0","","","","","","","","","","","","","","","","","","","","","","","","","","","","","","","","","","","","","","","","","","","","","","","","","","",""
"","","","html-keyboard-response","4","11749","0.0-1.0-1.0","11","36963","11","832","","","","68","","","","","","","","","","","","","","","","","","","","","","","","","","","","","","","","","","","","","","","","","","","","","","","","","",""
"","rating","","html-slider-response","5","12890","0.0-1.0-2.0","11","36963","11","1138","","","","","50","0","23","Stimuli/Experimental_stims/faces/rikonavt-HQjfrvdTfak-unsplash.jpg","","","","","","","","","","","","","","","","","","","","","","","","","","","","","","","","","","","","","","","","","","","","","",""
"","rating","","html-slider-response","6","13067","0.0-1.0-3.0","11","36963","11","174","","","","","50","1","17","Stimuli/Experimental_stims/faces/good-faces-xmSWVeGEnJw-unsplash.jpg","","","","","","","","","","","","","","","","","","","","","","","","","","","","","","","","","","","","","","","","","","","","","",""
"","rating","","html-slider-response","7","13329","0.0-1.0-4.0","11","36963","11","260","","","","","50","2","10","Stimuli/Experimental_stims/outdoor_scenes/shannon-kunkle-dM8INmkyDas-unsplash.jpg","","","","","","","","","","","","","","","","","","","","","","","","","","","","","","","","","","","","","","","","","","","","","",""
"","rating","","html-slider-response","8","13508","0.0-1.0-5.0","11","36963","11","175","","","","","50","3","37","Stimuli/Experimental_stims/objects/alexander-andrews-VLGWE_SumrA-unsplash.jpg","","","","","","","","","","","","","","","","","","","","","","","","","","","","","","","","","","","","","","","","","","","","","",""
"","rating","","html-slider-response","9","13670","0.0-1.0-6.0","11","36963","11","159","","","","","50","4","12","Stimuli/Experimental_stims/faces/aiony-haust-jmATI5Q_YgY-unsplash.jpg","","","","","","","","","","","","","","","","","","","","","","","","","","","","","","","","","","","","","","","","","","","","","",""
"","rating","","html-slider-response","10","13840","0.0-1.0-7.0","11","36963","11","168","","","","","50","5","13","Stimuli/Experimental_stims/faces/daniel-rigdon-dXmXKPP2L4E-unsplash.jpg","","","","","","","","","","","","","","","","","","","","","","","","","","","","","","","","","","","","","","","","","","","","","",""
"","rating","","html-slider-response","11","14002","0.0-1.0-8.0","11","36963","11","158","","","","","50","6","46","Stimuli/Experimental_stims/objects/mockup-graphics-PNsj6RiHAF4-unsplash.jpg","","","","","","","","","","","","","","","","","","","","","","","","","","","","","","","","","","","","","","","","","","","","","",""
"","rating","","html-slider-response","12","14170","0.0-1.0-9.0","11","36963","11","165","","","","","50","7","0","Stimuli/Experimental_stims/outdoor_scenes/aleksandra-boguslawska-MS7KD9Ti7FQ-unsplash.jpg","","","","","","","","","","","","","","","","","","","","","","","","","","","","","","","","","","","","","","","","","","","","","",""
"","rating","","html-slider-response","13","14334","0.0-1.0-10.0","11","36963","11","160","","","","","50","8","42","Stimuli/Experimental_stims/objects/jess-bailey-nOeVi8DsN8U-unsplash.jpg","","","","","","","","","","","","","","","","","","","","","","","","","","","","","","","","","","","","","","","","","","","","","",""
"","rating","","html-slider-response","14","14505","0.0-1.0-11.0","11","36963","11","168","","","","","50","9","29","Stimuli/Experimental_stims/body_parts/manuel-schinner-ZwjFuJ7ebpk-unsplash.jpg","","","","","","","","","","","","","","","","","","","","","","","","","","","","","","","","","","","","","","","","","","","","","",""
"","rating","","html-slider-response","15","14665","0.0-1.0-12.0","11","36963","11","157","","","","","50","10","45","Stimuli/Experimental_stims/objects/leohoho-rngTKHXumy0-unsplash.jpg","","","","","","","","","","","","","","","","","","","","","","","","","","","","","","","","","","","","","","","","","","","","","",""
"","rating","","html-slider-response","16","14851","0.0-1.0-13.0","11","36963","11","183","","","","","50","11","16","Stimuli/Experimental_stims/faces/freddy-kearney-o-ioeoATbIM-unsplash.jpg","","","","","","","","","","","","","","","","","","","","","","","","","","","","","","","","","","","","","","","","","","","","","",""
"","rating","","html-slider-response","17","15015","0.0-1.0-14.0","11","36963","11","161","","","","","50","12","35","Stimuli/Experimental_stims/body_parts/wc-so-KH4AAPjb-tI-unsplash.jpg","","","","","","","","","","","","","","","","","","","","","","","","","","","","","","","","","","","","","","","","","","","","","",""
"","rating","","html-slider-response","18","15181","0.0-1.0-15.0","11","36963","11","164","","","","","50","13","8","Stimuli/Experimental_stims/outdoor_scenes/samsommer-vddccTqwal8-unsplash.jpg","","","","","","","","","","","","","","","","","","","","","","","","","","","","","","","","","","","","","","","","","","","","","",""
"","rating","","html-slider-response","19","15354","0.0-1.0-16.0","11","36963","11","170","","","","","50","14","18","Stimuli/Experimental_stims/faces/jessica-radanavong-mrYkTuAesKE-unsplash.jpg","","","","","","","","","","","","","","","","","","","","","","","","","","","","","","","","","","","","","","","","","","","","","",""
"","rating","","html-slider-response","20","15539","0.0-1.0-17.0","11","36963","11","182","","","","","50","15","6","Stimuli/Experimental_stims/outdoor_scenes/meng-ji-8BH_M-53CyA-unsplash.jpg","","","","","","","","","","","","","","","","","","","","","","","","","","","","","","","","","","","","","","","","","","","","","",""
"","rating","","html-slider-response","21","15718","0.0-1.0-18.0","11","36963","11","177","","","","","50","16","2","Stimuli/Experimental_stims/outdoor_scenes/bruno-van-der-kraan-qez8mNJ3ilU-unsplash.jpg","","","","","","","","","","","","","","","","","","","","","","","","","","","","","","","","","","","","","","","","","","","","","",""
"","rating","","html-slider-response","22","15896","0.0-1.0-19.0","11","36963","11","175","","","","","50","17","33","Stimuli/Experimental_stims/body_parts/tucker-good-36skLT5jZcc-unsplash.jpg","","","","","","","","","","","","","","","","","","","","","","","","","","","","","","","","","","","","","","","","","","","","","",""
"","rating","","html-slider-response","23","16076","0.0-1.0-20.0","11","36963","11","178","","","","","50","18","25","Stimuli/Experimental_stims/body_parts/engin-akyurt-Q2rfH3GW39c-unsplash.jpg","","","","","","","","","","","","","","","","","","","","","","","","","","","","","","","","","","","","","","","","","","","","","",""
"","rating","","html-slider-response","24","16253","0.0-1.0-21.0","11","36963","11","172","","","","","50","19","4","Stimuli/Experimental_stims/outdoor_scenes/jarrett-kow-1ZOyYPOBn7I-unsplash.jpg","","","","","","","","","","","","","","","","","","","","","","","","","","","","","","","","","","","","","","","","","","","","","",""
"","rating","","html-slider-response","25","16433","0.0-1.0-22.0","11","36963","11","177","","","","","50","20","11","Stimuli/Experimental_stims/outdoor_scenes/stephen-leonardi-gyIRjKPXupE-unsplash.jpg","","","","","","","","","","","","","","","","","","","","","","","","","","","","","","","","","","","","","","","","","","","","","",""
"","rating","","html-slider-response","26","16619","0.0-1.0-23.0","11","36963","11","183","","","","","50","21","47","Stimuli/Experimental_stims/objects/ronaldo-arthur-vidal-Cdz_lvnl37k-unsplash.jpg","","","","","","","","","","","","","","","","","","","","","","","","","","","","","","","","","","","","","","","","","","","","","",""
"","rating","","html-slider-response","27","16797","0.0-1.0-24.0","11","36963","11","175","","","","","50","22","39","Stimuli/Experimental_stims/objects/charlesdeluvio-1-nx1QR5dTE-unsplash.jpg","","","","","","","","","","","","","","","","","","","","","","","","","","","","","","","","","","","","","","","","","","","","","",""
"","rating","","html-slider-response","28","16975","0.0-1.0-25.0","11","36963","11","175","","","","","50","23","3","Stimuli/Experimental_stims/outdoor_scenes/henry-be-NLF6hTe4PAg-unsplash.jpg","","","","","","","","","","","","","","","","","","","","","","","","","","","","","","","","","","","","","","","","","","","","","",""
"","rating","","html-slider-response","29","17161","0.0-1.0-26.0","11","36963","11","183","","","","","50","24","34","Stimuli/Experimental_stims/body_parts/wagner-santos-mBWMvIuVnso-unsplash.jpg","","","","","","","","","","","","","","","","","","","","","","","","","","","","","","","","","","","","","","","","","","","","","",""
"","rating","","html-slider-response","30","17346","0.0-1.0-27.0","11","36963","11","182","","","","","50","25","27","Stimuli/Experimental_stims/body_parts/heike-mintel-i_Gns0ELnLw-unsplash.jpg","","","","","","","","","","","","","","","","","","","","","","","","","","","","","","","","","","","","","","","","","","","","","",""
"","rating","","html-slider-response","31","17531","0.0-1.0-28.0","11","36963","11","182","","","","","50","26","43","Stimuli/Experimental_stims/objects/jonathan-greenaway-Y4hGgeiFn3s-unsplash.jpg","","","","","","","","","","","","","","","","","","","","","","","","","","","","","","","","","","","","","","","","","","","","","",""
"","rating","","html-slider-response","32","17744","0.0-1.0-29.0","11","36963","11","210","","","","","50","27","40","Stimuli/Experimental_stims/objects/fabian-blank-pElSkGRA2NU-unsplash.jpg","","","","","","","","","","","","","","","","","","","","","","","","","","","","","","","","","","","","","","","","","","","","","",""
"","rating","","html-slider-response","33","17927","0.0-1.0-30.0","11","36963","11","180","","","","","50","28","38","Stimuli/Experimental_stims/objects/art-lasovsky-8XddFc6NkBY-unsplash.jpg","","","","","","","","","","","","","","","","","","","","","","","","","","","","","","","","","","","","","","","","","","","","","",""
"","rating","","html-slider-response","34","18118","0.0-1.0-31.0","11","36963","11","188","","","","","50","29","9","Stimuli/Experimental_stims/outdoor_scenes/sergey-pesterev-y-b_FOmJXdg-unsplash.jpg","","","","","","","","","","","","","","","","","","","","","","","","","","","","","","","","","","","","","","","","","","","","","",""
"","rating","","html-slider-response","35","18296","0.0-1.0-32.0","11","36963","11","175","","","","","50","30","19","Stimuli/Experimental_stims/faces/joel-mott-LaK153ghdig-unsplash.jpg","","","","","","","","","","","","","","","","","","","","","","","","","","","","","","","","","","","","","","","","","","","","","",""
"","rating","","html-slider-response","36","18481","0.0-1.0-33.0","11","36963","11","182","","","","","50","31","24","Stimuli/Experimental_stims/body_parts/clay-banks-LjqARJaJotc-unsplash.jpg","","","","","","","","","","","","","","","","","","","","","","","","","","","","","","","","","","","","","","","","","","","","","",""
"","rating","","html-slider-response","37","18660","0.0-1.0-34.0","11","36963","11","175","","","","","50","32","14","Stimuli/Experimental_stims/faces/david-siglin-UuW4psOb388-unsplash.jpg","","","","","","","","","","","","","","","","","","","","","","","","","","","","","","","","","","","","","","","","","","","","","",""
"","rating","","html-slider-response","38","18845","0.0-1.0-35.0","11","36963","11","182","","","","","50","33","44","Stimuli/Experimental_stims/objects/kuiye-chen-NuOGFo4PudE-unsplash.jpg","","","","","","","","","","","","","","","","","","","","","","","","","","","","","","","","","","","","","","","","","","","","","",""
"","rating","","html-slider-response","39","19028","0.0-1.0-36.0","11","36963","11","180","","","","","50","34","15","Stimuli/Experimental_stims/faces/erik-lucatero-d2MSDujJl2g-unsplash.jpg","","","","","","","","","","","","","","","","","","","","","","","","","","","","","","","","","","","","","","","","","","","","","",""
"","rating","","html-slider-response","40","19243","0.0-1.0-37.0","11","36963","11","212","","","","","50","35","1","Stimuli/Experimental_stims/outdoor_scenes/ashim-d-silva-S2Q5mdOrrVc-unsplash.jpg","","","","","","","","","","","","","","","","","","","","","","","","","","","","","","","","","","","","","","","","","","","","","",""
"","rating","","html-slider-response","41","19436","0.0-1.0-38.0","11","36963","11","189","","","","","50","36","22","Stimuli/Experimental_stims/faces/ravi-patel-VMGAbeeJTKo-unsplash.jpg","","","","","","","","","","","","","","","","","","","","","","","","","","","","","","","","","","","","","","","","","","","","","",""
"","rating","","html-slider-response","42","19619","0.0-1.0-39.0","11","36963","11","181","","","","","50","37","26","Stimuli/Experimental_stims/body_parts/engin-akyurt-x_3gyC42btc-unsplash.jpg","","","","","","","","","","","","","","","","","","","","","","","","","","","","","","","","","","","","","","","","","","","","","",""
"","rating","","html-slider-response","43","19800","0.0-1.0-40.0","11","36963","11","178","","","","","50","38","31","Stimuli/Experimental_stims/body_parts/sincerely-media-VN6DbKajo5s-unsplash.jpg","","","","","","","","","","","","","","","","","","","","","","","","","","","","","","","","","","","","","","","","","","","","","",""
"","rating","","html-slider-response","44","19986","0.0-1.0-41.0","11","36963","11","184","","","","","50","39","36","Stimuli/Experimental_stims/objects/alexander-andrews-JYGnB9gTCls-unsplash.jpg","","","","","","","","","","","","","","","","","","","","","","","","","","","","","","","","","","","","","","","","","","","","","",""
"","rating","","html-slider-response","45","20178","0.0-1.0-42.0","11","36963","11","190","","","","","50","40","28","Stimuli/Experimental_stims/body_parts/ira-vishnevskaya-8DQAvdCby1I-unsplash.jpg","","","","","","","","","","","","","","","","","","","","","","","","","","","","","","","","","","","","","","","","","","","","","",""
"","rating","","html-slider-response","46","20715","0.0-1.0-43.0","11","36963","11","535","","","","","50","41","20","Stimuli/Experimental_stims/faces/justin-chen-J7Cf1Gch49E-unsplash.jpg","","","","","","","","","","","","","","","","","","","","","","","","","","","","","","","","","","","","","","","","","","","","","",""
"","rating","","html-slider-response","47","20908","0.0-1.0-44.0","11","36963","11","191","","","","","50","42","41","Stimuli/Experimental_stims/objects/insung-yoon-w2JtIQQXoRU-unsplash.jpg","","","","","","","","","","","","","","","","","","","","","","","","","","","","","","","","","","","","","","","","","","","","","",""
"","rating","","html-slider-response","48","21104","0.0-1.0-45.0","11","36963","11","193","","","","","50","43","7","Stimuli/Experimental_stims/outdoor_scenes/petr-vysohlid-9fqwGqGLUxc-unsplash.jpg","","","","","","","","","","","","","","","","","","","","","","","","","","","","","","","","","","","","","","","","","","","","","",""
"","rating","","html-slider-response","49","21274","0.0-1.0-46.0","11","36963","11","167","","","","","50","44","5","Stimuli/Experimental_stims/outdoor_scenes/jeff-king-bJHWJeiHfHc-unsplash.jpg","","","","","","","","","","","","","","","","","","","","","","","","","","","","","","","","","","","","","","","","","","","","","",""
"","rating","","html-slider-response","50","21462","0.0-1.0-47.0","11","36963","11","186","","","","","50","45","30","Stimuli/Experimental_stims/body_parts/mika-korhonen-Xodzxosar18-unsplash.jpg","","","","","","","","","","","","","","","","","","","","","","","","","","","","","","","","","","","","","","","","","","","","","",""
"","rating","","html-slider-response","51","21647","0.0-1.0-48.0","11","36963","11","182","","","","","50","46","32","Stimuli/Experimental_stims/body_parts/towfiqu-barbhuiya-3AsiVDsZnHg-unsplash.jpg","","","","","","","","","","","","","","","","","","","","","","","","","","","","","","","","","","","","","","","","","","","","","",""
"","rating","","html-slider-response","52","21833","0.0-1.0-49.0","11","36963","11","182","","","","","50","47","21","Stimuli/Experimental_stims/faces/leilani-angel-K84vnnzxmTQ-unsplash.jpg","","","","","","","","","","","","","","","","","","","","","","","","","","","","","","","","","","","","","","","","","","","","","",""
"","deliberation_instructions","","instructions","53","26245","0.0-3.0-0.0-0.0","11","36963","11","4373","","[{""page_index"":0,""viewing_time"":1719},{""page_index"":1,""viewing_time"":207},{""page_index"":2,""viewing_time"":261},{""page_index"":3,""viewing_time"":497},{""page_index"":4,""viewing_time"":426},{""page_index"":5,""viewing_time"":784},{""page_index"":6,""viewing_time"":478}]","","","","","","","","","","","","","","","","","","","","","","","","","","","","","","","","","","","","","","","","","","","","","","","","","","","",""
"","deliberation_comprehension_check","","survey-multi-choice","54","34075","0.0-3.0-0.0-1.0","11","36963","11","7826","{""Q0"":""True"",""Q1"":""True"",""Q2"":""Wait until an arrow comes up and then select the image the arrow is pointing at"",""Q3"":""Consider carefully and take your time (up to 3 seconds)"",""Q4"":""D""}","","0","","","","","","","","","","","","","","","","","","","","","","","","","","","","","","","","","","","","","","","","","","","","","","","","","","",""
"","","","html-keyboard-response","55","35593","0.0-3.0-1.0","11","36963","11","1515","","","","68","","","","","","","","","","","","","","","","","","","","","","","","","","","","","","","","","","","","","","","","","","","","","","","","","",""
"","deliberation","","html-keyboard-response","56","36024","0.0-3.0-2.0-0.0","11","36963","11","427","","","","75","","0","","","35593","0","","","","","","","Stimuli/Practice_stims/Deliberation/becca-tapert-sY5RjMB1KkE-unsplash.jpg","Stimuli/Practice_stims/Deliberation/anthony-delanoix-Q0-fOL2nqZc-unsplash.jpg","0","prac1","1","0","","original","1500","0","0","","","","","Stimuli/Practice_stims/Deliberation/anthony-delanoix-Q0-fOL2nqZc-unsplash.jpg","Stimuli/Practice_stims/Deliberation/becca-tapert-sY5RjMB1KkE-unsplash.jpg","","","427","0","431","0","","","","","","","","","","","","","","",""
"","deliberation_confirmation","","html-keyboard-response","57","36606","0.0-3.0-2.0-2.0-0.0","11","36963","11","null","","","","null","","0","","","36024","","","","","","","","","","","","","","","","","0","","","","","","","","","","573","427","582","431","573","","","","","","","","","","","","","",""
"","iti","","html-keyboard-response","58","36717","0.0-3.0-2.0-4.0","11","36963","11","null","","","","null","","0","","","36606","","","","","","","","","","","","","","","","","0","","","","","","","","","","100","1000","111","1013","100","","","","","","","","","","","","","",""
"","deliberation","","html-keyboard-response","59","39225","0.0-3.0-4.0-0.0","11","36963","11","67","","","","75","","1","","","36717","","","","","","","","","","0","prac2","1","2500","left","scramble","2500","0","0","","","","","Stimuli/Practice_stims/Deliberation/scramble/scrambled_clay-banks-1KPfcPdbWFM-unsplash.jpg","Stimuli/Practice_stims/Deliberation/scramble/scrambled_melissa-keizer-sV4Pd8wq5_o-unsplash.jpg","","","2500","1100","2508","1124","","","","","","","","","","","","","","",""
"","scramble_prompt","","html-keyboard-response","60","39229","0.0-3.0-4.0-1.0-0.0","11","36963","11","null","","","","null","","1","","","39225","NaN","NaN","NaN","NaN","NaN","","","NaN","NaN","","","","","","","","0","","","","","","","","","","-1500","3600","4","3632","-1500","0","1","","","","","","","","","","","",""
"","deliberation_no_response","","html-keyboard-response","61","39336","0.0-3.0-4.0-3.0-0.0","11","36963","11","null","","","","null","","1","","","39229","","","","","","","","","","1","","","","","","","0","","","","","","","","","","100","2100","107","3636","","","","1","","","","","","","","","","",""
"","iti","","html-keyboard-response","62","39443","0.0-3.0-4.0-4.0","11","36963","11","null","","","","null","","1","","","39336","","","","","","","","","","","","","","","","","0","","","","","","","","","","100","2200","107","3743","100","","","","","","","","","","","","","",""
"","deliberation","","html-keyboard-response","63","40957","0.0-3.0-6.0-0.0","11","36963","11","95","","","","75","","2","","","39443","","","","","","","","","","0","prac3","1","1500","right","scramble","3000","0","0","","","","","Stimuli/Practice_stims/Deliberation/scramble/scrambled_anthony-delanoix-Q0-fOL2nqZc-unsplash.jpg","Stimuli/Practice_stims/Deliberation/scramble/scrambled_becca-tapert-sY5RjMB1KkE-unsplash.jpg","","","1500","2300","1514","3850","","","","","","","","","","","","","","",""
"","scramble_prompt","","html-keyboard-response","64","40966","0.0-3.0-6.0-1.0-0.0","11","36963","11","null","","","","null","","2","","","40957","NaN","NaN","NaN","NaN","NaN","","","NaN","NaN","","","","","","","","0","","","","","","","","","","-500","3800","9","5364","-500","0","1","","","","","","","","","","","",""
"","deliberation_no_response","","html-keyboard-response","65","41078","0.0-3.0-6.0-3.0-0.0","11","36963","11","null","","","","null","","2","","","40966","","","","","","","","","","1","","","","","","","0","","","","","","","","","","100","3300","112","5373","","","","1","","","","","","","","","","",""
"","iti","","html-keyboard-response","66","41192","0.0-3.0-6.0-4.0","11","36963","11","null","","","","null","","2","","","41078","","","","","","","","","","","","","","","","","0","","","","","","","","","","100","3400","114","5485","100","","","","","","","","","","","","","",""
"","deliberation","","html-keyboard-response","67","41267","0.0-3.0-8.0-0.0","11","36963","11","72","","","","75","","3","","","41192","0","","","","","","","Stimuli/Practice_stims/Deliberation/melissa-keizer-sV4Pd8wq5_o-unsplash.jpg","Stimuli/Practice_stims/Deliberation/clay-banks-1KPfcPdbWFM-unsplash.jpg","0","prac4","1","0","","original","2000","0","0","","","","","Stimuli/Practice_stims/Deliberation/clay-banks-1KPfcPdbWFM-unsplash.jpg","Stimuli/Practice_stims/Deliberation/melissa-keizer-sV4Pd8wq5_o-unsplash.jpg","","","72","3500","75","5599","","","","","","","","","","","","","","",""
"","deliberation_confirmation","","html-keyboard-response","68","42206","0.0-3.0-8.0-2.0-0.0","11","36963","11","null","","","","null","","3","","","41267","","","","","","","","","","","","","","","","","0","","","","","","","","","","928","3572","939","5674","928","","","","","","","","","","","","","",""
"","iti","","html-keyboard-response","69","42320","0.0-3.0-8.0-4.0","11","36963","11","null","","","","null","","3","","","42206","","","","","","","","","","","","","","","","","0","","","","","","","","","","100","4500","114","6613","100","","","","","","","","","","","","","",""
"","practice_over","","html-keyboard-response","70","46319","0.0-3.0-8.0-5.0-0.0","11","36963","11","3997","","","","68","","","","","","","","","","","","","","","","","","","","","","","","","","","","","","","","","","","","","","","","","","","","","","","","","",""
"","start_run","","html-keyboard-response","71","47807","0.0-3.0-8.0-5.0-1.0","11","36963","11","1486","","","","84","","","","","","","","","","","","","","","","","","","","","","","","","","","","","","","","","","","","","","","","","","","","","","","","","",""
"","deliberation","","html-keyboard-response","72","49121","0.0-3.0-10.0-0.0","11","36963","11","455","","","","75","","4","","","47807","","","","","","","","","","0","D","0","1300","right","scramble","3300","1","1","43","17","objects","faces","Stimuli/Experimental_stims/scramble/objects/scrambled_jonathan-greenaway-Y4hGgeiFn3s-unsplash.jpg","Stimuli/Experimental_stims/scramble/faces/scrambled_good-faces-xmSWVeGEnJw-unsplash.jpg","NaN","NaN","1300","0","1314","0","","","","","","","","","","","","","","",""
"","scramble_prompt","","html-keyboard-response","73","49125","0.0-3.0-10.0-1.0-0.0","11","36963","11","null","","","","null","","4","","","49121","NaN","NaN","NaN","NaN","NaN","","","NaN","NaN","","","","","","","","1","","","","","","","","","","-300","1300","4","1314","-300","0","1","","","","","","","","","","","",""
"","deliberation_no_response","","html-keyboard-response","74","49240","0.0-3.0-10.0-3.0-0.0","11","36963","11","null","","","","null","","4","","","49125","","","","","","","","","","1","","","","","","","1","","","","","","","","","","100","1000","115","1318","","","","1","","","","","","","","","","",""
"","iti","","html-keyboard-response","75","49343","0.0-3.0-10.0-4.0","11","36963","11","null","","","","null","","4","","","49240","","","","","","","","","","","","","","","","","1","","","","","","","","","","100","1100","103","1433","100","","","","","","","","","","","","","",""
"","deliberation","","html-keyboard-response","76","50852","0.0-3.0-12.0-0.0","11","36963","11","304","","","","75","","5","","","49343","","","","","","","","","","0","B","0","1500","right","scramble","1100","1","1","0","15","outdoor_scenes","faces","Stimuli/Experimental_stims/scramble/outdoor_scenes/scrambled_aleksandra-boguslawska-MS7KD9Ti7FQ-unsplash.jpg","Stimuli/Experimental_stims/scramble/faces/scrambled_erik-lucatero-d2MSDujJl2g-unsplash.jpg","NaN","NaN","1500","1200","1509","1536","","","","","","","","","","","","","","",""
"","scramble_prompt","","html-keyboard-response","77","50860","0.0-3.0-12.0-1.0-0.0","11","36963","11","null","","","","null","","5","","","50852","NaN","NaN","NaN","NaN","NaN","","","NaN","NaN","","","","","","","","1","","","","","","","","","","-500","2700","8","3045","-500","0","1","","","","","","","","","","","",""
"","deliberation_no_response","","html-keyboard-response","78","50967","0.0-3.0-12.0-3.0-0.0","11","36963","11","null","","","","null","","5","","","50860","","","","","","","","","","1","","","","","","","1","","","","","","","","","","100","2200","107","3053","","","","1","","","","","","","","","","",""
"","iti","","html-keyboard-response","79","51076","0.0-3.0-12.0-4.0","11","36963","11","null","","","","null","","5","","","50967","","","","","","","","","","","","","","","","","1","","","","","","","","","","100","2300","109","3160","100","","","","","","","","","","","","","",""
"","deliberation","","html-keyboard-response","80","51087","0.0-3.0-14.0-0.0","11","36963","11","8","","","","75","","6","","","51076","0","37","6","objects","outdoor_scenes","50","50","Stimuli/Experimental_stims/objects/alexander-andrews-VLGWE_SumrA-unsplash.jpg","Stimuli/Experimental_stims/outdoor_scenes/meng-ji-8BH_M-53CyA-unsplash.jpg","0","A","0","0","","original","1800","1","1","6","37","outdoor_scenes","objects","Stimuli/Experimental_stims/outdoor_scenes/meng-ji-8BH_M-53CyA-unsplash.jpg","Stimuli/Experimental_stims/objects/alexander-andrews-VLGWE_SumrA-unsplash.jpg","50","50","8","2400","11","3269","","","","","","","","","","","","","","",""
"","deliberation_confirmation","","html-keyboard-response","81","52087","0.0-3.0-14.0-2.0-0.0","11","36963","11","null","","","","null","","6","","","51087","","","","","","","","","","","","","","","","","1","","","","","","","","","","992","2408","1000","3280","992","","","","","","","","","","","","","",""
"","iti","","html-keyboard-response","82","52199","0.0-3.0-14.0-4.0","11","36963","11","null","","","","null","","6","","","52087","","","","","","","","","","","","","","","","","1","","","","","","","","","","100","3400","112","4280","100","","","","","","","","","","","","","",""
"","deliberation","","html-keyboard-response","83","52507","0.0-3.0-16.0-0.0","11","36963","11","304","","","","75","","7","","","52199","0","28","36","body_parts","objects","50","50","Stimuli/Experimental_stims/body_parts/ira-vishnevskaya-8DQAvdCby1I-unsplash.jpg","Stimuli/Experimental_stims/objects/alexander-andrews-JYGnB9gTCls-unsplash.jpg","0","E","0","0","","original","1500","1","1","36","28","objects","body_parts","Stimuli/Experimental_stims/objects/alexander-andrews-JYGnB9gTCls-unsplash.jpg","Stimuli/Experimental_stims/body_parts/ira-vishnevskaya-8DQAvdCby1I-unsplash.jpg","50","50","304","3500","308","4392","","","","","","","","","","","","","","",""
"","deliberation_confirmation","","html-keyboard-response","84","53217","0.0-3.0-16.0-2.0-0.0","11","36963","11","null","","","","null","","7","","","52507","","","","","","","","","","","","","","","","","1","","","","","","","","","","696","3804","710","4700","696","","","","","","","","","","","","","",""
"","iti","","html-keyboard-response","85","53326","0.0-3.0-16.0-4.0","11","36963","11","null","","","","null","","7","","","53217","","","","","","","","","","","","","","","","","1","","","","","","","","","","100","4500","109","5410","100","","","","","","","","","","","","","",""
"","deliberation","","html-keyboard-response","86","55136","0.0-3.0-18.0-0.0","11","36963","11","155","","","","75","","8","","","53326","","","","","","","","","","0","K","0","1800","left","scramble","2200","1","1","26","40","body_parts","objects","Stimuli/Experimental_stims/scramble/body_parts/scrambled_engin-akyurt-x_3gyC42btc-unsplash.jpg","Stimuli/Experimental_stims/scramble/objects/scrambled_fabian-blank-pElSkGRA2NU-unsplash.jpg","NaN","NaN","1800","4600","1810","5519","","","","","","","","","","","","","","",""
"","scramble_prompt","","html-keyboard-response","87","55141","0.0-3.0-18.0-1.0-0.0","11","36963","11","null","","","","null","","8","","","55136","NaN","NaN","NaN","NaN","NaN","","","NaN","NaN","","","","","","","","1","","","","","","","","","","-800","6400","5","7329","-800","0","1","","","","","","","","","","","",""
"","deliberation_no_response","","html-keyboard-response","88","55257","0.0-3.0-18.0-3.0-0.0","11","36963","11","null","","","","null","","8","","","55141","","","","","","","","","","1","","","","","","","1","","","","","","","","","","100","5600","116","7334","","","","1","","","","","","","","","","",""
"","iti","","html-keyboard-response","89","55363","0.0-3.0-18.0-4.0","11","36963","11","null","","","","null","","8","","","55257","","","","","","","","","","","","","","","","","1","","","","","","","","","","100","5700","106","7450","100","","","","","","","","","","","","","",""
"","deliberation","","html-keyboard-response","90","55592","0.0-3.0-20.0-0.0","11","36963","11","225","","","","75","","9","","","55363","0","47","23","objects","faces","50","50","Stimuli/Experimental_stims/objects/ronaldo-arthur-vidal-Cdz_lvnl37k-unsplash.jpg","Stimuli/Experimental_stims/faces/rikonavt-HQjfrvdTfak-unsplash.jpg","0","J","0","0","","original","2400","1","1","23","47","faces","objects","Stimuli/Experimental_stims/faces/rikonavt-HQjfrvdTfak-unsplash.jpg","Stimuli/Experimental_stims/objects/ronaldo-arthur-vidal-Cdz_lvnl37k-unsplash.jpg","50","50","225","5800","229","7556","","","","","","","","","","","","","","",""
"","deliberation_confirmation","","html-keyboard-response","91","56374","0.0-3.0-20.0-2.0-0.0","11","36963","11","null","","","","null","","9","","","55592","","","","","","","","","","","","","","","","","1","","","","","","","","","","775","6025","782","7785","775","","","","","","","","","","","","","",""
"","iti","","html-keyboard-response","92","56486","0.0-3.0-20.0-4.0","11","36963","11","null","","","","null","","9","","","56374","","","","","","","","","","","","","","","","","1","","","","","","","","","","100","6800","112","8567","100","","","","","","","","","","","","","",""
"","deliberation","","html-keyboard-response","93","57197","0.0-3.0-22.0-0.0","11","36963","11","143","","","","75","","10","","","56486","","","","","","","","","","0","L","0","700","left","scramble","3000","1","1","30","21","body_parts","faces","Stimuli/Experimental_stims/scramble/body_parts/scrambled_mika-korhonen-Xodzxosar18-unsplash.jpg","Stimuli/Experimental_stims/scramble/faces/scrambled_leilani-angel-K84vnnzxmTQ-unsplash.jpg","NaN","NaN","700","6900","711","8679","","","","","","","","","","","","","","",""
"","scramble_prompt","","html-keyboard-response","94","57285","0.0-3.0-22.0-1.0-0.0","11","36963","11","84","","","","75","","10","","","57197","0","21","30","faces","body_parts","","","Stimuli/Experimental_stims/scramble/faces/scrambled_leilani-angel-K84vnnzxmTQ-unsplash.jpg","Stimuli/Experimental_stims/scramble/body_parts/scrambled_mika-korhonen-Xodzxosar18-unsplash.jpg","0","","","","","","","1","","","","","","","","","","84","7600","88","9390","300","0","","","","","","","","","","","","",""
"","deliberation_confirmation","","html-keyboard-response","95","57513","0.0-3.0-22.0-2.0-0.0","11","36963","11","null","","","","null","","10","","","57285","","","","","","","","","","","","","","","","","1","","","","","","","","","","216","7684","228","9478","216","","","","","","","","","","","","","",""
"","iti","","html-keyboard-response","96","57623","0.0-3.0-22.0-4.0","11","36963","11","null","","","","null","","10","","","57513","","","","","","","","","","","","","","","","","1","","","","","","","","","","100","7900","110","9706","100","","","","","","","","","","","","","",""
"","deliberation","","html-keyboard-response","97","57744","0.0-3.0-24.0-0.0","11","36963","11","117","","","","75","","11","","","57623","0","34","5","body_parts","outdoor_scenes","50","50","Stimuli/Experimental_stims/body_parts/wagner-santos-mBWMvIuVnso-unsplash.jpg","Stimuli/Experimental_stims/outdoor_scenes/jeff-king-bJHWJeiHfHc-unsplash.jpg","0","C","0","0","","original","1100","1","1","5","34","outdoor_scenes","body_parts","Stimuli/Experimental_stims/outdoor_scenes/jeff-king-bJHWJeiHfHc-unsplash.jpg","Stimuli/Experimental_stims/body_parts/wagner-santos-mBWMvIuVnso-unsplash.jpg","50","50","117","8000","121","9816","","","","","","","","","","","","","","",""
"","deliberation_confirmation","","html-keyboard-response","98","58636","0.0-3.0-24.0-2.0-0.0","11","36963","11","null","","","","null","","11","","","57744","","","","","","","","","","","","","","","","","1","","","","","","","","","","883","8117","892","9937","883","","","","","","","","","","","","","",""
"","iti","","html-keyboard-response","99","58751","0.0-3.0-24.0-4.0","11","36963","11","null","","","","null","","11","","","58636","","","","","","","","","","","","","","","","","1","","","","","","","","","","100","9000","115","10829","100","","","","","","","","","","","","","",""
"","deliberation","","html-keyboard-response","100","58925","0.0-3.0-26.0-0.0","11","36963","11","171","","","","75","","12","","","58751","0","35","16","body_parts","faces","50","50","Stimuli/Experimental_stims/body_parts/wc-so-KH4AAPjb-tI-unsplash.jpg","Stimuli/Experimental_stims/faces/freddy-kearney-o-ioeoATbIM-unsplash.jpg","0","F","0","0","","original","2300","1","1","16","35","faces","body_parts","Stimuli/Experimental_stims/faces/freddy-kearney-o-ioeoATbIM-unsplash.jpg","Stimuli/Experimental_stims/body_parts/wc-so-KH4AAPjb-tI-unsplash.jpg","50","50","171","9100","174","10944","","","","","","","","","","","","","","",""
"","deliberation_confirmation","","html-keyboard-response","101","59764","0.0-3.0-26.0-2.0-0.0","11","36963","11","null","","","","null","","12","","","58925","","","","","","","","","","","","","","","","","1","","","","","","","","","","829","9271","839","11118","829","","","","","","","","","","","","","",""
"","iti","","html-keyboard-response","102","59877","0.0-3.0-26.0-4.0","11","36963","11","null","","","","null","","12","","","59764","","","","","","","","","","","","","","","","","1","","","","","","","","","","100","10100","113","11957","100","","","","","","","","","","","","","",""
"","deliberation","","html-keyboard-response","103","61489","0.0-3.0-28.0-0.0","11","36963","11","188","","","","75","","13","","","59877","","","","","","","","","","0","I","0","1600","left","scramble","1400","1","1","25","2","body_parts","outdoor_scenes","Stimuli/Experimental_stims/scramble/body_parts/scrambled_engin-akyurt-Q2rfH3GW39c-unsplash.jpg","Stimuli/Experimental_stims/scramble/outdoor_scenes/scrambled_bruno-van-der-kraan-qez8mNJ3ilU-unsplash.jpg","NaN","NaN","1600","10200","1612","12070","","","","","","","","","","","","","","",""
"","scramble_prompt","","html-keyboard-response","104","61494","0.0-3.0-28.0-1.0-0.0","11","36963","11","null","","","","null","","13","","","61489","NaN","NaN","NaN","NaN","NaN","","","NaN","NaN","","","","","","","","1","","","","","","","","","","-600","11800","5","13682","-600","0","1","","","","","","","","","","","",""
"","deliberation_no_response","","html-keyboard-response","105","61601","0.0-3.0-28.0-3.0-0.0","11","36963","11","null","","","","null","","13","","","61494","","","","","","","","","","1","","","","","","","1","","","","","","","","","","100","11200","107","13687","","","","1","","","","","","","","","","",""
"","iti","","html-keyboard-response","106","61709","0.0-3.0-28.0-4.0","11","36963","11","null","","","","null","","13","","","61601","","","","","","","","","","","","","","","","","1","","","","","","","","","","100","11300","108","13794","100","","","","","","","","","","","","","",""
"","deliberation","","html-keyboard-response","107","61962","0.0-3.0-30.0-0.0","11","36963","11","249","","","","75","","14","","","61709","0","8","19","outdoor_scenes","faces","50","50","Stimuli/Experimental_stims/outdoor_scenes/samsommer-vddccTqwal8-unsplash.jpg","Stimuli/Experimental_stims/faces/joel-mott-LaK153ghdig-unsplash.jpg","0","H","0","0","","original","2600","1","1","19","8","faces","outdoor_scenes","Stimuli/Experimental_stims/faces/joel-mott-LaK153ghdig-unsplash.jpg","Stimuli/Experimental_stims/outdoor_scenes/samsommer-vddccTqwal8-unsplash.jpg","50","50","249","11400","253","13902","","","","","","","","","","","","","","",""
"","deliberation_confirmation","","html-keyboard-response","108","62716","0.0-3.0-30.0-2.0-0.0","11","36963","11","null","","","","null","","14","","","61962","","","","","","","","","","","","","","","","","1","","","","","","","","","","751","11649","754","14155","751","","","","","","","","","","","","","",""
"","iti","","html-keyboard-response","109","62822","0.0-3.0-30.0-4.0","11","36963","11","null","","","","null","","14","","","62716","","","","","","","","","","","","","","","","","1","","","","","","","","","","100","12400","106","14909","100","","","","","","","","","","","","","",""
"","deliberation","","html-keyboard-response","110","64336","0.0-3.0-32.0-0.0","11","36963","11","185","","","","75","","15","","","62822","","","","","","","","","","0","C","0","1500","right","scramble","4300","1","1","5","34","outdoor_scenes","body_parts","Stimuli/Experimental_stims/scramble/outdoor_scenes/scrambled_jeff-king-bJHWJeiHfHc-unsplash.jpg","Stimuli/Experimental_stims/scramble/body_parts/scrambled_wagner-santos-mBWMvIuVnso-unsplash.jpg","NaN","NaN","1500","12500","1514","15015","","","","","","","","","","","","","","",""
"","scramble_prompt","","html-keyboard-response","111","64341","0.0-3.0-32.0-1.0-0.0","11","36963","11","null","","","","null","","15","","","64336","NaN","NaN","NaN","NaN","NaN","","","NaN","NaN","","","","","","","","1","","","","","","","","","","-500","14000","5","16529","-500","0","1","","","","","","","","","","","",""
"","deliberation_no_response","","html-keyboard-response","112","64453","0.0-3.0-32.0-3.0-0.0","11","36963","11","null","","","","null","","15","","","64341","","","","","","","","","","1","","","","","","","1","","","","","","","","","","100","13500","112","16534","","","","1","","","","","","","","","","",""
"","iti","","html-keyboard-response","113","64569","0.0-3.0-32.0-4.0","11","36963","11","null","","","","null","","15","","","64453","","","","","","","","","","","","","","","","","1","","","","","","","","","","100","13600","116","16646","100","","","","","","","","","","","","","",""
"","deliberation","","html-keyboard-response","114","64694","0.0-3.0-34.0-0.0","11","36963","11","123","","","","75","","16","","","64569","0","40","26","objects","body_parts","50","50","Stimuli/Experimental_stims/objects/fabian-blank-pElSkGRA2NU-unsplash.jpg","Stimuli/Experimental_stims/body_parts/engin-akyurt-x_3gyC42btc-unsplash.jpg","0","K","0","0","","original","1900","1","1","26","40","body_parts","objects","Stimuli/Experimental_stims/body_parts/engin-akyurt-x_3gyC42btc-unsplash.jpg","Stimuli/Experimental_stims/objects/fabian-blank-pElSkGRA2NU-unsplash.jpg","50","50","123","13700","125","16762","","","","","","","","","","","","","","",""
"","deliberation_confirmation","","html-keyboard-response","115","65585","0.0-3.0-34.0-2.0-0.0","11","36963","11","null","","","","null","","16","","","64694","","","","","","","","","","","","","","","","","1","","","","","","","","","","877","13823","891","16887","877","","","","","","","","","","","","","",""
"","iti","","html-keyboard-response","116","65695","0.0-3.0-34.0-4.0","11","36963","11","null","","","","null","","16","","","65585","","","","","","","","","","","","","","","","","1","","","","","","","","","","100","14700","110","17778","100","","","","","","","","","","","","","",""
"","deliberation","","html-keyboard-response","117","66999","0.0-3.0-36.0-0.0","11","36963","11","253","","","","75","","17","","","65695","","","","","","","","","","0","J","0","1300","right","scramble","1100","1","1","23","47","faces","objects","Stimuli/Experimental_stims/scramble/faces/scrambled_rikonavt-HQjfrvdTfak-unsplash.jpg","Stimuli/Experimental_stims/scramble/objects/scrambled_ronaldo-arthur-vidal-Cdz_lvnl37k-unsplash.jpg","NaN","NaN","1300","14800","1304","17888","","","","","","","","","","","","","","",""
"","scramble_prompt","","html-keyboard-response","118","67003","0.0-3.0-36.0-1.0-0.0","11","36963","11","null","","","","null","","17","","","66999","NaN","NaN","NaN","NaN","NaN","","","NaN","NaN","","","","","","","","1","","","","","","","","","","-300","16100","4","19192","-300","0","1","","","","","","","","","","","",""
"","deliberation_no_response","","html-keyboard-response","119","67111","0.0-3.0-36.0-3.0-0.0","11","36963","11","null","","","","null","","17","","","67003","","","","","","","","","","1","","","","","","","1","","","","","","","","","","100","15800","108","19196","","","","1","","","","","","","","","","",""
"","iti","","html-keyboard-response","120","67222","0.0-3.0-36.0-4.0","11","36963","11","null","","","","null","","17","","","67111","","","","","","","","","","","","","","","","","1","","","","","","","","","","100","15900","111","19304","100","","","","","","","","","","","","","",""
"","deliberation","","html-keyboard-response","121","67257","0.0-3.0-38.0-0.0","11","36963","11","33","","","","75","","18","","","67222","0","4","42","outdoor_scenes","objects","50","50","Stimuli/Experimental_stims/outdoor_scenes/jarrett-kow-1ZOyYPOBn7I-unsplash.jpg","Stimuli/Experimental_stims/objects/jess-bailey-nOeVi8DsN8U-unsplash.jpg","0","G","0","0","","original","1500","1","1","42","4","objects","outdoor_scenes","Stimuli/Experimental_stims/objects/jess-bailey-nOeVi8DsN8U-unsplash.jpg","Stimuli/Experimental_stims/outdoor_scenes/jarrett-kow-1ZOyYPOBn7I-unsplash.jpg","50","50","33","16000","35","19415","","","","","","","","","","","","","","",""
"","deliberation_confirmation","","html-keyboard-response","122","68240","0.0-3.0-38.0-2.0-0.0","11","36963","11","null","","","","null","","18","","","67257","","","","","","","","","","","","","","","","","1","","","","","","","","","","967","16033","983","19450","967","","","","","","","","","","","","","",""
"","iti","","html-keyboard-response","123","68352","0.0-3.0-38.0-4.0","11","36963","11","null","","","","null","","18","","","68240","","","","","","","","","","","","","","","","","1","","","","","","","","","","100","17000","112","20433","100","","","","","","","","","","","","","",""
"","deliberation","","html-keyboard-response","124","70357","0.0-3.0-40.0-0.0","11","36963","11","306","","","","75","","19","","","68352","","","","","","","","","","0","H","0","2000","right","scramble","1300","1","1","19","8","faces","outdoor_scenes","Stimuli/Experimental_stims/scramble/faces/scrambled_joel-mott-LaK153ghdig-unsplash.jpg","Stimuli/Experimental_stims/scramble/outdoor_scenes/scrambled_samsommer-vddccTqwal8-unsplash.jpg","NaN","NaN","2000","17100","2005","20545","","","","","","","","","","","","","","",""
"","scramble_prompt","","html-keyboard-response","125","70361","0.0-3.0-40.0-1.0-0.0","11","36963","11","null","","","","null","","19","","","70357","NaN","NaN","NaN","NaN","NaN","","","NaN","NaN","","","","","","","","1","","","","","","","","","","-1000","19100","4","22550","-1000","0","1","","","","","","","","","","","",""
"","deliberation_no_response","","html-keyboard-response","126","70473","0.0-3.0-40.0-3.0-0.0","11","36963","11","null","","","","null","","19","","","70361","","","","","","","","","","1","","","","","","","1","","","","","","","","","","100","18100","112","22554","","","","1","","","","","","","","","","",""
"","iti","","html-keyboard-response","127","70583","0.0-3.0-40.0-4.0","11","36963","11","null","","","","null","","19","","","70473","","","","","","","","","","","","","","","","","1","","","","","","","","","","100","18200","110","22666","100","","","","","","","","","","","","","",""
"","deliberation","","html-keyboard-response","128","72495","0.0-3.0-42.0-0.0","11","36963","11","386","","","","75","","20","","","70583","","","","","","","","","","0","A","0","1900","left","scramble","3500","1","1","6","37","outdoor_scenes","objects","Stimuli/Experimental_stims/scramble/outdoor_scenes/scrambled_meng-ji-8BH_M-53CyA-unsplash.jpg","Stimuli/Experimental_stims/scramble/objects/scrambled_alexander-andrews-VLGWE_SumrA-unsplash.jpg","NaN","NaN","1900","18300","1912","22776","","","","","","","","","","","","","","",""
"","scramble_prompt","","html-keyboard-response","129","72503","0.0-3.0-42.0-1.0-0.0","11","36963","11","null","","","","null","","20","","","72495","NaN","NaN","NaN","NaN","NaN","","","NaN","NaN","","","","","","","","1","","","","","","","","","","-900","20200","8","24688","-900","0","1","","","","","","","","","","","",""
"","deliberation_no_response","","html-keyboard-response","130","72614","0.0-3.0-42.0-3.0-0.0","11","36963","11","null","","","","null","","20","","","72503","","","","","","","","","","1","","","","","","","1","","","","","","","","","","100","19300","111","24696","","","","1","","","","","","","","","","",""
"","iti","","html-keyboard-response","131","72723","0.0-3.0-42.0-4.0","11","36963","11","null","","","","null","","20","","","72614","","","","","","","","","","","","","","","","","1","","","","","","","","","","100","19400","109","24807","100","","","","","","","","","","","","","",""
"","deliberation","","html-keyboard-response","132","73000","0.0-3.0-44.0-0.0","11","36963","11","273","","","","75","","21","","","72723","0","21","30","faces","body_parts","50","50","Stimuli/Experimental_stims/faces/leilani-angel-K84vnnzxmTQ-unsplash.jpg","Stimuli/Experimental_stims/body_parts/mika-korhonen-Xodzxosar18-unsplash.jpg","0","L","0","0","","original","1400","1","1","30","21","body_parts","faces","Stimuli/Experimental_stims/body_parts/mika-korhonen-Xodzxosar18-unsplash.jpg","Stimuli/Experimental_stims/faces/leilani-angel-K84vnnzxmTQ-unsplash.jpg","50","50","273","19500","277","24916","","","","","","","","","","","","","","",""
"","deliberation_confirmation","","html-keyboard-response","133","73735","0.0-3.0-44.0-2.0-0.0","11","36963","11","null","","","","null","","21","","","73000","","","","","","","","","","","","","","","","","1","","","","","","","","","","727","19773","735","25193","727","","","","","","","","","","","","","",""
"","iti","","html-keyboard-response","134","73846","0.0-3.0-44.0-4.0","11","36963","11","null","","","","null","","21","","","73735","","","","","","","","","","","","","","","","","1","","","","","","","","","","100","20500","111","25928","100","","","","","","","","","","","","","",""
"","deliberation","","html-keyboard-response","135","74146","0.0-3.0-46.0-0.0","11","36963","11","297","","","","75","","22","","","73846","0","2","25","outdoor_scenes","body_parts","50","50","Stimuli/Experimental_stims/outdoor_scenes/bruno-van-der-kraan-qez8mNJ3ilU-unsplash.jpg","Stimuli/Experimental_stims/body_parts/engin-akyurt-Q2rfH3GW39c-unsplash.jpg","0","I","0","0","","original","1300","1","1","25","2","body_parts","outdoor_scenes","Stimuli/Experimental_stims/body_parts/engin-akyurt-Q2rfH3GW39c-unsplash.jpg","Stimuli/Experimental_stims/outdoor_scenes/bruno-van-der-kraan-qez8mNJ3ilU-unsplash.jpg","50","50","297","20600","300","26039","","","","","","","","","","","","","","",""
"","deliberation_confirmation","","html-keyboard-response","136","74860","0.0-3.0-46.0-2.0-0.0","11","36963","11","null","","","","null","","22","","","74146","","","","","","","","","","","","","","","","","1","","","","","","","","","","703","20897","714","26339","703","","","","","","","","","","","","","",""
"","iti","","html-keyboard-response","137","74976","0.0-3.0-46.0-4.0","11","36963","11","null","","","","null","","22","","","74860","","","","","","","","","","","","","","","","","1","","","","","","","","","","100","21600","116","27053","100","","","","","","","","","","","","","",""
"","deliberation","","html-keyboard-response","138","75990","0.0-3.0-48.0-0.0","11","36963","11","67","","","","75","","23","","","74976","","","","","","","","","","0","G","0","1000","left","scramble","1100","1","1","42","4","objects","outdoor_scenes","Stimuli/Experimental_stims/scramble/objects/scrambled_jess-bailey-nOeVi8DsN8U-unsplash.jpg","Stimuli/Experimental_stims/scramble/outdoor_scenes/scrambled_jarrett-kow-1ZOyYPOBn7I-unsplash.jpg","NaN","NaN","1000","21700","1014","27169","","","","","","","","","","","","","","",""
"","scramble_prompt","","html-keyboard-response","139","75994","0.0-3.0-48.0-1.0-0.0","11","36963","11","null","","","","null","","23","","","75990","NaN","NaN","NaN","NaN","NaN","","","NaN","NaN","","","","","","","","1","","","","","","","","","","0","22700","4","28183","0","0","1","","","","","","","","","","","",""
"","deliberation_no_response","","html-keyboard-response","140","76100","0.0-3.0-48.0-3.0-0.0","11","36963","11","null","","","","null","","23","","","75994","","","","","","","","","","1","","","","","","","1","","","","","","","","","","100","22700","106","28187","","","","1","","","","","","","","","","",""
"","iti","","html-keyboard-response","141","76206","0.0-3.0-48.0-4.0","11","36963","11","null","","","","null","","23","","","76100","","","","","","","","","","","","","","","","","1","","","","","","","","","","100","22800","106","28293","100","","","","","","","","","","","","","",""
"","deliberation","","html-keyboard-response","142","76272","0.0-3.0-50.0-0.0","11","36963","11","63","","","","75","","24","","","76206","0","15","0","faces","outdoor_scenes","50","50","Stimuli/Experimental_stims/faces/erik-lucatero-d2MSDujJl2g-unsplash.jpg","Stimuli/Experimental_stims/outdoor_scenes/aleksandra-boguslawska-MS7KD9Ti7FQ-unsplash.jpg","0","B","0","0","","original","1200","1","1","0","15","outdoor_scenes","faces","Stimuli/Experimental_stims/outdoor_scenes/aleksandra-boguslawska-MS7KD9Ti7FQ-unsplash.jpg","Stimuli/Experimental_stims/faces/erik-lucatero-d2MSDujJl2g-unsplash.jpg","50","50","63","22900","66","28399","","","","","","","","","","","","","","",""
"","deliberation_confirmation","","html-keyboard-response","143","77225","0.0-3.0-50.0-2.0-0.0","11","36963","11","null","","","","null","","24","","","76272","","","","","","","","","","","","","","","","","1","","","","","","","","","","937","22963","953","28465","937","","","","","","","","","","","","","",""
"","iti","","html-keyboard-response","144","77336","0.0-3.0-50.0-4.0","11","36963","11","null","","","","null","","24","","","77225","","","","","","","","","","","","","","","","","1","","","","","","","","","","100","23900","111","29418","100","","","","","","","","","","","","","",""
"","deliberation","","html-keyboard-response","145","78646","0.0-3.0-52.0-0.0","11","36963","11","46","","","","75","","25","","","77336","","","","","","","","","","0","E","0","1300","right","scramble","1100","1","1","36","28","objects","body_parts","Stimuli/Experimental_stims/scramble/objects/scrambled_alexander-andrews-JYGnB9gTCls-unsplash.jpg","Stimuli/Experimental_stims/scramble/body_parts/scrambled_ira-vishnevskaya-8DQAvdCby1I-unsplash.jpg","NaN","NaN","1300","24000","1310","29529","","","","","","","","","","","","","","",""
"","scramble_prompt","","html-keyboard-response","146","78650","0.0-3.0-52.0-1.0-0.0","11","36963","11","null","","","","null","","25","","","78646","NaN","NaN","NaN","NaN","NaN","","","NaN","NaN","","","","","","","","1","","","","","","","","","","-300","25300","4","30839","-300","0","1","","","","","","","","","","","",""
"","deliberation_no_response","","html-keyboard-response","147","78754","0.0-3.0-52.0-3.0-0.0","11","36963","11","null","","","","null","","25","","","78650","","","","","","","","","","1","","","","","","","1","","","","","","","","","","100","25000","104","30843","","","","1","","","","","","","","","","",""
"","iti","","html-keyboard-response","148","78865","0.0-3.0-52.0-4.0","11","36963","11","null","","","","null","","25","","","78754","","","","","","","","","","","","","","","","","1","","","","","","","","","","100","25100","111","30947","100","","","","","","","","","","","","","",""
"","deliberation","","html-keyboard-response","149","78989","0.0-3.0-54.0-0.0","11","36963","11","121","","","","75","","26","","","78865","0","17","43","faces","objects","50","50","Stimuli/Experimental_stims/faces/good-faces-xmSWVeGEnJw-unsplash.jpg","Stimuli/Experimental_stims/objects/jonathan-greenaway-Y4hGgeiFn3s-unsplash.jpg","0","D","0","0","","original","1700","1","1","43","17","objects","faces","Stimuli/Experimental_stims/objects/jonathan-greenaway-Y4hGgeiFn3s-unsplash.jpg","Stimuli/Experimental_stims/faces/good-faces-xmSWVeGEnJw-unsplash.jpg","50","50","121","25200","124","31058","","","","","","","","","","","","","","",""
"","deliberation_confirmation","","html-keyboard-response","150","79876","0.0-3.0-54.0-2.0-0.0","11","36963","11","null","","","","null","","26","","","78989","","","","","","","","","","","","","","","","","1","","","","","","","","","","879","25321","887","31182","879","","","","","","","","","","","","","",""
"","iti","","html-keyboard-response","151","79990","0.0-3.0-54.0-4.0","11","36963","11","null","","","","null","","26","","","79876","","","","","","","","","","","","","","","","","1","","","","","","","","","","100","26200","114","32069","100","","","","","","","","","","","","","",""
"","deliberation","","html-keyboard-response","152","81101","0.0-3.0-56.0-0.0","11","36963","11","114","","","","75","","27","","","79990","","","","","","","","","","0","F","0","1100","left","scramble","2200","1","1","16","35","faces","body_parts","Stimuli/Experimental_stims/scramble/faces/scrambled_freddy-kearney-o-ioeoATbIM-unsplash.jpg","Stimuli/Experimental_stims/scramble/body_parts/scrambled_wc-so-KH4AAPjb-tI-unsplash.jpg","NaN","NaN","1100","26300","1111","32183","","","","","","","","","","","","","","",""
"","scramble_prompt","","html-keyboard-response","153","81106","0.0-3.0-56.0-1.0-0.0","11","36963","11","null","","","","null","","27","","","81101","NaN","NaN","NaN","NaN","NaN","","","NaN","NaN","","","","","","","","1","","","","","","","","","","-100","27400","5","33294","-100","0","1","","","","","","","","","","","",""
"","deliberation_no_response","","html-keyboard-response","154","81216","0.0-3.0-56.0-3.0-0.0","11","36963","11","null","","","","null","","27","","","81106","","","","","","","","","","1","","","","","","","1","","","","","","","","","","100","27300","110","33299","","","","1","","","","","","","","","","",""
"","iti","","html-keyboard-response","155","81324","0.0-3.0-56.0-4.0","11","36963","11","null","","","","null","","27","","","81216","","","","","","","","","","","","","","","","","1","","","","","","","","","","100","27400","108","33409","100","","","","","","","","","","","","","",""
"","deliberation","","html-keyboard-response","156","81504","0.0-3.0-58.0-0.0","11","36963","11","177","","","","75","","28","","","81324","0","40","26","objects","body_parts","50","50","Stimuli/Experimental_stims/objects/fabian-blank-pElSkGRA2NU-unsplash.jpg","Stimuli/Experimental_stims/body_parts/engin-akyurt-x_3gyC42btc-unsplash.jpg","0","K","0","0","","original","3200","2","1","26","40","body_parts","objects","Stimuli/Experimental_stims/body_parts/engin-akyurt-x_3gyC42btc-unsplash.jpg","Stimuli/Experimental_stims/objects/fabian-blank-pElSkGRA2NU-unsplash.jpg","50","50","177","27500","180","33517","","","","","","","","","","","","","","",""
"","deliberation_confirmation","","html-keyboard-response","157","82331","0.0-3.0-58.0-2.0-0.0","11","36963","11","null","","","","null","","28","","","81504","","","","","","","","","","","","","","","","","2","","","","","","","","","","823","27677","827","33697","823","","","","","","","","","","","","","",""
"","iti","","html-keyboard-response","158","82440","0.0-3.0-58.0-4.0","11","36963","11","null","","","","null","","28","","","82331","","","","","","","","","","","","","","","","","2","","","","","","","","","","100","28500","109","34524","100","","","","","","","","","","","","","",""
"","deliberation","","html-keyboard-response","159","82614","0.0-3.0-60.0-0.0","11","36963","11","171","","","","75","","29","","","82440","0","2","25","outdoor_scenes","body_parts","50","50","Stimuli/Experimental_stims/outdoor_scenes/bruno-van-der-kraan-qez8mNJ3ilU-unsplash.jpg","Stimuli/Experimental_stims/body_parts/engin-akyurt-Q2rfH3GW39c-unsplash.jpg","0","I","0","0","","original","2900","2","1","25","2","body_parts","outdoor_scenes","Stimuli/Experimental_stims/body_parts/engin-akyurt-Q2rfH3GW39c-unsplash.jpg","Stimuli/Experimental_stims/outdoor_scenes/bruno-van-der-kraan-qez8mNJ3ilU-unsplash.jpg","50","50","171","28600","174","34633","","","","","","","","","","","","","","",""
"","deliberation_confirmation","","html-keyboard-response","160","83454","0.0-3.0-60.0-2.0-0.0","11","36963","11","null","","","","null","","29","","","82614","","","","","","","","","","","","","","","","","2","","","","","","","","","","829","28771","840","34807","829","","","","","","","","","","","","","",""
"","iti","","html-keyboard-response","161","83567","0.0-3.0-60.0-4.0","11","36963","11","null","","","","null","","29","","","83454","","","","","","","","","","","","","","","","","2","","","","","","","","","","100","29600","113","35647","100","","","","","","","","","","","","","",""
"","deliberation","","html-keyboard-response","162","85177","0.0-3.0-62.0-0.0","11","36963","11","46","","","","75","","30","","","83567","","","","","","","","","","0","C","0","1600","right","scramble","1300","2","1","5","34","outdoor_scenes","body_parts","Stimuli/Experimental_stims/scramble/outdoor_scenes/scrambled_jeff-king-bJHWJeiHfHc-unsplash.jpg","Stimuli/Experimental_stims/scramble/body_parts/scrambled_wagner-santos-mBWMvIuVnso-unsplash.jpg","NaN","NaN","1600","29700","1610","35760","","","","","","","","","","","","","","",""
"","scramble_prompt","","html-keyboard-response","163","85182","0.0-3.0-62.0-1.0-0.0","11","36963","11","null","","","","null","","30","","","85177","NaN","NaN","NaN","NaN","NaN","","","NaN","NaN","","","","","","","","2","","","","","","","","","","-600","31300","5","37370","-600","0","1","","","","","","","","","","","",""
"","deliberation_no_response","","html-keyboard-response","164","85286","0.0-3.0-62.0-3.0-0.0","11","36963","11","null","","","","null","","30","","","85182","","","","","","","","","","1","","","","","","","2","","","","","","","","","","100","30700","104","37375","","","","1","","","","","","","","","","",""
"","iti","","html-keyboard-response","165","85399","0.0-3.0-62.0-4.0","11","36963","11","null","","","","null","","30","","","85286","","","","","","","","","","","","","","","","","2","","","","","","","","","","100","30800","113","37479","100","","","","","","","","","","","","","",""
"","deliberation","","html-keyboard-response","166","86111","0.0-3.0-64.0-0.0","11","36963","11","295","","","","75","","31","","","85399","","","","","","","","","","0","H","0","700","left","scramble","1000","2","1","19","8","faces","outdoor_scenes","Stimuli/Experimental_stims/scramble/faces/scrambled_joel-mott-LaK153ghdig-unsplash.jpg","Stimuli/Experimental_stims/scramble/outdoor_scenes/scrambled_samsommer-vddccTqwal8-unsplash.jpg","NaN","NaN","700","30900","712","37592","","","","","","","","","","","","","","",""
"","scramble_prompt","","html-keyboard-response","167","86306","0.0-3.0-64.0-1.0-0.0","11","36963","11","191","","","","75","","31","","","86111","0","8","19","outdoor_scenes","faces","","","Stimuli/Experimental_stims/scramble/outdoor_scenes/scrambled_samsommer-vddccTqwal8-unsplash.jpg","Stimuli/Experimental_stims/scramble/faces/scrambled_joel-mott-LaK153ghdig-unsplash.jpg","0","","","","","","","2","","","","","","","","","","191","31600","195","38304","300","0","","","","","","","","","","","","",""
"","deliberation_confirmation","","html-keyboard-response","168","86419","0.0-3.0-64.0-2.0-0.0","11","36963","11","null","","","","null","","31","","","86306","","","","","","","","","","","","","","","","","2","","","","","","","","","","109","31791","113","38499","109","","","","","","","","","","","","","",""
"","iti","","html-keyboard-response","169","86526","0.0-3.0-64.0-4.0","11","36963","11","null","","","","null","","31","","","86419","","","","","","","","","","","","","","","","","2","","","","","","","","","","100","31900","107","38612","100","","","","","","","","","","","","","",""
"","deliberation","","html-keyboard-response","170","86598","0.0-3.0-66.0-0.0","11","36963","11","69","","","","75","","32","","","86526","0","28","36","body_parts","objects","50","50","Stimuli/Experimental_stims/body_parts/ira-vishnevskaya-8DQAvdCby1I-unsplash.jpg","Stimuli/Experimental_stims/objects/alexander-andrews-JYGnB9gTCls-unsplash.jpg","0","E","0","0","","original","1000","2","1","36","28","objects","body_parts","Stimuli/Experimental_stims/objects/alexander-andrews-JYGnB9gTCls-unsplash.jpg","Stimuli/Experimental_stims/body_parts/ira-vishnevskaya-8DQAvdCby1I-unsplash.jpg","50","50","69","32000","72","38719","","","","","","","","","","","","","","",""
"","deliberation_confirmation","","html-keyboard-response","171","87532","0.0-3.0-66.0-2.0-0.0","11","36963","11","null","","","","null","","32","","","86598","","","","","","","","","","","","","","","","","2","","","","","","","","","","931","32069","934","38791","931","","","","","","","","","","","","","",""
"","iti","","html-keyboard-response","172","87649","0.0-3.0-66.0-4.0","11","36963","11","null","","","","null","","32","","","87532","","","","","","","","","","","","","","","","","2","","","","","","","","","","100","33000","117","39725","100","","","","","","","","","","","","","",""
"","deliberation","","html-keyboard-response","173","89461","0.0-3.0-68.0-0.0","11","36963","11","48","","","","75","","33","","","87649","","","","","","","","","","0","F","0","1800","right","scramble","1300","2","1","16","35","faces","body_parts","Stimuli/Experimental_stims/scramble/faces/scrambled_freddy-kearney-o-ioeoATbIM-unsplash.jpg","Stimuli/Experimental_stims/scramble/body_parts/scrambled_wc-so-KH4AAPjb-tI-unsplash.jpg","NaN","NaN","1800","33100","1812","39842","","","","","","","","","","","","","","",""
"","scramble_prompt","","html-keyboard-response","174","89465","0.0-3.0-68.0-1.0-0.0","11","36963","11","null","","","","null","","33","","","89461","NaN","NaN","NaN","NaN","NaN","","","NaN","NaN","","","","","","","","2","","","","","","","","","","-800","34900","4","41654","-800","0","1","","","","","","","","","","","",""
"","deliberation_no_response","","html-keyboard-response","175","89572","0.0-3.0-68.0-3.0-0.0","11","36963","11","null","","","","null","","33","","","89465","","","","","","","","","","1","","","","","","","2","","","","","","","","","","100","34100","107","41658","","","","1","","","","","","","","","","",""
"","iti","","html-keyboard-response","176","89687","0.0-3.0-68.0-4.0","11","36963","11","null","","","","null","","33","","","89572","","","","","","","","","","","","","","","","","2","","","","","","","","","","100","34200","115","41765","100","","","","","","","","","","","","","",""
"","deliberation","","html-keyboard-response","177","91600","0.0-3.0-70.0-0.0","11","36963","11","97","","","","75","","34","","","89687","","","","","","","","","","0","D","0","1900","left","scramble","2500","2","1","43","17","objects","faces","Stimuli/Experimental_stims/scramble/objects/scrambled_jonathan-greenaway-Y4hGgeiFn3s-unsplash.jpg","Stimuli/Experimental_stims/scramble/faces/scrambled_good-faces-xmSWVeGEnJw-unsplash.jpg","NaN","NaN","1900","34300","1913","41880","","","","","","","","","","","","","","",""
"","scramble_prompt","","html-keyboard-response","178","91607","0.0-3.0-70.0-1.0-0.0","11","36963","11","null","","","","null","","34","","","91600","NaN","NaN","NaN","NaN","NaN","","","NaN","NaN","","","","","","","","2","","","","","","","","","","-900","36200","7","43793","-900","0","1","","","","","","","","","","","",""
"","deliberation_no_response","","html-keyboard-response","179","91710","0.0-3.0-70.0-3.0-0.0","11","36963","11","null","","","","null","","34","","","91607","","","","","","","","","","1","","","","","","","2","","","","","","","","","","100","35300","103","43800","","","","1","","","","","","","","","","",""
"","iti","","html-keyboard-response","180","91824","0.0-3.0-70.0-4.0","11","36963","11","null","","","","null","","34","","","91710","","","","","","","","","","","","","","","","","2","","","","","","","","","","100","35400","114","43903","100","","","","","","","","","","","","","",""
"","deliberation","","html-keyboard-response","181","91991","0.0-3.0-72.0-0.0","11","36963","11","163","","","","75","","35","","","91824","0","34","5","body_parts","outdoor_scenes","50","50","Stimuli/Experimental_stims/body_parts/wagner-santos-mBWMvIuVnso-unsplash.jpg","Stimuli/Experimental_stims/outdoor_scenes/jeff-king-bJHWJeiHfHc-unsplash.jpg","0","C","0","0","","original","1700","2","1","5","34","outdoor_scenes","body_parts","Stimuli/Experimental_stims/outdoor_scenes/jeff-king-bJHWJeiHfHc-unsplash.jpg","Stimuli/Experimental_stims/body_parts/wagner-santos-mBWMvIuVnso-unsplash.jpg","50","50","163","35500","167","44017","","","","","","","","","","","","","","",""
"","deliberation_confirmation","","html-keyboard-response","182","92836","0.0-3.0-72.0-2.0-0.0","11","36963","11","null","","","","null","","35","","","91991","","","","","","","","","","","","","","","","","2","","","","","","","","","","837","35663","845","44184","837","","","","","","","","","","","","","",""
"","iti","","html-keyboard-response","183","92945","0.0-3.0-72.0-4.0","11","36963","11","null","","","","null","","35","","","92836","","","","","","","","","","","","","","","","","2","","","","","","","","","","100","36500","109","45029","100","","","","","","","","","","","","","",""
"","deliberation","","html-keyboard-response","184","94655","0.0-3.0-74.0-0.0","11","36963","11","145","","","","75","","36","","","92945","","","","","","","","","","0","B","0","1700","right","scramble","3800","2","1","0","15","outdoor_scenes","faces","Stimuli/Experimental_stims/scramble/outdoor_scenes/scrambled_aleksandra-boguslawska-MS7KD9Ti7FQ-unsplash.jpg","Stimuli/Experimental_stims/scramble/faces/scrambled_erik-lucatero-d2MSDujJl2g-unsplash.jpg","NaN","NaN","1700","36600","1710","45138","","","","","","","","","","","","","","",""
"","scramble_prompt","","html-keyboard-response","185","94660","0.0-3.0-74.0-1.0-0.0","11","36963","11","null","","","","null","","36","","","94655","NaN","NaN","NaN","NaN","NaN","","","NaN","NaN","","","","","","","","2","","","","","","","","","","-700","38300","5","46848","-700","0","1","","","","","","","","","","","",""
"","deliberation_no_response","","html-keyboard-response","186","94768","0.0-3.0-74.0-3.0-0.0","11","36963","11","null","","","","null","","36","","","94660","","","","","","","","","","1","","","","","","","2","","","","","","","","","","100","37600","108","46853","","","","1","","","","","","","","","","",""
"","iti","","html-keyboard-response","187","94880","0.0-3.0-74.0-4.0","11","36963","11","null","","","","null","","36","","","94768","","","","","","","","","","","","","","","","","2","","","","","","","","","","100","37700","112","46961","100","","","","","","","","","","","","","",""
"","deliberation","","html-keyboard-response","188","94933","0.0-3.0-76.0-0.0","11","36963","11","51","","","","75","","37","","","94880","0","37","6","objects","outdoor_scenes","50","50","Stimuli/Experimental_stims/objects/alexander-andrews-VLGWE_SumrA-unsplash.jpg","Stimuli/Experimental_stims/outdoor_scenes/meng-ji-8BH_M-53CyA-unsplash.jpg","0","A","0","0","","original","2400","2","1","6","37","outdoor_scenes","objects","Stimuli/Experimental_stims/outdoor_scenes/meng-ji-8BH_M-53CyA-unsplash.jpg","Stimuli/Experimental_stims/objects/alexander-andrews-VLGWE_SumrA-unsplash.jpg","50","50","51","37800","53","47073","","","","","","","","","","","","","","",""
"","deliberation_confirmation","","html-keyboard-response","189","95895","0.0-3.0-76.0-2.0-0.0","11","36963","11","null","","","","null","","37","","","94933","","","","","","","","","","","","","","","","","2","","","","","","","","","","949","37851","962","47126","949","","","","","","","","","","","","","",""
"","iti","","html-keyboard-response","190","96007","0.0-3.0-76.0-4.0","11","36963","11","null","","","","null","","37","","","95895","","","","","","","","","","","","","","","","","2","","","","","","","","","","100","38800","112","48088","100","","","","","","","","","","","","","",""
"","deliberation","","html-keyboard-response","191","96148","0.0-3.0-78.0-0.0","11","36963","11","138","","","","75","","38","","","96007","0","35","16","body_parts","faces","50","50","Stimuli/Experimental_stims/body_parts/wc-so-KH4AAPjb-tI-unsplash.jpg","Stimuli/Experimental_stims/faces/freddy-kearney-o-ioeoATbIM-unsplash.jpg","0","F","0","0","","original","2000","2","1","16","35","faces","body_parts","Stimuli/Experimental_stims/faces/freddy-kearney-o-ioeoATbIM-unsplash.jpg","Stimuli/Experimental_stims/body_parts/wc-so-KH4AAPjb-tI-unsplash.jpg","50","50","138","38900","141","48200","","","","","","","","","","","","","","",""
"","deliberation_confirmation","","html-keyboard-response","192","97025","0.0-3.0-78.0-2.0-0.0","11","36963","11","null","","","","null","","38","","","96148","","","","","","","","","","","","","","","","","2","","","","","","","","","","862","39038","877","48341","862","","","","","","","","","","","","","",""
"","iti","","html-keyboard-response","193","97135","0.0-3.0-78.0-4.0","11","36963","11","null","","","","null","","38","","","97025","","","","","","","","","","","","","","","","","2","","","","","","","","","","100","39900","110","49218","100","","","","","","","","","","","","","",""
"","deliberation","","html-keyboard-response","194","98544","0.0-3.0-80.0-0.0","11","36963","11","39","","","","75","","39","","","97135","","","","","","","","","","0","K","0","1400","right","scramble","1800","2","1","26","40","body_parts","objects","Stimuli/Experimental_stims/scramble/body_parts/scrambled_engin-akyurt-x_3gyC42btc-unsplash.jpg","Stimuli/Experimental_stims/scramble/objects/scrambled_fabian-blank-pElSkGRA2NU-unsplash.jpg","NaN","NaN","1400","40000","1409","49328","","","","","","","","","","","","","","",""
"","scramble_prompt","","html-keyboard-response","195","98548","0.0-3.0-80.0-1.0-0.0","11","36963","11","null","","","","null","","39","","","98544","NaN","NaN","NaN","NaN","NaN","","","NaN","NaN","","","","","","","","2","","","","","","","","","","-400","41400","4","50737","-400","0","1","","","","","","","","","","","",""
"","deliberation_no_response","","html-keyboard-response","196","98655","0.0-3.0-80.0-3.0-0.0","11","36963","11","null","","","","null","","39","","","98548","","","","","","","","","","1","","","","","","","2","","","","","","","","","","100","41000","107","50741","","","","1","","","","","","","","","","",""
"","iti","","html-keyboard-response","197","98766","0.0-3.0-80.0-4.0","11","36963","11","null","","","","null","","39","","","98655","","","","","","","","","","","","","","","","","2","","","","","","","","","","100","41100","111","50848","100","","","","","","","","","","","","","",""
"","deliberation","","html-keyboard-response","198","99010","0.0-3.0-82.0-0.0","11","36963","11","241","","","","75","","40","","","98766","0","21","30","faces","body_parts","50","50","Stimuli/Experimental_stims/faces/leilani-angel-K84vnnzxmTQ-unsplash.jpg","Stimuli/Experimental_stims/body_parts/mika-korhonen-Xodzxosar18-unsplash.jpg","0","L","0","0","","original","1700","2","1","30","21","body_parts","faces","Stimuli/Experimental_stims/body_parts/mika-korhonen-Xodzxosar18-unsplash.jpg","Stimuli/Experimental_stims/faces/leilani-angel-K84vnnzxmTQ-unsplash.jpg","50","50","241","41200","244","50959","","","","","","","","","","","","","","",""
"","deliberation_confirmation","","html-keyboard-response","199","99782","0.0-3.0-82.0-2.0-0.0","11","36963","11","null","","","","null","","40","","","99010","","","","","","","","","","","","","","","","","2","","","","","","","","","","759","41441","772","51203","759","","","","","","","","","","","","","",""
"","iti","","html-keyboard-response","200","99894","0.0-3.0-82.0-4.0","11","36963","11","null","","","","null","","40","","","99782","","","","","","","","","","","","","","","","","2","","","","","","","","","","100","42200","112","51975","100","","","","","","","","","","","","","",""
"","deliberation","","html-keyboard-response","201","99899","0.0-3.0-84.0-0.0","11","36963","11","2","","","","75","","41","","","99894","0","17","43","faces","objects","50","50","Stimuli/Experimental_stims/faces/good-faces-xmSWVeGEnJw-unsplash.jpg","Stimuli/Experimental_stims/objects/jonathan-greenaway-Y4hGgeiFn3s-unsplash.jpg","0","D","0","0","","original","1500","2","1","43","17","objects","faces","Stimuli/Experimental_stims/objects/jonathan-greenaway-Y4hGgeiFn3s-unsplash.jpg","Stimuli/Experimental_stims/faces/good-faces-xmSWVeGEnJw-unsplash.jpg","50","50","2","42300","5","52087","","","","","","","","","","","","","","",""
"","deliberation_confirmation","","html-keyboard-response","202","100911","0.0-3.0-84.0-2.0-0.0","11","36963","11","null","","","","null","","41","","","99899","","","","","","","","","","","","","","","","","2","","","","","","","","","","998","42302","1012","52092","998","","","","","","","","","","","","","",""
"","iti","","html-keyboard-response","203","101025","0.0-3.0-84.0-4.0","11","36963","11","null","","","","null","","41","","","100911","","","","","","","","","","","","","","","","","2","","","","","","","","","","100","43300","114","53104","100","","","","","","","","","","","","","",""
"","deliberation","","html-keyboard-response","204","102236","0.0-3.0-86.0-0.0","11","36963","11","64","","","","75","","42","","","101025","","","","","","","","","","0","A","0","1200","left","scramble","2400","2","1","6","37","outdoor_scenes","objects","Stimuli/Experimental_stims/scramble/outdoor_scenes/scrambled_meng-ji-8BH_M-53CyA-unsplash.jpg","Stimuli/Experimental_stims/scramble/objects/scrambled_alexander-andrews-VLGWE_SumrA-unsplash.jpg","NaN","NaN","1200","43400","1211","53218","","","","","","","","","","","","","","",""
"","scramble_prompt","","html-keyboard-response","205","102239","0.0-3.0-86.0-1.0-0.0","11","36963","11","null","","","","null","","42","","","102236","NaN","NaN","NaN","NaN","NaN","","","NaN","NaN","","","","","","","","2","","","","","","","","","","-200","44600","3","54429","-200","0","1","","","","","","","","","","","",""
"","deliberation_no_response","","html-keyboard-response","206","102343","0.0-3.0-86.0-3.0-0.0","11","36963","11","null","","","","null","","42","","","102239","","","","","","","","","","1","","","","","","","2","","","","","","","","","","100","44400","104","54432","","","","1","","","","","","","","","","",""
"","iti","","html-keyboard-response","207","102453","0.0-3.0-86.0-4.0","11","36963","11","null","","","","null","","42","","","102343","","","","","","","","","","","","","","","","","2","","","","","","","","","","100","44500","110","54536","100","","","","","","","","","","","","","",""
"","deliberation","","html-keyboard-response","208","102585","0.0-3.0-88.0-0.0","11","36963","11","128","","","","75","","43","","","102453","0","4","42","outdoor_scenes","objects","50","50","Stimuli/Experimental_stims/outdoor_scenes/jarrett-kow-1ZOyYPOBn7I-unsplash.jpg","Stimuli/Experimental_stims/objects/jess-bailey-nOeVi8DsN8U-unsplash.jpg","0","G","0","0","","original","3600","2","1","42","4","objects","outdoor_scenes","Stimuli/Experimental_stims/objects/jess-bailey-nOeVi8DsN8U-unsplash.jpg","Stimuli/Experimental_stims/outdoor_scenes/jarrett-kow-1ZOyYPOBn7I-unsplash.jpg","50","50","128","44600","132","54646","","","","","","","","","","","","","","",""
"","deliberation_confirmation","","html-keyboard-response","209","103471","0.0-3.0-88.0-2.0-0.0","11","36963","11","null","","","","null","","43","","","102585","","","","","","","","","","","","","","","","","2","","","","","","","","","","872","44728","886","54778","872","","","","","","","","","","","","","",""
"","iti","","html-keyboard-response","210","103583","0.0-3.0-88.0-4.0","11","36963","11","null","","","","null","","43","","","103471","","","","","","","","","","","","","","","","","2","","","","","","","","","","100","45600","112","55664","100","","","","","","","","","","","","","",""
"","deliberation","","html-keyboard-response","211","105389","0.0-3.0-90.0-0.0","11","36963","11","228","","","","75","","44","","","103583","","","","","","","","","","0","G","0","1800","right","scramble","1300","2","1","42","4","objects","outdoor_scenes","Stimuli/Experimental_stims/scramble/objects/scrambled_jess-bailey-nOeVi8DsN8U-unsplash.jpg","Stimuli/Experimental_stims/scramble/outdoor_scenes/scrambled_jarrett-kow-1ZOyYPOBn7I-unsplash.jpg","NaN","NaN","1800","45700","1806","55776","","","","","","","","","","","","","","",""
"","scramble_prompt","","html-keyboard-response","212","105392","0.0-3.0-90.0-1.0-0.0","11","36963","11","null","","","","null","","44","","","105389","NaN","NaN","NaN","NaN","NaN","","","NaN","NaN","","","","","","","","2","","","","","","","","","","-800","47500","3","57582","-800","0","1","","","","","","","","","","","",""
"","deliberation_no_response","","html-keyboard-response","213","105503","0.0-3.0-90.0-3.0-0.0","11","36963","11","null","","","","null","","44","","","105392","","","","","","","","","","1","","","","","","","2","","","","","","","","","","100","46700","111","57585","","","","1","","","","","","","","","","",""
"","iti","","html-keyboard-response","214","105617","0.0-3.0-90.0-4.0","11","36963","11","null","","","","null","","44","","","105503","","","","","","","","","","","","","","","","","2","","","","","","","","","","100","46800","114","57696","100","","","","","","","","","","","","","",""
"","deliberation","","html-keyboard-response","215","107432","0.0-3.0-92.0-0.0","11","36963","11","12","","","","75","","45","","","105617","","","","","","","","","","0","J","0","1800","left","scramble","1000","2","1","23","47","faces","objects","Stimuli/Experimental_stims/scramble/faces/scrambled_rikonavt-HQjfrvdTfak-unsplash.jpg","Stimuli/Experimental_stims/scramble/objects/scrambled_ronaldo-arthur-vidal-Cdz_lvnl37k-unsplash.jpg","NaN","NaN","1800","46900","1815","57810","","","","","","","","","","","","","","",""
"","scramble_prompt","","html-keyboard-response","216","107441","0.0-3.0-92.0-1.0-0.0","11","36963","11","null","","","","null","","45","","","107432","NaN","NaN","NaN","NaN","NaN","","","NaN","NaN","","","","","","","","2","","","","","","","","","","-800","48700","9","59625","-800","0","1","","","","","","","","","","","",""
"","deliberation_no_response","","html-keyboard-response","217","107545","0.0-3.0-92.0-3.0-0.0","11","36963","11","null","","","","null","","45","","","107441","","","","","","","","","","1","","","","","","","2","","","","","","","","","","100","47900","104","59634","","","","1","","","","","","","","","","",""
"","iti","","html-keyboard-response","218","107654","0.0-3.0-92.0-4.0","11","36963","11","null","","","","null","","45","","","107545","","","","","","","","","","","","","","","","","2","","","","","","","","","","100","48000","109","59738","100","","","","","","","","","","","","","",""
"","deliberation","","html-keyboard-response","219","107868","0.0-3.0-94.0-0.0","11","36963","11","210","","","","75","","46","","","107654","0","15","0","faces","outdoor_scenes","50","50","Stimuli/Experimental_stims/faces/erik-lucatero-d2MSDujJl2g-unsplash.jpg","Stimuli/Experimental_stims/outdoor_scenes/aleksandra-boguslawska-MS7KD9Ti7FQ-unsplash.jpg","0","B","0","0","","original","1700","2","1","0","15","outdoor_scenes","faces","Stimuli/Experimental_stims/outdoor_scenes/aleksandra-boguslawska-MS7KD9Ti7FQ-unsplash.jpg","Stimuli/Experimental_stims/faces/erik-lucatero-d2MSDujJl2g-unsplash.jpg","50","50","210","48100","214","59847","","","","","","","","","","","","","","",""
"","deliberation_confirmation","","html-keyboard-response","220","108673","0.0-3.0-94.0-2.0-0.0","11","36963","11","null","","","","null","","46","","","107868","","","","","","","","","","","","","","","","","2","","","","","","","","","","790","48310","805","60061","790","","","","","","","","","","","","","",""
"","iti","","html-keyboard-response","221","108783","0.0-3.0-94.0-4.0","11","36963","11","null","","","","null","","46","","","108673","","","","","","","","","","","","","","","","","2","","","","","","","","","","100","49100","110","60866","100","","","","","","","","","","","","","",""
"","deliberation","","html-keyboard-response","222","110097","0.0-3.0-96.0-0.0","11","36963","11","214","","","","75","","47","","","108783","","","","","","","","","","0","I","0","1300","right","scramble","1200","2","1","25","2","body_parts","outdoor_scenes","Stimuli/Experimental_stims/scramble/body_parts/scrambled_engin-akyurt-Q2rfH3GW39c-unsplash.jpg","Stimuli/Experimental_stims/scramble/outdoor_scenes/scrambled_bruno-van-der-kraan-qez8mNJ3ilU-unsplash.jpg","NaN","NaN","1300","49200","1314","60976","","","","","","","","","","","","","","",""
"","scramble_prompt","","html-keyboard-response","223","110102","0.0-3.0-96.0-1.0-0.0","11","36963","11","null","","","","null","","47","","","110097","NaN","NaN","NaN","NaN","NaN","","","NaN","NaN","","","","","","","","2","","","","","","","","","","-300","50500","5","62290","-300","0","1","","","","","","","","","","","",""
"","deliberation_no_response","","html-keyboard-response","224","110213","0.0-3.0-96.0-3.0-0.0","11","36963","11","null","","","","null","","47","","","110102","","","","","","","","","","1","","","","","","","2","","","","","","","","","","100","50200","111","62295","","","","1","","","","","","","","","","",""
"","iti","","html-keyboard-response","225","110329","0.0-3.0-96.0-4.0","11","36963","11","null","","","","null","","47","","","110213","","","","","","","","","","","","","","","","","2","","","","","","","","","","100","50300","116","62406","100","","","","","","","","","","","","","",""
"","deliberation","","html-keyboard-response","226","110401","0.0-3.0-98.0-0.0","11","36963","11","68","","","","75","","48","","","110329","0","8","19","outdoor_scenes","faces","50","50","Stimuli/Experimental_stims/outdoor_scenes/samsommer-vddccTqwal8-unsplash.jpg","Stimuli/Experimental_stims/faces/joel-mott-LaK153ghdig-unsplash.jpg","0","H","0","0","","original","2800","2","1","19","8","faces","outdoor_scenes","Stimuli/Experimental_stims/faces/joel-mott-LaK153ghdig-unsplash.jpg","Stimuli/Experimental_stims/outdoor_scenes/samsommer-vddccTqwal8-unsplash.jpg","50","50","68","50400","72","62522","","","","","","","","","","","","","","",""
"","deliberation_confirmation","","html-keyboard-response","227","111343","0.0-3.0-98.0-2.0-0.0","11","36963","11","null","","","","null","","48","","","110401","","","","","","","","","","","","","","","","","2","","","","","","","","","","932","50468","942","62594","932","","","","","","","","","","","","","",""
"","iti","","html-keyboard-response","228","111455","0.0-3.0-98.0-4.0","11","36963","11","null","","","","null","","48","","","111343","","","","","","","","","","","","","","","","","2","","","","","","","","","","100","51400","112","63536","100","","","","","","","","","","","","","",""
"","deliberation","","html-keyboard-response","229","112769","0.0-3.0-100.0-0.0","11","36963","11","670","","","","75","","49","","","111455","","","","","","","","","","0","L","0","1300","left","scramble","1400","2","1","30","21","body_parts","faces","Stimuli/Experimental_stims/scramble/body_parts/scrambled_mika-korhonen-Xodzxosar18-unsplash.jpg","Stimuli/Experimental_stims/scramble/faces/scrambled_leilani-angel-K84vnnzxmTQ-unsplash.jpg","NaN","NaN","1300","51500","1314","63648","","","","","","","","","","","","","","",""
"","scramble_prompt","","html-keyboard-response","230","112773","0.0-3.0-100.0-1.0-0.0","11","36963","11","null","","","","null","","49","","","112769","NaN","NaN","NaN","NaN","NaN","","","NaN","NaN","","","","","","","","2","","","","","","","","","","-300","52800","4","64962","-300","0","1","","","","","","","","","","","",""
"","deliberation_no_response","","html-keyboard-response","231","112886","0.0-3.0-100.0-3.0-0.0","11","36963","11","null","","","","null","","49","","","112773","","","","","","","","","","1","","","","","","","2","","","","","","","","","","100","52500","113","64966","","","","1","","","","","","","","","","",""
"","iti","","html-keyboard-response","232","112999","0.0-3.0-100.0-4.0","11","36963","11","null","","","","null","","49","","","112886","","","","","","","","","","","","","","","","","2","","","","","","","","","","100","52600","113","65079","100","","","","","","","","","","","","","",""
"","deliberation","","html-keyboard-response","233","114005","0.0-3.0-102.0-0.0","11","36963","11","184","","","","75","","50","","","112999","","","","","","","","","","0","E","0","1000","left","scramble","1300","2","1","36","28","objects","body_parts","Stimuli/Experimental_stims/scramble/objects/scrambled_alexander-andrews-JYGnB9gTCls-unsplash.jpg","Stimuli/Experimental_stims/scramble/body_parts/scrambled_ira-vishnevskaya-8DQAvdCby1I-unsplash.jpg","NaN","NaN","1000","52700","1006","65192","","","","","","","","","","","","","","",""
"","scramble_prompt","","html-keyboard-response","234","114013","0.0-3.0-102.0-1.0-0.0","11","36963","11","null","","","","null","","50","","","114005","NaN","NaN","NaN","NaN","NaN","","","NaN","NaN","","","","","","","","2","","","","","","","","","","0","53700","8","66198","0","0","1","","","","","","","","","","","",""
"","deliberation_no_response","","html-keyboard-response","235","114118","0.0-3.0-102.0-3.0-0.0","11","36963","11","null","","","","null","","50","","","114013","","","","","","","","","","1","","","","","","","2","","","","","","","","","","100","53700","105","66206","","","","1","","","","","","","","","","",""
"","iti","","html-keyboard-response","236","114232","0.0-3.0-102.0-4.0","11","36963","11","null","","","","null","","50","","","114118","","","","","","","","","","","","","","","","","2","","","","","","","","","","100","53800","114","66311","100","","","","","","","","","","","","","",""
"","deliberation","","html-keyboard-response","237","114318","0.0-3.0-104.0-0.0","11","36963","11","83","","","","75","","51","","","114232","0","47","23","objects","faces","50","50","Stimuli/Experimental_stims/objects/ronaldo-arthur-vidal-Cdz_lvnl37k-unsplash.jpg","Stimuli/Experimental_stims/faces/rikonavt-HQjfrvdTfak-unsplash.jpg","0","J","0","0","","original","4900","2","1","23","47","faces","objects","Stimuli/Experimental_stims/faces/rikonavt-HQjfrvdTfak-unsplash.jpg","Stimuli/Experimental_stims/objects/ronaldo-arthur-vidal-Cdz_lvnl37k-unsplash.jpg","50","50","83","53900","86","66425","","","","","","","","","","","","","","",""
"","deliberation_confirmation","","html-keyboard-response","238","115248","0.0-3.0-104.0-2.0-0.0","11","36963","11","null","","","","null","","51","","","114318","","","","","","","","","","","","","","","","","2","","","","","","","","","","917","53983","930","66511","917","","","","","","","","","","","","","",""
"","iti","","html-keyboard-response","239","115353","0.0-3.0-104.0-4.0","11","36963","11","null","","","","null","","51","","","115248","","","","","","","","","","","","","","","","","2","","","","","","","","","","100","54900","105","67441","100","","","","","","","","","","","","","",""
"","deliberation_run_over","","html-keyboard-response","240","119554","0.0-3.0-104.0-6.0-0.0","11","36963","11","4198","","","","68","","51","","","","","","","","","","","","","","","","","","","","","","","","","","","","","","","","","","","","","","","","","","","","","","","",""
"","start_run","","html-keyboard-response","241","120544","0.0-3.0-104.0-6.0-1.0","11","36963","11","988","","","","84","","","","","","","","","","","","","","","","","","","","","","","","","","","","","","","","","","","","","","","","","","","","","","","","","",""
"","deliberation","","html-keyboard-response","242","121456","0.0-3.0-106.0-0.0","11","36963","11","779","","","","75","","52","","","120544","","","","","","","","","","0","E","0","900","right","scramble","3800","3","2","36","28","objects","body_parts","Stimuli/Experimental_stims/scramble/objects/scrambled_alexander-andrews-JYGnB9gTCls-unsplash.jpg","Stimuli/Experimental_stims/scramble/body_parts/scrambled_ira-vishnevskaya-8DQAvdCby1I-unsplash.jpg","NaN","NaN","900","0","912","0","","","","","","","","","","","","","","",""
"","scramble_prompt","","html-keyboard-response","243","121568","0.0-3.0-106.0-1.0-0.0","11","36963","11","null","","","","null","","52","","","121456","NaN","NaN","NaN","NaN","NaN","","","NaN","NaN","","","","","","","","3","","","","","","","","","","100","900","112","912","100","0","1","","","","","","","","","","","",""
"","deliberation_no_response","","html-keyboard-response","244","121679","0.0-3.0-106.0-3.0-0.0","11","36963","11","null","","","","null","","52","","","121568","","","","","","","","","","1","","","","","","","3","","","","","","","","","","100","1000","111","1024","","","","1","","","","","","","","","","",""
"","iti","","html-keyboard-response","245","121792","0.0-3.0-106.0-4.0","11","36963","11","null","","","","null","","52","","","121679","","","","","","","","","","","","","","","","","3","","","","","","","","","","100","1100","113","1135","100","","","","","","","","","","","","","",""
"","deliberation","","html-keyboard-response","246","121882","0.0-3.0-108.0-0.0","11","36963","11","87","","","","75","","53","","","121792","0","47","23","objects","faces","50","50","Stimuli/Experimental_stims/objects/ronaldo-arthur-vidal-Cdz_lvnl37k-unsplash.jpg","Stimuli/Experimental_stims/faces/rikonavt-HQjfrvdTfak-unsplash.jpg","0","J","0","0","","original","2100","3","2","23","47","faces","objects","Stimuli/Experimental_stims/faces/rikonavt-HQjfrvdTfak-unsplash.jpg","Stimuli/Experimental_stims/objects/ronaldo-arthur-vidal-Cdz_lvnl37k-unsplash.jpg","50","50","87","1200","90","1248","","","","","","","","","","","","","","",""
"","deliberation_confirmation","","html-keyboard-response","247","122808","0.0-3.0-108.0-2.0-0.0","11","36963","11","null","","","","null","","53","","","121882","","","","","","","","","","","","","","","","","3","","","","","","","","","","913","1287","926","1338","913","","","","","","","","","","","","","",""
"","iti","","html-keyboard-response","248","122921","0.0-3.0-108.0-4.0","11","36963","11","null","","","","null","","53","","","122808","","","","","","","","","","","","","","","","","3","","","","","","","","","","100","2200","113","2264","100","","","","","","","","","","","","","",""
"","deliberation","","html-keyboard-response","249","123257","0.0-3.0-110.0-0.0","11","36963","11","333","","","","75","","54","","","122921","0","40","26","objects","body_parts","50","50","Stimuli/Experimental_stims/objects/fabian-blank-pElSkGRA2NU-unsplash.jpg","Stimuli/Experimental_stims/body_parts/engin-akyurt-x_3gyC42btc-unsplash.jpg","0","K","0","0","","original","1500","3","2","26","40","body_parts","objects","Stimuli/Experimental_stims/body_parts/engin-akyurt-x_3gyC42btc-unsplash.jpg","Stimuli/Experimental_stims/objects/fabian-blank-pElSkGRA2NU-unsplash.jpg","50","50","333","2300","336","2377","","","","","","","","","","","","","","",""
"","deliberation_confirmation","","html-keyboard-response","250","123936","0.0-3.0-110.0-2.0-0.0","11","36963","11","null","","","","null","","54","","","123257","","","","","","","","","","","","","","","","","3","","","","","","","","","","667","2633","679","2713","667","","","","","","","","","","","","","",""
"","iti","","html-keyboard-response","251","124049","0.0-3.0-110.0-4.0","11","36963","11","null","","","","null","","54","","","123936","","","","","","","","","","","","","","","","","3","","","","","","","","","","100","3300","113","3392","100","","","","","","","","","","","","","",""
"","deliberation","","html-keyboard-response","252","124956","0.0-3.0-112.0-0.0","11","36963","11","192","","","","75","","55","","","124049","","","","","","","","","","0","K","0","900","left","scramble","2100","3","2","26","40","body_parts","objects","Stimuli/Experimental_stims/scramble/body_parts/scrambled_engin-akyurt-x_3gyC42btc-unsplash.jpg","Stimuli/Experimental_stims/scramble/objects/scrambled_fabian-blank-pElSkGRA2NU-unsplash.jpg","NaN","NaN","900","3400","907","3505","","","","","","","","","","","","","","",""
"","scramble_prompt","","html-keyboard-response","253","125069","0.0-3.0-112.0-1.0-0.0","11","36963","11","null","","","","null","","55","","","124956","NaN","NaN","NaN","NaN","NaN","","","NaN","NaN","","","","","","","","3","","","","","","","","","","100","4300","113","4412","100","0","1","","","","","","","","","","","",""
"","deliberation_no_response","","html-keyboard-response","254","125183","0.0-3.0-112.0-3.0-0.0","11","36963","11","null","","","","null","","55","","","125069","","","","","","","","","","1","","","","","","","3","","","","","","","","","","100","4400","114","4525","","","","1","","","","","","","","","","",""
"","iti","","html-keyboard-response","255","125296","0.0-3.0-112.0-4.0","11","36963","11","null","","","","null","","55","","","125183","","","","","","","","","","","","","","","","","3","","","","","","","","","","100","4500","113","4639","100","","","","","","","","","","","","","",""
"","deliberation","","html-keyboard-response","256","125303","0.0-3.0-114.0-0.0","11","36963","11","3","","","","75","","56","","","125296","0","28","36","body_parts","objects","50","50","Stimuli/Experimental_stims/body_parts/ira-vishnevskaya-8DQAvdCby1I-unsplash.jpg","Stimuli/Experimental_stims/objects/alexander-andrews-JYGnB9gTCls-unsplash.jpg","0","E","0","0","","original","1400","3","2","36","28","objects","body_parts","Stimuli/Experimental_stims/objects/alexander-andrews-JYGnB9gTCls-unsplash.jpg","Stimuli/Experimental_stims/body_parts/ira-vishnevskaya-8DQAvdCby1I-unsplash.jpg","50","50","3","4600","7","4752","","","","","","","","","","","","","","",""
"","deliberation_confirmation","","html-keyboard-response","257","126309","0.0-3.0-114.0-2.0-0.0","11","36963","11","null","","","","null","","56","","","125303","","","","","","","","","","","","","","","","","3","","","","","","","","","","997","4603","1006","4759","997","","","","","","","","","","","","","",""
"","iti","","html-keyboard-response","258","126423","0.0-3.0-114.0-4.0","11","36963","11","null","","","","null","","56","","","126309","","","","","","","","","","","","","","","","","3","","","","","","","","","","100","5600","114","5765","100","","","","","","","","","","","","","",""
"","deliberation","","html-keyboard-response","259","127630","0.0-3.0-116.0-0.0","11","36963","11","158","","","","75","","57","","","126423","","","","","","","","","","0","L","0","1200","left","scramble","2400","3","2","30","21","body_parts","faces","Stimuli/Experimental_stims/scramble/body_parts/scrambled_mika-korhonen-Xodzxosar18-unsplash.jpg","Stimuli/Experimental_stims/scramble/faces/scrambled_leilani-angel-K84vnnzxmTQ-unsplash.jpg","NaN","NaN","1200","5700","1207","5879","","","","","","","","","","","","","","",""
"","scramble_prompt","","html-keyboard-response","260","127635","0.0-3.0-116.0-1.0-0.0","11","36963","11","null","","","","null","","57","","","127630","NaN","NaN","NaN","NaN","NaN","","","NaN","NaN","","","","","","","","3","","","","","","","","","","-200","6900","5","7086","-200","0","1","","","","","","","","","","","",""
"","deliberation_no_response","","html-keyboard-response","261","127743","0.0-3.0-116.0-3.0-0.0","11","36963","11","null","","","","null","","57","","","127635","","","","","","","","","","1","","","","","","","3","","","","","","","","","","100","6700","108","7091","","","","1","","","","","","","","","","",""
"","iti","","html-keyboard-response","262","127852","0.0-3.0-116.0-4.0","11","36963","11","null","","","","null","","57","","","127743","","","","","","","","","","","","","","","","","3","","","","","","","","","","100","6800","109","7199","100","","","","","","","","","","","","","",""
