"success","ttype","start_time","trial_type","trial_index","time_elapsed","internal_node_id","age","PID","gender","rt","responses","view_history","repeat_instructions","key_press","missed_checkup","response","index","stimulus_index","path","start_time_elapsed","run","task","isi","is_odd_ball","no_response","acc","duration","onset","duration_time_elapsed","onset_time_elapsed","trial_duration","left_chosen","chosen_stimulus","unchosen_stimulus","chosen_category","unchosen_category","chosen_rating","unchosen_rating","chosen_path","unchosen_path","pair_id","practice","scramble_screen_time","scramble_instructed_side","stim_type","iti","block","left_stimulus","right_stimulus","left_category","right_category","left_path","right_path","left_rating","right_rating","scramble_acc","scramble_no_response","warning","stimulus_id","item_id","outcome","response_rt","deliberation_reward_tally","choice_type","gain_left","left_item_id","right_item_id","higher_outcome_chosen","chosen_left","old_pair","pair_type","old_response","pair_acc","reward_type","outcome_response","outcome_rt","outcome_acc","category","choice","deliberated_stim","old_rating","new_rating","total_reward_tally"
"true","full_screen","d08172023hr1902","fullscreen","0","2922","0.0-0.0-0.0","24","74897","female","","","","","","","","","","","","","","","","","","","","","","","","","","","","","","","","","","","","","","","","","","","","","","","","","","","","","","","","","","","","","","","","","","","","","","","","","",""
"","get_id","","survey-text","1","7383","0.0-0.0-1.0","24","74897","female","4457","{""Q0"":""24"",""Q1"":""female""}","","","","","","","","","","","","","","","","","","","","","","","","","","","","","","","","","","","","","","","","","","","","","","","","","","","","","","","","","","","","","","","","","","","","","","","",""
"","ratings_instructions","","instructions","2","19697","0.0-1.0-0.0-0.0","24","74897","female","10805","","[{""page_index"":0,""viewing_time"":8435},{""page_index"":1,""viewing_time"":2369}]","","","","","","","","","","","","","","","","","","","","","","","","","","","","","","","","","","","","","","","","","","","","","","","","","","","","","","","","","","","","","","","","","","","","","","",""
"","rating_comprehension_check","","survey-multi-choice","3","24558","0.0-1.0-0.0-1.0","24","74897","female","4855","{""Q0"":""True"",""Q1"":""Two optional keys""}","","1","","","","","","","","","","","","","","","","","","","","","","","","","","","","","","","","","","","","","","","","","","","","","","","","","","","","","","","","","","","","","","","","","","","","","",""
"","missed_instruction_checkup","","html-keyboard-response","4","28226","0.0-1.0-0.0-2.0-0.0","24","74897","female","3663","","","","68","1","","","","","","","","","","","","","","","","","","","","","","","","","","","","","","","","","","","","","","","","","","","","","","","","","","","","","","","","","","","","","","","","","","","",""
"","ratings_instructions","","instructions","5","31303","0.0-1.0-0.1-0.1","24","74897","female","3073","","[{""page_index"":0,""viewing_time"":1502},{""page_index"":1,""viewing_time"":1571}]","","","","","","","","","","","","","","","","","","","","","","","","","","","","","","","","","","","","","","","","","","","","","","","","","","","","","","","","","","","","","","","","","","","","","","",""
"","rating_comprehension_check","","survey-multi-choice","6","34639","0.0-1.0-0.1-1.1","24","74897","female","3331","{""Q0"":""True"",""Q1"":""Mouse""}","","0","","","","","","","","","","","","","","","","","","","","","","","","","","","","","","","","","","","","","","","","","","","","","","","","","","","","","","","","","","","","","","","","","","","","","",""
"","","","html-keyboard-response","7","38081","0.0-1.0-1.0","24","74897","female","3437","","","","68","","","","","","","","","","","","","","","","","","","","","","","","","","","","","","","","","","","","","","","","","","","","","","","","","","","","","","","","","","","","","","","","","","","","",""
"","rating","","html-slider-response","8","41024","0.0-1.0-2.0","24","74897","female","2937","","","","","","50","0","28","Stimuli/Experimental_stims/body_parts/ira-vishnevskaya-8DQAvdCby1I-unsplash.jpg","","","","","","","","","","","","","","","","","","","","","","","","","","","","","","","","","","","","","","","","","","","","","","","","","","","","","","","","","","","","","","","",""
"","rating","","html-slider-response","9","41293","0.0-1.0-3.0","24","74897","female","265","","","","","","50","1","4","Stimuli/Experimental_stims/outdoor_scenes/jarrett-kow-1ZOyYPOBn7I-unsplash.jpg","","","","","","","","","","","","","","","","","","","","","","","","","","","","","","","","","","","","","","","","","","","","","","","","","","","","","","","","","","","","","","","",""
"","rating","","html-slider-response","10","41429","0.0-1.0-4.0","24","74897","female","132","","","","","","50","2","35","Stimuli/Experimental_stims/body_parts/wc-so-KH4AAPjb-tI-unsplash.jpg","","","","","","","","","","","","","","","","","","","","","","","","","","","","","","","","","","","","","","","","","","","","","","","","","","","","","","","","","","","","","","","",""
"","rating","","html-slider-response","11","41966","0.0-1.0-5.0","24","74897","female","532","","","","","","50","3","47","Stimuli/Experimental_stims/objects/ronaldo-arthur-vidal-Cdz_lvnl37k-unsplash.jpg","","","","","","","","","","","","","","","","","","","","","","","","","","","","","","","","","","","","","","","","","","","","","","","","","","","","","","","","","","","","","","","",""
"","rating","","html-slider-response","12","42103","0.0-1.0-6.0","24","74897","female","133","","","","","","50","4","9","Stimuli/Experimental_stims/outdoor_scenes/sergey-pesterev-y-b_FOmJXdg-unsplash.jpg","","","","","","","","","","","","","","","","","","","","","","","","","","","","","","","","","","","","","","","","","","","","","","","","","","","","","","","","","","","","","","","",""
"","rating","","html-slider-response","13","42245","0.0-1.0-7.0","24","74897","female","137","","","","","","50","5","31","Stimuli/Experimental_stims/body_parts/sincerely-media-VN6DbKajo5s-unsplash.jpg","","","","","","","","","","","","","","","","","","","","","","","","","","","","","","","","","","","","","","","","","","","","","","","","","","","","","","","","","","","","","","","",""
"","rating","","html-slider-response","14","42382","0.0-1.0-8.0","24","74897","female","132","","","","","","50","6","5","Stimuli/Experimental_stims/outdoor_scenes/jeff-king-bJHWJeiHfHc-unsplash.jpg","","","","","","","","","","","","","","","","","","","","","","","","","","","","","","","","","","","","","","","","","","","","","","","","","","","","","","","","","","","","","","","",""
"","rating","","html-slider-response","15","42542","0.0-1.0-9.0","24","74897","female","155","","","","","","50","7","27","Stimuli/Experimental_stims/body_parts/heike-mintel-i_Gns0ELnLw-unsplash.jpg","","","","","","","","","","","","","","","","","","","","","","","","","","","","","","","","","","","","","","","","","","","","","","","","","","","","","","","","","","","","","","","",""
"","rating","","html-slider-response","16","42686","0.0-1.0-10.0","24","74897","female","141","","","","","","50","8","37","Stimuli/Experimental_stims/objects/alexander-andrews-VLGWE_SumrA-unsplash.jpg","","","","","","","","","","","","","","","","","","","","","","","","","","","","","","","","","","","","","","","","","","","","","","","","","","","","","","","","","","","","","","","",""
"","rating","","html-slider-response","17","42854","0.0-1.0-11.0","24","74897","female","163","","","","","","50","9","19","Stimuli/Experimental_stims/faces/joel-mott-LaK153ghdig-unsplash.jpg","","","","","","","","","","","","","","","","","","","","","","","","","","","","","","","","","","","","","","","","","","","","","","","","","","","","","","","","","","","","","","","",""
"","rating","","html-slider-response","18","43023","0.0-1.0-12.0","24","74897","female","164","","","","","","50","10","34","Stimuli/Experimental_stims/body_parts/wagner-santos-mBWMvIuVnso-unsplash.jpg","","","","","","","","","","","","","","","","","","","","","","","","","","","","","","","","","","","","","","","","","","","","","","","","","","","","","","","","","","","","","","","",""
"","rating","","html-slider-response","19","43205","0.0-1.0-13.0","24","74897","female","178","","","","","","50","11","22","Stimuli/Experimental_stims/faces/ravi-patel-VMGAbeeJTKo-unsplash.jpg","","","","","","","","","","","","","","","","","","","","","","","","","","","","","","","","","","","","","","","","","","","","","","","","","","","","","","","","","","","","","","","",""
"","rating","","html-slider-response","20","43367","0.0-1.0-14.0","24","74897","female","158","","","","","","50","12","1","Stimuli/Experimental_stims/outdoor_scenes/ashim-d-silva-S2Q5mdOrrVc-unsplash.jpg","","","","","","","","","","","","","","","","","","","","","","","","","","","","","","","","","","","","","","","","","","","","","","","","","","","","","","","","","","","","","","","",""
"","rating","","html-slider-response","21","43510","0.0-1.0-15.0","24","74897","female","139","","","","","","50","13","15","Stimuli/Experimental_stims/faces/erik-lucatero-d2MSDujJl2g-unsplash.jpg","","","","","","","","","","","","","","","","","","","","","","","","","","","","","","","","","","","","","","","","","","","","","","","","","","","","","","","","","","","","","","","",""
"","rating","","html-slider-response","22","43670","0.0-1.0-16.0","24","74897","female","156","","","","","","50","14","17","Stimuli/Experimental_stims/faces/good-faces-xmSWVeGEnJw-unsplash.jpg","","","","","","","","","","","","","","","","","","","","","","","","","","","","","","","","","","","","","","","","","","","","","","","","","","","","","","","","","","","","","","","",""
"","rating","","html-slider-response","23","43847","0.0-1.0-17.0","24","74897","female","173","","","","","","50","15","12","Stimuli/Experimental_stims/faces/aiony-haust-jmATI5Q_YgY-unsplash.jpg","","","","","","","","","","","","","","","","","","","","","","","","","","","","","","","","","","","","","","","","","","","","","","","","","","","","","","","","","","","","","","","",""
"","rating","","html-slider-response","24","43983","0.0-1.0-18.0","24","74897","female","131","","","","","","50","16","0","Stimuli/Experimental_stims/outdoor_scenes/aleksandra-boguslawska-MS7KD9Ti7FQ-unsplash.jpg","","","","","","","","","","","","","","","","","","","","","","","","","","","","","","","","","","","","","","","","","","","","","","","","","","","","","","","","","","","","","","","",""
"","rating","","html-slider-response","25","44151","0.0-1.0-19.0","24","74897","female","164","","","","","","50","17","41","Stimuli/Experimental_stims/objects/insung-yoon-w2JtIQQXoRU-unsplash.jpg","","","","","","","","","","","","","","","","","","","","","","","","","","","","","","","","","","","","","","","","","","","","","","","","","","","","","","","","","","","","","","","",""
"","rating","","html-slider-response","26","44318","0.0-1.0-20.0","24","74897","female","162","","","","","","50","18","18","Stimuli/Experimental_stims/faces/jessica-radanavong-mrYkTuAesKE-unsplash.jpg","","","","","","","","","","","","","","","","","","","","","","","","","","","","","","","","","","","","","","","","","","","","","","","","","","","","","","","","","","","","","","","",""
"","rating","","html-slider-response","27","44470","0.0-1.0-21.0","24","74897","female","148","","","","","","50","19","11","Stimuli/Experimental_stims/outdoor_scenes/stephen-leonardi-gyIRjKPXupE-unsplash.jpg","","","","","","","","","","","","","","","","","","","","","","","","","","","","","","","","","","","","","","","","","","","","","","","","","","","","","","","","","","","","","","","",""
"","rating","","html-slider-response","28","44688","0.0-1.0-22.0","24","74897","female","214","","","","","","50","20","20","Stimuli/Experimental_stims/faces/justin-chen-J7Cf1Gch49E-unsplash.jpg","","","","","","","","","","","","","","","","","","","","","","","","","","","","","","","","","","","","","","","","","","","","","","","","","","","","","","","","","","","","","","","",""
"","rating","","html-slider-response","29","44854","0.0-1.0-23.0","24","74897","female","162","","","","","","50","21","23","Stimuli/Experimental_stims/faces/rikonavt-HQjfrvdTfak-unsplash.jpg","","","","","","","","","","","","","","","","","","","","","","","","","","","","","","","","","","","","","","","","","","","","","","","","","","","","","","","","","","","","","","","",""
"","rating","","html-slider-response","30","45039","0.0-1.0-24.0","24","74897","female","181","","","","","","50","22","25","Stimuli/Experimental_stims/body_parts/engin-akyurt-Q2rfH3GW39c-unsplash.jpg","","","","","","","","","","","","","","","","","","","","","","","","","","","","","","","","","","","","","","","","","","","","","","","","","","","","","","","","","","","","","","","",""
"","rating","","html-slider-response","31","45191","0.0-1.0-25.0","24","74897","female","147","","","","","","50","23","33","Stimuli/Experimental_stims/body_parts/tucker-good-36skLT5jZcc-unsplash.jpg","","","","","","","","","","","","","","","","","","","","","","","","","","","","","","","","","","","","","","","","","","","","","","","","","","","","","","","","","","","","","","","",""
"","rating","","html-slider-response","32","45374","0.0-1.0-26.0","24","74897","female","178","","","","","","50","24","32","Stimuli/Experimental_stims/body_parts/towfiqu-barbhuiya-3AsiVDsZnHg-unsplash.jpg","","","","","","","","","","","","","","","","","","","","","","","","","","","","","","","","","","","","","","","","","","","","","","","","","","","","","","","","","","","","","","","",""
"","rating","","html-slider-response","33","45526","0.0-1.0-27.0","24","74897","female","148","","","","","","50","25","30","Stimuli/Experimental_stims/body_parts/mika-korhonen-Xodzxosar18-unsplash.jpg","","","","","","","","","","","","","","","","","","","","","","","","","","","","","","","","","","","","","","","","","","","","","","","","","","","","","","","","","","","","","","","",""
"","rating","","html-slider-response","34","45728","0.0-1.0-28.0","24","74897","female","197","","","","","","50","26","16","Stimuli/Experimental_stims/faces/freddy-kearney-o-ioeoATbIM-unsplash.jpg","","","","","","","","","","","","","","","","","","","","","","","","","","","","","","","","","","","","","","","","","","","","","","","","","","","","","","","","","","","","","","","",""
"","rating","","html-slider-response","35","45888","0.0-1.0-29.0","24","74897","female","156","","","","","","50","27","14","Stimuli/Experimental_stims/faces/david-siglin-UuW4psOb388-unsplash.jpg","","","","","","","","","","","","","","","","","","","","","","","","","","","","","","","","","","","","","","","","","","","","","","","","","","","","","","","","","","","","","","","",""
"","rating","","html-slider-response","36","46054","0.0-1.0-30.0","24","74897","female","162","","","","","","50","28","36","Stimuli/Experimental_stims/objects/alexander-andrews-JYGnB9gTCls-unsplash.jpg","","","","","","","","","","","","","","","","","","","","","","","","","","","","","","","","","","","","","","","","","","","","","","","","","","","","","","","","","","","","","","","",""
"","rating","","html-slider-response","37","46239","0.0-1.0-31.0","24","74897","female","181","","","","","","50","29","3","Stimuli/Experimental_stims/outdoor_scenes/henry-be-NLF6hTe4PAg-unsplash.jpg","","","","","","","","","","","","","","","","","","","","","","","","","","","","","","","","","","","","","","","","","","","","","","","","","","","","","","","","","","","","","","","",""
"","rating","","html-slider-response","38","46399","0.0-1.0-32.0","24","74897","female","156","","","","","","50","30","29","Stimuli/Experimental_stims/body_parts/manuel-schinner-ZwjFuJ7ebpk-unsplash.jpg","","","","","","","","","","","","","","","","","","","","","","","","","","","","","","","","","","","","","","","","","","","","","","","","","","","","","","","","","","","","","","","",""
"","rating","","html-slider-response","39","46544","0.0-1.0-33.0","24","74897","female","140","","","","","","50","31","43","Stimuli/Experimental_stims/objects/jonathan-greenaway-Y4hGgeiFn3s-unsplash.jpg","","","","","","","","","","","","","","","","","","","","","","","","","","","","","","","","","","","","","","","","","","","","","","","","","","","","","","","","","","","","","","","",""
"","rating","","html-slider-response","40","46702","0.0-1.0-34.0","24","74897","female","154","","","","","","50","32","40","Stimuli/Experimental_stims/objects/fabian-blank-pElSkGRA2NU-unsplash.jpg","","","","","","","","","","","","","","","","","","","","","","","","","","","","","","","","","","","","","","","","","","","","","","","","","","","","","","","","","","","","","","","",""
"","rating","","html-slider-response","41","46870","0.0-1.0-35.0","24","74897","female","164","","","","","","50","33","2","Stimuli/Experimental_stims/outdoor_scenes/bruno-van-der-kraan-qez8mNJ3ilU-unsplash.jpg","","","","","","","","","","","","","","","","","","","","","","","","","","","","","","","","","","","","","","","","","","","","","","","","","","","","","","","","","","","","","","","",""
"","rating","","html-slider-response","42","47047","0.0-1.0-36.0","24","74897","female","173","","","","","","50","34","26","Stimuli/Experimental_stims/body_parts/engin-akyurt-x_3gyC42btc-unsplash.jpg","","","","","","","","","","","","","","","","","","","","","","","","","","","","","","","","","","","","","","","","","","","","","","","","","","","","","","","","","","","","","","","",""
"","rating","","html-slider-response","43","47218","0.0-1.0-37.0","24","74897","female","165","","","","","","50","35","45","Stimuli/Experimental_stims/objects/leohoho-rngTKHXumy0-unsplash.jpg","","","","","","","","","","","","","","","","","","","","","","","","","","","","","","","","","","","","","","","","","","","","","","","","","","","","","","","","","","","","","","","",""
"","rating","","html-slider-response","44","47390","0.0-1.0-38.0","24","74897","female","167","","","","","","50","36","6","Stimuli/Experimental_stims/outdoor_scenes/meng-ji-8BH_M-53CyA-unsplash.jpg","","","","","","","","","","","","","","","","","","","","","","","","","","","","","","","","","","","","","","","","","","","","","","","","","","","","","","","","","","","","","","","",""
"","rating","","html-slider-response","45","47558","0.0-1.0-39.0","24","74897","female","164","","","","","","50","37","13","Stimuli/Experimental_stims/faces/daniel-rigdon-dXmXKPP2L4E-unsplash.jpg","","","","","","","","","","","","","","","","","","","","","","","","","","","","","","","","","","","","","","","","","","","","","","","","","","","","","","","","","","","","","","","",""
"","rating","","html-slider-response","46","47727","0.0-1.0-40.0","24","74897","female","163","","","","","","50","38","44","Stimuli/Experimental_stims/objects/kuiye-chen-NuOGFo4PudE-unsplash.jpg","","","","","","","","","","","","","","","","","","","","","","","","","","","","","","","","","","","","","","","","","","","","","","","","","","","","","","","","","","","","","","","",""
"","rating","","html-slider-response","47","47887","0.0-1.0-41.0","24","74897","female","156","","","","","","50","39","42","Stimuli/Experimental_stims/objects/jess-bailey-nOeVi8DsN8U-unsplash.jpg","","","","","","","","","","","","","","","","","","","","","","","","","","","","","","","","","","","","","","","","","","","","","","","","","","","","","","","","","","","","","","","",""
"","rating","","html-slider-response","48","48063","0.0-1.0-42.0","24","74897","female","171","","","","","","50","40","24","Stimuli/Experimental_stims/body_parts/clay-banks-LjqARJaJotc-unsplash.jpg","","","","","","","","","","","","","","","","","","","","","","","","","","","","","","","","","","","","","","","","","","","","","","","","","","","","","","","","","","","","","","","",""
"","rating","","html-slider-response","49","48216","0.0-1.0-43.0","24","74897","female","148","","","","","","50","41","21","Stimuli/Experimental_stims/faces/leilani-angel-K84vnnzxmTQ-unsplash.jpg","","","","","","","","","","","","","","","","","","","","","","","","","","","","","","","","","","","","","","","","","","","","","","","","","","","","","","","","","","","","","","","",""
"","rating","","html-slider-response","50","48382","0.0-1.0-44.0","24","74897","female","160","","","","","","50","42","7","Stimuli/Experimental_stims/outdoor_scenes/petr-vysohlid-9fqwGqGLUxc-unsplash.jpg","","","","","","","","","","","","","","","","","","","","","","","","","","","","","","","","","","","","","","","","","","","","","","","","","","","","","","","","","","","","","","","",""
"","rating","","html-slider-response","51","48550","0.0-1.0-45.0","24","74897","female","163","","","","","","50","43","46","Stimuli/Experimental_stims/objects/mockup-graphics-PNsj6RiHAF4-unsplash.jpg","","","","","","","","","","","","","","","","","","","","","","","","","","","","","","","","","","","","","","","","","","","","","","","","","","","","","","","","","","","","","","","",""
"","rating","","html-slider-response","52","48702","0.0-1.0-46.0","24","74897","female","149","","","","","","50","44","38","Stimuli/Experimental_stims/objects/art-lasovsky-8XddFc6NkBY-unsplash.jpg","","","","","","","","","","","","","","","","","","","","","","","","","","","","","","","","","","","","","","","","","","","","","","","","","","","","","","","","","","","","","","","",""
"","rating","","html-slider-response","53","48872","0.0-1.0-47.0","24","74897","female","165","","","","","","50","45","8","Stimuli/Experimental_stims/outdoor_scenes/samsommer-vddccTqwal8-unsplash.jpg","","","","","","","","","","","","","","","","","","","","","","","","","","","","","","","","","","","","","","","","","","","","","","","","","","","","","","","","","","","","","","","",""
"","rating","","html-slider-response","54","48999","0.0-1.0-48.0","24","74897","female","122","","","","","","50","46","10","Stimuli/Experimental_stims/outdoor_scenes/shannon-kunkle-dM8INmkyDas-unsplash.jpg","","","","","","","","","","","","","","","","","","","","","","","","","","","","","","","","","","","","","","","","","","","","","","","","","","","","","","","","","","","","","","","",""
"","rating","","html-slider-response","55","49152","0.0-1.0-49.0","24","74897","female","149","","","","","","50","47","39","Stimuli/Experimental_stims/objects/charlesdeluvio-1-nx1QR5dTE-unsplash.jpg","","","","","","","","","","","","","","","","","","","","","","","","","","","","","","","","","","","","","","","","","","","","","","","","","","","","","","","","","","","","","","","",""
"","localizer_instructions","","instructions","56","67328","0.0-2.0-0.0-0.0","24","74897","female","18130","","[{""page_index"":0,""viewing_time"":3257},{""page_index"":1,""viewing_time"":13776},{""page_index"":2,""viewing_time"":1096}]","","","","","","","","","","","","","","","","","","","","","","","","","","","","","","","","","","","","","","","","","","","","","","","","","","","","","","","","","","","","","","","","","","","","","","",""
"","localizer_comprehension_check","","survey-multi-choice","57","78703","0.0-2.0-0.0-1.0","24","74897","female","11368","{""Q0"":""True"",""Q1"":""K"",""Q2"":""D""}","","0","","","","","","","","","","","","","","","","","","","","","","","","","","","","","","","","","","","","","","","","","","","","","","","","","","","","","","","","","","","","","","","","","","","","","",""
"","","","html-keyboard-response","58","81298","0.0-2.0-1.0","24","74897","female","2590","","","","68","","","","","","","","","","","","","","","","","","","","","","","","","","","","","","","","","","","","","","","","","","","","","","","","","","","","","","","","","","","","","","","","","","","","",""
"","localizer","","html-keyboard-response","59","81704","0.0-2.0-2.0-0.0","24","74897","female","NaN","","","","null","","NaN","0","","Stimuli/Practice_stims/Localizer/annie-spratt-g9KFpAfQ5bc-unsplash.jpg","81298","0","NaN","","0","1","0","400","0","406","0","","","","","","","","","","","","","","","","","","","","","","","","","","","","","","","","","","","","","","","","","","","","","","","","","","","","",""
"","iti_localizer","","html-keyboard-response","60","82009","0.0-2.0-2.0-1.0","24","74897","female","null","","","","null","","","0","","","81704","0","","","","","","300","400","305","406","300","","","","","","","","","","","","","","","","","","","","","","","","","","","","","","","","","","","","","","","","","","","","","","","","","","","",""
"","localizer","","html-keyboard-response","61","82416","0.0-2.0-2.1-0.1","24","74897","female","NaN","","","","null","","NaN","0","","Stimuli/Practice_stims/Localizer/annie-spratt-g9KFpAfQ5bc-unsplash.jpg","82009","0","NaN","","0","1","0","400","700","407","711","","","","","","","","","","","","","","","","","","","","","","","","","","","","","","","","","","","","","","","","","","","","","","","","","","","","",""
"","iti_localizer","","html-keyboard-response","62","82721","0.0-2.0-2.1-1.1","24","74897","female","null","","","","null","","","0","","","82416","0","","","","","","300","1100","305","1118","300","","","","","","","","","","","","","","","","","","","","","","","","","","","","","","","","","","","","","","","","","","","","","","","","","","","",""
"","localizer","","html-keyboard-response","63","83130","0.0-2.0-2.2-0.2","24","74897","female","NaN","","","","null","","NaN","0","","Stimuli/Practice_stims/Localizer/annie-spratt-g9KFpAfQ5bc-unsplash.jpg","82721","0","NaN","","0","1","0","400","1400","409","1423","","","","","","","","","","","","","","","","","","","","","","","","","","","","","","","","","","","","","","","","","","","","","","","","","","","","",""
"","iti_localizer","","html-keyboard-response","64","83435","0.0-2.0-2.2-1.2","24","74897","female","null","","","","null","","","0","","","83130","0","","","","","","300","1800","305","1832","300","","","","","","","","","","","","","","","","","","","","","","","","","","","","","","","","","","","","","","","","","","","","","","","","","","","",""
"","localizer","","html-keyboard-response","65","83841","0.0-2.0-2.3-0.3","24","74897","female","83","","","","68","","0","0","","Stimuli/Practice_stims/Localizer/annie-spratt-g9KFpAfQ5bc-unsplash.jpg","83435","0","NaN","","0","0","1","400","2100","406","2137","","","","","","","","","","","","","","","","","","","","","","","","","","","","","","","","","","","","","","","","","","","","","","","","","","","","",""
"","iti_localizer","","html-keyboard-response","66","84145","0.0-2.0-2.3-1.3","24","74897","female","null","","","","null","","","0","","","83841","0","","","","","","300","2500","304","2543","300","","","","","","","","","","","","","","","","","","","","","","","","","","","","","","","","","","","","","","","","","","","","","","","","","","","",""
"","localizer","","html-keyboard-response","67","84550","0.0-2.0-3.0-0.0","24","74897","female","NaN","","","","null","","NaN","1","","Stimuli/Practice_stims/Localizer/becca-tapert-sY5RjMB1KkE-unsplash.jpg","84145","0","NaN","","0","1","0","400","2800","405","2847","","","","","","","","","","","","","","","","","","","","","","","","","","","","","","","","","","","","","","","","","","","","","","","","","","","","",""
"","iti_localizer","","html-keyboard-response","68","84855","0.0-2.0-3.0-1.0","24","74897","female","null","","","","null","","","1","","","84550","0","","","","","","300","3200","305","3252","300","","","","","","","","","","","","","","","","","","","","","","","","","","","","","","","","","","","","","","","","","","","","","","","","","","","",""
"","localizer","","html-keyboard-response","69","85262","0.0-2.0-3.1-0.1","24","74897","female","NaN","","","","null","","NaN","1","","Stimuli/Practice_stims/Localizer/becca-tapert-sY5RjMB1KkE-unsplash.jpg","84855","0","NaN","","0","1","0","400","3500","407","3557","","","","","","","","","","","","","","","","","","","","","","","","","","","","","","","","","","","","","","","","","","","","","","","","","","","","",""
"","iti_localizer","","html-keyboard-response","70","85568","0.0-2.0-3.1-1.1","24","74897","female","null","","","","null","","","1","","","85262","0","","","","","","300","3900","306","3964","300","","","","","","","","","","","","","","","","","","","","","","","","","","","","","","","","","","","","","","","","","","","","","","","","","","","",""
"","localizer","","html-keyboard-response","71","85973","0.0-2.0-3.2-0.2","24","74897","female","253","","","","68","","0","1","","Stimuli/Practice_stims/Localizer/becca-tapert-sY5RjMB1KkE-unsplash.jpg","85568","0","NaN","","0","0","1","400","4200","405","4270","","","","","","","","","","","","","","","","","","","","","","","","","","","","","","","","","","","","","","","","","","","","","","","","","","","","",""
"","iti_localizer","","html-keyboard-response","72","86278","0.0-2.0-3.2-1.2","24","74897","female","null","","","","null","","","1","","","85973","0","","","","","","300","4600","305","4675","300","","","","","","","","","","","","","","","","","","","","","","","","","","","","","","","","","","","","","","","","","","","","","","","","","","","",""
"","localizer","","html-keyboard-response","73","86685","0.0-2.0-4.0-0.0","24","74897","female","184","","","","68","","0","2","","Stimuli/Practice_stims/Localizer/charl-durand-bsfXvI25iNg-unsplash.jpg","86278","0","NaN","","1","0","0","400","4900","407","4980","","","","","","","","","","","","","","","","","","","","","","","","","","","","","","","","","","","","","","","","","","","","","","","","","","","","",""
"","iti_localizer","","html-keyboard-response","74","86995","0.0-2.0-4.0-1.0","24","74897","female","null","","","","null","","","2","","","86685","0","","","","","","300","5300","310","5387","300","","","","","","","","","","","","","","","","","","","","","","","","","","","","","","","","","","","","","","","","","","","","","","","","","","","",""
"","localizer","","html-keyboard-response","75","87399","0.0-2.0-5.0-0.0","24","74897","female","NaN","","","","null","","NaN","3","","Stimuli/Practice_stims/Localizer/nizar-albusaidy-B2r2SWAf5CE-unsplash.jpg","86995","0","NaN","","0","1","0","400","5600","404","5697","","","","","","","","","","","","","","","","","","","","","","","","","","","","","","","","","","","","","","","","","","","","","","","","","","","","",""
"","iti_localizer","","html-keyboard-response","76","87704","0.0-2.0-5.0-1.0","24","74897","female","null","","","","null","","","3","","","87399","0","","","","","","300","6000","305","6101","300","","","","","","","","","","","","","","","","","","","","","","","","","","","","","","","","","","","","","","","","","","","","","","","","","","","",""
"","localizer","","html-keyboard-response","77","88110","0.0-2.0-5.1-0.1","24","74897","female","167","","","","68","","0","3","","Stimuli/Practice_stims/Localizer/nizar-albusaidy-B2r2SWAf5CE-unsplash.jpg","87704","0","NaN","","0","0","1","400","6300","406","6406","","","","","","","","","","","","","","","","","","","","","","","","","","","","","","","","","","","","","","","","","","","","","","","","","","","","",""
"","iti_localizer","","html-keyboard-response","78","88415","0.0-2.0-5.1-1.1","24","74897","female","null","","","","null","","","3","","","88110","0","","","","","","300","6700","305","6812","300","","","","","","","","","","","","","","","","","","","","","","","","","","","","","","","","","","","","","","","","","","","","","","","","","","","",""
"","localizer","","html-keyboard-response","79","88819","0.0-2.0-6.0-0.0","24","74897","female","111","","","","68","","0","4","","Stimuli/Practice_stims/Localizer/randy-fath-epf1tdtIIkM-unsplash.jpg","88415","0","NaN","","1","0","0","400","7000","404","7117","","","","","","","","","","","","","","","","","","","","","","","","","","","","","","","","","","","","","","","","","","","","","","","","","","","","",""
"","iti_localizer","","html-keyboard-response","80","89125","0.0-2.0-6.0-1.0","24","74897","female","null","","","","null","","","4","","","88819","0","","","","","","300","7400","306","7521","300","","","","","","","","","","","","","","","","","","","","","","","","","","","","","","","","","","","","","","","","","","","","","","","","","","","",""
"","localizer","","html-keyboard-response","81","89530","0.0-2.0-7.0-0.0","24","74897","female","281","","","","75","","1","5","","Stimuli/Practice_stims/Localizer/yassine-khalfalli-adsQ9d_Cx0c-unsplash.jpg","89125","0","NaN","","0","0","0","400","7700","405","7827","","","","","","","","","","","","","","","","","","","","","","","","","","","","","","","","","","","","","","","","","","","","","","","","","","","","",""
"","iti_localizer","","html-keyboard-response","82","89835","0.0-2.0-7.0-1.0","24","74897","female","null","","","","null","","","5","","","89530","0","","","","","","300","8100","305","8232","300","","","","","","","","","","","","","","","","","","","","","","","","","","","","","","","","","","","","","","","","","","","","","","","","","","","",""
"","practice_over","","html-keyboard-response","83","89859","0.0-2.0-7.0-2.0-0.0","24","74897","female","21","","","","68","","","","","","","","","","","","","","","","","","","","","","","","","","","","","","","","","","","","","","","","","","","","","","","","","","","","","","","","","","","","","","","","","","","","",""
"","start_run","","html-keyboard-response","84","91956","0.0-2.0-7.0-2.0-1.0","24","74897","female","2093","","","","84","","","","","","","","","","","","","","","","","","","","","","","","","","","","","","","","","","","","","","","","","","","","","","","","","","","","","","","","","","","","","","","","","","","","",""
"","localizer","","html-keyboard-response","85","92361","0.0-2.0-8.0-0.0","24","74897","female","NaN","","","","null","","NaN","6","","Stimuli/Experimental_stims/localizer/body_parts/igordoon-primus-CdyHqfrbGIs-unsplash.jpg","91956","1","body_parts","","0","1","0","400","0","405","0","","","","","","","","","","","","","","","","","","","","","","","","","","","","","","","","","","","","","","","","","","","","","","","","","","","","",""
"","iti_localizer","","html-keyboard-response","86","92666","0.0-2.0-8.0-1.0","24","74897","female","null","","","","null","","","6","","","92361","1","","","","","","300","400","305","405","300","","","","","","","","","","","","","","","","","","","","","","","","","","","","","","","","","","","","","","","","","","","","","","","","","","","",""
"","localizer","","html-keyboard-response","87","93073","0.0-2.0-9.0-0.0","24","74897","female","NaN","","","","null","","NaN","7","","Stimuli/Experimental_stims/localizer/body_parts/jonathan-borba-hTwH8QFkPMs-unsplash.jpg","92666","1","body_parts","","0","1","0","400","700","407","710","","","","","","","","","","","","","","","","","","","","","","","","","","","","","","","","","","","","","","","","","","","","","","","","","","","","",""
"","iti_localizer","","html-keyboard-response","88","93378","0.0-2.0-9.0-1.0","24","74897","female","null","","","","null","","","7","","","93073","1","","","","","","300","1100","305","1117","300","","","","","","","","","","","","","","","","","","","","","","","","","","","","","","","","","","","","","","","","","","","","","","","","","","","",""
"","localizer","","html-keyboard-response","89","93783","0.0-2.0-10.0-0.0","24","74897","female","93","","","","68","","0","8","","Stimuli/Experimental_stims/localizer/body_parts/marcel-fagin-OUYg0Q3ec-Y-unsplash.jpg","93378","1","body_parts","","1","0","0","400","1400","405","1422","","","","","","","","","","","","","","","","","","","","","","","","","","","","","","","","","","","","","","","","","","","","","","","","","","","","",""
"","iti_localizer","","html-keyboard-response","90","94087","0.0-2.0-10.0-1.0","24","74897","female","null","","","","null","","","8","","","93783","1","","","","","","300","1800","304","1827","300","","","","","","","","","","","","","","","","","","","","","","","","","","","","","","","","","","","","","","","","","","","","","","","","","","","",""
"","localizer","","html-keyboard-response","91","94492","0.0-2.0-11.0-0.0","24","74897","female","NaN","","","","null","","NaN","9","","Stimuli/Experimental_stims/localizer/body_parts/anelya-okapova-V69kmOyZ3SU-unsplash.jpg","94087","1","body_parts","","0","1","0","400","2100","405","2131","","","","","","","","","","","","","","","","","","","","","","","","","","","","","","","","","","","","","","","","","","","","","","","","","","","","",""
"","iti_localizer","","html-keyboard-response","92","94796","0.0-2.0-11.0-1.0","24","74897","female","null","","","","null","","","9","","","94492","1","","","","","","300","2500","304","2536","300","","","","","","","","","","","","","","","","","","","","","","","","","","","","","","","","","","","","","","","","","","","","","","","","","","","",""
"","localizer","","html-keyboard-response","93","95202","0.0-2.0-12.0-0.0","24","74897","female","99","","","","68","","0","10","","Stimuli/Experimental_stims/localizer/body_parts/jan-romero-DL4DDQb8yjc-unsplash.jpg","94796","1","body_parts","","0","0","1","400","2800","406","2840","","","","","","","","","","","","","","","","","","","","","","","","","","","","","","","","","","","","","","","","","","","","","","","","","","","","",""
"","iti_localizer","","html-keyboard-response","94","95507","0.0-2.0-12.0-1.0","24","74897","female","null","","","","null","","","10","","","95202","1","","","","","","300","3200","305","3246","300","","","","","","","","","","","","","","","","","","","","","","","","","","","","","","","","","","","","","","","","","","","","","","","","","","","",""
"","localizer","","html-keyboard-response","95","95912","0.0-2.0-13.0-0.0","24","74897","female","NaN","","","","null","","NaN","11","","Stimuli/Experimental_stims/localizer/body_parts/pure-julia-9lVaya31sMk-unsplash.jpg","95507","1","body_parts","","0","1","0","400","3500","405","3551","","","","","","","","","","","","","","","","","","","","","","","","","","","","","","","","","","","","","","","","","","","","","","","","","","","","",""
"","iti_localizer","","html-keyboard-response","96","96217","0.0-2.0-13.0-1.0","24","74897","female","null","","","","null","","","11","","","95912","1","","","","","","300","3900","305","3956","300","","","","","","","","","","","","","","","","","","","","","","","","","","","","","","","","","","","","","","","","","","","","","","","","","","","",""
"","localizer","","html-keyboard-response","97","96622","0.0-2.0-14.0-0.0","24","74897","female","NaN","","","","null","","NaN","12","","Stimuli/Experimental_stims/localizer/body_parts/jasper-garratt-Ng_Kl7K6V8Y-unsplash.jpg","96217","1","body_parts","","0","1","0","400","4200","405","4261","","","","","","","","","","","","","","","","","","","","","","","","","","","","","","","","","","","","","","","","","","","","","","","","","","","","",""
"","iti_localizer","","html-keyboard-response","98","96927","0.0-2.0-14.0-1.0","24","74897","female","null","","","","null","","","12","","","96622","1","","","","","","300","4600","305","4666","300","","","","","","","","","","","","","","","","","","","","","","","","","","","","","","","","","","","","","","","","","","","","","","","","","","","",""
"","localizer","","html-keyboard-response","99","97332","0.0-2.0-15.0-0.0","24","74897","female","NaN","","","","null","","NaN","13","","Stimuli/Experimental_stims/localizer/body_parts/i-am_nah--S4OsO0c6Ts-unsplash.jpg","96927","1","body_parts","","0","1","0","400","4900","405","4971","","","","","","","","","","","","","","","","","","","","","","","","","","","","","","","","","","","","","","","","","","","","","","","","","","","","",""
"","iti_localizer","","html-keyboard-response","100","97637","0.0-2.0-15.0-1.0","24","74897","female","null","","","","null","","","13","","","97332","1","","","","","","300","5300","305","5376","300","","","","","","","","","","","","","","","","","","","","","","","","","","","","","","","","","","","","","","","","","","","","","","","","","","","",""
"","localizer","","html-keyboard-response","101","98042","0.0-2.0-16.0-0.0","24","74897","female","11","","","","68","","0","14","","Stimuli/Experimental_stims/localizer/body_parts/femme-spirit-RGYBDUHYbyM-unsplash.jpg","97637","1","body_parts","","0","0","1","400","5600","405","5681","","","","","","","","","","","","","","","","","","","","","","","","","","","","","","","","","","","","","","","","","","","","","","","","","","","","",""
"","iti_localizer","","html-keyboard-response","102","98346","0.0-2.0-16.0-1.0","24","74897","female","null","","","","null","","","14","","","98042","1","","","","","","300","6000","304","6086","300","","","","","","","","","","","","","","","","","","","","","","","","","","","","","","","","","","","","","","","","","","","","","","","","","","","",""
"","localizer","","html-keyboard-response","103","98751","0.0-2.0-17.0-0.0","24","74897","female","NaN","","","","null","","NaN","15","","Stimuli/Experimental_stims/localizer/body_parts/liv-bruce-M0oVPGsWk1E-unsplash.jpg","98346","1","body_parts","","0","1","0","400","6300","405","6390","","","","","","","","","","","","","","","","","","","","","","","","","","","","","","","","","","","","","","","","","","","","","","","","","","","","",""
"","iti_localizer","","html-keyboard-response","104","99063","0.0-2.0-17.0-1.0","24","74897","female","null","","","","null","","","15","","","98751","1","","","","","","300","6700","312","6795","300","","","","","","","","","","","","","","","","","","","","","","","","","","","","","","","","","","","","","","","","","","","","","","","","","","","",""
"","localizer","","html-keyboard-response","105","99468","0.0-2.0-18.0-0.0","24","74897","female","7","","","","68","","0","16","","Stimuli/Experimental_stims/localizer/body_parts/bady-abbas-N-VEeMnm7gE-unsplash.jpg","99063","1","body_parts","","0","0","1","400","7000","405","7107","","","","","","","","","","","","","","","","","","","","","","","","","","","","","","","","","","","","","","","","","","","","","","","","","","","","",""
"","iti_localizer","","html-keyboard-response","106","99773","0.0-2.0-18.0-1.0","24","74897","female","null","","","","null","","","16","","","99468","1","","","","","","300","7400","305","7512","300","","","","","","","","","","","","","","","","","","","","","","","","","","","","","","","","","","","","","","","","","","","","","","","","","","","",""
"","localizer","","html-keyboard-response","107","100177","0.0-2.0-19.0-0.0","24","74897","female","NaN","","","","null","","NaN","17","","Stimuli/Experimental_stims/localizer/body_parts/lucaxx-freire-CacZwMexYdk-unsplash.jpg","99773","1","body_parts","","0","1","0","400","7700","404","7817","","","","","","","","","","","","","","","","","","","","","","","","","","","","","","","","","","","","","","","","","","","","","","","","","","","","",""
"","iti_localizer","","html-keyboard-response","108","100481","0.0-2.0-19.0-1.0","24","74897","female","null","","","","null","","","17","","","100177","1","","","","","","300","8100","304","8221","300","","","","","","","","","","","","","","","","","","","","","","","","","","","","","","","","","","","","","","","","","","","","","","","","","","","",""
"","localizer","","html-keyboard-response","109","100887","0.0-2.0-20.0-0.0","24","74897","female","NaN","","","","null","","NaN","18","","Stimuli/Experimental_stims/localizer/body_parts/hu-chen-tCbTGNwrFNM-unsplash.jpg","100481","1","body_parts","","0","1","0","400","8400","406","8525","","","","","","","","","","","","","","","","","","","","","","","","","","","","","","","","","","","","","","","","","","","","","","","","","","","","",""
"","iti_localizer","","html-keyboard-response","110","101193","0.0-2.0-20.0-1.0","24","74897","female","null","","","","null","","","18","","","100887","1","","","","","","300","8800","306","8931","300","","","","","","","","","","","","","","","","","","","","","","","","","","","","","","","","","","","","","","","","","","","","","","","","","","","",""
"","localizer","","html-keyboard-response","111","101599","0.0-2.0-21.0-0.0","24","74897","female","NaN","","","","null","","NaN","19","","Stimuli/Experimental_stims/localizer/body_parts/megan-menegay-UojxG_BJxnI-unsplash.jpg","101193","1","body_parts","","0","1","0","400","9100","406","9237","","","","","","","","","","","","","","","","","","","","","","","","","","","","","","","","","","","","","","","","","","","","","","","","","","","","",""
"","iti_localizer","","html-keyboard-response","112","101904","0.0-2.0-21.0-1.0","24","74897","female","null","","","","null","","","19","","","101599","1","","","","","","300","9500","305","9643","300","","","","","","","","","","","","","","","","","","","","","","","","","","","","","","","","","","","","","","","","","","","","","","","","","","","",""
"","localizer","","html-keyboard-response","113","102310","0.0-2.0-22.0-0.0","24","74897","female","NaN","","","","null","","NaN","20","","Stimuli/Experimental_stims/localizer/body_parts/toan-nguyen-VIeLuUFzesg-unsplash.jpg","101904","1","body_parts","","1","1","0","400","9800","406","9948","","","","","","","","","","","","","","","","","","","","","","","","","","","","","","","","","","","","","","","","","","","","","","","","","","","","",""
"","iti_localizer","","html-keyboard-response","114","102615","0.0-2.0-22.0-1.0","24","74897","female","null","","","","null","","","20","","","102310","1","","","","","","300","10200","305","10354","300","","","","","","","","","","","","","","","","","","","","","","","","","","","","","","","","","","","","","","","","","","","","","","","","","","","",""
"","localizer","","html-keyboard-response","115","103021","0.0-2.0-23.0-0.0","24","74897","female","NaN","","","","null","","NaN","21","","Stimuli/Experimental_stims/localizer/body_parts/sippakorn-yamkasikorn-32_sJlJa5gA-unsplash.jpg","102615","1","body_parts","","0","1","0","400","10500","406","10659","","","","","","","","","","","","","","","","","","","","","","","","","","","","","","","","","","","","","","","","","","","","","","","","","","","","",""
"","iti_localizer","","html-keyboard-response","116","103325","0.0-2.0-23.0-1.0","24","74897","female","null","","","","null","","","21","","","103021","1","","","","","","300","10900","304","11065","300","","","","","","","","","","","","","","","","","","","","","","","","","","","","","","","","","","","","","","","","","","","","","","","","","","","",""
"","localizer","","html-keyboard-response","117","103730","0.0-2.0-24.0-0.0","24","74897","female","NaN","","","","null","","NaN","22","","Stimuli/Experimental_stims/localizer/body_parts/louis-hansel-FjKTMRTQYAs-unsplash.jpg","103325","1","body_parts","","0","1","0","400","11200","405","11369","","","","","","","","","","","","","","","","","","","","","","","","","","","","","","","","","","","","","","","","","","","","","","","","","","","","",""
"","iti_localizer","","html-keyboard-response","118","104034","0.0-2.0-24.0-1.0","24","74897","female","null","","","","null","","","22","","","103730","1","","","","","","300","11600","304","11774","300","","","","","","","","","","","","","","","","","","","","","","","","","","","","","","","","","","","","","","","","","","","","","","","","","","","",""
"","localizer","","html-keyboard-response","119","104440","0.0-2.0-25.0-0.0","24","74897","female","NaN","","","","null","","NaN","23","","Stimuli/Experimental_stims/localizer/body_parts/sydney-herron-b2W04fGuS70-unsplash.jpg","104034","1","body_parts","","0","1","0","400","11900","406","12078","","","","","","","","","","","","","","","","","","","","","","","","","","","","","","","","","","","","","","","","","","","","","","","","","","","","",""
"","iti_localizer","","html-keyboard-response","120","104745","0.0-2.0-25.0-1.0","24","74897","female","null","","","","null","","","23","","","104440","1","","","","","","300","12300","305","12484","300","","","","","","","","","","","","","","","","","","","","","","","","","","","","","","","","","","","","","","","","","","","","","","","","","","","",""
"","localizer","","html-keyboard-response","121","105153","0.0-2.0-26.0-0.0","24","74897","female","22","","","","68","","0","24","","Stimuli/Experimental_stims/localizer/body_parts/danie-franco-jyyNiSEcCl4-unsplash.jpg","104745","1","body_parts","","0","0","1","400","12600","408","12789","","","","","","","","","","","","","","","","","","","","","","","","","","","","","","","","","","","","","","","","","","","","","","","","","","","","",""
"","iti_localizer","","html-keyboard-response","122","105459","0.0-2.0-26.0-1.0","24","74897","female","null","","","","null","","","24","","","105153","1","","","","","","300","13000","306","13197","300","","","","","","","","","","","","","","","","","","","","","","","","","","","","","","","","","","","","","","","","","","","","","","","","","","","",""
"","localizer","","html-keyboard-response","123","105864","0.0-2.0-27.0-0.0","24","74897","female","27","","","","68","","0","25","","Stimuli/Experimental_stims/localizer/body_parts/ramesh-iyer-CRhznMXoJlc-unsplash.jpg","105459","1","body_parts","","0","0","1","400","13300","405","13503","","","","","","","","","","","","","","","","","","","","","","","","","","","","","","","","","","","","","","","","","","","","","","","","","","","","",""
"","iti_localizer","","html-keyboard-response","124","119870","0.0-2.0-27.0-1.0","24","74897","female","null","","","","null","","","25","","","105864","1","","","","","","14000","13700","14006","13908","14000","","","","","","","","","","","","","","","","","","","","","","","","","","","","","","","","","","","","","","","","","","","","","","","","","","","",""
"","localizer","","html-keyboard-response","125","120276","0.0-2.0-28.0-0.0","24","74897","female","NaN","","","","null","","NaN","26","","Stimuli/Experimental_stims/localizer/objects/adriano-pucciarelli-BE7yaZnZX6o-unsplash.jpg","119870","1","objects","","0","1","0","400","27700","406","27914","","","","","","","","","","","","","","","","","","","","","","","","","","","","","","","","","","","","","","","","","","","","","","","","","","","","",""
"","iti_localizer","","html-keyboard-response","126","120581","0.0-2.0-28.0-1.0","24","74897","female","null","","","","null","","","26","","","120276","1","","","","","","300","28100","305","28320","300","","","","","","","","","","","","","","","","","","","","","","","","","","","","","","","","","","","","","","","","","","","","","","","","","","","",""
"","localizer","","html-keyboard-response","127","120987","0.0-2.0-29.0-0.0","24","74897","female","266","","","","68","","0","27","","Stimuli/Experimental_stims/localizer/objects/petr-sidorov-3jm5TGqtULU-unsplash.jpg","120581","1","objects","","0","0","1","400","28400","406","28625","","","","","","","","","","","","","","","","","","","","","","","","","","","","","","","","","","","","","","","","","","","","","","","","","","","","",""
"","iti_localizer","","html-keyboard-response","128","121291","0.0-2.0-29.0-1.0","24","74897","female","null","","","","null","","","27","","","120987","1","","","","","","300","28800","304","29031","300","","","","","","","","","","","","","","","","","","","","","","","","","","","","","","","","","","","","","","","","","","","","","","","","","","","",""
"","localizer","","html-keyboard-response","129","121698","0.0-2.0-30.0-0.0","24","74897","female","20","","","","68","","0","28","","Stimuli/Experimental_stims/localizer/objects/carlos-felipe-ramirez-mesa-HW7bfB3ERSQ-unsplash.jpg","121291","1","objects","","0","0","1","400","29100","407","29335","","","","","","","","","","","","","","","","","","","","","","","","","","","","","","","","","","","","","","","","","","","","","","","","","","","","",""
"","iti_localizer","","html-keyboard-response","130","122002","0.0-2.0-30.0-1.0","24","74897","female","null","","","","null","","","28","","","121698","1","","","","","","300","29500","304","29742","300","","","","","","","","","","","","","","","","","","","","","","","","","","","","","","","","","","","","","","","","","","","","","","","","","","","",""
"","localizer","","html-keyboard-response","131","122409","0.0-2.0-31.0-0.0","24","74897","female","NaN","","","","null","","NaN","29","","Stimuli/Experimental_stims/localizer/objects/raimond-klavins-ZdvDPXVvcKs-unsplash.jpg","122002","1","objects","","1","1","0","400","29800","407","30046","","","","","","","","","","","","","","","","","","","","","","","","","","","","","","","","","","","","","","","","","","","","","","","","","","","","",""
"","iti_localizer","","html-keyboard-response","132","122714","0.0-2.0-31.0-1.0","24","74897","female","null","","","","null","","","29","","","122409","1","","","","","","300","30200","305","30453","300","","","","","","","","","","","","","","","","","","","","","","","","","","","","","","","","","","","","","","","","","","","","","","","","","","","",""
"","localizer","","html-keyboard-response","133","123126","0.0-2.0-32.0-0.0","24","74897","female","NaN","","","","null","","NaN","30","","Stimuli/Experimental_stims/localizer/objects/adriano-pucciarelli-Jl3S1yM8gi8-unsplash.jpg","122714","1","objects","","0","1","0","400","30500","412","30758","","","","","","","","","","","","","","","","","","","","","","","","","","","","","","","","","","","","","","","","","","","","","","","","","","","","",""
"","iti_localizer","","html-keyboard-response","134","123432","0.0-2.0-32.0-1.0","24","74897","female","null","","","","null","","","30","","","123126","1","","","","","","300","30900","306","31170","300","","","","","","","","","","","","","","","","","","","","","","","","","","","","","","","","","","","","","","","","","","","","","","","","","","","",""
"","localizer","","html-keyboard-response","135","123838","0.0-2.0-33.0-0.0","24","74897","female","NaN","","","","null","","NaN","31","","Stimuli/Experimental_stims/localizer/objects/engin-akyurt-bbbKzTmY2Gg-unsplash.jpg","123432","1","objects","","0","1","0","400","31200","406","31476","","","","","","","","","","","","","","","","","","","","","","","","","","","","","","","","","","","","","","","","","","","","","","","","","","","","",""
"","iti_localizer","","html-keyboard-response","136","124143","0.0-2.0-33.0-1.0","24","74897","female","null","","","","null","","","31","","","123838","1","","","","","","300","31600","305","31882","300","","","","","","","","","","","","","","","","","","","","","","","","","","","","","","","","","","","","","","","","","","","","","","","","","","","",""
"","localizer","","html-keyboard-response","137","124551","0.0-2.0-34.0-0.0","24","74897","female","NaN","","","","null","","NaN","32","","Stimuli/Experimental_stims/localizer/objects/sam-moghadam-khamseh-kvmdsTrGOBM-unsplash.jpg","124143","1","objects","","0","1","0","400","31900","408","32187","","","","","","","","","","","","","","","","","","","","","","","","","","","","","","","","","","","","","","","","","","","","","","","","","","","","",""
"","iti_localizer","","html-keyboard-response","138","124857","0.0-2.0-34.0-1.0","24","74897","female","null","","","","null","","","32","","","124551","1","","","","","","300","32300","306","32595","300","","","","","","","","","","","","","","","","","","","","","","","","","","","","","","","","","","","","","","","","","","","","","","","","","","","",""
"","localizer","","html-keyboard-response","139","125263","0.0-2.0-35.0-0.0","24","74897","female","NaN","","","","null","","NaN","33","","Stimuli/Experimental_stims/localizer/objects/jiangxulei1990-eIzzzwtkBjU-unsplash.jpg","124857","1","objects","","0","1","0","400","32600","406","32901","","","","","","","","","","","","","","","","","","","","","","","","","","","","","","","","","","","","","","","","","","","","","","","","","","","","",""
"","iti_localizer","","html-keyboard-response","140","125570","0.0-2.0-35.0-1.0","24","74897","female","null","","","","null","","","33","","","125263","1","","","","","","300","33000","307","33307","300","","","","","","","","","","","","","","","","","","","","","","","","","","","","","","","","","","","","","","","","","","","","","","","","","","","",""
"","localizer","","html-keyboard-response","141","125977","0.0-2.0-36.0-0.0","24","74897","female","0","","","","68","","0","34","","Stimuli/Experimental_stims/localizer/objects/florian-klauer-nptLmg6jqDo-unsplash.jpg","125570","1","objects","","0","0","1","400","33300","407","33614","","","","","","","","","","","","","","","","","","","","","","","","","","","","","","","","","","","","","","","","","","","","","","","","","","","","",""
"","iti_localizer","","html-keyboard-response","142","126283","0.0-2.0-36.0-1.0","24","74897","female","null","","","","null","","","34","","","125977","1","","","","","","300","33700","306","34021","300","","","","","","","","","","","","","","","","","","","","","","","","","","","","","","","","","","","","","","","","","","","","","","","","","","","",""
"","localizer","","html-keyboard-response","143","126689","0.0-2.0-37.0-0.0","24","74897","female","NaN","","","","null","","NaN","35","","Stimuli/Experimental_stims/localizer/objects/ignat-dolomanov-kFBDVnmskPA-unsplash.jpg","126283","1","objects","","0","1","0","400","34000","406","34327","","","","","","","","","","","","","","","","","","","","","","","","","","","","","","","","","","","","","","","","","","","","","","","","","","","","",""
"","iti_localizer","","html-keyboard-response","144","126993","0.0-2.0-37.0-1.0","24","74897","female","null","","","","null","","","35","","","126689","1","","","","","","300","34400","304","34733","300","","","","","","","","","","","","","","","","","","","","","","","","","","","","","","","","","","","","","","","","","","","","","","","","","","","",""
"","localizer","","html-keyboard-response","145","127399","0.0-2.0-38.0-0.0","24","74897","female","78","","","","68","","0","36","","Stimuli/Experimental_stims/localizer/objects/andrew-petrov-TVJqDat4MAw-unsplash.jpg","126993","1","objects","","0","0","1","400","34700","406","35037","","","","","","","","","","","","","","","","","","","","","","","","","","","","","","","","","","","","","","","","","","","","","","","","","","","","",""
"","iti_localizer","","html-keyboard-response","146","127703","0.0-2.0-38.0-1.0","24","74897","female","null","","","","null","","","36","","","127399","1","","","","","","300","35100","304","35443","300","","","","","","","","","","","","","","","","","","","","","","","","","","","","","","","","","","","","","","","","","","","","","","","","","","","",""
"","localizer","","html-keyboard-response","147","128113","0.0-2.0-39.0-0.0","24","74897","female","38","","","","68","","0","37","","Stimuli/Experimental_stims/localizer/objects/sam-moghadam-khamseh-L_7MQsHl_aU-unsplash.jpg","127703","1","objects","","0","0","1","400","35400","410","35747","","","","","","","","","","","","","","","","","","","","","","","","","","","","","","","","","","","","","","","","","","","","","","","","","","","","",""
"","iti_localizer","","html-keyboard-response","148","128418","0.0-2.0-39.0-1.0","24","74897","female","null","","","","null","","","37","","","128113","1","","","","","","300","35800","305","36157","300","","","","","","","","","","","","","","","","","","","","","","","","","","","","","","","","","","","","","","","","","","","","","","","","","","","",""
"","localizer","","html-keyboard-response","149","128825","0.0-2.0-40.0-0.0","24","74897","female","61","","","","68","","0","38","","Stimuli/Experimental_stims/localizer/objects/ana-9GmAaEMMKho-unsplash.jpg","128418","1","objects","","0","0","1","400","36100","407","36462","","","","","","","","","","","","","","","","","","","","","","","","","","","","","","","","","","","","","","","","","","","","","","","","","","","","",""
"","iti_localizer","","html-keyboard-response","150","129134","0.0-2.0-40.0-1.0","24","74897","female","null","","","","null","","","38","","","128825","1","","","","","","300","36500","309","36869","300","","","","","","","","","","","","","","","","","","","","","","","","","","","","","","","","","","","","","","","","","","","","","","","","","","","",""
"","localizer","","html-keyboard-response","151","129541","0.0-2.0-41.0-0.0","24","74897","female","NaN","","","","null","","NaN","39","","Stimuli/Experimental_stims/localizer/objects/mockup-graphics-U6ZMEefFGx8-unsplash.jpg","129134","1","objects","","0","1","0","400","36800","407","37178","","","","","","","","","","","","","","","","","","","","","","","","","","","","","","","","","","","","","","","","","","","","","","","","","","","","",""
"","iti_localizer","","html-keyboard-response","152","129846","0.0-2.0-41.0-1.0","24","74897","female","null","","","","null","","","39","","","129541","1","","","","","","300","37200","305","37585","300","","","","","","","","","","","","","","","","","","","","","","","","","","","","","","","","","","","","","","","","","","","","","","","","","","","",""
"","localizer","","html-keyboard-response","153","130253","0.0-2.0-42.0-0.0","24","74897","female","NaN","","","","null","","NaN","40","","Stimuli/Experimental_stims/localizer/objects/kelly-jean-cKjbI0Y00X0-unsplash.jpg","129846","1","objects","","0","1","0","400","37500","407","37890","","","","","","","","","","","","","","","","","","","","","","","","","","","","","","","","","","","","","","","","","","","","","","","","","","","","",""
"","iti_localizer","","html-keyboard-response","154","130558","0.0-2.0-42.0-1.0","24","74897","female","null","","","","null","","","40","","","130253","1","","","","","","300","37900","305","38297","300","","","","","","","","","","","","","","","","","","","","","","","","","","","","","","","","","","","","","","","","","","","","","","","","","","","",""
"","localizer","","html-keyboard-response","155","130964","0.0-2.0-43.0-0.0","24","74897","female","NaN","","","","null","","NaN","41","","Stimuli/Experimental_stims/localizer/objects/eugene-chystiakov-3neSwyntbQ8-unsplash.jpg","130558","1","objects","","0","1","0","400","38200","406","38602","","","","","","","","","","","","","","","","","","","","","","","","","","","","","","","","","","","","","","","","","","","","","","","","","","","","",""
"","iti_localizer","","html-keyboard-response","156","131268","0.0-2.0-43.0-1.0","24","74897","female","null","","","","null","","","41","","","130964","1","","","","","","300","38600","304","39008","300","","","","","","","","","","","","","","","","","","","","","","","","","","","","","","","","","","","","","","","","","","","","","","","","","","","",""
"","localizer","","html-keyboard-response","157","131674","0.0-2.0-44.0-0.0","24","74897","female","NaN","","","","null","","NaN","42","","Stimuli/Experimental_stims/localizer/objects/lance-reis-v0FYj9iioQg-unsplash.jpg","131268","1","objects","","0","1","0","400","38900","406","39312","","","","","","","","","","","","","","","","","","","","","","","","","","","","","","","","","","","","","","","","","","","","","","","","","","","","",""
"","iti_localizer","","html-keyboard-response","158","131980","0.0-2.0-44.0-1.0","24","74897","female","null","","","","null","","","42","","","131674","1","","","","","","300","39300","306","39718","300","","","","","","","","","","","","","","","","","","","","","","","","","","","","","","","","","","","","","","","","","","","","","","","","","","","",""
"","localizer","","html-keyboard-response","159","132387","0.0-2.0-45.0-0.0","24","74897","female","NaN","","","","null","","NaN","43","","Stimuli/Experimental_stims/localizer/objects/annie-spratt-fbAnIjhrOL4-unsplash.jpg","131980","1","objects","","0","1","0","400","39600","407","40024","","","","","","","","","","","","","","","","","","","","","","","","","","","","","","","","","","","","","","","","","","","","","","","","","","","","",""
"","iti_localizer","","html-keyboard-response","160","132691","0.0-2.0-45.0-1.0","24","74897","female","null","","","","null","","","43","","","132387","1","","","","","","300","40000","304","40431","300","","","","","","","","","","","","","","","","","","","","","","","","","","","","","","","","","","","","","","","","","","","","","","","","","","","",""
"","localizer","","html-keyboard-response","161","133103","0.0-2.0-46.0-0.0","24","74897","female","NaN","","","","null","","NaN","44","","Stimuli/Experimental_stims/localizer/objects/mockup-graphics-Pj2PY-E-LfM-unsplash.jpg","132691","1","objects","","1","1","0","400","40300","412","40735","","","","","","","","","","","","","","","","","","","","","","","","","","","","","","","","","","","","","","","","","","","","","","","","","","","","",""
"","iti_localizer","","html-keyboard-response","162","133409","0.0-2.0-46.0-1.0","24","74897","female","null","","","","null","","","44","","","133103","1","","","","","","300","40700","306","41147","300","","","","","","","","","","","","","","","","","","","","","","","","","","","","","","","","","","","","","","","","","","","","","","","","","","","",""
"","localizer","","html-keyboard-response","163","133815","0.0-2.0-47.0-0.0","24","74897","female","NaN","","","","null","","NaN","45","","Stimuli/Experimental_stims/localizer/objects/dario-mendez-hnJ2VNZzbns-unsplash.jpg","133409","1","objects","","0","1","0","400","41000","406","41453","","","","","","","","","","","","","","","","","","","","","","","","","","","","","","","","","","","","","","","","","","","","","","","","","","","","",""
"","iti_localizer","","html-keyboard-response","164","147820","0.0-2.0-47.0-1.0","24","74897","female","null","","","","null","","","45","","","133815","1","","","","","","14000","41400","14005","41859","14000","","","","","","","","","","","","","","","","","","","","","","","","","","","","","","","","","","","","","","","","","","","","","","","","","","","",""
"","localizer","","html-keyboard-response","165","148226","0.0-2.0-48.0-0.0","24","74897","female","NaN","","","","null","","NaN","46","","Stimuli/Experimental_stims/localizer/faces/christian-ferrer-8vT-DgHZDG4-unsplash.jpg","147820","1","faces","","1","1","0","400","55400","406","55864","","","","","","","","","","","","","","","","","","","","","","","","","","","","","","","","","","","","","","","","","","","","","","","","","","","","",""
"","iti_localizer","","html-keyboard-response","166","148531","0.0-2.0-48.0-1.0","24","74897","female","null","","","","null","","","46","","","148226","1","","","","","","300","55800","305","56270","300","","","","","","","","","","","","","","","","","","","","","","","","","","","","","","","","","","","","","","","","","","","","","","","","","","","",""
"","localizer","","html-keyboard-response","167","148936","0.0-2.0-49.0-0.0","24","74897","female","235","","","","68","","0","47","","Stimuli/Experimental_stims/localizer/faces/mathias-huysmans-U4JDjYmjn1g-unsplash.jpg","148531","1","faces","","0","0","1","400","56100","405","56575","","","","","","","","","","","","","","","","","","","","","","","","","","","","","","","","","","","","","","","","","","","","","","","","","","","","",""
"","iti_localizer","","html-keyboard-response","168","149243","0.0-2.0-49.0-1.0","24","74897","female","null","","","","null","","","47","","","148936","1","","","","","","300","56500","307","56980","300","","","","","","","","","","","","","","","","","","","","","","","","","","","","","","","","","","","","","","","","","","","","","","","","","","","",""
"","localizer","","html-keyboard-response","169","149650","0.0-2.0-50.0-0.0","24","74897","female","113","","","","68","","0","48","","Stimuli/Experimental_stims/localizer/faces/filipe-almeida-mnEWC72eWDM-unsplash.jpg","149243","1","faces","","0","0","1","400","56800","407","57287","","","","","","","","","","","","","","","","","","","","","","","","","","","","","","","","","","","","","","","","","","","","","","","","","","","","",""
"","iti_localizer","","html-keyboard-response","170","149955","0.0-2.0-50.0-1.0","24","74897","female","null","","","","null","","","48","","","149650","1","","","","","","300","57200","305","57694","300","","","","","","","","","","","","","","","","","","","","","","","","","","","","","","","","","","","","","","","","","","","","","","","","","","","",""
"","localizer","","html-keyboard-response","171","150360","0.0-2.0-51.0-0.0","24","74897","female","141","","","","68","","0","49","","Stimuli/Experimental_stims/localizer/faces/midas-hofstra-tidSLv-UaNs-unsplash.jpg","149955","1","faces","","0","0","1","400","57500","405","57999","","","","","","","","","","","","","","","","","","","","","","","","","","","","","","","","","","","","","","","","","","","","","","","","","","","","",""
"","iti_localizer","","html-keyboard-response","172","150664","0.0-2.0-51.0-1.0","24","74897","female","null","","","","null","","","49","","","150360","1","","","","","","300","57900","304","58404","300","","","","","","","","","","","","","","","","","","","","","","","","","","","","","","","","","","","","","","","","","","","","","","","","","","","",""
"","localizer","","html-keyboard-response","173","151071","0.0-2.0-52.0-0.0","24","74897","female","165","","","","68","","0","50","","Stimuli/Experimental_stims/localizer/faces/darshan-patel-QJEVpydulGs-unsplash.jpg","150664","1","faces","","0","0","1","400","58200","407","58708","","","","","","","","","","","","","","","","","","","","","","","","","","","","","","","","","","","","","","","","","","","","","","","","","","","","",""
"","iti_localizer","","html-keyboard-response","174","151376","0.0-2.0-52.0-1.0","24","74897","female","null","","","","null","","","50","","","151071","1","","","","","","300","58600","305","59115","300","","","","","","","","","","","","","","","","","","","","","","","","","","","","","","","","","","","","","","","","","","","","","","","","","","","",""
"","localizer","","html-keyboard-response","175","151782","0.0-2.0-53.0-0.0","24","74897","female","1","","","","68","","0","51","","Stimuli/Experimental_stims/localizer/faces/ivan-dodig-R21SyyJDFgc-unsplash.jpg","151376","1","faces","","0","0","1","400","58900","406","59420","","","","","","","","","","","","","","","","","","","","","","","","","","","","","","","","","","","","","","","","","","","","","","","","","","","","",""
"","iti_localizer","","html-keyboard-response","176","152087","0.0-2.0-53.0-1.0","24","74897","female","null","","","","null","","","51","","","151782","1","","","","","","300","59300","305","59826","300","","","","","","","","","","","","","","","","","","","","","","","","","","","","","","","","","","","","","","","","","","","","","","","","","","","",""
"","localizer","","html-keyboard-response","177","152493","0.0-2.0-54.0-0.0","24","74897","female","NaN","","","","null","","NaN","52","","Stimuli/Experimental_stims/localizer/faces/austin-wade-X6Uj51n5CE8-unsplash.jpg","152087","1","faces","","0","1","0","400","59600","406","60131","","","","","","","","","","","","","","","","","","","","","","","","","","","","","","","","","","","","","","","","","","","","","","","","","","","","",""
"","iti_localizer","","html-keyboard-response","178","152798","0.0-2.0-54.0-1.0","24","74897","female","null","","","","null","","","52","","","152493","1","","","","","","300","60000","305","60537","300","","","","","","","","","","","","","","","","","","","","","","","","","","","","","","","","","","","","","","","","","","","","","","","","","","","",""
"","localizer","","html-keyboard-response","179","153206","0.0-2.0-55.0-0.0","24","74897","female","NaN","","","","null","","NaN","53","","Stimuli/Experimental_stims/localizer/faces/linkedin-sales-solutions-pAtA8xe_iVM-unsplash.jpg","152798","1","faces","","0","1","0","400","60300","408","60842","","","","","","","","","","","","","","","","","","","","","","","","","","","","","","","","","","","","","","","","","","","","","","","","","","","","",""
"","iti_localizer","","html-keyboard-response","180","153511","0.0-2.0-55.0-1.0","24","74897","female","null","","","","null","","","53","","","153206","1","","","","","","300","60700","305","61250","300","","","","","","","","","","","","","","","","","","","","","","","","","","","","","","","","","","","","","","","","","","","","","","","","","","","",""
"","localizer","","html-keyboard-response","181","153916","0.0-2.0-56.0-0.0","24","74897","female","NaN","","","","null","","NaN","54","","Stimuli/Experimental_stims/localizer/faces/pavel-anoshin-d0peGya6R5Y-unsplash.jpg","153511","1","faces","","0","1","0","400","61000","405","61555","","","","","","","","","","","","","","","","","","","","","","","","","","","","","","","","","","","","","","","","","","","","","","","","","","","","",""
"","iti_localizer","","html-keyboard-response","182","154221","0.0-2.0-56.0-1.0","24","74897","female","null","","","","null","","","54","","","153916","1","","","","","","300","61400","305","61960","300","","","","","","","","","","","","","","","","","","","","","","","","","","","","","","","","","","","","","","","","","","","","","","","","","","","",""
"","localizer","","html-keyboard-response","183","154627","0.0-2.0-57.0-0.0","24","74897","female","NaN","","","","null","","NaN","55","","Stimuli/Experimental_stims/localizer/faces/jeffery-erhunse-vp9mRauo68c-unsplash.jpg","154221","1","faces","","0","1","0","400","61700","406","62265","","","","","","","","","","","","","","","","","","","","","","","","","","","","","","","","","","","","","","","","","","","","","","","","","","","","",""
"","iti_localizer","","html-keyboard-response","184","154932","0.0-2.0-57.0-1.0","24","74897","female","null","","","","null","","","55","","","154627","1","","","","","","300","62100","305","62671","300","","","","","","","","","","","","","","","","","","","","","","","","","","","","","","","","","","","","","","","","","","","","","","","","","","","",""
"","localizer","","html-keyboard-response","185","155337","0.0-2.0-58.0-0.0","24","74897","female","NaN","","","","null","","NaN","56","","Stimuli/Experimental_stims/localizer/faces/aatik-tasneem-7omHUGhhmZ0-unsplash.jpg","154932","1","faces","","0","1","0","400","62400","405","62976","","","","","","","","","","","","","","","","","","","","","","","","","","","","","","","","","","","","","","","","","","","","","","","","","","","","",""
"","iti_localizer","","html-keyboard-response","186","155642","0.0-2.0-58.0-1.0","24","74897","female","null","","","","null","","","56","","","155337","1","","","","","","300","62800","305","63381","300","","","","","","","","","","","","","","","","","","","","","","","","","","","","","","","","","","","","","","","","","","","","","","","","","","","",""
"","localizer","","html-keyboard-response","187","156049","0.0-2.0-59.0-0.0","24","74897","female","NaN","","","","null","","NaN","57","","Stimuli/Experimental_stims/localizer/faces/abstral-official-cyOKLSgkgCE-unsplash.jpg","155642","1","faces","","0","1","0","400","63100","407","63686","","","","","","","","","","","","","","","","","","","","","","","","","","","","","","","","","","","","","","","","","","","","","","","","","","","","",""
"","iti_localizer","","html-keyboard-response","188","156353","0.0-2.0-59.0-1.0","24","74897","female","null","","","","null","","","57","","","156049","1","","","","","","300","63500","304","64093","300","","","","","","","","","","","","","","","","","","","","","","","","","","","","","","","","","","","","","","","","","","","","","","","","","","","",""
"","localizer","","html-keyboard-response","189","156758","0.0-2.0-60.0-0.0","24","74897","female","NaN","","","","null","","NaN","58","","Stimuli/Experimental_stims/localizer/faces/brooke-cagle-Nm70URdtf3c-unsplash (1).jpg","156353","1","faces","","0","1","0","400","63800","405","64397","","","","","","","","","","","","","","","","","","","","","","","","","","","","","","","","","","","","","","","","","","","","","","","","","","","","",""
"","iti_localizer","","html-keyboard-response","190","157063","0.0-2.0-60.0-1.0","24","74897","female","null","","","","null","","","58","","","156758","1","","","","","","300","64200","305","64802","300","","","","","","","","","","","","","","","","","","","","","","","","","","","","","","","","","","","","","","","","","","","","","","","","","","","",""
"","localizer","","html-keyboard-response","191","157469","0.0-2.0-61.0-0.0","24","74897","female","NaN","","","","null","","NaN","59","","Stimuli/Experimental_stims/localizer/faces/icons8-team-6LZuSzSwso0-unsplash.jpg","157063","1","faces","","0","1","0","400","64500","406","65107","","","","","","","","","","","","","","","","","","","","","","","","","","","","","","","","","","","","","","","","","","","","","","","","","","","","",""
"","iti_localizer","","html-keyboard-response","192","157775","0.0-2.0-61.0-1.0","24","74897","female","null","","","","null","","","59","","","157469","1","","","","","","300","64900","306","65513","300","","","","","","","","","","","","","","","","","","","","","","","","","","","","","","","","","","","","","","","","","","","","","","","","","","","",""
"","localizer","","html-keyboard-response","193","158181","0.0-2.0-62.0-0.0","24","74897","female","NaN","","","","null","","NaN","60","","Stimuli/Experimental_stims/localizer/faces/christina-wocintechchat-com-0Zx1bDv5BNY-unsplash.jpg","157775","1","faces","","0","1","0","400","65200","406","65819","","","","","","","","","","","","","","","","","","","","","","","","","","","","","","","","","","","","","","","","","","","","","","","","","","","","",""
"","iti_localizer","","html-keyboard-response","194","158486","0.0-2.0-62.0-1.0","24","74897","female","null","","","","null","","","60","","","158181","1","","","","","","300","65600","305","66225","300","","","","","","","","","","","","","","","","","","","","","","","","","","","","","","","","","","","","","","","","","","","","","","","","","","","",""
"","localizer","","html-keyboard-response","195","158892","0.0-2.0-63.0-0.0","24","74897","female","57","","","","68","","0","61","","Stimuli/Experimental_stims/localizer/faces/juan-encalada-WC7KIHo13Fc-unsplash.jpg","158486","1","faces","","0","0","1","400","65900","406","66530","","","","","","","","","","","","","","","","","","","","","","","","","","","","","","","","","","","","","","","","","","","","","","","","","","","","",""
"","iti_localizer","","html-keyboard-response","196","159198","0.0-2.0-63.0-1.0","24","74897","female","null","","","","null","","","61","","","158892","1","","","","","","300","66300","306","66936","300","","","","","","","","","","","","","","","","","","","","","","","","","","","","","","","","","","","","","","","","","","","","","","","","","","","",""
"","localizer","","html-keyboard-response","197","159604","0.0-2.0-64.0-0.0","24","74897","female","NaN","","","","null","","NaN","62","","Stimuli/Experimental_stims/localizer/faces/nick-karvounis-JyO_szjGvUw-unsplash.jpg","159198","1","faces","","0","1","0","400","66600","406","67242","","","","","","","","","","","","","","","","","","","","","","","","","","","","","","","","","","","","","","","","","","","","","","","","","","","","",""
"","iti_localizer","","html-keyboard-response","198","159910","0.0-2.0-64.0-1.0","24","74897","female","null","","","","null","","","62","","","159604","1","","","","","","300","67000","306","67648","300","","","","","","","","","","","","","","","","","","","","","","","","","","","","","","","","","","","","","","","","","","","","","","","","","","","",""
"","localizer","","html-keyboard-response","199","160315","0.0-2.0-65.0-0.0","24","74897","female","NaN","","","","null","","NaN","63","","Stimuli/Experimental_stims/localizer/faces/carlos-vaz-KP4bxnxAilU-unsplash.jpg","159910","1","faces","","0","1","0","400","67300","405","67954","","","","","","","","","","","","","","","","","","","","","","","","","","","","","","","","","","","","","","","","","","","","","","","","","","","","",""
"","iti_localizer","","html-keyboard-response","200","160620","0.0-2.0-65.0-1.0","24","74897","female","null","","","","null","","","63","","","160315","1","","","","","","300","67700","305","68359","300","","","","","","","","","","","","","","","","","","","","","","","","","","","","","","","","","","","","","","","","","","","","","","","","","","","",""
"","localizer","","html-keyboard-response","201","161029","0.0-2.0-66.0-0.0","24","74897","female","NaN","","","","null","","NaN","64","","Stimuli/Experimental_stims/localizer/faces/tyler-nix-ZGa9d1a_4tA-unsplash.jpg","160620","1","faces","","1","1","0","400","68000","409","68664","","","","","","","","","","","","","","","","","","","","","","","","","","","","","","","","","","","","","","","","","","","","","","","","","","","","",""
"","iti_localizer","","html-keyboard-response","202","161335","0.0-2.0-66.0-1.0","24","74897","female","null","","","","null","","","64","","","161029","1","","","","","","300","68400","306","69073","300","","","","","","","","","","","","","","","","","","","","","","","","","","","","","","","","","","","","","","","","","","","","","","","","","","","",""
"","localizer","","html-keyboard-response","203","161741","0.0-2.0-67.0-0.0","24","74897","female","217","","","","68","","0","65","","Stimuli/Experimental_stims/localizer/faces/samuel-dixon--fQ5XNOcqFQ-unsplash.jpg","161335","1","faces","","0","0","1","400","68700","406","69379","","","","","","","","","","","","","","","","","","","","","","","","","","","","","","","","","","","","","","","","","","","","","","","","","","","","",""
"","iti_localizer","","html-keyboard-response","204","175745","0.0-2.0-67.0-1.0","24","74897","female","null","","","","null","","","65","","","161741","1","","","","","","14000","69100","14004","69785","14000","","","","","","","","","","","","","","","","","","","","","","","","","","","","","","","","","","","","","","","","","","","","","","","","","","","",""
"","localizer","","html-keyboard-response","205","176151","0.0-2.0-68.0-0.0","24","74897","female","NaN","","","","null","","NaN","66","","Stimuli/Experimental_stims/localizer/body_parts/nihal-karkala-LlOfbQD-IJ0-unsplash.jpg","175745","1","body_parts","","1","1","0","400","83100","406","83789","","","","","","","","","","","","","","","","","","","","","","","","","","","","","","","","","","","","","","","","","","","","","","","","","","","","",""
"","iti_localizer","","html-keyboard-response","206","176456","0.0-2.0-68.0-1.0","24","74897","female","null","","","","null","","","66","","","176151","1","","","","","","300","83500","305","84195","300","","","","","","","","","","","","","","","","","","","","","","","","","","","","","","","","","","","","","","","","","","","","","","","","","","","",""
"","localizer","","html-keyboard-response","207","176861","0.0-2.0-69.0-0.0","24","74897","female","NaN","","","","null","","NaN","67","","Stimuli/Experimental_stims/localizer/body_parts/nick-page-WTNmgJtwzGI-unsplash.jpg","176456","1","body_parts","","0","1","0","400","83800","405","84500","","","","","","","","","","","","","","","","","","","","","","","","","","","","","","","","","","","","","","","","","","","","","","","","","","","","",""
"","iti_localizer","","html-keyboard-response","208","177166","0.0-2.0-69.0-1.0","24","74897","female","null","","","","null","","","67","","","176861","1","","","","","","300","84200","305","84905","300","","","","","","","","","","","","","","","","","","","","","","","","","","","","","","","","","","","","","","","","","","","","","","","","","","","",""
"","localizer","","html-keyboard-response","209","177573","0.0-2.0-70.0-0.0","24","74897","female","NaN","","","","null","","NaN","68","","Stimuli/Experimental_stims/localizer/body_parts/sina-rezakhani-d1gQi0Jl05U-unsplash (1).jpg","177166","1","body_parts","","0","1","0","400","84500","407","85210","","","","","","","","","","","","","","","","","","","","","","","","","","","","","","","","","","","","","","","","","","","","","","","","","","","","",""
"","iti_localizer","","html-keyboard-response","210","177878","0.0-2.0-70.0-1.0","24","74897","female","null","","","","null","","","68","","","177573","1","","","","","","300","84900","305","85617","300","","","","","","","","","","","","","","","","","","","","","","","","","","","","","","","","","","","","","","","","","","","","","","","","","","","",""
"","localizer","","html-keyboard-response","211","178284","0.0-2.0-71.0-0.0","24","74897","female","NaN","","","","null","","NaN","69","","Stimuli/Experimental_stims/localizer/body_parts/meghan-thompson-U1b8OB0QpIo-unsplash.jpg","177878","1","body_parts","","0","1","0","400","85200","406","85922","","","","","","","","","","","","","","","","","","","","","","","","","","","","","","","","","","","","","","","","","","","","","","","","","","","","",""
"","iti_localizer","","html-keyboard-response","212","178589","0.0-2.0-71.0-1.0","24","74897","female","null","","","","null","","","69","","","178284","1","","","","","","300","85600","305","86328","300","","","","","","","","","","","","","","","","","","","","","","","","","","","","","","","","","","","","","","","","","","","","","","","","","","","",""
"","localizer","","html-keyboard-response","213","178996","0.0-2.0-72.0-0.0","24","74897","female","NaN","","","","null","","NaN","70","","Stimuli/Experimental_stims/localizer/body_parts/davidcohen-qghuLqyh3nE-unsplash.jpg","178589","1","body_parts","","0","1","0","400","85900","407","86633","","","","","","","","","","","","","","","","","","","","","","","","","","","","","","","","","","","","","","","","","","","","","","","","","","","","",""
"","iti_localizer","","html-keyboard-response","214","179301","0.0-2.0-72.0-1.0","24","74897","female","null","","","","null","","","70","","","178996","1","","","","","","300","86300","305","87040","300","","","","","","","","","","","","","","","","","","","","","","","","","","","","","","","","","","","","","","","","","","","","","","","","","","","",""
"","localizer","","html-keyboard-response","215","179706","0.0-2.0-73.0-0.0","24","74897","female","NaN","","","","null","","NaN","71","","Stimuli/Experimental_stims/localizer/body_parts/sincerely-media-QyzlAZjm0r0-unsplash.jpg","179301","1","body_parts","","0","1","0","400","86600","405","87345","","","","","","","","","","","","","","","","","","","","","","","","","","","","","","","","","","","","","","","","","","","","","","","","","","","","",""
"","iti_localizer","","html-keyboard-response","216","180012","0.0-2.0-73.0-1.0","24","74897","female","null","","","","null","","","71","","","179706","1","","","","","","300","87000","306","87750","300","","","","","","","","","","","","","","","","","","","","","","","","","","","","","","","","","","","","","","","","","","","","","","","","","","","",""
"","localizer","","html-keyboard-response","217","180418","0.0-2.0-74.0-0.0","24","74897","female","NaN","","","","null","","NaN","72","","Stimuli/Experimental_stims/localizer/body_parts/juja-han-Z8-6EI2tYtw-unsplash.jpg","180012","1","body_parts","","0","1","0","400","87300","406","88056","","","","","","","","","","","","","","","","","","","","","","","","","","","","","","","","","","","","","","","","","","","","","","","","","","","","",""
"","iti_localizer","","html-keyboard-response","218","180724","0.0-2.0-74.0-1.0","24","74897","female","null","","","","null","","","72","","","180418","1","","","","","","300","87700","306","88462","300","","","","","","","","","","","","","","","","","","","","","","","","","","","","","","","","","","","","","","","","","","","","","","","","","","","",""
"","localizer","","html-keyboard-response","219","181132","0.0-2.0-75.0-0.0","24","74897","female","NaN","","","","null","","NaN","73","","Stimuli/Experimental_stims/localizer/body_parts/natalie-grainger-8uB5kFKWWkk-unsplash.jpg","180724","1","body_parts","","0","1","0","400","88000","408","88768","","","","","","","","","","","","","","","","","","","","","","","","","","","","","","","","","","","","","","","","","","","","","","","","","","","","",""
"","iti_localizer","","html-keyboard-response","220","181438","0.0-2.0-75.0-1.0","24","74897","female","null","","","","null","","","73","","","181132","1","","","","","","300","88400","306","89176","300","","","","","","","","","","","","","","","","","","","","","","","","","","","","","","","","","","","","","","","","","","","","","","","","","","","",""
"","localizer","","html-keyboard-response","221","181843","0.0-2.0-76.0-0.0","24","74897","female","NaN","","","","null","","NaN","74","","Stimuli/Experimental_stims/localizer/body_parts/debby-hudson--B_757qSA4k-unsplash.jpg","181438","1","body_parts","","0","1","0","400","88700","405","89482","","","","","","","","","","","","","","","","","","","","","","","","","","","","","","","","","","","","","","","","","","","","","","","","","","","","",""
"","iti_localizer","","html-keyboard-response","222","182147","0.0-2.0-76.0-1.0","24","74897","female","null","","","","null","","","74","","","181843","1","","","","","","300","89100","304","89887","300","","","","","","","","","","","","","","","","","","","","","","","","","","","","","","","","","","","","","","","","","","","","","","","","","","","",""
"","localizer","","html-keyboard-response","223","182552","0.0-2.0-77.0-0.0","24","74897","female","NaN","","","","null","","NaN","75","","Stimuli/Experimental_stims/localizer/body_parts/pure-julia-E9Q4bqYHtIM-unsplash.jpg","182147","1","body_parts","","0","1","0","400","89400","405","90191","","","","","","","","","","","","","","","","","","","","","","","","","","","","","","","","","","","","","","","","","","","","","","","","","","","","",""
"","iti_localizer","","html-keyboard-response","224","182857","0.0-2.0-77.0-1.0","24","74897","female","null","","","","null","","","75","","","182552","1","","","","","","300","89800","305","90596","300","","","","","","","","","","","","","","","","","","","","","","","","","","","","","","","","","","","","","","","","","","","","","","","","","","","",""
"","localizer","","html-keyboard-response","225","183264","0.0-2.0-78.0-0.0","24","74897","female","NaN","","","","null","","NaN","76","","Stimuli/Experimental_stims/localizer/body_parts/charles-etoroma-1fo0biloDOc-unsplash.jpg","182857","1","body_parts","","0","1","0","400","90100","407","90901","","","","","","","","","","","","","","","","","","","","","","","","","","","","","","","","","","","","","","","","","","","","","","","","","","","","",""
"","iti_localizer","","html-keyboard-response","226","183569","0.0-2.0-78.0-1.0","24","74897","female","null","","","","null","","","76","","","183264","1","","","","","","300","90500","305","91308","300","","","","","","","","","","","","","","","","","","","","","","","","","","","","","","","","","","","","","","","","","","","","","","","","","","","",""
"","localizer","","html-keyboard-response","227","183974","0.0-2.0-79.0-0.0","24","74897","female","NaN","","","","null","","NaN","77","","Stimuli/Experimental_stims/localizer/body_parts/david-fanuel-qnV8X7OViNY-unsplash.jpg","183569","1","body_parts","","0","1","0","400","90800","405","91613","","","","","","","","","","","","","","","","","","","","","","","","","","","","","","","","","","","","","","","","","","","","","","","","","","","","",""
"","iti_localizer","","html-keyboard-response","228","184279","0.0-2.0-79.0-1.0","24","74897","female","null","","","","null","","","77","","","183974","1","","","","","","300","91200","305","92018","300","","","","","","","","","","","","","","","","","","","","","","","","","","","","","","","","","","","","","","","","","","","","","","","","","","","",""
"","localizer","","html-keyboard-response","229","184687","0.0-2.0-80.0-0.0","24","74897","female","NaN","","","","null","","NaN","78","","Stimuli/Experimental_stims/localizer/body_parts/diana-polekhina-SwWjCbIIoFE-unsplash.jpg","184279","1","body_parts","","0","1","0","400","91500","408","92323","","","","","","","","","","","","","","","","","","","","","","","","","","","","","","","","","","","","","","","","","","","","","","","","","","","","",""
"","iti_localizer","","html-keyboard-response","230","184992","0.0-2.0-80.0-1.0","24","74897","female","null","","","","null","","","78","","","184687","1","","","","","","300","91900","305","92731","300","","","","","","","","","","","","","","","","","","","","","","","","","","","","","","","","","","","","","","","","","","","","","","","","","","","",""
"","localizer","","html-keyboard-response","231","185398","0.0-2.0-81.0-0.0","24","74897","female","NaN","","","","null","","NaN","79","","Stimuli/Experimental_stims/localizer/body_parts/ant-rozetsky-bXQd8JXx0vs-unsplash.jpg","184992","1","body_parts","","0","1","0","400","92200","406","93036","","","","","","","","","","","","","","","","","","","","","","","","","","","","","","","","","","","","","","","","","","","","","","","","","","","","",""
"","iti_localizer","","html-keyboard-response","232","185703","0.0-2.0-81.0-1.0","24","74897","female","null","","","","null","","","79","","","185398","1","","","","","","300","92600","305","93442","300","","","","","","","","","","","","","","","","","","","","","","","","","","","","","","","","","","","","","","","","","","","","","","","","","","","",""
"","localizer","","html-keyboard-response","233","186109","0.0-2.0-82.0-0.0","24","74897","female","NaN","","","","null","","NaN","80","","Stimuli/Experimental_stims/localizer/body_parts/callum-skelton-3KLMq7y46nA-unsplash.jpg","185703","1","body_parts","","0","1","0","400","92900","406","93747","","","","","","","","","","","","","","","","","","","","","","","","","","","","","","","","","","","","","","","","","","","","","","","","","","","","",""
"","iti_localizer","","html-keyboard-response","234","186415","0.0-2.0-82.0-1.0","24","74897","female","null","","","","null","","","80","","","186109","1","","","","","","300","93300","306","94153","300","","","","","","","","","","","","","","","","","","","","","","","","","","","","","","","","","","","","","","","","","","","","","","","","","","","",""
"","localizer","","html-keyboard-response","235","186821","0.0-2.0-83.0-0.0","24","74897","female","NaN","","","","null","","NaN","81","","Stimuli/Experimental_stims/localizer/body_parts/freestocks-qw9LFf5T790-unsplash.jpg","186415","1","body_parts","","0","1","0","400","93600","406","94459","","","","","","","","","","","","","","","","","","","","","","","","","","","","","","","","","","","","","","","","","","","","","","","","","","","","",""
"","iti_localizer","","html-keyboard-response","236","187126","0.0-2.0-83.0-1.0","24","74897","female","null","","","","null","","","81","","","186821","1","","","","","","300","94000","305","94865","300","","","","","","","","","","","","","","","","","","","","","","","","","","","","","","","","","","","","","","","","","","","","","","","","","","","",""
"","localizer","","html-keyboard-response","237","187532","0.0-2.0-84.0-0.0","24","74897","female","NaN","","","","null","","NaN","82","","Stimuli/Experimental_stims/localizer/body_parts/carlos-henrique-NAOJKwZswbs-unsplash.jpg","187126","1","body_parts","","0","1","0","400","94300","406","95170","","","","","","","","","","","","","","","","","","","","","","","","","","","","","","","","","","","","","","","","","","","","","","","","","","","","",""
"","iti_localizer","","html-keyboard-response","238","187837","0.0-2.0-84.0-1.0","24","74897","female","null","","","","null","","","82","","","187532","1","","","","","","300","94700","305","95576","300","","","","","","","","","","","","","","","","","","","","","","","","","","","","","","","","","","","","","","","","","","","","","","","","","","","",""
"","localizer","","html-keyboard-response","239","188243","0.0-2.0-85.0-0.0","24","74897","female","NaN","","","","null","","NaN","83","","Stimuli/Experimental_stims/localizer/body_parts/boyd-christiansen-uVj7kewrZ-o-unsplash.jpg","187837","1","body_parts","","1","1","0","400","95000","406","95881","","","","","","","","","","","","","","","","","","","","","","","","","","","","","","","","","","","","","","","","","","","","","","","","","","","","",""
"","iti_localizer","","html-keyboard-response","240","188549","0.0-2.0-85.0-1.0","24","74897","female","null","","","","null","","","83","","","188243","1","","","","","","300","95400","306","96287","300","","","","","","","","","","","","","","","","","","","","","","","","","","","","","","","","","","","","","","","","","","","","","","","","","","","",""
"","localizer","","html-keyboard-response","241","188956","0.0-2.0-86.0-0.0","24","74897","female","NaN","","","","null","","NaN","84","","Stimuli/Experimental_stims/localizer/body_parts/nick-page-jAGdpOGvLAA-unsplash.jpg","188549","1","body_parts","","0","1","0","400","95700","407","96593","","","","","","","","","","","","","","","","","","","","","","","","","","","","","","","","","","","","","","","","","","","","","","","","","","","","",""
"","iti_localizer","","html-keyboard-response","242","189260","0.0-2.0-86.0-1.0","24","74897","female","null","","","","null","","","84","","","188956","1","","","","","","300","96100","304","97000","300","","","","","","","","","","","","","","","","","","","","","","","","","","","","","","","","","","","","","","","","","","","","","","","","","","","",""
"","localizer","","html-keyboard-response","243","189666","0.0-2.0-87.0-0.0","24","74897","female","NaN","","","","null","","NaN","85","","Stimuli/Experimental_stims/localizer/body_parts/lilartsy-1KkhQ8uL28g-unsplash.jpg","189260","1","body_parts","","0","1","0","400","96400","406","97304","","","","","","","","","","","","","","","","","","","","","","","","","","","","","","","","","","","","","","","","","","","","","","","","","","","","",""
"","iti_localizer","","html-keyboard-response","244","203671","0.0-2.0-87.0-1.0","24","74897","female","null","","","","null","","","85","","","189666","1","","","","","","14000","96800","14005","97710","14000","","","","","","","","","","","","","","","","","","","","","","","","","","","","","","","","","","","","","","","","","","","","","","","","","","","",""
"","localizer","","html-keyboard-response","245","204077","0.0-2.0-88.0-0.0","24","74897","female","NaN","","","","null","","NaN","86","","Stimuli/Experimental_stims/localizer/objects/yossy-made-yulian-WaEqwDSIeTY-unsplash.jpg","203671","1","objects","","1","1","0","400","110800","406","111715","","","","","","","","","","","","","","","","","","","","","","","","","","","","","","","","","","","","","","","","","","","","","","","","","","","","",""
"","iti_localizer","","html-keyboard-response","246","204381","0.0-2.0-88.0-1.0","24","74897","female","null","","","","null","","","86","","","204077","1","","","","","","300","111200","304","112121","300","","","","","","","","","","","","","","","","","","","","","","","","","","","","","","","","","","","","","","","","","","","","","","","","","","","",""
