"success","ttype","start_time","trial_type","trial_index","time_elapsed","internal_node_id","age","PID","gender","rt","responses","view_history","repeat_instructions","key_press","response","index","stimulus_index","path","start_time_elapsed","run","task","isi","is_odd_ball","no_response","acc","duration","onset","duration_time_elapsed","onset_time_elapsed","trial_duration","left_chosen","chosen_stimulus","unchosen_stimulus","chosen_category","unchosen_category","chosen_rating","unchosen_rating","chosen_path","unchosen_path","pair_id","practice","scramble_screen_time","scramble_instructed_side","stim_type","iti","block","left_stimulus","right_stimulus","left_category","right_category","left_path","right_path","left_rating","right_rating","scramble_acc","scramble_no_response","warning","missed_checkup","stimulus_id","item_id","outcome","response_rt","deliberation_reward_tally","choice_type","gain_left","left_item_id","right_item_id","higher_outcome_chosen","chosen_left","old_pair","pair_type","old_response","pair_acc","reward_type","outcome_response","outcome_rt","outcome_acc","category","choice","deliberated_stim","old_rating","new_rating"
"true","full_screen","d08172023hr1457","fullscreen","0","13133","0.0-0.0-0.0","29","70197","female","","","","","","","","","","","","","","","","","","","","","","","","","","","","","","","","","","","","","","","","","","","","","","","","","","","","","","","","","","","","","","","","","","","","","","","","",""
"","get_id","","survey-text","1","28193","0.0-0.0-1.0","29","70197","female","15049","{""Q0"":""29"",""Q1"":""female""}","","","","","","","","","","","","","","","","","","","","","","","","","","","","","","","","","","","","","","","","","","","","","","","","","","","","","","","","","","","","","","","","","","","","","","",""
"","ratings_instructions","","instructions","2","77672","0.0-1.0-0.0-0.0","29","70197","female","45696","","[{""page_index"":0,""viewing_time"":37960},{""page_index"":1,""viewing_time"":7734}]","","","","","","","","","","","","","","","","","","","","","","","","","","","","","","","","","","","","","","","","","","","","","","","","","","","","","","","","","","","","","","","","","","","","","",""
"","rating_comprehension_check","","survey-multi-choice","3","89985","0.0-1.0-0.0-1.0","29","70197","female","12301","{""Q0"":""True"",""Q1"":""Mouse""}","","0","","","","","","","","","","","","","","","","","","","","","","","","","","","","","","","","","","","","","","","","","","","","","","","","","","","","","","","","","","","","","","","","","","","","",""
"","","","html-keyboard-response","4","102516","0.0-1.0-1.0","29","70197","female","12519","","","","68","","","","","","","","","","","","","","","","","","","","","","","","","","","","","","","","","","","","","","","","","","","","","","","","","","","","","","","","","","","","","","","","","","","",""
"","rating","","html-slider-response","5","151555","0.0-1.0-2.0","29","70197","female","49027","","","","","61","0","28","Stimuli/Experimental_stims/body_parts/ira-vishnevskaya-8DQAvdCby1I-unsplash.jpg","","","","","","","","","","","","","","","","","","","","","","","","","","","","","","","","","","","","","","","","","","","","","","","","","","","","","","","","","","","","","","","",""
"","rating","","html-slider-response","6","165834","0.0-1.0-3.0","29","70197","female","14267","","","","","74","1","4","Stimuli/Experimental_stims/outdoor_scenes/jarrett-kow-1ZOyYPOBn7I-unsplash.jpg","","","","","","","","","","","","","","","","","","","","","","","","","","","","","","","","","","","","","","","","","","","","","","","","","","","","","","","","","","","","","","","",""
"","rating","","html-slider-response","7","221251","0.0-1.0-4.0","29","70197","female","55405","","","","","16","2","35","Stimuli/Experimental_stims/body_parts/wc-so-KH4AAPjb-tI-unsplash.jpg","","","","","","","","","","","","","","","","","","","","","","","","","","","","","","","","","","","","","","","","","","","","","","","","","","","","","","","","","","","","","","","",""
"","rating","","html-slider-response","8","243586","0.0-1.0-5.0","29","70197","female","22325","","","","","24","3","47","Stimuli/Experimental_stims/objects/ronaldo-arthur-vidal-Cdz_lvnl37k-unsplash.jpg","","","","","","","","","","","","","","","","","","","","","","","","","","","","","","","","","","","","","","","","","","","","","","","","","","","","","","","","","","","","","","","",""
"","rating","","html-slider-response","9","259721","0.0-1.0-6.0","29","70197","female","16125","","","","","56","4","9","Stimuli/Experimental_stims/outdoor_scenes/sergey-pesterev-y-b_FOmJXdg-unsplash.jpg","","","","","","","","","","","","","","","","","","","","","","","","","","","","","","","","","","","","","","","","","","","","","","","","","","","","","","","","","","","","","","","",""
"","rating","","html-slider-response","10","270731","0.0-1.0-7.0","29","70197","female","10996","","","","","28","5","31","Stimuli/Experimental_stims/body_parts/sincerely-media-VN6DbKajo5s-unsplash.jpg","","","","","","","","","","","","","","","","","","","","","","","","","","","","","","","","","","","","","","","","","","","","","","","","","","","","","","","","","","","","","","","",""
"","rating","","html-slider-response","11","280985","0.0-1.0-8.0","29","70197","female","10244","","","","","87","6","5","Stimuli/Experimental_stims/outdoor_scenes/jeff-king-bJHWJeiHfHc-unsplash.jpg","","","","","","","","","","","","","","","","","","","","","","","","","","","","","","","","","","","","","","","","","","","","","","","","","","","","","","","","","","","","","","","",""
"","rating","","html-slider-response","12","302693","0.0-1.0-9.0","29","70197","female","21694","","","","","78","7","27","Stimuli/Experimental_stims/body_parts/heike-mintel-i_Gns0ELnLw-unsplash.jpg","","","","","","","","","","","","","","","","","","","","","","","","","","","","","","","","","","","","","","","","","","","","","","","","","","","","","","","","","","","","","","","",""
"","rating","","html-slider-response","13","330616","0.0-1.0-10.0","29","70197","female","27912","","","","","58","8","37","Stimuli/Experimental_stims/objects/alexander-andrews-VLGWE_SumrA-unsplash.jpg","","","","","","","","","","","","","","","","","","","","","","","","","","","","","","","","","","","","","","","","","","","","","","","","","","","","","","","","","","","","","","","",""
"","rating","","html-slider-response","14","359729","0.0-1.0-11.0","29","70197","female","29100","","","","","70","9","19","Stimuli/Experimental_stims/faces/joel-mott-LaK153ghdig-unsplash.jpg","","","","","","","","","","","","","","","","","","","","","","","","","","","","","","","","","","","","","","","","","","","","","","","","","","","","","","","","","","","","","","","",""
"","rating","","html-slider-response","15","382824","0.0-1.0-12.0","29","70197","female","23082","","","","","8","10","34","Stimuli/Experimental_stims/body_parts/wagner-santos-mBWMvIuVnso-unsplash.jpg","","","","","","","","","","","","","","","","","","","","","","","","","","","","","","","","","","","","","","","","","","","","","","","","","","","","","","","","","","","","","","","",""
"","rating","","html-slider-response","16","395930","0.0-1.0-13.0","29","70197","female","13095","","","","","73","11","22","Stimuli/Experimental_stims/faces/ravi-patel-VMGAbeeJTKo-unsplash.jpg","","","","","","","","","","","","","","","","","","","","","","","","","","","","","","","","","","","","","","","","","","","","","","","","","","","","","","","","","","","","","","","",""
"","rating","","html-slider-response","17","405724","0.0-1.0-14.0","29","70197","female","9780","","","","","40","12","1","Stimuli/Experimental_stims/outdoor_scenes/ashim-d-silva-S2Q5mdOrrVc-unsplash.jpg","","","","","","","","","","","","","","","","","","","","","","","","","","","","","","","","","","","","","","","","","","","","","","","","","","","","","","","","","","","","","","","",""
"","rating","","html-slider-response","18","413323","0.0-1.0-15.0","29","70197","female","7586","","","","","40","13","15","Stimuli/Experimental_stims/faces/erik-lucatero-d2MSDujJl2g-unsplash.jpg","","","","","","","","","","","","","","","","","","","","","","","","","","","","","","","","","","","","","","","","","","","","","","","","","","","","","","","","","","","","","","","",""
"","rating","","html-slider-response","19","431514","0.0-1.0-16.0","29","70197","female","18179","","","","","78","14","17","Stimuli/Experimental_stims/faces/good-faces-xmSWVeGEnJw-unsplash.jpg","","","","","","","","","","","","","","","","","","","","","","","","","","","","","","","","","","","","","","","","","","","","","","","","","","","","","","","","","","","","","","","",""
"","rating","","html-slider-response","20","441913","0.0-1.0-17.0","29","70197","female","10388","","","","","83","15","12","Stimuli/Experimental_stims/faces/aiony-haust-jmATI5Q_YgY-unsplash.jpg","","","","","","","","","","","","","","","","","","","","","","","","","","","","","","","","","","","","","","","","","","","","","","","","","","","","","","","","","","","","","","","",""
"","rating","","html-slider-response","21","453792","0.0-1.0-18.0","29","70197","female","11863","","","","","83","16","0","Stimuli/Experimental_stims/outdoor_scenes/aleksandra-boguslawska-MS7KD9Ti7FQ-unsplash.jpg","","","","","","","","","","","","","","","","","","","","","","","","","","","","","","","","","","","","","","","","","","","","","","","","","","","","","","","","","","","","","","","",""
"","rating","","html-slider-response","22","468584","0.0-1.0-19.0","29","70197","female","14780","","","","","70","17","41","Stimuli/Experimental_stims/objects/insung-yoon-w2JtIQQXoRU-unsplash.jpg","","","","","","","","","","","","","","","","","","","","","","","","","","","","","","","","","","","","","","","","","","","","","","","","","","","","","","","","","","","","","","","",""
"","rating","","html-slider-response","23","481856","0.0-1.0-20.0","29","70197","female","13262","","","","","60","18","18","Stimuli/Experimental_stims/faces/jessica-radanavong-mrYkTuAesKE-unsplash.jpg","","","","","","","","","","","","","","","","","","","","","","","","","","","","","","","","","","","","","","","","","","","","","","","","","","","","","","","","","","","","","","","",""
"","rating","","html-slider-response","24","499806","0.0-1.0-21.0","29","70197","female","17939","","","","","67","19","11","Stimuli/Experimental_stims/outdoor_scenes/stephen-leonardi-gyIRjKPXupE-unsplash.jpg","","","","","","","","","","","","","","","","","","","","","","","","","","","","","","","","","","","","","","","","","","","","","","","","","","","","","","","","","","","","","","","",""
"","rating","","html-slider-response","25","536259","0.0-1.0-22.0","29","70197","female","36441","","","","","65","20","20","Stimuli/Experimental_stims/faces/justin-chen-J7Cf1Gch49E-unsplash.jpg","","","","","","","","","","","","","","","","","","","","","","","","","","","","","","","","","","","","","","","","","","","","","","","","","","","","","","","","","","","","","","","",""
"","rating","","html-slider-response","26","557305","0.0-1.0-23.0","29","70197","female","21012","","","","","73","21","23","Stimuli/Experimental_stims/faces/rikonavt-HQjfrvdTfak-unsplash.jpg","","","","","","","","","","","","","","","","","","","","","","","","","","","","","","","","","","","","","","","","","","","","","","","","","","","","","","","","","","","","","","","",""
"","rating","","html-slider-response","27","576722","0.0-1.0-24.0","29","70197","female","19404","","","","","9","22","25","Stimuli/Experimental_stims/body_parts/engin-akyurt-Q2rfH3GW39c-unsplash.jpg","","","","","","","","","","","","","","","","","","","","","","","","","","","","","","","","","","","","","","","","","","","","","","","","","","","","","","","","","","","","","","","",""
"","rating","","html-slider-response","28","592530","0.0-1.0-25.0","29","70197","female","15797","","","","","62","23","33","Stimuli/Experimental_stims/body_parts/tucker-good-36skLT5jZcc-unsplash.jpg","","","","","","","","","","","","","","","","","","","","","","","","","","","","","","","","","","","","","","","","","","","","","","","","","","","","","","","","","","","","","","","",""
"","rating","","html-slider-response","29","602089","0.0-1.0-26.0","29","70197","female","9545","","","","","38","24","32","Stimuli/Experimental_stims/body_parts/towfiqu-barbhuiya-3AsiVDsZnHg-unsplash.jpg","","","","","","","","","","","","","","","","","","","","","","","","","","","","","","","","","","","","","","","","","","","","","","","","","","","","","","","","","","","","","","","",""
"","rating","","html-slider-response","30","635987","0.0-1.0-27.0","29","70197","female","33884","","","","","25","25","30","Stimuli/Experimental_stims/body_parts/mika-korhonen-Xodzxosar18-unsplash.jpg","","","","","","","","","","","","","","","","","","","","","","","","","","","","","","","","","","","","","","","","","","","","","","","","","","","","","","","","","","","","","","","",""
"","rating","","html-slider-response","31","651695","0.0-1.0-28.0","29","70197","female","15697","","","","","50","26","16","Stimuli/Experimental_stims/faces/freddy-kearney-o-ioeoATbIM-unsplash.jpg","","","","","","","","","","","","","","","","","","","","","","","","","","","","","","","","","","","","","","","","","","","","","","","","","","","","","","","","","","","","","","","",""
"","rating","","html-slider-response","32","667599","0.0-1.0-29.0","29","70197","female","15891","","","","","84","27","14","Stimuli/Experimental_stims/faces/david-siglin-UuW4psOb388-unsplash.jpg","","","","","","","","","","","","","","","","","","","","","","","","","","","","","","","","","","","","","","","","","","","","","","","","","","","","","","","","","","","","","","","",""
"","rating","","html-slider-response","33","678757","0.0-1.0-30.0","29","70197","female","11148","","","","","53","28","36","Stimuli/Experimental_stims/objects/alexander-andrews-JYGnB9gTCls-unsplash.jpg","","","","","","","","","","","","","","","","","","","","","","","","","","","","","","","","","","","","","","","","","","","","","","","","","","","","","","","","","","","","","","","",""
"","rating","","html-slider-response","34","696574","0.0-1.0-31.0","29","70197","female","17804","","","","","86","29","3","Stimuli/Experimental_stims/outdoor_scenes/henry-be-NLF6hTe4PAg-unsplash.jpg","","","","","","","","","","","","","","","","","","","","","","","","","","","","","","","","","","","","","","","","","","","","","","","","","","","","","","","","","","","","","","","",""
"","rating","","html-slider-response","35","708364","0.0-1.0-32.0","29","70197","female","11779","","","","","53","30","29","Stimuli/Experimental_stims/body_parts/manuel-schinner-ZwjFuJ7ebpk-unsplash.jpg","","","","","","","","","","","","","","","","","","","","","","","","","","","","","","","","","","","","","","","","","","","","","","","","","","","","","","","","","","","","","","","",""
"","rating","","html-slider-response","36","732740","0.0-1.0-33.0","29","70197","female","24364","","","","","44","31","43","Stimuli/Experimental_stims/objects/jonathan-greenaway-Y4hGgeiFn3s-unsplash.jpg","","","","","","","","","","","","","","","","","","","","","","","","","","","","","","","","","","","","","","","","","","","","","","","","","","","","","","","","","","","","","","","",""
"","rating","","html-slider-response","37","743572","0.0-1.0-34.0","29","70197","female","10820","","","","","45","32","40","Stimuli/Experimental_stims/objects/fabian-blank-pElSkGRA2NU-unsplash.jpg","","","","","","","","","","","","","","","","","","","","","","","","","","","","","","","","","","","","","","","","","","","","","","","","","","","","","","","","","","","","","","","",""
"","rating","","html-slider-response","38","753386","0.0-1.0-35.0","29","70197","female","9801","","","","","78","33","2","Stimuli/Experimental_stims/outdoor_scenes/bruno-van-der-kraan-qez8mNJ3ilU-unsplash.jpg","","","","","","","","","","","","","","","","","","","","","","","","","","","","","","","","","","","","","","","","","","","","","","","","","","","","","","","","","","","","","","","",""
"","rating","","html-slider-response","39","765384","0.0-1.0-36.0","29","70197","female","11983","","","","","54","34","26","Stimuli/Experimental_stims/body_parts/engin-akyurt-x_3gyC42btc-unsplash.jpg","","","","","","","","","","","","","","","","","","","","","","","","","","","","","","","","","","","","","","","","","","","","","","","","","","","","","","","","","","","","","","","",""
"","rating","","html-slider-response","40","774076","0.0-1.0-37.0","29","70197","female","8678","","","","","57","35","45","Stimuli/Experimental_stims/objects/leohoho-rngTKHXumy0-unsplash.jpg","","","","","","","","","","","","","","","","","","","","","","","","","","","","","","","","","","","","","","","","","","","","","","","","","","","","","","","","","","","","","","","",""
"","rating","","html-slider-response","41","783703","0.0-1.0-38.0","29","70197","female","9613","","","","","63","36","6","Stimuli/Experimental_stims/outdoor_scenes/meng-ji-8BH_M-53CyA-unsplash.jpg","","","","","","","","","","","","","","","","","","","","","","","","","","","","","","","","","","","","","","","","","","","","","","","","","","","","","","","","","","","","","","","",""
"","rating","","html-slider-response","42","791574","0.0-1.0-39.0","29","70197","female","7859","","","","","62","37","13","Stimuli/Experimental_stims/faces/daniel-rigdon-dXmXKPP2L4E-unsplash.jpg","","","","","","","","","","","","","","","","","","","","","","","","","","","","","","","","","","","","","","","","","","","","","","","","","","","","","","","","","","","","","","","",""
"","rating","","html-slider-response","43","797644","0.0-1.0-40.0","29","70197","female","6054","","","","","67","38","44","Stimuli/Experimental_stims/objects/kuiye-chen-NuOGFo4PudE-unsplash.jpg","","","","","","","","","","","","","","","","","","","","","","","","","","","","","","","","","","","","","","","","","","","","","","","","","","","","","","","","","","","","","","","",""
"","rating","","html-slider-response","44","805178","0.0-1.0-41.0","29","70197","female","7515","","","","","70","39","42","Stimuli/Experimental_stims/objects/jess-bailey-nOeVi8DsN8U-unsplash.jpg","","","","","","","","","","","","","","","","","","","","","","","","","","","","","","","","","","","","","","","","","","","","","","","","","","","","","","","","","","","","","","","",""
"","rating","","html-slider-response","45","811938","0.0-1.0-42.0","29","70197","female","6743","","","","","56","40","24","Stimuli/Experimental_stims/body_parts/clay-banks-LjqARJaJotc-unsplash.jpg","","","","","","","","","","","","","","","","","","","","","","","","","","","","","","","","","","","","","","","","","","","","","","","","","","","","","","","","","","","","","","","",""
"","rating","","html-slider-response","46","820174","0.0-1.0-43.0","29","70197","female","8222","","","","","55","41","21","Stimuli/Experimental_stims/faces/leilani-angel-K84vnnzxmTQ-unsplash.jpg","","","","","","","","","","","","","","","","","","","","","","","","","","","","","","","","","","","","","","","","","","","","","","","","","","","","","","","","","","","","","","","",""
"","rating","","html-slider-response","47","826366","0.0-1.0-44.0","29","70197","female","6181","","","","","69","42","7","Stimuli/Experimental_stims/outdoor_scenes/petr-vysohlid-9fqwGqGLUxc-unsplash.jpg","","","","","","","","","","","","","","","","","","","","","","","","","","","","","","","","","","","","","","","","","","","","","","","","","","","","","","","","","","","","","","","",""
"","rating","","html-slider-response","48","833061","0.0-1.0-45.0","29","70197","female","6685","","","","","63","43","46","Stimuli/Experimental_stims/objects/mockup-graphics-PNsj6RiHAF4-unsplash.jpg","","","","","","","","","","","","","","","","","","","","","","","","","","","","","","","","","","","","","","","","","","","","","","","","","","","","","","","","","","","","","","","",""
"","rating","","html-slider-response","49","842475","0.0-1.0-46.0","29","70197","female","9397","","","","","34","44","38","Stimuli/Experimental_stims/objects/art-lasovsky-8XddFc6NkBY-unsplash.jpg","","","","","","","","","","","","","","","","","","","","","","","","","","","","","","","","","","","","","","","","","","","","","","","","","","","","","","","","","","","","","","","",""
"","rating","","html-slider-response","50","851483","0.0-1.0-47.0","29","70197","female","8996","","","","","60","45","8","Stimuli/Experimental_stims/outdoor_scenes/samsommer-vddccTqwal8-unsplash.jpg","","","","","","","","","","","","","","","","","","","","","","","","","","","","","","","","","","","","","","","","","","","","","","","","","","","","","","","","","","","","","","","",""
"","rating","","html-slider-response","51","862594","0.0-1.0-48.0","29","70197","female","11099","","","","","68","46","10","Stimuli/Experimental_stims/outdoor_scenes/shannon-kunkle-dM8INmkyDas-unsplash.jpg","","","","","","","","","","","","","","","","","","","","","","","","","","","","","","","","","","","","","","","","","","","","","","","","","","","","","","","","","","","","","","","",""
"","rating","","html-slider-response","52","870588","0.0-1.0-49.0","29","70197","female","7982","","","","","66","47","39","Stimuli/Experimental_stims/objects/charlesdeluvio-1-nx1QR5dTE-unsplash.jpg","","","","","","","","","","","","","","","","","","","","","","","","","","","","","","","","","","","","","","","","","","","","","","","","","","","","","","","","","","","","","","","",""
"","localizer_instructions","","instructions","53","1088019","0.0-2.0-0.0-0.0","29","70197","female","217281","","[{""page_index"":0,""viewing_time"":71200},{""page_index"":1,""viewing_time"":138632},{""page_index"":2,""viewing_time"":7447}]","","","","","","","","","","","","","","","","","","","","","","","","","","","","","","","","","","","","","","","","","","","","","","","","","","","","","","","","","","","","","","","","","","","","","",""
"","localizer_comprehension_check","","survey-multi-choice","54","1130103","0.0-2.0-0.0-1.0","29","70197","female","42056","{""Q0"":""True"",""Q1"":""K"",""Q2"":""D""}","","0","","","","","","","","","","","","","","","","","","","","","","","","","","","","","","","","","","","","","","","","","","","","","","","","","","","","","","","","","","","","","","","","","","","","",""
"","","","html-keyboard-response","55","1168607","0.0-2.0-1.0","29","70197","female","38486","","","","68","","","","","","","","","","","","","","","","","","","","","","","","","","","","","","","","","","","","","","","","","","","","","","","","","","","","","","","","","","","","","","","","","","","",""
"","localizer","","html-keyboard-response","56","1169041","0.0-2.0-2.0-0.0","29","70197","female","NaN","","","","null","NaN","0","","Stimuli/Practice_stims/Localizer/annie-spratt-g9KFpAfQ5bc-unsplash.jpg","1168607","0","NaN","","0","1","0","400","0","434","0","","","","","","","","","","","","","","","","","","","","","","","","","","","","","","","","","","","","","","","","","","","","","","","","","","","","",""
"","iti_localizer","","html-keyboard-response","57","1169362","0.0-2.0-2.0-1.0","29","70197","female","null","","","","null","","0","","","1169041","0","","","","","","300","400","321","434","300","","","","","","","","","","","","","","","","","","","","","","","","","","","","","","","","","","","","","","","","","","","","","","","","","","","",""
"","localizer","","html-keyboard-response","58","1169782","0.0-2.0-2.1-0.1","29","70197","female","NaN","","","","null","NaN","0","","Stimuli/Practice_stims/Localizer/annie-spratt-g9KFpAfQ5bc-unsplash.jpg","1169362","0","NaN","","0","1","0","400","700","420","755","","","","","","","","","","","","","","","","","","","","","","","","","","","","","","","","","","","","","","","","","","","","","","","","","","","","",""
"","iti_localizer","","html-keyboard-response","59","1170104","0.0-2.0-2.1-1.1","29","70197","female","null","","","","null","","0","","","1169782","0","","","","","","300","1100","322","1175","300","","","","","","","","","","","","","","","","","","","","","","","","","","","","","","","","","","","","","","","","","","","","","","","","","","","",""
"","localizer","","html-keyboard-response","60","1170521","0.0-2.0-2.2-0.2","29","70197","female","NaN","","","","null","NaN","0","","Stimuli/Practice_stims/Localizer/annie-spratt-g9KFpAfQ5bc-unsplash.jpg","1170104","0","NaN","","0","1","0","400","1400","417","1497","","","","","","","","","","","","","","","","","","","","","","","","","","","","","","","","","","","","","","","","","","","","","","","","","","","","",""
"","iti_localizer","","html-keyboard-response","61","1170838","0.0-2.0-2.2-1.2","29","70197","female","null","","","","null","","0","","","1170521","0","","","","","","300","1800","317","1914","300","","","","","","","","","","","","","","","","","","","","","","","","","","","","","","","","","","","","","","","","","","","","","","","","","","","",""
"","localizer","","html-keyboard-response","62","1171257","0.0-2.0-2.3-0.3","29","70197","female","NaN","","","","null","NaN","0","","Stimuli/Practice_stims/Localizer/annie-spratt-g9KFpAfQ5bc-unsplash.jpg","1170838","0","NaN","","0","1","0","400","2100","419","2231","","","","","","","","","","","","","","","","","","","","","","","","","","","","","","","","","","","","","","","","","","","","","","","","","","","","",""
"","iti_localizer","","html-keyboard-response","63","1171568","0.0-2.0-2.3-1.3","29","70197","female","null","","","","null","","0","","","1171257","0","","","","","","300","2500","311","2650","300","","","","","","","","","","","","","","","","","","","","","","","","","","","","","","","","","","","","","","","","","","","","","","","","","","","",""
"","localizer","","html-keyboard-response","64","1171981","0.0-2.0-2.4-0.4","29","70197","female","NaN","","","","null","NaN","0","","Stimuli/Practice_stims/Localizer/annie-spratt-g9KFpAfQ5bc-unsplash.jpg","1171568","0","NaN","","0","1","0","400","2800","413","2961","","","","","","","","","","","","","","","","","","","","","","","","","","","","","","","","","","","","","","","","","","","","","","","","","","","","",""
"","iti_localizer","","html-keyboard-response","65","1172303","0.0-2.0-2.4-1.4","29","70197","female","null","","","","null","","0","","","1171981","0","","","","","","300","3200","322","3374","300","","","","","","","","","","","","","","","","","","","","","","","","","","","","","","","","","","","","","","","","","","","","","","","","","","","",""
"","localizer","","html-keyboard-response","66","1172720","0.0-2.0-2.5-0.5","29","70197","female","192","","","","68","0","0","","Stimuli/Practice_stims/Localizer/annie-spratt-g9KFpAfQ5bc-unsplash.jpg","1172303","0","NaN","","0","0","1","400","3500","417","3696","","","","","","","","","","","","","","","","","","","","","","","","","","","","","","","","","","","","","","","","","","","","","","","","","","","","",""
"","iti_localizer","","html-keyboard-response","67","1173040","0.0-2.0-2.5-1.5","29","70197","female","null","","","","null","","0","","","1172720","0","","","","","","300","3900","320","4113","300","","","","","","","","","","","","","","","","","","","","","","","","","","","","","","","","","","","","","","","","","","","","","","","","","","","",""
"","localizer","","html-keyboard-response","68","1173454","0.0-2.0-3.0-0.0","29","70197","female","253","","","","68","0","1","","Stimuli/Practice_stims/Localizer/becca-tapert-sY5RjMB1KkE-unsplash.jpg","1173040","0","NaN","","0","0","1","400","4200","414","4433","","","","","","","","","","","","","","","","","","","","","","","","","","","","","","","","","","","","","","","","","","","","","","","","","","","","",""
"","iti_localizer","","html-keyboard-response","69","1173769","0.0-2.0-3.0-1.0","29","70197","female","null","","","","null","","1","","","1173454","0","","","","","","300","4600","315","4847","300","","","","","","","","","","","","","","","","","","","","","","","","","","","","","","","","","","","","","","","","","","","","","","","","","","","",""
"","localizer","","html-keyboard-response","70","1174181","0.0-2.0-4.0-0.0","29","70197","female","322","","","","68","0","2","","Stimuli/Practice_stims/Localizer/charl-durand-bsfXvI25iNg-unsplash.jpg","1173769","0","NaN","","1","0","0","400","4900","412","5162","","","","","","","","","","","","","","","","","","","","","","","","","","","","","","","","","","","","","","","","","","","","","","","","","","","","",""
"","iti_localizer","","html-keyboard-response","71","1174495","0.0-2.0-4.0-1.0","29","70197","female","null","","","","null","","2","","","1174181","0","","","","","","300","5300","314","5574","300","","","","","","","","","","","","","","","","","","","","","","","","","","","","","","","","","","","","","","","","","","","","","","","","","","","",""
"","localizer","","html-keyboard-response","72","1174912","0.0-2.0-5.0-0.0","29","70197","female","NaN","","","","null","NaN","3","","Stimuli/Practice_stims/Localizer/nizar-albusaidy-B2r2SWAf5CE-unsplash.jpg","1174495","0","NaN","","0","1","0","400","5600","417","5888","","","","","","","","","","","","","","","","","","","","","","","","","","","","","","","","","","","","","","","","","","","","","","","","","","","","",""
"","iti_localizer","","html-keyboard-response","73","1175228","0.0-2.0-5.0-1.0","29","70197","female","null","","","","null","","3","","","1174912","0","","","","","","300","6000","316","6305","300","","","","","","","","","","","","","","","","","","","","","","","","","","","","","","","","","","","","","","","","","","","","","","","","","","","",""
"","localizer","","html-keyboard-response","74","1175642","0.0-2.0-5.1-0.1","29","70197","female","NaN","","","","null","NaN","3","","Stimuli/Practice_stims/Localizer/nizar-albusaidy-B2r2SWAf5CE-unsplash.jpg","1175228","0","NaN","","0","1","0","400","6300","414","6621","","","","","","","","","","","","","","","","","","","","","","","","","","","","","","","","","","","","","","","","","","","","","","","","","","","","",""
"","iti_localizer","","html-keyboard-response","75","1175959","0.0-2.0-5.1-1.1","29","70197","female","null","","","","null","","3","","","1175642","0","","","","","","300","6700","317","7035","300","","","","","","","","","","","","","","","","","","","","","","","","","","","","","","","","","","","","","","","","","","","","","","","","","","","",""
"","localizer","","html-keyboard-response","76","1176368","0.0-2.0-5.2-0.2","29","70197","female","NaN","","","","null","NaN","3","","Stimuli/Practice_stims/Localizer/nizar-albusaidy-B2r2SWAf5CE-unsplash.jpg","1175959","0","NaN","","0","1","0","400","7000","409","7352","","","","","","","","","","","","","","","","","","","","","","","","","","","","","","","","","","","","","","","","","","","","","","","","","","","","",""
"","iti_localizer","","html-keyboard-response","77","1176685","0.0-2.0-5.2-1.2","29","70197","female","null","","","","null","","3","","","1176368","0","","","","","","300","7400","317","7761","300","","","","","","","","","","","","","","","","","","","","","","","","","","","","","","","","","","","","","","","","","","","","","","","","","","","",""
"","localizer","","html-keyboard-response","78","1177102","0.0-2.0-5.3-0.3","29","70197","female","NaN","","","","null","NaN","3","","Stimuli/Practice_stims/Localizer/nizar-albusaidy-B2r2SWAf5CE-unsplash.jpg","1176685","0","NaN","","0","1","0","400","7700","417","8078","","","","","","","","","","","","","","","","","","","","","","","","","","","","","","","","","","","","","","","","","","","","","","","","","","","","",""
"","iti_localizer","","html-keyboard-response","79","1177424","0.0-2.0-5.3-1.3","29","70197","female","null","","","","null","","3","","","1177102","0","","","","","","300","8100","322","8495","300","","","","","","","","","","","","","","","","","","","","","","","","","","","","","","","","","","","","","","","","","","","","","","","","","","","",""
"","localizer","","html-keyboard-response","80","1177837","0.0-2.0-5.4-0.4","29","70197","female","NaN","","","","null","NaN","3","","Stimuli/Practice_stims/Localizer/nizar-albusaidy-B2r2SWAf5CE-unsplash.jpg","1177424","0","NaN","","0","1","0","400","8400","413","8817","","","","","","","","","","","","","","","","","","","","","","","","","","","","","","","","","","","","","","","","","","","","","","","","","","","","",""
"","iti_localizer","","html-keyboard-response","81","1178148","0.0-2.0-5.4-1.4","29","70197","female","null","","","","null","","3","","","1177837","0","","","","","","300","8800","311","9230","300","","","","","","","","","","","","","","","","","","","","","","","","","","","","","","","","","","","","","","","","","","","","","","","","","","","",""
"","localizer","","html-keyboard-response","82","1178571","0.0-2.0-5.5-0.5","29","70197","female","155","","","","68","0","3","","Stimuli/Practice_stims/Localizer/nizar-albusaidy-B2r2SWAf5CE-unsplash.jpg","1178148","0","NaN","","0","0","1","400","9100","423","9541","","","","","","","","","","","","","","","","","","","","","","","","","","","","","","","","","","","","","","","","","","","","","","","","","","","","",""
"","iti_localizer","","html-keyboard-response","83","1178899","0.0-2.0-5.5-1.5","29","70197","female","null","","","","null","","3","","","1178571","0","","","","","","300","9500","328","9964","300","","","","","","","","","","","","","","","","","","","","","","","","","","","","","","","","","","","","","","","","","","","","","","","","","","","",""
"","localizer","","html-keyboard-response","84","1179318","0.0-2.0-6.0-0.0","29","70197","female","NaN","","","","null","NaN","4","","Stimuli/Practice_stims/Localizer/randy-fath-epf1tdtIIkM-unsplash.jpg","1178899","0","NaN","","1","1","0","400","9800","419","10292","","","","","","","","","","","","","","","","","","","","","","","","","","","","","","","","","","","","","","","","","","","","","","","","","","","","",""
"","iti_localizer","","html-keyboard-response","85","1179650","0.0-2.0-6.0-1.0","29","70197","female","null","","","","null","","4","","","1179318","0","","","","","","300","10200","332","10711","300","","","","","","","","","","","","","","","","","","","","","","","","","","","","","","","","","","","","","","","","","","","","","","","","","","","",""
"","localizer","","html-keyboard-response","86","1180060","0.0-2.0-6.1-0.1","29","70197","female","NaN","","","","null","NaN","4","","Stimuli/Practice_stims/Localizer/randy-fath-epf1tdtIIkM-unsplash.jpg","1179650","0","NaN","","1","1","0","400","10500","410","11043","","","","","","","","","","","","","","","","","","","","","","","","","","","","","","","","","","","","","","","","","","","","","","","","","","","","",""
"","iti_localizer","","html-keyboard-response","87","1180379","0.0-2.0-6.1-1.1","29","70197","female","null","","","","null","","4","","","1180060","0","","","","","","300","10900","319","11453","300","","","","","","","","","","","","","","","","","","","","","","","","","","","","","","","","","","","","","","","","","","","","","","","","","","","",""
"","localizer","","html-keyboard-response","88","1180791","0.0-2.0-6.2-0.2","29","70197","female","NaN","","","","null","NaN","4","","Stimuli/Practice_stims/Localizer/randy-fath-epf1tdtIIkM-unsplash.jpg","1180379","0","NaN","","1","1","0","400","11200","412","11772","","","","","","","","","","","","","","","","","","","","","","","","","","","","","","","","","","","","","","","","","","","","","","","","","","","","",""
"","iti_localizer","","html-keyboard-response","89","1181106","0.0-2.0-6.2-1.2","29","70197","female","null","","","","null","","4","","","1180791","0","","","","","","300","11600","315","12184","300","","","","","","","","","","","","","","","","","","","","","","","","","","","","","","","","","","","","","","","","","","","","","","","","","","","",""
"","localizer","","html-keyboard-response","90","1181524","0.0-2.0-6.3-0.3","29","70197","female","NaN","","","","null","NaN","4","","Stimuli/Practice_stims/Localizer/randy-fath-epf1tdtIIkM-unsplash.jpg","1181106","0","NaN","","1","1","0","400","11900","418","12499","","","","","","","","","","","","","","","","","","","","","","","","","","","","","","","","","","","","","","","","","","","","","","","","","","","","",""
"","iti_localizer","","html-keyboard-response","91","1181837","0.0-2.0-6.3-1.3","29","70197","female","null","","","","null","","4","","","1181524","0","","","","","","300","12300","313","12917","300","","","","","","","","","","","","","","","","","","","","","","","","","","","","","","","","","","","","","","","","","","","","","","","","","","","",""
"","localizer","","html-keyboard-response","92","1182253","0.0-2.0-6.4-0.4","29","70197","female","NaN","","","","null","NaN","4","","Stimuli/Practice_stims/Localizer/randy-fath-epf1tdtIIkM-unsplash.jpg","1181837","0","NaN","","1","1","0","400","12600","416","13230","","","","","","","","","","","","","","","","","","","","","","","","","","","","","","","","","","","","","","","","","","","","","","","","","","","","",""
"","iti_localizer","","html-keyboard-response","93","1182569","0.0-2.0-6.4-1.4","29","70197","female","null","","","","null","","4","","","1182253","0","","","","","","300","13000","316","13646","300","","","","","","","","","","","","","","","","","","","","","","","","","","","","","","","","","","","","","","","","","","","","","","","","","","","",""
"","localizer","","html-keyboard-response","94","1182984","0.0-2.0-6.5-0.5","29","70197","female","302","","","","75","1","4","","Stimuli/Practice_stims/Localizer/randy-fath-epf1tdtIIkM-unsplash.jpg","1182569","0","NaN","","1","0","1","400","13300","415","13962","","","","","","","","","","","","","","","","","","","","","","","","","","","","","","","","","","","","","","","","","","","","","","","","","","","","",""
"","iti_localizer","","html-keyboard-response","95","1183302","0.0-2.0-6.5-1.5","29","70197","female","null","","","","null","","4","","","1182984","0","","","","","","300","13700","318","14377","300","","","","","","","","","","","","","","","","","","","","","","","","","","","","","","","","","","","","","","","","","","","","","","","","","","","",""
"","localizer","","html-keyboard-response","96","1183715","0.0-2.0-7.0-0.0","29","70197","female","NaN","","","","null","NaN","5","","Stimuli/Practice_stims/Localizer/yassine-khalfalli-adsQ9d_Cx0c-unsplash.jpg","1183302","0","NaN","","0","1","0","400","14000","413","14695","","","","","","","","","","","","","","","","","","","","","","","","","","","","","","","","","","","","","","","","","","","","","","","","","","","","",""
"","iti_localizer","","html-keyboard-response","97","1184036","0.0-2.0-7.0-1.0","29","70197","female","null","","","","null","","5","","","1183715","0","","","","","","300","14400","321","15108","300","","","","","","","","","","","","","","","","","","","","","","","","","","","","","","","","","","","","","","","","","","","","","","","","","","","",""
"","localizer","","html-keyboard-response","98","1184457","0.0-2.0-7.1-0.1","29","70197","female","1","","","","68","0","5","","Stimuli/Practice_stims/Localizer/yassine-khalfalli-adsQ9d_Cx0c-unsplash.jpg","1184036","0","NaN","","0","0","1","400","14700","421","15429","","","","","","","","","","","","","","","","","","","","","","","","","","","","","","","","","","","","","","","","","","","","","","","","","","","","",""
"","iti_localizer","","html-keyboard-response","99","1184815","0.0-2.0-7.1-1.1","29","70197","female","null","","","","null","","5","","","1184457","0","","","","","","300","15100","358","15850","300","","","","","","","","","","","","","","","","","","","","","","","","","","","","","","","","","","","","","","","","","","","","","","","","","","","",""
"","practice_over","","html-keyboard-response","100","1354041","0.0-2.0-7.1-2.1-0.1","29","70197","female","169216","","","","68","","","","","","","","","","","","","","","","","","","","","","","","","","","","","","","","","","","","","","","","","","","","","","","","","","","","","","","","","","","","","","","","","","","",""
"","start_run","","html-keyboard-response","101","1357880","0.0-2.0-7.1-2.1-1.1","29","70197","female","3824","","","","84","","","","","","","","","","","","","","","","","","","","","","","","","","","","","","","","","","","","","","","","","","","","","","","","","","","","","","","","","","","","","","","","","","","",""
"","localizer","","html-keyboard-response","102","1358299","0.0-2.0-8.0-0.0","29","70197","female","NaN","","","","null","NaN","6","","Stimuli/Experimental_stims/localizer/body_parts/igordoon-primus-CdyHqfrbGIs-unsplash.jpg","1357880","1","body_parts","","0","1","0","400","0","419","0","","","","","","","","","","","","","","","","","","","","","","","","","","","","","","","","","","","","","","","","","","","","","","","","","","","","",""
"","iti_localizer","","html-keyboard-response","103","1358610","0.0-2.0-8.0-1.0","29","70197","female","null","","","","null","","6","","","1358299","1","","","","","","300","400","311","419","300","","","","","","","","","","","","","","","","","","","","","","","","","","","","","","","","","","","","","","","","","","","","","","","","","","","",""
"","localizer","","html-keyboard-response","104","1359054","0.0-2.0-9.0-0.0","29","70197","female","163","","","","68","0","7","","Stimuli/Experimental_stims/localizer/body_parts/jonathan-borba-hTwH8QFkPMs-unsplash.jpg","1358610","1","body_parts","","0","0","1","400","700","444","730","","","","","","","","","","","","","","","","","","","","","","","","","","","","","","","","","","","","","","","","","","","","","","","","","","","","",""
"","iti_localizer","","html-keyboard-response","105","1359369","0.0-2.0-9.0-1.0","29","70197","female","null","","","","null","","7","","","1359054","1","","","","","","300","1100","315","1174","300","","","","","","","","","","","","","","","","","","","","","","","","","","","","","","","","","","","","","","","","","","","","","","","","","","","",""
"","localizer","","html-keyboard-response","106","1359788","0.0-2.0-10.0-0.0","29","70197","female","114","","","","68","0","8","","Stimuli/Experimental_stims/localizer/body_parts/marcel-fagin-OUYg0Q3ec-Y-unsplash.jpg","1359369","1","body_parts","","1","0","0","400","1400","419","1489","","","","","","","","","","","","","","","","","","","","","","","","","","","","","","","","","","","","","","","","","","","","","","","","","","","","",""
"","iti_localizer","","html-keyboard-response","107","1360106","0.0-2.0-10.0-1.0","29","70197","female","null","","","","null","","8","","","1359788","1","","","","","","300","1800","318","1908","300","","","","","","","","","","","","","","","","","","","","","","","","","","","","","","","","","","","","","","","","","","","","","","","","","","","",""
"","localizer","","html-keyboard-response","108","1360522","0.0-2.0-11.0-0.0","29","70197","female","NaN","","","","null","NaN","9","","Stimuli/Experimental_stims/localizer/body_parts/anelya-okapova-V69kmOyZ3SU-unsplash.jpg","1360106","1","body_parts","","0","1","0","400","2100","416","2226","","","","","","","","","","","","","","","","","","","","","","","","","","","","","","","","","","","","","","","","","","","","","","","","","","","","",""
"","iti_localizer","","html-keyboard-response","109","1360841","0.0-2.0-11.0-1.0","29","70197","female","null","","","","null","","9","","","1360522","1","","","","","","300","2500","319","2642","300","","","","","","","","","","","","","","","","","","","","","","","","","","","","","","","","","","","","","","","","","","","","","","","","","","","",""
"","localizer","","html-keyboard-response","110","1361255","0.0-2.0-12.0-0.0","29","70197","female","NaN","","","","null","NaN","10","","Stimuli/Experimental_stims/localizer/body_parts/jan-romero-DL4DDQb8yjc-unsplash.jpg","1360841","1","body_parts","","0","1","0","400","2800","414","2961","","","","","","","","","","","","","","","","","","","","","","","","","","","","","","","","","","","","","","","","","","","","","","","","","","","","",""
"","iti_localizer","","html-keyboard-response","111","1361581","0.0-2.0-12.0-1.0","29","70197","female","null","","","","null","","10","","","1361255","1","","","","","","300","3200","326","3375","300","","","","","","","","","","","","","","","","","","","","","","","","","","","","","","","","","","","","","","","","","","","","","","","","","","","",""
"","localizer","","html-keyboard-response","112","1361999","0.0-2.0-13.0-0.0","29","70197","female","NaN","","","","null","NaN","11","","Stimuli/Experimental_stims/localizer/body_parts/pure-julia-9lVaya31sMk-unsplash.jpg","1361581","1","body_parts","","0","1","0","400","3500","418","3701","","","","","","","","","","","","","","","","","","","","","","","","","","","","","","","","","","","","","","","","","","","","","","","","","","","","",""
"","iti_localizer","","html-keyboard-response","113","1362312","0.0-2.0-13.0-1.0","29","70197","female","null","","","","null","","11","","","1361999","1","","","","","","300","3900","313","4119","300","","","","","","","","","","","","","","","","","","","","","","","","","","","","","","","","","","","","","","","","","","","","","","","","","","","",""
"","localizer","","html-keyboard-response","114","1362729","0.0-2.0-14.0-0.0","29","70197","female","408","","","","68","0","12","","Stimuli/Experimental_stims/localizer/body_parts/jasper-garratt-Ng_Kl7K6V8Y-unsplash.jpg","1362312","1","body_parts","","0","0","1","400","4200","417","4432","","","","","","","","","","","","","","","","","","","","","","","","","","","","","","","","","","","","","","","","","","","","","","","","","","","","",""
"","iti_localizer","","html-keyboard-response","115","1363047","0.0-2.0-14.0-1.0","29","70197","female","null","","","","null","","12","","","1362729","1","","","","","","300","4600","318","4849","300","","","","","","","","","","","","","","","","","","","","","","","","","","","","","","","","","","","","","","","","","","","","","","","","","","","",""
"","localizer","","html-keyboard-response","116","1363465","0.0-2.0-15.0-0.0","29","70197","female","392","","","","68","0","13","","Stimuli/Experimental_stims/localizer/body_parts/i-am_nah--S4OsO0c6Ts-unsplash.jpg","1363047","1","body_parts","","0","0","1","400","4900","418","5167","","","","","","","","","","","","","","","","","","","","","","","","","","","","","","","","","","","","","","","","","","","","","","","","","","","","",""
"","iti_localizer","","html-keyboard-response","117","1363777","0.0-2.0-15.0-1.0","29","70197","female","null","","","","null","","13","","","1363465","1","","","","","","300","5300","312","5585","300","","","","","","","","","","","","","","","","","","","","","","","","","","","","","","","","","","","","","","","","","","","","","","","","","","","",""
"","localizer","","html-keyboard-response","118","1364191","0.0-2.0-16.0-0.0","29","70197","female","394","","","","68","0","14","","Stimuli/Experimental_stims/localizer/body_parts/femme-spirit-RGYBDUHYbyM-unsplash.jpg","1363777","1","body_parts","","0","0","1","400","5600","414","5897","","","","","","","","","","","","","","","","","","","","","","","","","","","","","","","","","","","","","","","","","","","","","","","","","","","","",""
"","iti_localizer","","html-keyboard-response","119","1364508","0.0-2.0-16.0-1.0","29","70197","female","null","","","","null","","14","","","1364191","1","","","","","","300","6000","317","6311","300","","","","","","","","","","","","","","","","","","","","","","","","","","","","","","","","","","","","","","","","","","","","","","","","","","","",""
"","localizer","","html-keyboard-response","120","1364923","0.0-2.0-17.0-0.0","29","70197","female","363","","","","68","0","15","","Stimuli/Experimental_stims/localizer/body_parts/liv-bruce-M0oVPGsWk1E-unsplash.jpg","1364508","1","body_parts","","0","0","1","400","6300","415","6628","","","","","","","","","","","","","","","","","","","","","","","","","","","","","","","","","","","","","","","","","","","","","","","","","","","","",""
"","iti_localizer","","html-keyboard-response","121","1365233","0.0-2.0-17.0-1.0","29","70197","female","null","","","","null","","15","","","1364923","1","","","","","","300","6700","310","7043","300","","","","","","","","","","","","","","","","","","","","","","","","","","","","","","","","","","","","","","","","","","","","","","","","","","","",""
"","localizer","","html-keyboard-response","122","1365646","0.0-2.0-18.0-0.0","29","70197","female","NaN","","","","null","NaN","16","","Stimuli/Experimental_stims/localizer/body_parts/bady-abbas-N-VEeMnm7gE-unsplash.jpg","1365233","1","body_parts","","0","1","0","400","7000","413","7353","","","","","","","","","","","","","","","","","","","","","","","","","","","","","","","","","","","","","","","","","","","","","","","","","","","","",""
"","iti_localizer","","html-keyboard-response","123","1365962","0.0-2.0-18.0-1.0","29","70197","female","null","","","","null","","16","","","1365646","1","","","","","","300","7400","316","7766","300","","","","","","","","","","","","","","","","","","","","","","","","","","","","","","","","","","","","","","","","","","","","","","","","","","","",""
"","localizer","","html-keyboard-response","124","1366383","0.0-2.0-19.0-0.0","29","70197","female","NaN","","","","null","NaN","17","","Stimuli/Experimental_stims/localizer/body_parts/lucaxx-freire-CacZwMexYdk-unsplash.jpg","1365962","1","body_parts","","0","1","0","400","7700","421","8082","","","","","","","","","","","","","","","","","","","","","","","","","","","","","","","","","","","","","","","","","","","","","","","","","","","","",""
"","iti_localizer","","html-keyboard-response","125","1366698","0.0-2.0-19.0-1.0","29","70197","female","null","","","","null","","17","","","1366383","1","","","","","","300","8100","315","8503","300","","","","","","","","","","","","","","","","","","","","","","","","","","","","","","","","","","","","","","","","","","","","","","","","","","","",""
"","localizer","","html-keyboard-response","126","1367203","0.0-2.0-20.0-0.0","29","70197","female","NaN","","","","null","NaN","18","","Stimuli/Experimental_stims/localizer/body_parts/hu-chen-tCbTGNwrFNM-unsplash.jpg","1366698","1","body_parts","","0","1","0","400","8400","505","8818","","","","","","","","","","","","","","","","","","","","","","","","","","","","","","","","","","","","","","","","","","","","","","","","","","","","",""
"","iti_localizer","","html-keyboard-response","127","1367524","0.0-2.0-20.0-1.0","29","70197","female","null","","","","null","","18","","","1367203","1","","","","","","300","8800","321","9323","300","","","","","","","","","","","","","","","","","","","","","","","","","","","","","","","","","","","","","","","","","","","","","","","","","","","",""
"","localizer","","html-keyboard-response","128","1367967","0.0-2.0-21.0-0.0","29","70197","female","376","","","","68","0","19","","Stimuli/Experimental_stims/localizer/body_parts/megan-menegay-UojxG_BJxnI-unsplash.jpg","1367524","1","body_parts","","0","0","1","400","9100","443","9644","","","","","","","","","","","","","","","","","","","","","","","","","","","","","","","","","","","","","","","","","","","","","","","","","","","","",""
"","iti_localizer","","html-keyboard-response","129","1368276","0.0-2.0-21.0-1.0","29","70197","female","null","","","","null","","19","","","1367967","1","","","","","","300","9500","309","10087","300","","","","","","","","","","","","","","","","","","","","","","","","","","","","","","","","","","","","","","","","","","","","","","","","","","","",""
"","localizer","","html-keyboard-response","130","1368688","0.0-2.0-22.0-0.0","29","70197","female","NaN","","","","null","NaN","20","","Stimuli/Experimental_stims/localizer/body_parts/toan-nguyen-VIeLuUFzesg-unsplash.jpg","1368276","1","body_parts","","1","1","0","400","9800","412","10396","","","","","","","","","","","","","","","","","","","","","","","","","","","","","","","","","","","","","","","","","","","","","","","","","","","","",""
"","iti_localizer","","html-keyboard-response","131","1369016","0.0-2.0-22.0-1.0","29","70197","female","null","","","","null","","20","","","1368688","1","","","","","","300","10200","328","10808","300","","","","","","","","","","","","","","","","","","","","","","","","","","","","","","","","","","","","","","","","","","","","","","","","","","","",""
"","localizer","","html-keyboard-response","132","1369435","0.0-2.0-23.0-0.0","29","70197","female","NaN","","","","null","NaN","21","","Stimuli/Experimental_stims/localizer/body_parts/sippakorn-yamkasikorn-32_sJlJa5gA-unsplash.jpg","1369016","1","body_parts","","0","1","0","400","10500","419","11136","","","","","","","","","","","","","","","","","","","","","","","","","","","","","","","","","","","","","","","","","","","","","","","","","","","","",""
"","iti_localizer","","html-keyboard-response","133","1369750","0.0-2.0-23.0-1.0","29","70197","female","null","","","","null","","21","","","1369435","1","","","","","","300","10900","315","11555","300","","","","","","","","","","","","","","","","","","","","","","","","","","","","","","","","","","","","","","","","","","","","","","","","","","","",""
"","localizer","","html-keyboard-response","134","1370161","0.0-2.0-24.0-0.0","29","70197","female","NaN","","","","null","NaN","22","","Stimuli/Experimental_stims/localizer/body_parts/louis-hansel-FjKTMRTQYAs-unsplash.jpg","1369750","1","body_parts","","0","1","0","400","11200","411","11870","","","","","","","","","","","","","","","","","","","","","","","","","","","","","","","","","","","","","","","","","","","","","","","","","","","","",""
"","iti_localizer","","html-keyboard-response","135","1370472","0.0-2.0-24.0-1.0","29","70197","female","null","","","","null","","22","","","1370161","1","","","","","","300","11600","311","12281","300","","","","","","","","","","","","","","","","","","","","","","","","","","","","","","","","","","","","","","","","","","","","","","","","","","","",""
"","localizer","","html-keyboard-response","136","1370884","0.0-2.0-25.0-0.0","29","70197","female","NaN","","","","null","NaN","23","","Stimuli/Experimental_stims/localizer/body_parts/sydney-herron-b2W04fGuS70-unsplash.jpg","1370472","1","body_parts","","0","1","0","400","11900","412","12592","","","","","","","","","","","","","","","","","","","","","","","","","","","","","","","","","","","","","","","","","","","","","","","","","","","","",""
"","iti_localizer","","html-keyboard-response","137","1371202","0.0-2.0-25.0-1.0","29","70197","female","null","","","","null","","23","","","1370884","1","","","","","","300","12300","318","13004","300","","","","","","","","","","","","","","","","","","","","","","","","","","","","","","","","","","","","","","","","","","","","","","","","","","","",""
"","localizer","","html-keyboard-response","138","1371615","0.0-2.0-26.0-0.0","29","70197","female","NaN","","","","null","NaN","24","","Stimuli/Experimental_stims/localizer/body_parts/danie-franco-jyyNiSEcCl4-unsplash.jpg","1371202","1","body_parts","","0","1","0","400","12600","413","13322","","","","","","","","","","","","","","","","","","","","","","","","","","","","","","","","","","","","","","","","","","","","","","","","","","","","",""
"","iti_localizer","","html-keyboard-response","139","1371976","0.0-2.0-26.0-1.0","29","70197","female","null","","","","null","","24","","","1371615","1","","","","","","300","13000","361","13735","300","","","","","","","","","","","","","","","","","","","","","","","","","","","","","","","","","","","","","","","","","","","","","","","","","","","",""
"","localizer","","html-keyboard-response","140","1372393","0.0-2.0-27.0-0.0","29","70197","female","22","","","","68","0","25","","Stimuli/Experimental_stims/localizer/body_parts/ramesh-iyer-CRhznMXoJlc-unsplash.jpg","1371976","1","body_parts","","0","0","1","400","13300","417","14096","","","","","","","","","","","","","","","","","","","","","","","","","","","","","","","","","","","","","","","","","","","","","","","","","","","","",""
"","iti_localizer","","html-keyboard-response","141","1386407","0.0-2.0-27.0-1.0","29","70197","female","null","","","","null","","25","","","1372393","1","","","","","","14000","13700","14014","14513","14000","","","","","","","","","","","","","","","","","","","","","","","","","","","","","","","","","","","","","","","","","","","","","","","","","","","",""
"","localizer","","html-keyboard-response","142","1386822","0.0-2.0-28.0-0.0","29","70197","female","NaN","","","","null","NaN","26","","Stimuli/Experimental_stims/localizer/objects/adriano-pucciarelli-BE7yaZnZX6o-unsplash.jpg","1386407","1","objects","","0","1","0","400","27700","415","28527","","","","","","","","","","","","","","","","","","","","","","","","","","","","","","","","","","","","","","","","","","","","","","","","","","","","",""
"","iti_localizer","","html-keyboard-response","143","1387141","0.0-2.0-28.0-1.0","29","70197","female","null","","","","null","","26","","","1386822","1","","","","","","300","28100","319","28942","300","","","","","","","","","","","","","","","","","","","","","","","","","","","","","","","","","","","","","","","","","","","","","","","","","","","",""
"","localizer","","html-keyboard-response","144","1387554","0.0-2.0-29.0-0.0","29","70197","female","NaN","","","","null","NaN","27","","Stimuli/Experimental_stims/localizer/objects/petr-sidorov-3jm5TGqtULU-unsplash.jpg","1387141","1","objects","","0","1","0","400","28400","413","29261","","","","","","","","","","","","","","","","","","","","","","","","","","","","","","","","","","","","","","","","","","","","","","","","","","","","",""
"","iti_localizer","","html-keyboard-response","145","1387868","0.0-2.0-29.0-1.0","29","70197","female","null","","","","null","","27","","","1387554","1","","","","","","300","28800","314","29674","300","","","","","","","","","","","","","","","","","","","","","","","","","","","","","","","","","","","","","","","","","","","","","","","","","","","",""
"","localizer","","html-keyboard-response","146","1388284","0.0-2.0-30.0-0.0","29","70197","female","NaN","","","","null","NaN","28","","Stimuli/Experimental_stims/localizer/objects/carlos-felipe-ramirez-mesa-HW7bfB3ERSQ-unsplash.jpg","1387868","1","objects","","0","1","0","400","29100","416","29988","","","","","","","","","","","","","","","","","","","","","","","","","","","","","","","","","","","","","","","","","","","","","","","","","","","","",""
"","iti_localizer","","html-keyboard-response","147","1388602","0.0-2.0-30.0-1.0","29","70197","female","null","","","","null","","28","","","1388284","1","","","","","","300","29500","318","30404","300","","","","","","","","","","","","","","","","","","","","","","","","","","","","","","","","","","","","","","","","","","","","","","","","","","","",""
"","localizer","","html-keyboard-response","148","1389017","0.0-2.0-31.0-0.0","29","70197","female","NaN","","","","null","NaN","29","","Stimuli/Experimental_stims/localizer/objects/raimond-klavins-ZdvDPXVvcKs-unsplash.jpg","1388602","1","objects","","1","1","0","400","29800","415","30722","","","","","","","","","","","","","","","","","","","","","","","","","","","","","","","","","","","","","","","","","","","","","","","","","","","","",""
"","iti_localizer","","html-keyboard-response","149","1389329","0.0-2.0-31.0-1.0","29","70197","female","null","","","","null","","29","","","1389017","1","","","","","","300","30200","312","31137","300","","","","","","","","","","","","","","","","","","","","","","","","","","","","","","","","","","","","","","","","","","","","","","","","","","","",""
"","localizer","","html-keyboard-response","150","1389768","0.0-2.0-32.0-0.0","29","70197","female","NaN","","","","null","NaN","30","","Stimuli/Experimental_stims/localizer/objects/adriano-pucciarelli-Jl3S1yM8gi8-unsplash.jpg","1389329","1","objects","","0","1","0","400","30500","439","31449","","","","","","","","","","","","","","","","","","","","","","","","","","","","","","","","","","","","","","","","","","","","","","","","","","","","",""
"","iti_localizer","","html-keyboard-response","151","1390089","0.0-2.0-32.0-1.0","29","70197","female","null","","","","null","","30","","","1389768","1","","","","","","300","30900","321","31888","300","","","","","","","","","","","","","","","","","","","","","","","","","","","","","","","","","","","","","","","","","","","","","","","","","","","",""
"","localizer","","html-keyboard-response","152","1390500","0.0-2.0-33.0-0.0","29","70197","female","NaN","","","","null","NaN","31","","Stimuli/Experimental_stims/localizer/objects/engin-akyurt-bbbKzTmY2Gg-unsplash.jpg","1390089","1","objects","","0","1","0","400","31200","411","32209","","","","","","","","","","","","","","","","","","","","","","","","","","","","","","","","","","","","","","","","","","","","","","","","","","","","",""
"","iti_localizer","","html-keyboard-response","153","1390817","0.0-2.0-33.0-1.0","29","70197","female","null","","","","null","","31","","","1390500","1","","","","","","300","31600","317","32620","300","","","","","","","","","","","","","","","","","","","","","","","","","","","","","","","","","","","","","","","","","","","","","","","","","","","",""
"","localizer","","html-keyboard-response","154","1391234","0.0-2.0-34.0-0.0","29","70197","female","NaN","","","","null","NaN","32","","Stimuli/Experimental_stims/localizer/objects/sam-moghadam-khamseh-kvmdsTrGOBM-unsplash.jpg","1390817","1","objects","","0","1","0","400","31900","417","32937","","","","","","","","","","","","","","","","","","","","","","","","","","","","","","","","","","","","","","","","","","","","","","","","","","","","",""
"","iti_localizer","","html-keyboard-response","155","1391558","0.0-2.0-34.0-1.0","29","70197","female","null","","","","null","","32","","","1391234","1","","","","","","300","32300","324","33354","300","","","","","","","","","","","","","","","","","","","","","","","","","","","","","","","","","","","","","","","","","","","","","","","","","","","",""
"","localizer","","html-keyboard-response","156","1392014","0.0-2.0-35.0-0.0","29","70197","female","NaN","","","","null","NaN","33","","Stimuli/Experimental_stims/localizer/objects/jiangxulei1990-eIzzzwtkBjU-unsplash.jpg","1391558","1","objects","","0","1","0","400","32600","456","33678","","","","","","","","","","","","","","","","","","","","","","","","","","","","","","","","","","","","","","","","","","","","","","","","","","","","",""
"","iti_localizer","","html-keyboard-response","157","1392328","0.0-2.0-35.0-1.0","29","70197","female","null","","","","null","","33","","","1392014","1","","","","","","300","33000","314","34134","300","","","","","","","","","","","","","","","","","","","","","","","","","","","","","","","","","","","","","","","","","","","","","","","","","","","",""
"","localizer","","html-keyboard-response","158","1392748","0.0-2.0-36.0-0.0","29","70197","female","124","","","","68","0","34","","Stimuli/Experimental_stims/localizer/objects/florian-klauer-nptLmg6jqDo-unsplash.jpg","1392328","1","objects","","0","0","1","400","33300","420","34448","","","","","","","","","","","","","","","","","","","","","","","","","","","","","","","","","","","","","","","","","","","","","","","","","","","","",""
"","iti_localizer","","html-keyboard-response","159","1393064","0.0-2.0-36.0-1.0","29","70197","female","null","","","","null","","34","","","1392748","1","","","","","","300","33700","316","34868","300","","","","","","","","","","","","","","","","","","","","","","","","","","","","","","","","","","","","","","","","","","","","","","","","","","","",""
"","localizer","","html-keyboard-response","160","1393482","0.0-2.0-37.0-0.0","29","70197","female","NaN","","","","null","NaN","35","","Stimuli/Experimental_stims/localizer/objects/ignat-dolomanov-kFBDVnmskPA-unsplash.jpg","1393064","1","objects","","0","1","0","400","34000","418","35184","","","","","","","","","","","","","","","","","","","","","","","","","","","","","","","","","","","","","","","","","","","","","","","","","","","","",""
"","iti_localizer","","html-keyboard-response","161","1393846","0.0-2.0-37.0-1.0","29","70197","female","null","","","","null","","35","","","1393482","1","","","","","","300","34400","364","35602","300","","","","","","","","","","","","","","","","","","","","","","","","","","","","","","","","","","","","","","","","","","","","","","","","","","","",""
"","localizer","","html-keyboard-response","162","1394261","0.0-2.0-38.0-0.0","29","70197","female","NaN","","","","null","NaN","36","","Stimuli/Experimental_stims/localizer/objects/andrew-petrov-TVJqDat4MAw-unsplash.jpg","1393846","1","objects","","0","1","0","400","34700","415","35966","","","","","","","","","","","","","","","","","","","","","","","","","","","","","","","","","","","","","","","","","","","","","","","","","","","","",""
"","iti_localizer","","html-keyboard-response","163","1394577","0.0-2.0-38.0-1.0","29","70197","female","null","","","","null","","36","","","1394261","1","","","","","","300","35100","316","36381","300","","","","","","","","","","","","","","","","","","","","","","","","","","","","","","","","","","","","","","","","","","","","","","","","","","","",""
"","localizer","","html-keyboard-response","164","1394987","0.0-2.0-39.0-0.0","29","70197","female","NaN","","","","null","NaN","37","","Stimuli/Experimental_stims/localizer/objects/sam-moghadam-khamseh-L_7MQsHl_aU-unsplash.jpg","1394577","1","objects","","0","1","0","400","35400","410","36697","","","","","","","","","","","","","","","","","","","","","","","","","","","","","","","","","","","","","","","","","","","","","","","","","","","","",""
"","iti_localizer","","html-keyboard-response","165","1395308","0.0-2.0-39.0-1.0","29","70197","female","null","","","","null","","37","","","1394987","1","","","","","","300","35800","321","37107","300","","","","","","","","","","","","","","","","","","","","","","","","","","","","","","","","","","","","","","","","","","","","","","","","","","","",""
"","localizer","","html-keyboard-response","166","1395722","0.0-2.0-40.0-0.0","29","70197","female","NaN","","","","null","NaN","38","","Stimuli/Experimental_stims/localizer/objects/ana-9GmAaEMMKho-unsplash.jpg","1395308","1","objects","","0","1","0","400","36100","414","37428","","","","","","","","","","","","","","","","","","","","","","","","","","","","","","","","","","","","","","","","","","","","","","","","","","","","",""
"","iti_localizer","","html-keyboard-response","167","1396042","0.0-2.0-40.0-1.0","29","70197","female","null","","","","null","","38","","","1395722","1","","","","","","300","36500","320","37842","300","","","","","","","","","","","","","","","","","","","","","","","","","","","","","","","","","","","","","","","","","","","","","","","","","","","",""
"","localizer","","html-keyboard-response","168","1396460","0.0-2.0-41.0-0.0","29","70197","female","NaN","","","","null","NaN","39","","Stimuli/Experimental_stims/localizer/objects/mockup-graphics-U6ZMEefFGx8-unsplash.jpg","1396042","1","objects","","0","1","0","400","36800","418","38162","","","","","","","","","","","","","","","","","","","","","","","","","","","","","","","","","","","","","","","","","","","","","","","","","","","","",""
"","iti_localizer","","html-keyboard-response","169","1396777","0.0-2.0-41.0-1.0","29","70197","female","null","","","","null","","39","","","1396460","1","","","","","","300","37200","317","38580","300","","","","","","","","","","","","","","","","","","","","","","","","","","","","","","","","","","","","","","","","","","","","","","","","","","","",""
"","localizer","","html-keyboard-response","170","1397197","0.0-2.0-42.0-0.0","29","70197","female","40","","","","68","0","40","","Stimuli/Experimental_stims/localizer/objects/kelly-jean-cKjbI0Y00X0-unsplash.jpg","1396777","1","objects","","0","0","1","400","37500","420","38897","","","","","","","","","","","","","","","","","","","","","","","","","","","","","","","","","","","","","","","","","","","","","","","","","","","","",""
"","iti_localizer","","html-keyboard-response","171","1397512","0.0-2.0-42.0-1.0","29","70197","female","null","","","","null","","40","","","1397197","1","","","","","","300","37900","315","39317","300","","","","","","","","","","","","","","","","","","","","","","","","","","","","","","","","","","","","","","","","","","","","","","","","","","","",""
"","localizer","","html-keyboard-response","172","1397932","0.0-2.0-43.0-0.0","29","70197","female","390","","","","68","0","41","","Stimuli/Experimental_stims/localizer/objects/eugene-chystiakov-3neSwyntbQ8-unsplash.jpg","1397512","1","objects","","0","0","1","400","38200","420","39632","","","","","","","","","","","","","","","","","","","","","","","","","","","","","","","","","","","","","","","","","","","","","","","","","","","","",""
"","iti_localizer","","html-keyboard-response","173","1398247","0.0-2.0-43.0-1.0","29","70197","female","null","","","","null","","41","","","1397932","1","","","","","","300","38600","315","40052","300","","","","","","","","","","","","","","","","","","","","","","","","","","","","","","","","","","","","","","","","","","","","","","","","","","","",""
"","localizer","","html-keyboard-response","174","1398661","0.0-2.0-44.0-0.0","29","70197","female","NaN","","","","null","NaN","42","","Stimuli/Experimental_stims/localizer/objects/lance-reis-v0FYj9iioQg-unsplash.jpg","1398247","1","objects","","0","1","0","400","38900","414","40367","","","","","","","","","","","","","","","","","","","","","","","","","","","","","","","","","","","","","","","","","","","","","","","","","","","","",""
"","iti_localizer","","html-keyboard-response","175","1398974","0.0-2.0-44.0-1.0","29","70197","female","null","","","","null","","42","","","1398661","1","","","","","","300","39300","313","40781","300","","","","","","","","","","","","","","","","","","","","","","","","","","","","","","","","","","","","","","","","","","","","","","","","","","","",""
"","localizer","","html-keyboard-response","176","1399395","0.0-2.0-45.0-0.0","29","70197","female","NaN","","","","null","NaN","43","","Stimuli/Experimental_stims/localizer/objects/annie-spratt-fbAnIjhrOL4-unsplash.jpg","1398974","1","objects","","0","1","0","400","39600","421","41094","","","","","","","","","","","","","","","","","","","","","","","","","","","","","","","","","","","","","","","","","","","","","","","","","","","","",""
"","iti_localizer","","html-keyboard-response","177","1399712","0.0-2.0-45.0-1.0","29","70197","female","null","","","","null","","43","","","1399395","1","","","","","","300","40000","317","41515","300","","","","","","","","","","","","","","","","","","","","","","","","","","","","","","","","","","","","","","","","","","","","","","","","","","","",""
"","localizer","","html-keyboard-response","178","1400149","0.0-2.0-46.0-0.0","29","70197","female","NaN","","","","null","NaN","44","","Stimuli/Experimental_stims/localizer/objects/mockup-graphics-Pj2PY-E-LfM-unsplash.jpg","1399712","1","objects","","1","1","0","400","40300","437","41832","","","","","","","","","","","","","","","","","","","","","","","","","","","","","","","","","","","","","","","","","","","","","","","","","","","","",""
"","iti_localizer","","html-keyboard-response","179","1400461","0.0-2.0-46.0-1.0","29","70197","female","null","","","","null","","44","","","1400149","1","","","","","","300","40700","312","42269","300","","","","","","","","","","","","","","","","","","","","","","","","","","","","","","","","","","","","","","","","","","","","","","","","","","","",""
"","localizer","","html-keyboard-response","180","1400880","0.0-2.0-47.0-0.0","29","70197","female","NaN","","","","null","NaN","45","","Stimuli/Experimental_stims/localizer/objects/dario-mendez-hnJ2VNZzbns-unsplash.jpg","1400461","1","objects","","0","1","0","400","41000","419","42581","","","","","","","","","","","","","","","","","","","","","","","","","","","","","","","","","","","","","","","","","","","","","","","","","","","","",""
"","iti_localizer","","html-keyboard-response","181","1414892","0.0-2.0-47.0-1.0","29","70197","female","null","","","","null","","45","","","1400880","1","","","","","","14000","41400","14012","43000","14000","","","","","","","","","","","","","","","","","","","","","","","","","","","","","","","","","","","","","","","","","","","","","","","","","","","",""
"","localizer","","html-keyboard-response","182","1415312","0.0-2.0-48.0-0.0","29","70197","female","NaN","","","","null","NaN","46","","Stimuli/Experimental_stims/localizer/faces/christian-ferrer-8vT-DgHZDG4-unsplash.jpg","1414892","1","faces","","1","1","0","400","55400","420","57012","","","","","","","","","","","","","","","","","","","","","","","","","","","","","","","","","","","","","","","","","","","","","","","","","","","","",""
"","iti_localizer","","html-keyboard-response","183","1415624","0.0-2.0-48.0-1.0","29","70197","female","null","","","","null","","46","","","1415312","1","","","","","","300","55800","312","57432","300","","","","","","","","","","","","","","","","","","","","","","","","","","","","","","","","","","","","","","","","","","","","","","","","","","","",""
"","localizer","","html-keyboard-response","184","1416036","0.0-2.0-49.0-0.0","29","70197","female","NaN","","","","null","NaN","47","","Stimuli/Experimental_stims/localizer/faces/mathias-huysmans-U4JDjYmjn1g-unsplash.jpg","1415624","1","faces","","0","1","0","400","56100","412","57744","","","","","","","","","","","","","","","","","","","","","","","","","","","","","","","","","","","","","","","","","","","","","","","","","","","","",""
"","iti_localizer","","html-keyboard-response","185","1416348","0.0-2.0-49.0-1.0","29","70197","female","null","","","","null","","47","","","1416036","1","","","","","","300","56500","312","58156","300","","","","","","","","","","","","","","","","","","","","","","","","","","","","","","","","","","","","","","","","","","","","","","","","","","","",""
"","localizer","","html-keyboard-response","186","1416764","0.0-2.0-50.0-0.0","29","70197","female","13","","","","68","0","48","","Stimuli/Experimental_stims/localizer/faces/filipe-almeida-mnEWC72eWDM-unsplash.jpg","1416348","1","faces","","0","0","1","400","56800","416","58468","","","","","","","","","","","","","","","","","","","","","","","","","","","","","","","","","","","","","","","","","","","","","","","","","","","","",""
"","iti_localizer","","html-keyboard-response","187","1417082","0.0-2.0-50.0-1.0","29","70197","female","null","","","","null","","48","","","1416764","1","","","","","","300","57200","318","58884","300","","","","","","","","","","","","","","","","","","","","","","","","","","","","","","","","","","","","","","","","","","","","","","","","","","","",""
"","localizer","","html-keyboard-response","188","1417495","0.0-2.0-51.0-0.0","29","70197","female","1","","","","68","0","49","","Stimuli/Experimental_stims/localizer/faces/midas-hofstra-tidSLv-UaNs-unsplash.jpg","1417082","1","faces","","0","0","1","400","57500","413","59202","","","","","","","","","","","","","","","","","","","","","","","","","","","","","","","","","","","","","","","","","","","","","","","","","","","","",""
"","iti_localizer","","html-keyboard-response","189","1417808","0.0-2.0-51.0-1.0","29","70197","female","null","","","","null","","49","","","1417495","1","","","","","","300","57900","313","59615","300","","","","","","","","","","","","","","","","","","","","","","","","","","","","","","","","","","","","","","","","","","","","","","","","","","","",""
"","localizer","","html-keyboard-response","190","1418227","0.0-2.0-52.0-0.0","29","70197","female","37","","","","68","0","50","","Stimuli/Experimental_stims/localizer/faces/darshan-patel-QJEVpydulGs-unsplash.jpg","1417808","1","faces","","0","0","1","400","58200","419","59928","","","","","","","","","","","","","","","","","","","","","","","","","","","","","","","","","","","","","","","","","","","","","","","","","","","","",""
"","iti_localizer","","html-keyboard-response","191","1418550","0.0-2.0-52.0-1.0","29","70197","female","null","","","","null","","50","","","1418227","1","","","","","","300","58600","323","60347","300","","","","","","","","","","","","","","","","","","","","","","","","","","","","","","","","","","","","","","","","","","","","","","","","","","","",""
"","localizer","","html-keyboard-response","192","1418965","0.0-2.0-53.0-0.0","29","70197","female","143","","","","68","0","51","","Stimuli/Experimental_stims/localizer/faces/ivan-dodig-R21SyyJDFgc-unsplash.jpg","1418550","1","faces","","0","0","1","400","58900","415","60670","","","","","","","","","","","","","","","","","","","","","","","","","","","","","","","","","","","","","","","","","","","","","","","","","","","","",""
"","iti_localizer","","html-keyboard-response","193","1419278","0.0-2.0-53.0-1.0","29","70197","female","null","","","","null","","51","","","1418965","1","","","","","","300","59300","313","61085","300","","","","","","","","","","","","","","","","","","","","","","","","","","","","","","","","","","","","","","","","","","","","","","","","","","","",""
"","localizer","","html-keyboard-response","194","1419698","0.0-2.0-54.0-0.0","29","70197","female","263","","","","68","0","52","","Stimuli/Experimental_stims/localizer/faces/austin-wade-X6Uj51n5CE8-unsplash.jpg","1419278","1","faces","","0","0","1","400","59600","420","61398","","","","","","","","","","","","","","","","","","","","","","","","","","","","","","","","","","","","","","","","","","","","","","","","","","","","",""
"","iti_localizer","","html-keyboard-response","195","1420015","0.0-2.0-54.0-1.0","29","70197","female","null","","","","null","","52","","","1419698","1","","","","","","300","60000","317","61818","300","","","","","","","","","","","","","","","","","","","","","","","","","","","","","","","","","","","","","","","","","","","","","","","","","","","",""
"","localizer","","html-keyboard-response","196","1420432","0.0-2.0-55.0-0.0","29","70197","female","321","","","","68","0","53","","Stimuli/Experimental_stims/localizer/faces/linkedin-sales-solutions-pAtA8xe_iVM-unsplash.jpg","1420015","1","faces","","0","0","1","400","60300","417","62135","","","","","","","","","","","","","","","","","","","","","","","","","","","","","","","","","","","","","","","","","","","","","","","","","","","","",""
"","iti_localizer","","html-keyboard-response","197","1420753","0.0-2.0-55.0-1.0","29","70197","female","null","","","","null","","53","","","1420432","1","","","","","","300","60700","321","62552","300","","","","","","","","","","","","","","","","","","","","","","","","","","","","","","","","","","","","","","","","","","","","","","","","","","","",""
"","localizer","","html-keyboard-response","198","1421168","0.0-2.0-56.0-0.0","29","70197","female","363","","","","68","0","54","","Stimuli/Experimental_stims/localizer/faces/pavel-anoshin-d0peGya6R5Y-unsplash.jpg","1420753","1","faces","","0","0","1","400","61000","415","62873","","","","","","","","","","","","","","","","","","","","","","","","","","","","","","","","","","","","","","","","","","","","","","","","","","","","",""
"","iti_localizer","","html-keyboard-response","199","1421481","0.0-2.0-56.0-1.0","29","70197","female","null","","","","null","","54","","","1421168","1","","","","","","300","61400","313","63288","300","","","","","","","","","","","","","","","","","","","","","","","","","","","","","","","","","","","","","","","","","","","","","","","","","","","",""
"","localizer","","html-keyboard-response","200","1421890","0.0-2.0-57.0-0.0","29","70197","female","NaN","","","","null","NaN","55","","Stimuli/Experimental_stims/localizer/faces/jeffery-erhunse-vp9mRauo68c-unsplash.jpg","1421481","1","faces","","0","1","0","400","61700","409","63601","","","","","","","","","","","","","","","","","","","","","","","","","","","","","","","","","","","","","","","","","","","","","","","","","","","","",""
"","iti_localizer","","html-keyboard-response","201","1422203","0.0-2.0-57.0-1.0","29","70197","female","null","","","","null","","55","","","1421890","1","","","","","","300","62100","313","64010","300","","","","","","","","","","","","","","","","","","","","","","","","","","","","","","","","","","","","","","","","","","","","","","","","","","","",""
"","localizer","","html-keyboard-response","202","1422612","0.0-2.0-58.0-0.0","29","70197","female","NaN","","","","null","NaN","56","","Stimuli/Experimental_stims/localizer/faces/aatik-tasneem-7omHUGhhmZ0-unsplash.jpg","1422203","1","faces","","0","1","0","400","62400","409","64323","","","","","","","","","","","","","","","","","","","","","","","","","","","","","","","","","","","","","","","","","","","","","","","","","","","","",""
"","iti_localizer","","html-keyboard-response","203","1422934","0.0-2.0-58.0-1.0","29","70197","female","null","","","","null","","56","","","1422612","1","","","","","","300","62800","322","64732","300","","","","","","","","","","","","","","","","","","","","","","","","","","","","","","","","","","","","","","","","","","","","","","","","","","","",""
"","localizer","","html-keyboard-response","204","1423351","0.0-2.0-59.0-0.0","29","70197","female","NaN","","","","null","NaN","57","","Stimuli/Experimental_stims/localizer/faces/abstral-official-cyOKLSgkgCE-unsplash.jpg","1422934","1","faces","","0","1","0","400","63100","417","65054","","","","","","","","","","","","","","","","","","","","","","","","","","","","","","","","","","","","","","","","","","","","","","","","","","","","",""
"","iti_localizer","","html-keyboard-response","205","1423666","0.0-2.0-59.0-1.0","29","70197","female","null","","","","null","","57","","","1423351","1","","","","","","300","63500","315","65471","300","","","","","","","","","","","","","","","","","","","","","","","","","","","","","","","","","","","","","","","","","","","","","","","","","","","",""
"","localizer","","html-keyboard-response","206","1424077","0.0-2.0-60.0-0.0","29","70197","female","NaN","","","","null","NaN","58","","Stimuli/Experimental_stims/localizer/faces/brooke-cagle-Nm70URdtf3c-unsplash (1).jpg","1423666","1","faces","","0","1","0","400","63800","411","65786","","","","","","","","","","","","","","","","","","","","","","","","","","","","","","","","","","","","","","","","","","","","","","","","","","","","",""
"","iti_localizer","","html-keyboard-response","207","1424398","0.0-2.0-60.0-1.0","29","70197","female","null","","","","null","","58","","","1424077","1","","","","","","300","64200","321","66197","300","","","","","","","","","","","","","","","","","","","","","","","","","","","","","","","","","","","","","","","","","","","","","","","","","","","",""
"","localizer","","html-keyboard-response","208","1424813","0.0-2.0-61.0-0.0","29","70197","female","174","","","","68","0","59","","Stimuli/Experimental_stims/localizer/faces/icons8-team-6LZuSzSwso0-unsplash.jpg","1424398","1","faces","","0","0","1","400","64500","415","66518","","","","","","","","","","","","","","","","","","","","","","","","","","","","","","","","","","","","","","","","","","","","","","","","","","","","",""
"","iti_localizer","","html-keyboard-response","209","1425142","0.0-2.0-61.0-1.0","29","70197","female","null","","","","null","","59","","","1424813","1","","","","","","300","64900","329","66933","300","","","","","","","","","","","","","","","","","","","","","","","","","","","","","","","","","","","","","","","","","","","","","","","","","","","",""
"","localizer","","html-keyboard-response","210","1425554","0.0-2.0-62.0-0.0","29","70197","female","376","","","","68","0","60","","Stimuli/Experimental_stims/localizer/faces/christina-wocintechchat-com-0Zx1bDv5BNY-unsplash.jpg","1425142","1","faces","","0","0","1","400","65200","412","67262","","","","","","","","","","","","","","","","","","","","","","","","","","","","","","","","","","","","","","","","","","","","","","","","","","","","",""
"","iti_localizer","","html-keyboard-response","211","1425863","0.0-2.0-62.0-1.0","29","70197","female","null","","","","null","","60","","","1425554","1","","","","","","300","65600","309","67674","300","","","","","","","","","","","","","","","","","","","","","","","","","","","","","","","","","","","","","","","","","","","","","","","","","","","",""
"","localizer","","html-keyboard-response","212","1426273","0.0-2.0-63.0-0.0","29","70197","female","387","","","","68","0","61","","Stimuli/Experimental_stims/localizer/faces/juan-encalada-WC7KIHo13Fc-unsplash.jpg","1425863","1","faces","","0","0","1","400","65900","410","67983","","","","","","","","","","","","","","","","","","","","","","","","","","","","","","","","","","","","","","","","","","","","","","","","","","","","",""
"","iti_localizer","","html-keyboard-response","213","1426591","0.0-2.0-63.0-1.0","29","70197","female","null","","","","null","","61","","","1426273","1","","","","","","300","66300","318","68393","300","","","","","","","","","","","","","","","","","","","","","","","","","","","","","","","","","","","","","","","","","","","","","","","","","","","",""
"","localizer","","html-keyboard-response","214","1427003","0.0-2.0-64.0-0.0","29","70197","female","395","","","","68","0","62","","Stimuli/Experimental_stims/localizer/faces/nick-karvounis-JyO_szjGvUw-unsplash.jpg","1426591","1","faces","","0","0","1","400","66600","412","68711","","","","","","","","","","","","","","","","","","","","","","","","","","","","","","","","","","","","","","","","","","","","","","","","","","","","",""
"","iti_localizer","","html-keyboard-response","215","1427314","0.0-2.0-64.0-1.0","29","70197","female","null","","","","null","","62","","","1427003","1","","","","","","300","67000","311","69123","300","","","","","","","","","","","","","","","","","","","","","","","","","","","","","","","","","","","","","","","","","","","","","","","","","","","",""
"","localizer","","html-keyboard-response","216","1427731","0.0-2.0-65.0-0.0","29","70197","female","393","","","","68","0","63","","Stimuli/Experimental_stims/localizer/faces/carlos-vaz-KP4bxnxAilU-unsplash.jpg","1427314","1","faces","","0","0","1","400","67300","417","69434","","","","","","","","","","","","","","","","","","","","","","","","","","","","","","","","","","","","","","","","","","","","","","","","","","","","",""
"","iti_localizer","","html-keyboard-response","217","1428044","0.0-2.0-65.0-1.0","29","70197","female","null","","","","null","","63","","","1427731","1","","","","","","300","67700","313","69851","300","","","","","","","","","","","","","","","","","","","","","","","","","","","","","","","","","","","","","","","","","","","","","","","","","","","",""
"","localizer","","html-keyboard-response","218","1428458","0.0-2.0-66.0-0.0","29","70197","female","NaN","","","","null","NaN","64","","Stimuli/Experimental_stims/localizer/faces/tyler-nix-ZGa9d1a_4tA-unsplash.jpg","1428044","1","faces","","1","1","0","400","68000","414","70164","","","","","","","","","","","","","","","","","","","","","","","","","","","","","","","","","","","","","","","","","","","","","","","","","","","","",""
"","iti_localizer","","html-keyboard-response","219","1428852","0.0-2.0-66.0-1.0","29","70197","female","null","","","","null","","64","","","1428458","1","","","","","","300","68400","394","70578","300","","","","","","","","","","","","","","","","","","","","","","","","","","","","","","","","","","","","","","","","","","","","","","","","","","","",""
"","localizer","","html-keyboard-response","220","1429262","0.0-2.0-67.0-0.0","29","70197","female","NaN","","","","null","NaN","65","","Stimuli/Experimental_stims/localizer/faces/samuel-dixon--fQ5XNOcqFQ-unsplash.jpg","1428852","1","faces","","0","1","0","400","68700","410","70972","","","","","","","","","","","","","","","","","","","","","","","","","","","","","","","","","","","","","","","","","","","","","","","","","","","","",""
"","iti_localizer","","html-keyboard-response","221","1443275","0.0-2.0-67.0-1.0","29","70197","female","null","","","","null","","65","","","1429262","1","","","","","","14000","69100","14013","71382","14000","","","","","","","","","","","","","","","","","","","","","","","","","","","","","","","","","","","","","","","","","","","","","","","","","","","",""
"","localizer","","html-keyboard-response","222","1443693","0.0-2.0-68.0-0.0","29","70197","female","NaN","","","","null","NaN","66","","Stimuli/Experimental_stims/localizer/body_parts/nihal-karkala-LlOfbQD-IJ0-unsplash.jpg","1443275","1","body_parts","","1","1","0","400","83100","418","85395","","","","","","","","","","","","","","","","","","","","","","","","","","","","","","","","","","","","","","","","","","","","","","","","","","","","",""
"","iti_localizer","","html-keyboard-response","223","1444013","0.0-2.0-68.0-1.0","29","70197","female","null","","","","null","","66","","","1443693","1","","","","","","300","83500","320","85813","300","","","","","","","","","","","","","","","","","","","","","","","","","","","","","","","","","","","","","","","","","","","","","","","","","","","",""
"","localizer","","html-keyboard-response","224","1444428","0.0-2.0-69.0-0.0","29","70197","female","NaN","","","","null","NaN","67","","Stimuli/Experimental_stims/localizer/body_parts/nick-page-WTNmgJtwzGI-unsplash.jpg","1444013","1","body_parts","","0","1","0","400","83800","415","86133","","","","","","","","","","","","","","","","","","","","","","","","","","","","","","","","","","","","","","","","","","","","","","","","","","","","",""
"","iti_localizer","","html-keyboard-response","225","1444743","0.0-2.0-69.0-1.0","29","70197","female","null","","","","null","","67","","","1444428","1","","","","","","300","84200","315","86548","300","","","","","","","","","","","","","","","","","","","","","","","","","","","","","","","","","","","","","","","","","","","","","","","","","","","",""
"","localizer","","html-keyboard-response","226","1445183","0.0-2.0-70.0-0.0","29","70197","female","226","","","","75","1","68","","Stimuli/Experimental_stims/localizer/body_parts/sina-rezakhani-d1gQi0Jl05U-unsplash (1).jpg","1444743","1","body_parts","","0","0","0","400","84500","440","86863","","","","","","","","","","","","","","","","","","","","","","","","","","","","","","","","","","","","","","","","","","","","","","","","","","","","",""
"","iti_localizer","","html-keyboard-response","227","1445497","0.0-2.0-70.0-1.0","29","70197","female","null","","","","null","","68","","","1445183","1","","","","","","300","84900","314","87303","300","","","","","","","","","","","","","","","","","","","","","","","","","","","","","","","","","","","","","","","","","","","","","","","","","","","",""
"","localizer","","html-keyboard-response","228","1445915","0.0-2.0-71.0-0.0","29","70197","female","327","","","","75","1","69","","Stimuli/Experimental_stims/localizer/body_parts/meghan-thompson-U1b8OB0QpIo-unsplash.jpg","1445497","1","body_parts","","0","0","0","400","85200","418","87617","","","","","","","","","","","","","","","","","","","","","","","","","","","","","","","","","","","","","","","","","","","","","","","","","","","","",""
"","iti_localizer","","html-keyboard-response","229","1446225","0.0-2.0-71.0-1.0","29","70197","female","null","","","","null","","69","","","1445915","1","","","","","","300","85600","310","88035","300","","","","","","","","","","","","","","","","","","","","","","","","","","","","","","","","","","","","","","","","","","","","","","","","","","","",""
"","localizer","","html-keyboard-response","230","1446640","0.0-2.0-72.0-0.0","29","70197","female","NaN","","","","null","NaN","70","","Stimuli/Experimental_stims/localizer/body_parts/davidcohen-qghuLqyh3nE-unsplash.jpg","1446225","1","body_parts","","0","1","0","400","85900","415","88345","","","","","","","","","","","","","","","","","","","","","","","","","","","","","","","","","","","","","","","","","","","","","","","","","","","","",""
"","iti_localizer","","html-keyboard-response","231","1446951","0.0-2.0-72.0-1.0","29","70197","female","null","","","","null","","70","","","1446640","1","","","","","","300","86300","311","88760","300","","","","","","","","","","","","","","","","","","","","","","","","","","","","","","","","","","","","","","","","","","","","","","","","","","","",""
"","localizer","","html-keyboard-response","232","1447361","0.0-2.0-73.0-0.0","29","70197","female","135","","","","68","0","71","","Stimuli/Experimental_stims/localizer/body_parts/sincerely-media-QyzlAZjm0r0-unsplash.jpg","1446951","1","body_parts","","0","0","1","400","86600","410","89071","","","","","","","","","","","","","","","","","","","","","","","","","","","","","","","","","","","","","","","","","","","","","","","","","","","","",""
"","iti_localizer","","html-keyboard-response","233","1447722","0.0-2.0-73.0-1.0","29","70197","female","null","","","","null","","71","","","1447361","1","","","","","","300","87000","361","89481","300","","","","","","","","","","","","","","","","","","","","","","","","","","","","","","","","","","","","","","","","","","","","","","","","","","","",""
"","localizer","","html-keyboard-response","234","1448137","0.0-2.0-74.0-0.0","29","70197","female","187","","","","68","0","72","","Stimuli/Experimental_stims/localizer/body_parts/juja-han-Z8-6EI2tYtw-unsplash.jpg","1447722","1","body_parts","","0","0","1","400","87300","415","89842","","","","","","","","","","","","","","","","","","","","","","","","","","","","","","","","","","","","","","","","","","","","","","","","","","","","",""
"","iti_localizer","","html-keyboard-response","235","1448454","0.0-2.0-74.0-1.0","29","70197","female","null","","","","null","","72","","","1448137","1","","","","","","300","87700","317","90257","300","","","","","","","","","","","","","","","","","","","","","","","","","","","","","","","","","","","","","","","","","","","","","","","","","","","",""
"","localizer","","html-keyboard-response","236","1448871","0.0-2.0-75.0-0.0","29","70197","female","143","","","","68","0","73","","Stimuli/Experimental_stims/localizer/body_parts/natalie-grainger-8uB5kFKWWkk-unsplash.jpg","1448454","1","body_parts","","0","0","1","400","88000","417","90574","","","","","","","","","","","","","","","","","","","","","","","","","","","","","","","","","","","","","","","","","","","","","","","","","","","","",""
"","iti_localizer","","html-keyboard-response","237","1449195","0.0-2.0-75.0-1.0","29","70197","female","null","","","","null","","73","","","1448871","1","","","","","","300","88400","324","90991","300","","","","","","","","","","","","","","","","","","","","","","","","","","","","","","","","","","","","","","","","","","","","","","","","","","","",""
"","localizer","","html-keyboard-response","238","1449608","0.0-2.0-76.0-0.0","29","70197","female","87","","","","68","0","74","","Stimuli/Experimental_stims/localizer/body_parts/debby-hudson--B_757qSA4k-unsplash.jpg","1449195","1","body_parts","","0","0","1","400","88700","413","91315","","","","","","","","","","","","","","","","","","","","","","","","","","","","","","","","","","","","","","","","","","","","","","","","","","","","",""
"","iti_localizer","","html-keyboard-response","239","1449923","0.0-2.0-76.0-1.0","29","70197","female","null","","","","null","","74","","","1449608","1","","","","","","300","89100","315","91728","300","","","","","","","","","","","","","","","","","","","","","","","","","","","","","","","","","","","","","","","","","","","","","","","","","","","",""
"","localizer","","html-keyboard-response","240","1450338","0.0-2.0-77.0-0.0","29","70197","female","136","","","","68","0","75","","Stimuli/Experimental_stims/localizer/body_parts/pure-julia-E9Q4bqYHtIM-unsplash.jpg","1449923","1","body_parts","","0","0","1","400","89400","415","92043","","","","","","","","","","","","","","","","","","","","","","","","","","","","","","","","","","","","","","","","","","","","","","","","","","","","",""
"","iti_localizer","","html-keyboard-response","241","1450659","0.0-2.0-77.0-1.0","29","70197","female","null","","","","null","","75","","","1450338","1","","","","","","300","89800","321","92458","300","","","","","","","","","","","","","","","","","","","","","","","","","","","","","","","","","","","","","","","","","","","","","","","","","","","",""
"","localizer","","html-keyboard-response","242","1451075","0.0-2.0-78.0-0.0","29","70197","female","250","","","","68","0","76","","Stimuli/Experimental_stims/localizer/body_parts/charles-etoroma-1fo0biloDOc-unsplash.jpg","1450659","1","body_parts","","0","0","1","400","90100","416","92779","","","","","","","","","","","","","","","","","","","","","","","","","","","","","","","","","","","","","","","","","","","","","","","","","","","","",""
"","iti_localizer","","html-keyboard-response","243","1451388","0.0-2.0-78.0-1.0","29","70197","female","null","","","","null","","76","","","1451075","1","","","","","","300","90500","313","93195","300","","","","","","","","","","","","","","","","","","","","","","","","","","","","","","","","","","","","","","","","","","","","","","","","","","","",""
"","localizer","","html-keyboard-response","244","1451799","0.0-2.0-79.0-0.0","29","70197","female","NaN","","","","null","NaN","77","","Stimuli/Experimental_stims/localizer/body_parts/david-fanuel-qnV8X7OViNY-unsplash.jpg","1451388","1","body_parts","","0","1","0","400","90800","411","93508","","","","","","","","","","","","","","","","","","","","","","","","","","","","","","","","","","","","","","","","","","","","","","","","","","","","",""
"","iti_localizer","","html-keyboard-response","245","1452119","0.0-2.0-79.0-1.0","29","70197","female","null","","","","null","","77","","","1451799","1","","","","","","300","91200","320","93919","300","","","","","","","","","","","","","","","","","","","","","","","","","","","","","","","","","","","","","","","","","","","","","","","","","","","",""
"","localizer","","html-keyboard-response","246","1452540","0.0-2.0-80.0-0.0","29","70197","female","88","","","","68","0","78","","Stimuli/Experimental_stims/localizer/body_parts/diana-polekhina-SwWjCbIIoFE-unsplash.jpg","1452119","1","body_parts","","0","0","1","400","91500","421","94239","","","","","","","","","","","","","","","","","","","","","","","","","","","","","","","","","","","","","","","","","","","","","","","","","","","","",""
"","iti_localizer","","html-keyboard-response","247","1452855","0.0-2.0-80.0-1.0","29","70197","female","null","","","","null","","78","","","1452540","1","","","","","","300","91900","315","94660","300","","","","","","","","","","","","","","","","","","","","","","","","","","","","","","","","","","","","","","","","","","","","","","","","","","","",""
