"success","ttype","start_time","trial_type","trial_index","time_elapsed","internal_node_id","age","PID","gender","rt","responses","view_history","repeat_instructions","key_press","response","index","stimulus_index","path","start_time_elapsed","run","task","isi","is_odd_ball","no_response","acc","duration","onset","duration_time_elapsed","onset_time_elapsed","trial_duration","left_chosen","chosen_stimulus","unchosen_stimulus","chosen_category","unchosen_category","chosen_rating","unchosen_rating","chosen_path","unchosen_path","pair_id","practice","scramble_screen_time","scramble_instructed_side","stim_type","iti","block","left_stimulus","right_stimulus","left_category","right_category","left_path","right_path","left_rating","right_rating","warning","scramble_acc","scramble_no_response","missed_checkup","stimulus_id","item_id","outcome","response_rt","deliberation_reward_tally","choice_type","gain_left","left_item_id","right_item_id","higher_outcome_chosen","chosen_left","old_pair","pair_type","old_response","pair_acc","reward_type","outcome_response","outcome_rt","outcome_acc","category","choice","deliberated_stim","old_rating","new_rating","total_reward_tally"
"true","full_screen","d08172023hr1753","fullscreen","0","3592","0.0-0.0-0.0","25","32234","male","","","","","","","","","","","","","","","","","","","","","","","","","","","","","","","","","","","","","","","","","","","","","","","","","","","","","","","","","","","","","","","","","","","","","","","","","",""
"","get_id","","survey-text","1","12054","0.0-0.0-1.0","25","32234","male","8450","{""Q0"":""25"",""Q1"":""male""}","","","","","","","","","","","","","","","","","","","","","","","","","","","","","","","","","","","","","","","","","","","","","","","","","","","","","","","","","","","","","","","","","","","","","","","",""
"","ratings_instructions","","instructions","2","20409","0.0-1.0-0.0-0.0","25","32234","male","6468","","[{""page_index"":0,""viewing_time"":4141},{""page_index"":1,""viewing_time"":2326}]","","","","","","","","","","","","","","","","","","","","","","","","","","","","","","","","","","","","","","","","","","","","","","","","","","","","","","","","","","","","","","","","","","","","","","",""
"","rating_comprehension_check","","survey-multi-choice","3","29646","0.0-1.0-0.0-1.0","25","32234","male","9209","{""Q0"":""True"",""Q1"":""Mouse""}","","0","","","","","","","","","","","","","","","","","","","","","","","","","","","","","","","","","","","","","","","","","","","","","","","","","","","","","","","","","","","","","","","","","","","","","",""
"","","","html-keyboard-response","4","36087","0.0-1.0-1.0","25","32234","male","6425","","","","68","","","","","","","","","","","","","","","","","","","","","","","","","","","","","","","","","","","","","","","","","","","","","","","","","","","","","","","","","","","","","","","","","","","","",""
"","rating","","html-slider-response","5","40151","0.0-1.0-2.0","25","32234","male","4040","","","","","87","0","11","Stimuli/Experimental_stims/outdoor_scenes/stephen-leonardi-gyIRjKPXupE-unsplash.jpg","","","","","","","","","","","","","","","","","","","","","","","","","","","","","","","","","","","","","","","","","","","","","","","","","","","","","","","","","","","","","","","","",""
"","rating","","html-slider-response","6","43568","0.0-1.0-3.0","25","32234","male","3400","","","","","68","1","37","Stimuli/Experimental_stims/objects/alexander-andrews-VLGWE_SumrA-unsplash.jpg","","","","","","","","","","","","","","","","","","","","","","","","","","","","","","","","","","","","","","","","","","","","","","","","","","","","","","","","","","","","","","","","",""
"","rating","","html-slider-response","7","47358","0.0-1.0-4.0","25","32234","male","3774","","","","","58","2","43","Stimuli/Experimental_stims/objects/jonathan-greenaway-Y4hGgeiFn3s-unsplash.jpg","","","","","","","","","","","","","","","","","","","","","","","","","","","","","","","","","","","","","","","","","","","","","","","","","","","","","","","","","","","","","","","","",""
"","rating","","html-slider-response","8","50723","0.0-1.0-5.0","25","32234","male","3348","","","","","75","3","45","Stimuli/Experimental_stims/objects/leohoho-rngTKHXumy0-unsplash.jpg","","","","","","","","","","","","","","","","","","","","","","","","","","","","","","","","","","","","","","","","","","","","","","","","","","","","","","","","","","","","","","","","",""
"","rating","","html-slider-response","9","55043","0.0-1.0-6.0","25","32234","male","4304","","","","","94","4","1","Stimuli/Experimental_stims/outdoor_scenes/ashim-d-silva-S2Q5mdOrrVc-unsplash.jpg","","","","","","","","","","","","","","","","","","","","","","","","","","","","","","","","","","","","","","","","","","","","","","","","","","","","","","","","","","","","","","","","",""
"","rating","","html-slider-response","10","58432","0.0-1.0-7.0","25","32234","male","3379","","","","","83","5","4","Stimuli/Experimental_stims/outdoor_scenes/jarrett-kow-1ZOyYPOBn7I-unsplash.jpg","","","","","","","","","","","","","","","","","","","","","","","","","","","","","","","","","","","","","","","","","","","","","","","","","","","","","","","","","","","","","","","","",""
"","rating","","html-slider-response","11","62385","0.0-1.0-8.0","25","32234","male","3943","","","","","33","6","35","Stimuli/Experimental_stims/body_parts/wc-so-KH4AAPjb-tI-unsplash.jpg","","","","","","","","","","","","","","","","","","","","","","","","","","","","","","","","","","","","","","","","","","","","","","","","","","","","","","","","","","","","","","","","",""
"","rating","","html-slider-response","12","66060","0.0-1.0-9.0","25","32234","male","3653","","","","","98","7","24","Stimuli/Experimental_stims/body_parts/clay-banks-LjqARJaJotc-unsplash.jpg","","","","","","","","","","","","","","","","","","","","","","","","","","","","","","","","","","","","","","","","","","","","","","","","","","","","","","","","","","","","","","","","",""
"","rating","","html-slider-response","13","68634","0.0-1.0-10.0","25","32234","male","2556","","","","","72","8","6","Stimuli/Experimental_stims/outdoor_scenes/meng-ji-8BH_M-53CyA-unsplash.jpg","","","","","","","","","","","","","","","","","","","","","","","","","","","","","","","","","","","","","","","","","","","","","","","","","","","","","","","","","","","","","","","","",""
"","rating","","html-slider-response","14","71337","0.0-1.0-11.0","25","32234","male","2687","","","","","68","9","3","Stimuli/Experimental_stims/outdoor_scenes/henry-be-NLF6hTe4PAg-unsplash.jpg","","","","","","","","","","","","","","","","","","","","","","","","","","","","","","","","","","","","","","","","","","","","","","","","","","","","","","","","","","","","","","","","",""
"","rating","","html-slider-response","15","73917","0.0-1.0-12.0","25","32234","male","2574","","","","","70","10","5","Stimuli/Experimental_stims/outdoor_scenes/jeff-king-bJHWJeiHfHc-unsplash.jpg","","","","","","","","","","","","","","","","","","","","","","","","","","","","","","","","","","","","","","","","","","","","","","","","","","","","","","","","","","","","","","","","",""
"","rating","","html-slider-response","16","80085","0.0-1.0-13.0","25","32234","male","6156","","","","","71","11","25","Stimuli/Experimental_stims/body_parts/engin-akyurt-Q2rfH3GW39c-unsplash.jpg","","","","","","","","","","","","","","","","","","","","","","","","","","","","","","","","","","","","","","","","","","","","","","","","","","","","","","","","","","","","","","","","",""
"","rating","","html-slider-response","17","83290","0.0-1.0-14.0","25","32234","male","3188","","","","","68","12","21","Stimuli/Experimental_stims/faces/leilani-angel-K84vnnzxmTQ-unsplash.jpg","","","","","","","","","","","","","","","","","","","","","","","","","","","","","","","","","","","","","","","","","","","","","","","","","","","","","","","","","","","","","","","","",""
"","rating","","html-slider-response","18","86511","0.0-1.0-15.0","25","32234","male","3206","","","","","77","13","40","Stimuli/Experimental_stims/objects/fabian-blank-pElSkGRA2NU-unsplash.jpg","","","","","","","","","","","","","","","","","","","","","","","","","","","","","","","","","","","","","","","","","","","","","","","","","","","","","","","","","","","","","","","","",""
"","rating","","html-slider-response","19","89641","0.0-1.0-16.0","25","32234","male","3115","","","","","82","14","46","Stimuli/Experimental_stims/objects/mockup-graphics-PNsj6RiHAF4-unsplash.jpg","","","","","","","","","","","","","","","","","","","","","","","","","","","","","","","","","","","","","","","","","","","","","","","","","","","","","","","","","","","","","","","","",""
"","rating","","html-slider-response","20","93107","0.0-1.0-17.0","25","32234","male","3452","","","","","86","15","34","Stimuli/Experimental_stims/body_parts/wagner-santos-mBWMvIuVnso-unsplash.jpg","","","","","","","","","","","","","","","","","","","","","","","","","","","","","","","","","","","","","","","","","","","","","","","","","","","","","","","","","","","","","","","","",""
"","rating","","html-slider-response","21","96183","0.0-1.0-18.0","25","32234","male","3064","","","","","68","16","32","Stimuli/Experimental_stims/body_parts/towfiqu-barbhuiya-3AsiVDsZnHg-unsplash.jpg","","","","","","","","","","","","","","","","","","","","","","","","","","","","","","","","","","","","","","","","","","","","","","","","","","","","","","","","","","","","","","","","",""
"","rating","","html-slider-response","22","99524","0.0-1.0-19.0","25","32234","male","3325","","","","","84","17","18","Stimuli/Experimental_stims/faces/jessica-radanavong-mrYkTuAesKE-unsplash.jpg","","","","","","","","","","","","","","","","","","","","","","","","","","","","","","","","","","","","","","","","","","","","","","","","","","","","","","","","","","","","","","","","",""
"","rating","","html-slider-response","23","102792","0.0-1.0-20.0","25","32234","male","3256","","","","","85","18","22","Stimuli/Experimental_stims/faces/ravi-patel-VMGAbeeJTKo-unsplash.jpg","","","","","","","","","","","","","","","","","","","","","","","","","","","","","","","","","","","","","","","","","","","","","","","","","","","","","","","","","","","","","","","","",""
"","rating","","html-slider-response","24","106654","0.0-1.0-21.0","25","32234","male","3850","","","","","88","19","33","Stimuli/Experimental_stims/body_parts/tucker-good-36skLT5jZcc-unsplash.jpg","","","","","","","","","","","","","","","","","","","","","","","","","","","","","","","","","","","","","","","","","","","","","","","","","","","","","","","","","","","","","","","","",""
"","rating","","html-slider-response","25","110280","0.0-1.0-22.0","25","32234","male","3612","","","","","98","20","47","Stimuli/Experimental_stims/objects/ronaldo-arthur-vidal-Cdz_lvnl37k-unsplash.jpg","","","","","","","","","","","","","","","","","","","","","","","","","","","","","","","","","","","","","","","","","","","","","","","","","","","","","","","","","","","","","","","","",""
"","rating","","html-slider-response","26","112843","0.0-1.0-23.0","25","32234","male","2549","","","","","77","21","20","Stimuli/Experimental_stims/faces/justin-chen-J7Cf1Gch49E-unsplash.jpg","","","","","","","","","","","","","","","","","","","","","","","","","","","","","","","","","","","","","","","","","","","","","","","","","","","","","","","","","","","","","","","","",""
"","rating","","html-slider-response","27","120602","0.0-1.0-24.0","25","32234","male","7744","","","","","76","22","19","Stimuli/Experimental_stims/faces/joel-mott-LaK153ghdig-unsplash.jpg","","","","","","","","","","","","","","","","","","","","","","","","","","","","","","","","","","","","","","","","","","","","","","","","","","","","","","","","","","","","","","","","",""
"","rating","","html-slider-response","28","123580","0.0-1.0-25.0","25","32234","male","2956","","","","","81","23","42","Stimuli/Experimental_stims/objects/jess-bailey-nOeVi8DsN8U-unsplash.jpg","","","","","","","","","","","","","","","","","","","","","","","","","","","","","","","","","","","","","","","","","","","","","","","","","","","","","","","","","","","","","","","","",""
"","rating","","html-slider-response","29","130716","0.0-1.0-26.0","25","32234","male","7116","","","","","89","24","26","Stimuli/Experimental_stims/body_parts/engin-akyurt-x_3gyC42btc-unsplash.jpg","","","","","","","","","","","","","","","","","","","","","","","","","","","","","","","","","","","","","","","","","","","","","","","","","","","","","","","","","","","","","","","","",""
"","rating","","html-slider-response","30","135319","0.0-1.0-27.0","25","32234","male","4589","","","","","84","25","36","Stimuli/Experimental_stims/objects/alexander-andrews-JYGnB9gTCls-unsplash.jpg","","","","","","","","","","","","","","","","","","","","","","","","","","","","","","","","","","","","","","","","","","","","","","","","","","","","","","","","","","","","","","","","",""
"","rating","","html-slider-response","31","149866","0.0-1.0-28.0","25","32234","male","14517","","","","","91","26","41","Stimuli/Experimental_stims/objects/insung-yoon-w2JtIQQXoRU-unsplash.jpg","","","","","","","","","","","","","","","","","","","","","","","","","","","","","","","","","","","","","","","","","","","","","","","","","","","","","","","","","","","","","","","","",""
"","rating","","html-slider-response","32","153151","0.0-1.0-29.0","25","32234","male","3261","","","","","94","27","0","Stimuli/Experimental_stims/outdoor_scenes/aleksandra-boguslawska-MS7KD9Ti7FQ-unsplash.jpg","","","","","","","","","","","","","","","","","","","","","","","","","","","","","","","","","","","","","","","","","","","","","","","","","","","","","","","","","","","","","","","","",""
"","rating","","html-slider-response","33","156696","0.0-1.0-30.0","25","32234","male","3529","","","","","75","28","29","Stimuli/Experimental_stims/body_parts/manuel-schinner-ZwjFuJ7ebpk-unsplash.jpg","","","","","","","","","","","","","","","","","","","","","","","","","","","","","","","","","","","","","","","","","","","","","","","","","","","","","","","","","","","","","","","","",""
"","rating","","html-slider-response","34","159981","0.0-1.0-31.0","25","32234","male","3272","","","","","82","29","39","Stimuli/Experimental_stims/objects/charlesdeluvio-1-nx1QR5dTE-unsplash.jpg","","","","","","","","","","","","","","","","","","","","","","","","","","","","","","","","","","","","","","","","","","","","","","","","","","","","","","","","","","","","","","","","",""
"","rating","","html-slider-response","35","164480","0.0-1.0-32.0","25","32234","male","4482","","","","","100","30","27","Stimuli/Experimental_stims/body_parts/heike-mintel-i_Gns0ELnLw-unsplash.jpg","","","","","","","","","","","","","","","","","","","","","","","","","","","","","","","","","","","","","","","","","","","","","","","","","","","","","","","","","","","","","","","","",""
"","rating","","html-slider-response","36","167658","0.0-1.0-33.0","25","32234","male","3155","","","","","73","31","16","Stimuli/Experimental_stims/faces/freddy-kearney-o-ioeoATbIM-unsplash.jpg","","","","","","","","","","","","","","","","","","","","","","","","","","","","","","","","","","","","","","","","","","","","","","","","","","","","","","","","","","","","","","","","",""
"","rating","","html-slider-response","37","171450","0.0-1.0-34.0","25","32234","male","3773","","","","","80","32","8","Stimuli/Experimental_stims/outdoor_scenes/samsommer-vddccTqwal8-unsplash.jpg","","","","","","","","","","","","","","","","","","","","","","","","","","","","","","","","","","","","","","","","","","","","","","","","","","","","","","","","","","","","","","","","",""
"","rating","","html-slider-response","38","173839","0.0-1.0-35.0","25","32234","male","2368","","","","","84","33","38","Stimuli/Experimental_stims/objects/art-lasovsky-8XddFc6NkBY-unsplash.jpg","","","","","","","","","","","","","","","","","","","","","","","","","","","","","","","","","","","","","","","","","","","","","","","","","","","","","","","","","","","","","","","","",""
"","rating","","html-slider-response","39","176164","0.0-1.0-36.0","25","32234","male","2312","","","","","85","34","30","Stimuli/Experimental_stims/body_parts/mika-korhonen-Xodzxosar18-unsplash.jpg","","","","","","","","","","","","","","","","","","","","","","","","","","","","","","","","","","","","","","","","","","","","","","","","","","","","","","","","","","","","","","","","",""
"","rating","","html-slider-response","40","178694","0.0-1.0-37.0","25","32234","male","2517","","","","","81","35","23","Stimuli/Experimental_stims/faces/rikonavt-HQjfrvdTfak-unsplash.jpg","","","","","","","","","","","","","","","","","","","","","","","","","","","","","","","","","","","","","","","","","","","","","","","","","","","","","","","","","","","","","","","","",""
"","rating","","html-slider-response","41","183674","0.0-1.0-38.0","25","32234","male","4963","","","","","86","36","10","Stimuli/Experimental_stims/outdoor_scenes/shannon-kunkle-dM8INmkyDas-unsplash.jpg","","","","","","","","","","","","","","","","","","","","","","","","","","","","","","","","","","","","","","","","","","","","","","","","","","","","","","","","","","","","","","","","",""
"","rating","","html-slider-response","42","187223","0.0-1.0-39.0","25","32234","male","3537","","","","","80","37","12","Stimuli/Experimental_stims/faces/aiony-haust-jmATI5Q_YgY-unsplash.jpg","","","","","","","","","","","","","","","","","","","","","","","","","","","","","","","","","","","","","","","","","","","","","","","","","","","","","","","","","","","","","","","","",""
"","rating","","html-slider-response","43","190230","0.0-1.0-40.0","25","32234","male","2997","","","","","75","38","31","Stimuli/Experimental_stims/body_parts/sincerely-media-VN6DbKajo5s-unsplash.jpg","","","","","","","","","","","","","","","","","","","","","","","","","","","","","","","","","","","","","","","","","","","","","","","","","","","","","","","","","","","","","","","","",""
"","rating","","html-slider-response","44","193847","0.0-1.0-41.0","25","32234","male","3606","","","","","97","39","7","Stimuli/Experimental_stims/outdoor_scenes/petr-vysohlid-9fqwGqGLUxc-unsplash.jpg","","","","","","","","","","","","","","","","","","","","","","","","","","","","","","","","","","","","","","","","","","","","","","","","","","","","","","","","","","","","","","","","",""
"","rating","","html-slider-response","45","197564","0.0-1.0-42.0","25","32234","male","3706","","","","","75","40","15","Stimuli/Experimental_stims/faces/erik-lucatero-d2MSDujJl2g-unsplash.jpg","","","","","","","","","","","","","","","","","","","","","","","","","","","","","","","","","","","","","","","","","","","","","","","","","","","","","","","","","","","","","","","","",""
"","rating","","html-slider-response","46","200833","0.0-1.0-43.0","25","32234","male","3179","","","","","97","41","28","Stimuli/Experimental_stims/body_parts/ira-vishnevskaya-8DQAvdCby1I-unsplash.jpg","","","","","","","","","","","","","","","","","","","","","","","","","","","","","","","","","","","","","","","","","","","","","","","","","","","","","","","","","","","","","","","","",""
"","rating","","html-slider-response","47","203800","0.0-1.0-44.0","25","32234","male","2957","","","","","68","42","9","Stimuli/Experimental_stims/outdoor_scenes/sergey-pesterev-y-b_FOmJXdg-unsplash.jpg","","","","","","","","","","","","","","","","","","","","","","","","","","","","","","","","","","","","","","","","","","","","","","","","","","","","","","","","","","","","","","","","",""
"","rating","","html-slider-response","48","207127","0.0-1.0-45.0","25","32234","male","3318","","","","","87","43","2","Stimuli/Experimental_stims/outdoor_scenes/bruno-van-der-kraan-qez8mNJ3ilU-unsplash.jpg","","","","","","","","","","","","","","","","","","","","","","","","","","","","","","","","","","","","","","","","","","","","","","","","","","","","","","","","","","","","","","","","",""
"","rating","","html-slider-response","49","213910","0.0-1.0-46.0","25","32234","male","6762","","","","","84","44","17","Stimuli/Experimental_stims/faces/good-faces-xmSWVeGEnJw-unsplash.jpg","","","","","","","","","","","","","","","","","","","","","","","","","","","","","","","","","","","","","","","","","","","","","","","","","","","","","","","","","","","","","","","","",""
"","rating","","html-slider-response","50","217964","0.0-1.0-47.0","25","32234","male","4042","","","","","81","45","44","Stimuli/Experimental_stims/objects/kuiye-chen-NuOGFo4PudE-unsplash.jpg","","","","","","","","","","","","","","","","","","","","","","","","","","","","","","","","","","","","","","","","","","","","","","","","","","","","","","","","","","","","","","","","",""
"","rating","","html-slider-response","51","221020","0.0-1.0-48.0","25","32234","male","2885","","","","","80","46","13","Stimuli/Experimental_stims/faces/daniel-rigdon-dXmXKPP2L4E-unsplash.jpg","","","","","","","","","","","","","","","","","","","","","","","","","","","","","","","","","","","","","","","","","","","","","","","","","","","","","","","","","","","","","","","","",""
"","rating","","html-slider-response","52","224208","0.0-1.0-49.0","25","32234","male","3172","","","","","83","47","14","Stimuli/Experimental_stims/faces/david-siglin-UuW4psOb388-unsplash.jpg","","","","","","","","","","","","","","","","","","","","","","","","","","","","","","","","","","","","","","","","","","","","","","","","","","","","","","","","","","","","","","","","",""
"","localizer_instructions","","instructions","53","252270","0.0-2.0-0.0-0.0","25","32234","male","27852","","[{""page_index"":0,""viewing_time"":20861},{""page_index"":1,""viewing_time"":5372},{""page_index"":2,""viewing_time"":1618}]","","","","","","","","","","","","","","","","","","","","","","","","","","","","","","","","","","","","","","","","","","","","","","","","","","","","","","","","","","","","","","","","","","","","","","",""
"","localizer_comprehension_check","","survey-multi-choice","54","264768","0.0-2.0-0.0-1.0","25","32234","male","12459","{""Q0"":""True"",""Q1"":""K"",""Q2"":""D""}","","0","","","","","","","","","","","","","","","","","","","","","","","","","","","","","","","","","","","","","","","","","","","","","","","","","","","","","","","","","","","","","","","","","","","","","",""
"","","","html-keyboard-response","55","266332","0.0-2.0-1.0","25","32234","male","1551","","","","68","","","","","","","","","","","","","","","","","","","","","","","","","","","","","","","","","","","","","","","","","","","","","","","","","","","","","","","","","","","","","","","","","","","","",""
"","localizer","","html-keyboard-response","56","266767","0.0-2.0-2.0-0.0","25","32234","male","NaN","","","","null","NaN","0","","Stimuli/Practice_stims/Localizer/annie-spratt-g9KFpAfQ5bc-unsplash.jpg","266332","0","NaN","","0","1","0","400","0","435","0","","","","","","","","","","","","","","","","","","","","","","","","","","","","","","","","","","","","","","","","","","","","","","","","","","","","","",""
"","iti_localizer","","html-keyboard-response","57","267094","0.0-2.0-2.0-1.0","25","32234","male","null","","","","null","","0","","","266767","0","","","","","","300","400","327","435","300","","","","","","","","","","","","","","","","","","","","","","","","","","","","","","","","","","","","","","","","","","","","","","","","","","","","",""
"","localizer","","html-keyboard-response","58","267514","0.0-2.0-2.1-0.1","25","32234","male","NaN","","","","null","NaN","0","","Stimuli/Practice_stims/Localizer/annie-spratt-g9KFpAfQ5bc-unsplash.jpg","267094","0","NaN","","0","1","0","400","700","420","762","","","","","","","","","","","","","","","","","","","","","","","","","","","","","","","","","","","","","","","","","","","","","","","","","","","","","",""
"","iti_localizer","","html-keyboard-response","59","267832","0.0-2.0-2.1-1.1","25","32234","male","null","","","","null","","0","","","267514","0","","","","","","300","1100","318","1182","300","","","","","","","","","","","","","","","","","","","","","","","","","","","","","","","","","","","","","","","","","","","","","","","","","","","","",""
"","localizer","","html-keyboard-response","60","268242","0.0-2.0-2.2-0.2","25","32234","male","21","","","","68","0","0","","Stimuli/Practice_stims/Localizer/annie-spratt-g9KFpAfQ5bc-unsplash.jpg","267832","0","NaN","","0","0","1","400","1400","410","1500","","","","","","","","","","","","","","","","","","","","","","","","","","","","","","","","","","","","","","","","","","","","","","","","","","","","","",""
"","iti_localizer","","html-keyboard-response","61","268622","0.0-2.0-2.2-1.2","25","32234","male","null","","","","null","","0","","","268242","0","","","","","","300","1800","380","1910","300","","","","","","","","","","","","","","","","","","","","","","","","","","","","","","","","","","","","","","","","","","","","","","","","","","","","",""
"","localizer","","html-keyboard-response","62","269042","0.0-2.0-3.0-0.0","25","32234","male","66","","","","75","1","1","","Stimuli/Practice_stims/Localizer/becca-tapert-sY5RjMB1KkE-unsplash.jpg","268622","0","NaN","","0","0","0","400","2100","420","2290","","","","","","","","","","","","","","","","","","","","","","","","","","","","","","","","","","","","","","","","","","","","","","","","","","","","","",""
"","iti_localizer","","html-keyboard-response","63","269354","0.0-2.0-3.0-1.0","25","32234","male","null","","","","null","","1","","","269042","0","","","","","","300","2500","312","2710","300","","","","","","","","","","","","","","","","","","","","","","","","","","","","","","","","","","","","","","","","","","","","","","","","","","","","",""
"","localizer","","html-keyboard-response","64","269763","0.0-2.0-4.0-0.0","25","32234","male","212","","","","68","0","2","","Stimuli/Practice_stims/Localizer/charl-durand-bsfXvI25iNg-unsplash.jpg","269354","0","NaN","","1","0","0","400","2800","409","3022","","","","","","","","","","","","","","","","","","","","","","","","","","","","","","","","","","","","","","","","","","","","","","","","","","","","","",""
"","iti_localizer","","html-keyboard-response","65","270079","0.0-2.0-4.0-1.0","25","32234","male","null","","","","null","","2","","","269763","0","","","","","","300","3200","316","3431","300","","","","","","","","","","","","","","","","","","","","","","","","","","","","","","","","","","","","","","","","","","","","","","","","","","","","",""
"","localizer","","html-keyboard-response","66","270550","0.0-2.0-5.0-0.0","25","32234","male","24","","","","75","1","3","","Stimuli/Practice_stims/Localizer/nizar-albusaidy-B2r2SWAf5CE-unsplash.jpg","270079","0","NaN","","0","0","0","400","3500","471","3747","","","","","","","","","","","","","","","","","","","","","","","","","","","","","","","","","","","","","","","","","","","","","","","","","","","","","",""
"","iti_localizer","","html-keyboard-response","67","270870","0.0-2.0-5.0-1.0","25","32234","male","null","","","","null","","3","","","270550","0","","","","","","300","3900","320","4218","300","","","","","","","","","","","","","","","","","","","","","","","","","","","","","","","","","","","","","","","","","","","","","","","","","","","","",""
"","localizer","","html-keyboard-response","68","271289","0.0-2.0-6.0-0.0","25","32234","male","21","","","","75","1","4","","Stimuli/Practice_stims/Localizer/randy-fath-epf1tdtIIkM-unsplash.jpg","270870","0","NaN","","1","0","1","400","4200","419","4538","","","","","","","","","","","","","","","","","","","","","","","","","","","","","","","","","","","","","","","","","","","","","","","","","","","","","",""
"","iti_localizer","","html-keyboard-response","69","271609","0.0-2.0-6.0-1.0","25","32234","male","null","","","","null","","4","","","271289","0","","","","","","300","4600","320","4957","300","","","","","","","","","","","","","","","","","","","","","","","","","","","","","","","","","","","","","","","","","","","","","","","","","","","","",""
"","localizer","","html-keyboard-response","70","272020","0.0-2.0-7.0-0.0","25","32234","male","198","","","","75","1","5","","Stimuli/Practice_stims/Localizer/yassine-khalfalli-adsQ9d_Cx0c-unsplash.jpg","271609","0","NaN","","0","0","0","400","4900","411","5277","","","","","","","","","","","","","","","","","","","","","","","","","","","","","","","","","","","","","","","","","","","","","","","","","","","","","",""
"","iti_localizer","","html-keyboard-response","71","272330","0.0-2.0-7.0-1.0","25","32234","male","null","","","","null","","5","","","272020","0","","","","","","300","5300","310","5688","300","","","","","","","","","","","","","","","","","","","","","","","","","","","","","","","","","","","","","","","","","","","","","","","","","","","","",""
"","practice_over","","html-keyboard-response","72","272687","0.0-2.0-7.0-2.0-0.0","25","32234","male","349","","","","68","","","","","","","","","","","","","","","","","","","","","","","","","","","","","","","","","","","","","","","","","","","","","","","","","","","","","","","","","","","","","","","","","","","","",""
"","start_run","","html-keyboard-response","73","279162","0.0-2.0-7.0-2.0-1.0","25","32234","male","6462","","","","84","","","","","","","","","","","","","","","","","","","","","","","","","","","","","","","","","","","","","","","","","","","","","","","","","","","","","","","","","","","","","","","","","","","","",""
"","localizer","","html-keyboard-response","74","279588","0.0-2.0-8.0-0.0","25","32234","male","NaN","","","","null","NaN","6","","Stimuli/Experimental_stims/localizer/objects/jonny-caspari-wsvCC6UyKjs-unsplash.jpg","279162","1","objects","","0","1","0","400","0","426","0","","","","","","","","","","","","","","","","","","","","","","","","","","","","","","","","","","","","","","","","","","","","","","","","","","","","","",""
"","iti_localizer","","html-keyboard-response","75","279912","0.0-2.0-8.0-1.0","25","32234","male","null","","","","null","","6","","","279588","1","","","","","","300","400","324","426","300","","","","","","","","","","","","","","","","","","","","","","","","","","","","","","","","","","","","","","","","","","","","","","","","","","","","",""
"","localizer","","html-keyboard-response","76","280328","0.0-2.0-9.0-0.0","25","32234","male","NaN","","","","null","NaN","7","","Stimuli/Experimental_stims/localizer/objects/charlesdeluvio-RDjZh9dqlP4-unsplash.jpg","279912","1","objects","","0","1","0","400","700","416","750","","","","","","","","","","","","","","","","","","","","","","","","","","","","","","","","","","","","","","","","","","","","","","","","","","","","","",""
"","iti_localizer","","html-keyboard-response","77","280677","0.0-2.0-9.0-1.0","25","32234","male","null","","","","null","","7","","","280328","1","","","","","","300","1100","349","1166","300","","","","","","","","","","","","","","","","","","","","","","","","","","","","","","","","","","","","","","","","","","","","","","","","","","","","",""
"","localizer","","html-keyboard-response","78","281132","0.0-2.0-10.0-0.0","25","32234","male","NaN","","","","null","NaN","8","","Stimuli/Experimental_stims/localizer/objects/adriano-pucciarelli-Jl3S1yM8gi8-unsplash.jpg","280677","1","objects","","0","1","0","400","1400","455","1515","","","","","","","","","","","","","","","","","","","","","","","","","","","","","","","","","","","","","","","","","","","","","","","","","","","","","",""
"","iti_localizer","","html-keyboard-response","79","281484","0.0-2.0-10.0-1.0","25","32234","male","null","","","","null","","8","","","281132","1","","","","","","300","1800","352","1970","300","","","","","","","","","","","","","","","","","","","","","","","","","","","","","","","","","","","","","","","","","","","","","","","","","","","","",""
"","localizer","","html-keyboard-response","80","281910","0.0-2.0-11.0-0.0","25","32234","male","NaN","","","","null","NaN","9","","Stimuli/Experimental_stims/localizer/objects/mockup-graphics-Pj2PY-E-LfM-unsplash.jpg","281484","1","objects","","0","1","0","400","2100","426","2322","","","","","","","","","","","","","","","","","","","","","","","","","","","","","","","","","","","","","","","","","","","","","","","","","","","","","",""
"","iti_localizer","","html-keyboard-response","81","282285","0.0-2.0-11.0-1.0","25","32234","male","null","","","","null","","9","","","281910","1","","","","","","300","2500","375","2748","300","","","","","","","","","","","","","","","","","","","","","","","","","","","","","","","","","","","","","","","","","","","","","","","","","","","","",""
"","localizer","","html-keyboard-response","82","282774","0.0-2.0-12.0-0.0","25","32234","male","200","","","","75","1","10","","Stimuli/Experimental_stims/localizer/objects/chris-briggs-x9TCnxNBofE-unsplash.jpg","282285","1","objects","","0","0","0","400","2800","489","3123","","","","","","","","","","","","","","","","","","","","","","","","","","","","","","","","","","","","","","","","","","","","","","","","","","","","","",""
"","iti_localizer","","html-keyboard-response","83","283097","0.0-2.0-12.0-1.0","25","32234","male","null","","","","null","","10","","","282774","1","","","","","","300","3200","323","3612","300","","","","","","","","","","","","","","","","","","","","","","","","","","","","","","","","","","","","","","","","","","","","","","","","","","","","",""
"","localizer","","html-keyboard-response","84","283556","0.0-2.0-13.0-0.0","25","32234","male","161","","","","68","0","11","","Stimuli/Experimental_stims/localizer/objects/ignat-dolomanov-kFBDVnmskPA-unsplash.jpg","283097","1","objects","","1","0","0","400","3500","459","3935","","","","","","","","","","","","","","","","","","","","","","","","","","","","","","","","","","","","","","","","","","","","","","","","","","","","","",""
"","iti_localizer","","html-keyboard-response","85","283875","0.0-2.0-13.0-1.0","25","32234","male","null","","","","null","","11","","","283556","1","","","","","","300","3900","319","4394","300","","","","","","","","","","","","","","","","","","","","","","","","","","","","","","","","","","","","","","","","","","","","","","","","","","","","",""
"","localizer","","html-keyboard-response","86","284294","0.0-2.0-14.0-0.0","25","32234","male","35","","","","75","1","12","","Stimuli/Experimental_stims/localizer/objects/adriano-pucciarelli-BE7yaZnZX6o-unsplash.jpg","283875","1","objects","","0","0","0","400","4200","419","4713","","","","","","","","","","","","","","","","","","","","","","","","","","","","","","","","","","","","","","","","","","","","","","","","","","","","","",""
"","iti_localizer","","html-keyboard-response","87","284656","0.0-2.0-14.0-1.0","25","32234","male","null","","","","null","","12","","","284294","1","","","","","","300","4600","362","5132","300","","","","","","","","","","","","","","","","","","","","","","","","","","","","","","","","","","","","","","","","","","","","","","","","","","","","",""
"","localizer","","html-keyboard-response","88","285065","0.0-2.0-15.0-0.0","25","32234","male","134","","","","68","0","13","","Stimuli/Experimental_stims/localizer/objects/eugene-chystiakov-3neSwyntbQ8-unsplash.jpg","284656","1","objects","","0","0","1","400","4900","409","5494","","","","","","","","","","","","","","","","","","","","","","","","","","","","","","","","","","","","","","","","","","","","","","","","","","","","","",""
"","iti_localizer","","html-keyboard-response","89","285417","0.0-2.0-15.0-1.0","25","32234","male","null","","","","null","","13","","","285065","1","","","","","","300","5300","352","5903","300","","","","","","","","","","","","","","","","","","","","","","","","","","","","","","","","","","","","","","","","","","","","","","","","","","","","",""
"","localizer","","html-keyboard-response","90","285843","0.0-2.0-16.0-0.0","25","32234","male","106","","","","68","0","14","","Stimuli/Experimental_stims/localizer/objects/girl-with-red-hat-Xxg-r574pLE-unsplash.jpg","285417","1","objects","","0","0","1","400","5600","426","6255","","","","","","","","","","","","","","","","","","","","","","","","","","","","","","","","","","","","","","","","","","","","","","","","","","","","","",""
"","iti_localizer","","html-keyboard-response","91","286149","0.0-2.0-16.0-1.0","25","32234","male","null","","","","null","","14","","","285843","1","","","","","","300","6000","306","6681","300","","","","","","","","","","","","","","","","","","","","","","","","","","","","","","","","","","","","","","","","","","","","","","","","","","","","",""
"","localizer","","html-keyboard-response","92","286615","0.0-2.0-17.0-0.0","25","32234","male","196","","","","68","0","15","","Stimuli/Experimental_stims/localizer/objects/hipster-mum-XookgCxFw6Q-unsplash.jpg","286149","1","objects","","0","0","1","400","6300","466","6987","","","","","","","","","","","","","","","","","","","","","","","","","","","","","","","","","","","","","","","","","","","","","","","","","","","","","",""
"","iti_localizer","","html-keyboard-response","93","286931","0.0-2.0-17.0-1.0","25","32234","male","null","","","","null","","15","","","286615","1","","","","","","300","6700","316","7453","300","","","","","","","","","","","","","","","","","","","","","","","","","","","","","","","","","","","","","","","","","","","","","","","","","","","","",""
"","localizer","","html-keyboard-response","94","287352","0.0-2.0-18.0-0.0","25","32234","male","76","","","","68","0","16","","Stimuli/Experimental_stims/localizer/objects/quino-al-8gWEAAXJjtI-unsplash.jpg","286931","1","objects","","0","0","1","400","7000","421","7769","","","","","","","","","","","","","","","","","","","","","","","","","","","","","","","","","","","","","","","","","","","","","","","","","","","","","",""
"","iti_localizer","","html-keyboard-response","95","287666","0.0-2.0-18.0-1.0","25","32234","male","null","","","","null","","16","","","287352","1","","","","","","300","7400","314","8190","300","","","","","","","","","","","","","","","","","","","","","","","","","","","","","","","","","","","","","","","","","","","","","","","","","","","","",""
"","localizer","","html-keyboard-response","96","288074","0.0-2.0-19.0-0.0","25","32234","male","99","","","","68","0","17","","Stimuli/Experimental_stims/localizer/objects/florian-klauer-mk7D-4UCfmg-unsplash.jpg","287666","1","objects","","0","0","1","400","7700","408","8504","","","","","","","","","","","","","","","","","","","","","","","","","","","","","","","","","","","","","","","","","","","","","","","","","","","","","",""
"","iti_localizer","","html-keyboard-response","97","288389","0.0-2.0-19.0-1.0","25","32234","male","null","","","","null","","17","","","288074","1","","","","","","300","8100","315","8912","300","","","","","","","","","","","","","","","","","","","","","","","","","","","","","","","","","","","","","","","","","","","","","","","","","","","","",""
"","localizer","","html-keyboard-response","98","288806","0.0-2.0-20.0-0.0","25","32234","male","104","","","","75","1","18","","Stimuli/Experimental_stims/localizer/objects/andrew-petrov-TVJqDat4MAw-unsplash.jpg","288389","1","objects","","0","0","0","400","8400","417","9227","","","","","","","","","","","","","","","","","","","","","","","","","","","","","","","","","","","","","","","","","","","","","","","","","","","","","",""
"","iti_localizer","","html-keyboard-response","99","289124","0.0-2.0-20.0-1.0","25","32234","male","null","","","","null","","18","","","288806","1","","","","","","300","8800","318","9644","300","","","","","","","","","","","","","","","","","","","","","","","","","","","","","","","","","","","","","","","","","","","","","","","","","","","","",""
"","localizer","","html-keyboard-response","100","289540","0.0-2.0-21.0-0.0","25","32234","male","28","","","","75","1","19","","Stimuli/Experimental_stims/localizer/objects/carlos-felipe-ramirez-mesa-HW7bfB3ERSQ-unsplash.jpg","289124","1","objects","","0","0","0","400","9100","416","9962","","","","","","","","","","","","","","","","","","","","","","","","","","","","","","","","","","","","","","","","","","","","","","","","","","","","","",""
"","iti_localizer","","html-keyboard-response","101","289868","0.0-2.0-21.0-1.0","25","32234","male","null","","","","null","","19","","","289540","1","","","","","","300","9500","328","10378","300","","","","","","","","","","","","","","","","","","","","","","","","","","","","","","","","","","","","","","","","","","","","","","","","","","","","",""
"","localizer","","html-keyboard-response","102","290287","0.0-2.0-22.0-0.0","25","32234","male","1","","","","75","1","20","","Stimuli/Experimental_stims/localizer/objects/yoann-siloine-_T4w3JDm6ug-unsplash.jpg","289868","1","objects","","1","0","1","400","9800","419","10706","","","","","","","","","","","","","","","","","","","","","","","","","","","","","","","","","","","","","","","","","","","","","","","","","","","","","",""
"","iti_localizer","","html-keyboard-response","103","290623","0.0-2.0-22.0-1.0","25","32234","male","null","","","","null","","20","","","290287","1","","","","","","300","10200","336","11125","300","","","","","","","","","","","","","","","","","","","","","","","","","","","","","","","","","","","","","","","","","","","","","","","","","","","","",""
"","localizer","","html-keyboard-response","104","291044","0.0-2.0-23.0-0.0","25","32234","male","59","","","","75","1","21","","Stimuli/Experimental_stims/localizer/objects/ales-krivec-ZMZHcvIVgbg-unsplash.jpg","290623","1","objects","","0","0","0","400","10500","421","11461","","","","","","","","","","","","","","","","","","","","","","","","","","","","","","","","","","","","","","","","","","","","","","","","","","","","","",""
"","iti_localizer","","html-keyboard-response","105","291362","0.0-2.0-23.0-1.0","25","32234","male","null","","","","null","","21","","","291044","1","","","","","","300","10900","318","11882","300","","","","","","","","","","","","","","","","","","","","","","","","","","","","","","","","","","","","","","","","","","","","","","","","","","","","",""
"","localizer","","html-keyboard-response","106","291781","0.0-2.0-24.0-0.0","25","32234","male","284","","","","68","0","22","","Stimuli/Experimental_stims/localizer/objects/designecologist-hvgd0ygXuQQ-unsplash.jpg","291362","1","objects","","0","0","1","400","11200","419","12200","","","","","","","","","","","","","","","","","","","","","","","","","","","","","","","","","","","","","","","","","","","","","","","","","","","","","",""
"","iti_localizer","","html-keyboard-response","107","292094","0.0-2.0-24.0-1.0","25","32234","male","null","","","","null","","22","","","291781","1","","","","","","300","11600","313","12619","300","","","","","","","","","","","","","","","","","","","","","","","","","","","","","","","","","","","","","","","","","","","","","","","","","","","","",""
"","localizer","","html-keyboard-response","108","292520","0.0-2.0-25.0-0.0","25","32234","male","85","","","","68","0","23","","Stimuli/Experimental_stims/localizer/objects/dario-mendez-hnJ2VNZzbns-unsplash.jpg","292094","1","objects","","0","0","1","400","11900","426","12932","","","","","","","","","","","","","","","","","","","","","","","","","","","","","","","","","","","","","","","","","","","","","","","","","","","","","",""
"","iti_localizer","","html-keyboard-response","109","292831","0.0-2.0-25.0-1.0","25","32234","male","null","","","","null","","23","","","292520","1","","","","","","300","12300","311","13358","300","","","","","","","","","","","","","","","","","","","","","","","","","","","","","","","","","","","","","","","","","","","","","","","","","","","","",""
"","localizer","","html-keyboard-response","110","293253","0.0-2.0-26.0-0.0","25","32234","male","NaN","","","","null","NaN","24","","Stimuli/Experimental_stims/localizer/objects/muhammad-toqeer-NRJ9ipvz2iE-unsplash.jpg","292831","1","objects","","0","1","0","400","12600","422","13669","","","","","","","","","","","","","","","","","","","","","","","","","","","","","","","","","","","","","","","","","","","","","","","","","","","","","",""
"","iti_localizer","","html-keyboard-response","111","293620","0.0-2.0-26.0-1.0","25","32234","male","null","","","","null","","24","","","293253","1","","","","","","300","13000","367","14091","300","","","","","","","","","","","","","","","","","","","","","","","","","","","","","","","","","","","","","","","","","","","","","","","","","","","","",""
"","localizer","","html-keyboard-response","112","294087","0.0-2.0-27.0-0.0","25","32234","male","297","","","","75","1","25","","Stimuli/Experimental_stims/localizer/objects/markus-spiske-ANrVtttbNss-unsplash.jpg","293620","1","objects","","0","0","0","400","13300","467","14458","","","","","","","","","","","","","","","","","","","","","","","","","","","","","","","","","","","","","","","","","","","","","","","","","","","","","",""
"","iti_localizer","","html-keyboard-response","113","308120","0.0-2.0-27.0-1.0","25","32234","male","null","","","","null","","25","","","294087","1","","","","","","14000","13700","14033","14925","14000","","","","","","","","","","","","","","","","","","","","","","","","","","","","","","","","","","","","","","","","","","","","","","","","","","","","",""
"","localizer","","html-keyboard-response","114","308545","0.0-2.0-28.0-0.0","25","32234","male","NaN","","","","null","NaN","26","","Stimuli/Experimental_stims/localizer/body_parts/jan-romero-DL4DDQb8yjc-unsplash.jpg","308120","1","body_parts","","0","1","0","400","27700","425","28958","","","","","","","","","","","","","","","","","","","","","","","","","","","","","","","","","","","","","","","","","","","","","","","","","","","","","",""
"","iti_localizer","","html-keyboard-response","115","308857","0.0-2.0-28.0-1.0","25","32234","male","null","","","","null","","26","","","308545","1","","","","","","300","28100","312","29383","300","","","","","","","","","","","","","","","","","","","","","","","","","","","","","","","","","","","","","","","","","","","","","","","","","","","","",""
"","localizer","","html-keyboard-response","116","309273","0.0-2.0-29.0-0.0","25","32234","male","NaN","","","","null","NaN","27","","Stimuli/Experimental_stims/localizer/body_parts/juja-han-Z8-6EI2tYtw-unsplash.jpg","308857","1","body_parts","","0","1","0","400","28400","416","29695","","","","","","","","","","","","","","","","","","","","","","","","","","","","","","","","","","","","","","","","","","","","","","","","","","","","","",""
"","iti_localizer","","html-keyboard-response","117","309627","0.0-2.0-29.0-1.0","25","32234","male","null","","","","null","","27","","","309273","1","","","","","","300","28800","354","30111","300","","","","","","","","","","","","","","","","","","","","","","","","","","","","","","","","","","","","","","","","","","","","","","","","","","","","",""
"","localizer","","html-keyboard-response","118","310087","0.0-2.0-30.0-0.0","25","32234","male","NaN","","","","null","NaN","28","","Stimuli/Experimental_stims/localizer/body_parts/kai-wenzel-zYDJOxjaZrQ-unsplash.jpg","309627","1","body_parts","","1","1","0","400","29100","460","30465","","","","","","","","","","","","","","","","","","","","","","","","","","","","","","","","","","","","","","","","","","","","","","","","","","","","","",""
"","iti_localizer","","html-keyboard-response","119","310394","0.0-2.0-30.0-1.0","25","32234","male","null","","","","null","","28","","","310087","1","","","","","","300","29500","307","30925","300","","","","","","","","","","","","","","","","","","","","","","","","","","","","","","","","","","","","","","","","","","","","","","","","","","","","",""
"","localizer","","html-keyboard-response","120","310803","0.0-2.0-31.0-0.0","25","32234","male","203","","","","75","1","29","","Stimuli/Experimental_stims/localizer/body_parts/igordoon-primus-CdyHqfrbGIs-unsplash.jpg","310394","1","body_parts","","0","0","0","400","29800","409","31232","","","","","","","","","","","","","","","","","","","","","","","","","","","","","","","","","","","","","","","","","","","","","","","","","","","","","",""
"","iti_localizer","","html-keyboard-response","121","311144","0.0-2.0-31.0-1.0","25","32234","male","null","","","","null","","29","","","310803","1","","","","","","300","30200","341","31641","300","","","","","","","","","","","","","","","","","","","","","","","","","","","","","","","","","","","","","","","","","","","","","","","","","","","","",""
"","localizer","","html-keyboard-response","122","311561","0.0-2.0-32.0-0.0","25","32234","male","291","","","","75","1","30","","Stimuli/Experimental_stims/localizer/body_parts/nick-page-WTNmgJtwzGI-unsplash.jpg","311144","1","body_parts","","0","0","0","400","30500","417","31982","","","","","","","","","","","","","","","","","","","","","","","","","","","","","","","","","","","","","","","","","","","","","","","","","","","","","",""
"","iti_localizer","","html-keyboard-response","123","311871","0.0-2.0-32.0-1.0","25","32234","male","null","","","","null","","30","","","311561","1","","","","","","300","30900","310","32399","300","","","","","","","","","","","","","","","","","","","","","","","","","","","","","","","","","","","","","","","","","","","","","","","","","","","","",""
"","localizer","","html-keyboard-response","124","312318","0.0-2.0-33.0-0.0","25","32234","male","14","","","","68","0","31","","Stimuli/Experimental_stims/localizer/body_parts/callum-skelton-3KLMq7y46nA-unsplash.jpg","311871","1","body_parts","","0","0","1","400","31200","447","32709","","","","","","","","","","","","","","","","","","","","","","","","","","","","","","","","","","","","","","","","","","","","","","","","","","","","","",""
"","iti_localizer","","html-keyboard-response","125","312665","0.0-2.0-33.0-1.0","25","32234","male","null","","","","null","","31","","","312318","1","","","","","","300","31600","347","33156","300","","","","","","","","","","","","","","","","","","","","","","","","","","","","","","","","","","","","","","","","","","","","","","","","","","","","",""
"","localizer","","html-keyboard-response","126","313080","0.0-2.0-34.0-0.0","25","32234","male","115","","","","75","1","32","","Stimuli/Experimental_stims/localizer/body_parts/anelya-okapova-V69kmOyZ3SU-unsplash.jpg","312665","1","body_parts","","0","0","0","400","31900","415","33503","","","","","","","","","","","","","","","","","","","","","","","","","","","","","","","","","","","","","","","","","","","","","","","","","","","","","",""
"","iti_localizer","","html-keyboard-response","127","313465","0.0-2.0-34.0-1.0","25","32234","male","null","","","","null","","32","","","313080","1","","","","","","300","32300","385","33918","300","","","","","","","","","","","","","","","","","","","","","","","","","","","","","","","","","","","","","","","","","","","","","","","","","","","","",""
"","localizer","","html-keyboard-response","128","313889","0.0-2.0-35.0-0.0","25","32234","male","20","","","","68","0","33","","Stimuli/Experimental_stims/localizer/body_parts/jeremy-yap-TfJEi17kA0w-unsplash.jpg","313465","1","body_parts","","0","0","1","400","32600","424","34303","","","","","","","","","","","","","","","","","","","","","","","","","","","","","","","","","","","","","","","","","","","","","","","","","","","","","",""
"","iti_localizer","","html-keyboard-response","129","314215","0.0-2.0-35.0-1.0","25","32234","male","null","","","","null","","33","","","313889","1","","","","","","300","33000","326","34727","300","","","","","","","","","","","","","","","","","","","","","","","","","","","","","","","","","","","","","","","","","","","","","","","","","","","","",""
"","localizer","","html-keyboard-response","130","314632","0.0-2.0-36.0-0.0","25","32234","male","20","","","","75","1","34","","Stimuli/Experimental_stims/localizer/body_parts/debby-hudson--B_757qSA4k-unsplash.jpg","314215","1","body_parts","","0","0","0","400","33300","417","35053","","","","","","","","","","","","","","","","","","","","","","","","","","","","","","","","","","","","","","","","","","","","","","","","","","","","","",""
"","iti_localizer","","html-keyboard-response","131","314982","0.0-2.0-36.0-1.0","25","32234","male","null","","","","null","","34","","","314632","1","","","","","","300","33700","350","35470","300","","","","","","","","","","","","","","","","","","","","","","","","","","","","","","","","","","","","","","","","","","","","","","","","","","","","",""
"","localizer","","html-keyboard-response","132","315392","0.0-2.0-37.0-0.0","25","32234","male","68","","","","75","1","35","","Stimuli/Experimental_stims/localizer/body_parts/danie-franco-jyyNiSEcCl4-unsplash.jpg","314982","1","body_parts","","0","0","0","400","34000","410","35820","","","","","","","","","","","","","","","","","","","","","","","","","","","","","","","","","","","","","","","","","","","","","","","","","","","","","",""
"","iti_localizer","","html-keyboard-response","133","315720","0.0-2.0-37.0-1.0","25","32234","male","null","","","","null","","35","","","315392","1","","","","","","300","34400","328","36230","300","","","","","","","","","","","","","","","","","","","","","","","","","","","","","","","","","","","","","","","","","","","","","","","","","","","","",""
"","localizer","","html-keyboard-response","134","316136","0.0-2.0-38.0-0.0","25","32234","male","8","","","","68","0","36","","Stimuli/Experimental_stims/localizer/body_parts/toan-nguyen-VIeLuUFzesg-unsplash.jpg","315720","1","body_parts","","0","0","1","400","34700","416","36558","","","","","","","","","","","","","","","","","","","","","","","","","","","","","","","","","","","","","","","","","","","","","","","","","","","","","",""
"","iti_localizer","","html-keyboard-response","135","316453","0.0-2.0-38.0-1.0","25","32234","male","null","","","","null","","36","","","316136","1","","","","","","300","35100","317","36974","300","","","","","","","","","","","","","","","","","","","","","","","","","","","","","","","","","","","","","","","","","","","","","","","","","","","","",""
"","localizer","","html-keyboard-response","136","316874","0.0-2.0-39.0-0.0","25","32234","male","69","","","","68","0","37","","Stimuli/Experimental_stims/localizer/body_parts/femme-spirit-RGYBDUHYbyM-unsplash.jpg","316453","1","body_parts","","0","0","1","400","35400","421","37291","","","","","","","","","","","","","","","","","","","","","","","","","","","","","","","","","","","","","","","","","","","","","","","","","","","","","",""
"","iti_localizer","","html-keyboard-response","137","317191","0.0-2.0-39.0-1.0","25","32234","male","null","","","","null","","37","","","316874","1","","","","","","300","35800","317","37712","300","","","","","","","","","","","","","","","","","","","","","","","","","","","","","","","","","","","","","","","","","","","","","","","","","","","","",""
"","localizer","","html-keyboard-response","138","317615","0.0-2.0-40.0-0.0","25","32234","male","124","","","","75","1","38","","Stimuli/Experimental_stims/localizer/body_parts/sincerely-media-QyzlAZjm0r0-unsplash.jpg","317191","1","body_parts","","0","0","0","400","36100","424","38029","","","","","","","","","","","","","","","","","","","","","","","","","","","","","","","","","","","","","","","","","","","","","","","","","","","","","",""
"","iti_localizer","","html-keyboard-response","139","317922","0.0-2.0-40.0-1.0","25","32234","male","null","","","","null","","38","","","317615","1","","","","","","300","36500","307","38453","300","","","","","","","","","","","","","","","","","","","","","","","","","","","","","","","","","","","","","","","","","","","","","","","","","","","","",""
"","localizer","","html-keyboard-response","140","318330","0.0-2.0-41.0-0.0","25","32234","male","319","","","","68","0","39","","Stimuli/Experimental_stims/localizer/body_parts/betzy-arosemena-YHdgnygtVCQ-unsplash.jpg","317922","1","body_parts","","0","0","1","400","36800","408","38760","","","","","","","","","","","","","","","","","","","","","","","","","","","","","","","","","","","","","","","","","","","","","","","","","","","","","",""
"","iti_localizer","","html-keyboard-response","141","318641","0.0-2.0-41.0-1.0","25","32234","male","null","","","","null","","39","","","318330","1","","","","","","300","37200","311","39168","300","","","","","","","","","","","","","","","","","","","","","","","","","","","","","","","","","","","","","","","","","","","","","","","","","","","","",""
"","localizer","","html-keyboard-response","142","319051","0.0-2.0-42.0-0.0","25","32234","male","70","","","","75","1","40","","Stimuli/Experimental_stims/localizer/body_parts/nihal-karkala-LlOfbQD-IJ0-unsplash.jpg","318641","1","body_parts","","0","0","0","400","37500","410","39479","","","","","","","","","","","","","","","","","","","","","","","","","","","","","","","","","","","","","","","","","","","","","","","","","","","","","",""
"","iti_localizer","","html-keyboard-response","143","319365","0.0-2.0-42.0-1.0","25","32234","male","null","","","","null","","40","","","319051","1","","","","","","300","37900","314","39889","300","","","","","","","","","","","","","","","","","","","","","","","","","","","","","","","","","","","","","","","","","","","","","","","","","","","","",""
"","localizer","","html-keyboard-response","144","319777","0.0-2.0-43.0-0.0","25","32234","male","23","","","","75","1","41","","Stimuli/Experimental_stims/localizer/body_parts/nattalia-nunez-MB9sdDfZMSg-unsplash.jpg","319365","1","body_parts","","0","0","0","400","38200","412","40203","","","","","","","","","","","","","","","","","","","","","","","","","","","","","","","","","","","","","","","","","","","","","","","","","","","","","",""
"","iti_localizer","","html-keyboard-response","145","320091","0.0-2.0-43.0-1.0","25","32234","male","null","","","","null","","41","","","319777","1","","","","","","300","38600","314","40615","300","","","","","","","","","","","","","","","","","","","","","","","","","","","","","","","","","","","","","","","","","","","","","","","","","","","","",""
"","localizer","","html-keyboard-response","146","320541","0.0-2.0-44.0-0.0","25","32234","male","13","","","","75","1","42","","Stimuli/Experimental_stims/localizer/body_parts/xavier-foucrier-dLZUNHsT8vo-unsplash.jpg","320091","1","body_parts","","0","0","0","400","38900","450","40929","","","","","","","","","","","","","","","","","","","","","","","","","","","","","","","","","","","","","","","","","","","","","","","","","","","","","",""
"","iti_localizer","","html-keyboard-response","147","320857","0.0-2.0-44.0-1.0","25","32234","male","null","","","","null","","42","","","320541","1","","","","","","300","39300","316","41379","300","","","","","","","","","","","","","","","","","","","","","","","","","","","","","","","","","","","","","","","","","","","","","","","","","","","","",""
"","localizer","","html-keyboard-response","148","321276","0.0-2.0-45.0-0.0","25","32234","male","249","","","","75","1","43","","Stimuli/Experimental_stims/localizer/body_parts/i-am_nah--S4OsO0c6Ts-unsplash.jpg","320857","1","body_parts","","0","0","0","400","39600","419","41695","","","","","","","","","","","","","","","","","","","","","","","","","","","","","","","","","","","","","","","","","","","","","","","","","","","","","",""
"","iti_localizer","","html-keyboard-response","149","321593","0.0-2.0-45.0-1.0","25","32234","male","null","","","","null","","43","","","321276","1","","","","","","300","40000","317","42114","300","","","","","","","","","","","","","","","","","","","","","","","","","","","","","","","","","","","","","","","","","","","","","","","","","","","","",""
"","localizer","","html-keyboard-response","150","322010","0.0-2.0-46.0-0.0","25","32234","male","146","","","","68","0","44","","Stimuli/Experimental_stims/localizer/body_parts/megan-menegay-UojxG_BJxnI-unsplash.jpg","321593","1","body_parts","","0","0","1","400","40300","417","42431","","","","","","","","","","","","","","","","","","","","","","","","","","","","","","","","","","","","","","","","","","","","","","","","","","","","","",""
"","iti_localizer","","html-keyboard-response","151","322350","0.0-2.0-46.0-1.0","25","32234","male","null","","","","null","","44","","","322010","1","","","","","","300","40700","340","42848","300","","","","","","","","","","","","","","","","","","","","","","","","","","","","","","","","","","","","","","","","","","","","","","","","","","","","",""
"","localizer","","html-keyboard-response","152","322773","0.0-2.0-47.0-0.0","25","32234","male","147","","","","68","0","45","","Stimuli/Experimental_stims/localizer/body_parts/priscilla-du-preez-e6fcNpur53A-unsplash.jpg","322350","1","body_parts","","1","0","0","400","41000","423","43188","","","","","","","","","","","","","","","","","","","","","","","","","","","","","","","","","","","","","","","","","","","","","","","","","","","","","",""
"","iti_localizer","","html-keyboard-response","153","336795","0.0-2.0-47.0-1.0","25","32234","male","null","","","","null","","45","","","322773","1","","","","","","14000","41400","14022","43611","14000","","","","","","","","","","","","","","","","","","","","","","","","","","","","","","","","","","","","","","","","","","","","","","","","","","","","",""
"","localizer","","html-keyboard-response","154","337230","0.0-2.0-48.0-0.0","25","32234","male","NaN","","","","null","NaN","46","","Stimuli/Experimental_stims/localizer/faces/jake-nackos-IF9TK5Uy-KI-unsplash.jpg","336795","1","faces","","0","1","0","400","55400","435","57633","","","","","","","","","","","","","","","","","","","","","","","","","","","","","","","","","","","","","","","","","","","","","","","","","","","","","",""
"","iti_localizer","","html-keyboard-response","155","337543","0.0-2.0-48.0-1.0","25","32234","male","null","","","","null","","46","","","337230","1","","","","","","300","55800","313","58068","300","","","","","","","","","","","","","","","","","","","","","","","","","","","","","","","","","","","","","","","","","","","","","","","","","","","","",""
"","localizer","","html-keyboard-response","156","338007","0.0-2.0-49.0-0.0","25","32234","male","NaN","","","","null","NaN","47","","Stimuli/Experimental_stims/localizer/faces/ethan-haddox-__ng3cRXmFE-unsplash.jpg","337543","1","faces","","0","1","0","400","56100","464","58381","","","","","","","","","","","","","","","","","","","","","","","","","","","","","","","","","","","","","","","","","","","","","","","","","","","","","",""
"","iti_localizer","","html-keyboard-response","157","338334","0.0-2.0-49.0-1.0","25","32234","male","null","","","","null","","47","","","338007","1","","","","","","300","56500","327","58845","300","","","","","","","","","","","","","","","","","","","","","","","","","","","","","","","","","","","","","","","","","","","","","","","","","","","","",""
"","localizer","","html-keyboard-response","158","338751","0.0-2.0-50.0-0.0","25","32234","male","NaN","","","","null","NaN","48","","Stimuli/Experimental_stims/localizer/faces/samuel-dixon--fQ5XNOcqFQ-unsplash.jpg","338334","1","faces","","1","1","0","400","56800","417","59172","","","","","","","","","","","","","","","","","","","","","","","","","","","","","","","","","","","","","","","","","","","","","","","","","","","","","",""
"","iti_localizer","","html-keyboard-response","159","339083","0.0-2.0-50.0-1.0","25","32234","male","null","","","","null","","48","","","338751","1","","","","","","300","57200","332","59589","300","","","","","","","","","","","","","","","","","","","","","","","","","","","","","","","","","","","","","","","","","","","","","","","","","","","","",""
"","localizer","","html-keyboard-response","160","339505","0.0-2.0-51.0-0.0","25","32234","male","NaN","","","","null","NaN","49","","Stimuli/Experimental_stims/localizer/faces/jakob-owens-lkMJcGDZLVs-unsplash.jpg","339083","1","faces","","0","1","0","400","57500","422","59921","","","","","","","","","","","","","","","","","","","","","","","","","","","","","","","","","","","","","","","","","","","","","","","","","","","","","",""
"","iti_localizer","","html-keyboard-response","161","339817","0.0-2.0-51.0-1.0","25","32234","male","null","","","","null","","49","","","339505","1","","","","","","300","57900","312","60343","300","","","","","","","","","","","","","","","","","","","","","","","","","","","","","","","","","","","","","","","","","","","","","","","","","","","","",""
"","localizer","","html-keyboard-response","162","340235","0.0-2.0-52.0-0.0","25","32234","male","NaN","","","","null","NaN","50","","Stimuli/Experimental_stims/localizer/faces/joseph-gonzalez-iFgRcqHznqg-unsplash.jpg","339817","1","faces","","0","1","0","400","58200","418","60655","","","","","","","","","","","","","","","","","","","","","","","","","","","","","","","","","","","","","","","","","","","","","","","","","","","","","",""
"","iti_localizer","","html-keyboard-response","163","340543","0.0-2.0-52.0-1.0","25","32234","male","null","","","","null","","50","","","340235","1","","","","","","300","58600","308","61073","300","","","","","","","","","","","","","","","","","","","","","","","","","","","","","","","","","","","","","","","","","","","","","","","","","","","","",""
"","localizer","","html-keyboard-response","164","340956","0.0-2.0-53.0-0.0","25","32234","male","229","","","","75","1","51","","Stimuli/Experimental_stims/localizer/faces/tyler-nix-ZGa9d1a_4tA-unsplash.jpg","340543","1","faces","","0","0","0","400","58900","413","61381","","","","","","","","","","","","","","","","","","","","","","","","","","","","","","","","","","","","","","","","","","","","","","","","","","","","","",""
"","iti_localizer","","html-keyboard-response","165","341279","0.0-2.0-53.0-1.0","25","32234","male","null","","","","null","","51","","","340956","1","","","","","","300","59300","323","61794","300","","","","","","","","","","","","","","","","","","","","","","","","","","","","","","","","","","","","","","","","","","","","","","","","","","","","",""
"","localizer","","html-keyboard-response","166","341703","0.0-2.0-54.0-0.0","25","32234","male","NaN","","","","null","NaN","52","","Stimuli/Experimental_stims/localizer/faces/allef-vinicius-C_1jjFJioWg-unsplash.jpg","341279","1","faces","","0","1","0","400","59600","424","62117","","","","","","","","","","","","","","","","","","","","","","","","","","","","","","","","","","","","","","","","","","","","","","","","","","","","","",""
"","iti_localizer","","html-keyboard-response","167","342018","0.0-2.0-54.0-1.0","25","32234","male","null","","","","null","","52","","","341703","1","","","","","","300","60000","315","62541","300","","","","","","","","","","","","","","","","","","","","","","","","","","","","","","","","","","","","","","","","","","","","","","","","","","","","",""
"","localizer","","html-keyboard-response","168","342461","0.0-2.0-55.0-0.0","25","32234","male","NaN","","","","null","NaN","53","","Stimuli/Experimental_stims/localizer/faces/midas-hofstra-tidSLv-UaNs-unsplash.jpg","342018","1","faces","","0","1","0","400","60300","443","62856","","","","","","","","","","","","","","","","","","","","","","","","","","","","","","","","","","","","","","","","","","","","","","","","","","","","","",""
"","iti_localizer","","html-keyboard-response","169","342774","0.0-2.0-55.0-1.0","25","32234","male","null","","","","null","","53","","","342461","1","","","","","","300","60700","313","63299","300","","","","","","","","","","","","","","","","","","","","","","","","","","","","","","","","","","","","","","","","","","","","","","","","","","","","",""
"","localizer","","html-keyboard-response","170","343183","0.0-2.0-56.0-0.0","25","32234","male","185","","","","75","1","54","","Stimuli/Experimental_stims/localizer/faces/elijah-hiett-umfpFoKxIVg-unsplash.jpg","342774","1","faces","","0","0","0","400","61000","409","63612","","","","","","","","","","","","","","","","","","","","","","","","","","","","","","","","","","","","","","","","","","","","","","","","","","","","","",""
"","iti_localizer","","html-keyboard-response","171","343500","0.0-2.0-56.0-1.0","25","32234","male","null","","","","null","","54","","","343183","1","","","","","","300","61400","317","64021","300","","","","","","","","","","","","","","","","","","","","","","","","","","","","","","","","","","","","","","","","","","","","","","","","","","","","",""
"","localizer","","html-keyboard-response","172","343911","0.0-2.0-57.0-0.0","25","32234","male","366","","","","75","1","55","","Stimuli/Experimental_stims/localizer/faces/austin-wade-X6Uj51n5CE8-unsplash.jpg","343500","1","faces","","0","0","0","400","61700","411","64338","","","","","","","","","","","","","","","","","","","","","","","","","","","","","","","","","","","","","","","","","","","","","","","","","","","","","",""
"","iti_localizer","","html-keyboard-response","173","344229","0.0-2.0-57.0-1.0","25","32234","male","null","","","","null","","55","","","343911","1","","","","","","300","62100","318","64749","300","","","","","","","","","","","","","","","","","","","","","","","","","","","","","","","","","","","","","","","","","","","","","","","","","","","","",""
"","localizer","","html-keyboard-response","174","344694","0.0-2.0-58.0-0.0","25","32234","male","201","","","","68","0","56","","Stimuli/Experimental_stims/localizer/faces/mathias-huysmans-U4JDjYmjn1g-unsplash.jpg","344229","1","faces","","0","0","1","400","62400","465","65067","","","","","","","","","","","","","","","","","","","","","","","","","","","","","","","","","","","","","","","","","","","","","","","","","","","","","",""
"","iti_localizer","","html-keyboard-response","175","345100","0.0-2.0-58.0-1.0","25","32234","male","null","","","","null","","56","","","344694","1","","","","","","300","62800","406","65532","300","","","","","","","","","","","","","","","","","","","","","","","","","","","","","","","","","","","","","","","","","","","","","","","","","","","","",""
"","localizer","","html-keyboard-response","176","345519","0.0-2.0-59.0-0.0","25","32234","male","8","","","","68","0","57","","Stimuli/Experimental_stims/localizer/faces/ian-dooley-d1UPkiFd04A-unsplash.jpg","345100","1","faces","","0","0","1","400","63100","419","65938","","","","","","","","","","","","","","","","","","","","","","","","","","","","","","","","","","","","","","","","","","","","","","","","","","","","","",""
"","iti_localizer","","html-keyboard-response","177","345861","0.0-2.0-59.0-1.0","25","32234","male","null","","","","null","","57","","","345519","1","","","","","","300","63500","342","66357","300","","","","","","","","","","","","","","","","","","","","","","","","","","","","","","","","","","","","","","","","","","","","","","","","","","","","",""
"","localizer","","html-keyboard-response","178","346283","0.0-2.0-60.0-0.0","25","32234","male","34","","","","75","1","58","","Stimuli/Experimental_stims/localizer/faces/icons8-team-6LZuSzSwso0-unsplash.jpg","345861","1","faces","","0","0","0","400","63800","422","66699","","","","","","","","","","","","","","","","","","","","","","","","","","","","","","","","","","","","","","","","","","","","","","","","","","","","","",""
"","iti_localizer","","html-keyboard-response","179","346644","0.0-2.0-60.0-1.0","25","32234","male","null","","","","null","","58","","","346283","1","","","","","","300","64200","361","67121","300","","","","","","","","","","","","","","","","","","","","","","","","","","","","","","","","","","","","","","","","","","","","","","","","","","","","",""
"","localizer","","html-keyboard-response","180","347053","0.0-2.0-61.0-0.0","25","32234","male","15","","","","68","0","59","","Stimuli/Experimental_stims/localizer/faces/alexis-chloe-TYDkKEgc0Fg-unsplash.jpg","346644","1","faces","","0","0","1","400","64500","409","67482","","","","","","","","","","","","","","","","","","","","","","","","","","","","","","","","","","","","","","","","","","","","","","","","","","","","","",""
"","iti_localizer","","html-keyboard-response","181","347362","0.0-2.0-61.0-1.0","25","32234","male","null","","","","null","","59","","","347053","1","","","","","","300","64900","309","67891","300","","","","","","","","","","","","","","","","","","","","","","","","","","","","","","","","","","","","","","","","","","","","","","","","","","","","",""
"","localizer","","html-keyboard-response","182","347792","0.0-2.0-62.0-0.0","25","32234","male","55","","","","75","1","60","","Stimuli/Experimental_stims/localizer/faces/prince-akachi-LWkFHEGpleE-unsplash.jpg","347362","1","faces","","0","0","0","400","65200","430","68200","","","","","","","","","","","","","","","","","","","","","","","","","","","","","","","","","","","","","","","","","","","","","","","","","","","","","",""
"","iti_localizer","","html-keyboard-response","183","348103","0.0-2.0-62.0-1.0","25","32234","male","null","","","","null","","60","","","347792","1","","","","","","300","65600","311","68630","300","","","","","","","","","","","","","","","","","","","","","","","","","","","","","","","","","","","","","","","","","","","","","","","","","","","","",""
"","localizer","","html-keyboard-response","184","348510","0.0-2.0-63.0-0.0","25","32234","male","280","","","","68","0","61","","Stimuli/Experimental_stims/localizer/faces/katsiaryna-endruszkiewicz-BteCp6aq4GI-unsplash.jpg","348103","1","faces","","1","0","0","400","65900","407","68941","","","","","","","","","","","","","","","","","","","","","","","","","","","","","","","","","","","","","","","","","","","","","","","","","","","","","",""
"","iti_localizer","","html-keyboard-response","185","348816","0.0-2.0-63.0-1.0","25","32234","male","null","","","","null","","61","","","348510","1","","","","","","300","66300","306","69348","300","","","","","","","","","","","","","","","","","","","","","","","","","","","","","","","","","","","","","","","","","","","","","","","","","","","","",""
"","localizer","","html-keyboard-response","186","349225","0.0-2.0-64.0-0.0","25","32234","male","70","","","","75","1","62","","Stimuli/Experimental_stims/localizer/faces/hassan-khan-EGVccebWodM-unsplash.jpg","348816","1","faces","","0","0","0","400","66600","409","69654","","","","","","","","","","","","","","","","","","","","","","","","","","","","","","","","","","","","","","","","","","","","","","","","","","","","","",""
"","iti_localizer","","html-keyboard-response","187","349580","0.0-2.0-64.0-1.0","25","32234","male","null","","","","null","","62","","","349225","1","","","","","","300","67000","355","70063","300","","","","","","","","","","","","","","","","","","","","","","","","","","","","","","","","","","","","","","","","","","","","","","","","","","","","",""
"","localizer","","html-keyboard-response","188","350039","0.0-2.0-65.0-0.0","25","32234","male","38","","","","68","0","63","","Stimuli/Experimental_stims/localizer/faces/linkedin-sales-solutions-pAtA8xe_iVM-unsplash.jpg","349580","1","faces","","0","0","1","400","67300","459","70418","","","","","","","","","","","","","","","","","","","","","","","","","","","","","","","","","","","","","","","","","","","","","","","","","","","","","",""
"","iti_localizer","","html-keyboard-response","189","350363","0.0-2.0-65.0-1.0","25","32234","male","null","","","","null","","63","","","350039","1","","","","","","300","67700","324","70877","300","","","","","","","","","","","","","","","","","","","","","","","","","","","","","","","","","","","","","","","","","","","","","","","","","","","","",""
"","localizer","","html-keyboard-response","190","350777","0.0-2.0-66.0-0.0","25","32234","male","50","","","","75","1","64","","Stimuli/Experimental_stims/localizer/faces/philip-martin-5aGUyCW_PJw-unsplash.jpg","350363","1","faces","","0","0","0","400","68000","414","71201","","","","","","","","","","","","","","","","","","","","","","","","","","","","","","","","","","","","","","","","","","","","","","","","","","","","","",""
"","iti_localizer","","html-keyboard-response","191","351118","0.0-2.0-66.0-1.0","25","32234","male","null","","","","null","","64","","","350777","1","","","","","","300","68400","341","71615","300","","","","","","","","","","","","","","","","","","","","","","","","","","","","","","","","","","","","","","","","","","","","","","","","","","","","",""
"","localizer","","html-keyboard-response","192","351639","0.0-2.0-67.0-0.0","25","32234","male","138","","","","68","0","65","","Stimuli/Experimental_stims/localizer/faces/christina-wocintechchat-com-0Zx1bDv5BNY-unsplash.jpg","351118","1","faces","","0","0","1","400","68700","521","71956","","","","","","","","","","","","","","","","","","","","","","","","","","","","","","","","","","","","","","","","","","","","","","","","","","","","","",""
"","iti_localizer","","html-keyboard-response","193","365686","0.0-2.0-67.0-1.0","25","32234","male","null","","","","null","","65","","","351639","1","","","","","","14000","69100","14047","72477","14000","","","","","","","","","","","","","","","","","","","","","","","","","","","","","","","","","","","","","","","","","","","","","","","","","","","","",""
"","localizer","","html-keyboard-response","194","366103","0.0-2.0-68.0-0.0","25","32234","male","NaN","","","","null","NaN","66","","Stimuli/Experimental_stims/localizer/body_parts/bady-abbas-N-VEeMnm7gE-unsplash.jpg","365686","1","body_parts","","0","1","0","400","83100","417","86524","","","","","","","","","","","","","","","","","","","","","","","","","","","","","","","","","","","","","","","","","","","","","","","","","","","","","",""
"","iti_localizer","","html-keyboard-response","195","366416","0.0-2.0-68.0-1.0","25","32234","male","null","","","","null","","66","","","366103","1","","","","","","300","83500","313","86941","300","","","","","","","","","","","","","","","","","","","","","","","","","","","","","","","","","","","","","","","","","","","","","","","","","","","","",""
"","localizer","","html-keyboard-response","196","366840","0.0-2.0-69.0-0.0","25","32234","male","NaN","","","","null","NaN","67","","Stimuli/Experimental_stims/localizer/body_parts/hu-chen-tCbTGNwrFNM-unsplash.jpg","366416","1","body_parts","","0","1","0","400","83800","424","87254","","","","","","","","","","","","","","","","","","","","","","","","","","","","","","","","","","","","","","","","","","","","","","","","","","","","","",""
"","iti_localizer","","html-keyboard-response","197","367150","0.0-2.0-69.0-1.0","25","32234","male","null","","","","null","","67","","","366840","1","","","","","","300","84200","310","87678","300","","","","","","","","","","","","","","","","","","","","","","","","","","","","","","","","","","","","","","","","","","","","","","","","","","","","",""
"","localizer","","html-keyboard-response","198","367569","0.0-2.0-70.0-0.0","25","32234","male","NaN","","","","null","NaN","68","","Stimuli/Experimental_stims/localizer/body_parts/toa-heftiba-qxvWnfHb3-M-unsplash.jpg","367150","1","body_parts","","0","1","0","400","84500","419","87988","","","","","","","","","","","","","","","","","","","","","","","","","","","","","","","","","","","","","","","","","","","","","","","","","","","","","",""
"","iti_localizer","","html-keyboard-response","199","367924","0.0-2.0-70.0-1.0","25","32234","male","null","","","","null","","68","","","367569","1","","","","","","300","84900","355","88407","300","","","","","","","","","","","","","","","","","","","","","","","","","","","","","","","","","","","","","","","","","","","","","","","","","","","","",""
"","localizer","","html-keyboard-response","200","368402","0.0-2.0-71.0-0.0","25","32234","male","NaN","","","","null","NaN","69","","Stimuli/Experimental_stims/localizer/body_parts/matthew-wheeler-2_UxqsaDMmo-unsplash.jpg","367924","1","body_parts","","0","1","0","400","85200","478","88762","","","","","","","","","","","","","","","","","","","","","","","","","","","","","","","","","","","","","","","","","","","","","","","","","","","","","",""
"","iti_localizer","","html-keyboard-response","201","368713","0.0-2.0-71.0-1.0","25","32234","male","null","","","","null","","69","","","368402","1","","","","","","300","85600","311","89240","300","","","","","","","","","","","","","","","","","","","","","","","","","","","","","","","","","","","","","","","","","","","","","","","","","","","","",""
"","localizer","","html-keyboard-response","202","369139","0.0-2.0-72.0-0.0","25","32234","male","NaN","","","","null","NaN","70","","Stimuli/Experimental_stims/localizer/body_parts/billie-5OXE3KjDEfI-unsplash.jpg","368713","1","body_parts","","0","1","0","400","85900","426","89551","","","","","","","","","","","","","","","","","","","","","","","","","","","","","","","","","","","","","","","","","","","","","","","","","","","","","",""
"","iti_localizer","","html-keyboard-response","203","369462","0.0-2.0-72.0-1.0","25","32234","male","null","","","","null","","70","","","369139","1","","","","","","300","86300","323","89977","300","","","","","","","","","","","","","","","","","","","","","","","","","","","","","","","","","","","","","","","","","","","","","","","","","","","","",""
"","localizer","","html-keyboard-response","204","369959","0.0-2.0-73.0-0.0","25","32234","male","NaN","","","","null","NaN","71","","Stimuli/Experimental_stims/localizer/body_parts/lilartsy-1KkhQ8uL28g-unsplash.jpg","369462","1","body_parts","","1","1","0","400","86600","497","90300","","","","","","","","","","","","","","","","","","","","","","","","","","","","","","","","","","","","","","","","","","","","","","","","","","","","","",""
"","iti_localizer","","html-keyboard-response","205","370275","0.0-2.0-73.0-1.0","25","32234","male","null","","","","null","","71","","","369959","1","","","","","","300","87000","316","90797","300","","","","","","","","","","","","","","","","","","","","","","","","","","","","","","","","","","","","","","","","","","","","","","","","","","","","",""
"","localizer","","html-keyboard-response","206","370690","0.0-2.0-74.0-0.0","25","32234","male","NaN","","","","null","NaN","72","","Stimuli/Experimental_stims/localizer/body_parts/sincerely-media-Q7qRyaurQfo-unsplash.jpg","370275","1","body_parts","","0","1","0","400","87300","415","91113","","","","","","","","","","","","","","","","","","","","","","","","","","","","","","","","","","","","","","","","","","","","","","","","","","","","","",""
"","iti_localizer","","html-keyboard-response","207","371002","0.0-2.0-74.0-1.0","25","32234","male","null","","","","null","","72","","","370690","1","","","","","","300","87700","312","91528","300","","","","","","","","","","","","","","","","","","","","","","","","","","","","","","","","","","","","","","","","","","","","","","","","","","","","",""
"","localizer","","html-keyboard-response","208","371477","0.0-2.0-75.0-0.0","25","32234","male","NaN","","","","null","NaN","73","","Stimuli/Experimental_stims/localizer/body_parts/semen-zhuravlev-_XxH_mV8dnk-unsplash (1).jpg","371002","1","body_parts","","0","1","0","400","88000","475","91840","","","","","","","","","","","","","","","","","","","","","","","","","","","","","","","","","","","","","","","","","","","","","","","","","","","","","",""
"","iti_localizer","","html-keyboard-response","209","371818","0.0-2.0-75.0-1.0","25","32234","male","null","","","","null","","73","","","371477","1","","","","","","300","88400","341","92315","300","","","","","","","","","","","","","","","","","","","","","","","","","","","","","","","","","","","","","","","","","","","","","","","","","","","","",""
"","localizer","","html-keyboard-response","210","372236","0.0-2.0-76.0-0.0","25","32234","male","NaN","","","","null","NaN","74","","Stimuli/Experimental_stims/localizer/body_parts/sincerely-media-7TBFwUQA6Xk-unsplash.jpg","371818","1","body_parts","","0","1","0","400","88700","418","92656","","","","","","","","","","","","","","","","","","","","","","","","","","","","","","","","","","","","","","","","","","","","","","","","","","","","","",""
"","iti_localizer","","html-keyboard-response","211","372553","0.0-2.0-76.0-1.0","25","32234","male","null","","","","null","","74","","","372236","1","","","","","","300","89100","317","93074","300","","","","","","","","","","","","","","","","","","","","","","","","","","","","","","","","","","","","","","","","","","","","","","","","","","","","",""
"","localizer","","html-keyboard-response","212","372965","0.0-2.0-77.0-0.0","25","32234","male","73","","","","75","1","75","","Stimuli/Experimental_stims/localizer/body_parts/liv-bruce-M0oVPGsWk1E-unsplash.jpg","372553","1","body_parts","","0","0","0","400","89400","412","93391","","","","","","","","","","","","","","","","","","","","","","","","","","","","","","","","","","","","","","","","","","","","","","","","","","","","","",""
"","iti_localizer","","html-keyboard-response","213","373294","0.0-2.0-77.0-1.0","25","32234","male","null","","","","null","","75","","","372965","1","","","","","","300","89800","329","93803","300","","","","","","","","","","","","","","","","","","","","","","","","","","","","","","","","","","","","","","","","","","","","","","","","","","","","",""
"","localizer","","html-keyboard-response","214","373708","0.0-2.0-78.0-0.0","25","32234","male","100","","","","75","1","76","","Stimuli/Experimental_stims/localizer/body_parts/louis-hansel-FjKTMRTQYAs-unsplash.jpg","373294","1","body_parts","","0","0","0","400","90100","414","94132","","","","","","","","","","","","","","","","","","","","","","","","","","","","","","","","","","","","","","","","","","","","","","","","","","","","","",""
"","iti_localizer","","html-keyboard-response","215","374081","0.0-2.0-78.0-1.0","25","32234","male","null","","","","null","","76","","","373708","1","","","","","","300","90500","373","94546","300","","","","","","","","","","","","","","","","","","","","","","","","","","","","","","","","","","","","","","","","","","","","","","","","","","","","",""
"","localizer","","html-keyboard-response","216","374655","0.0-2.0-79.0-0.0","25","32234","male","10","","","","68","0","77","","Stimuli/Experimental_stims/localizer/body_parts/lucaxx-freire-CacZwMexYdk-unsplash.jpg","374081","1","body_parts","","0","0","1","400","90800","574","94919","","","","","","","","","","","","","","","","","","","","","","","","","","","","","","","","","","","","","","","","","","","","","","","","","","","","","",""
"","iti_localizer","","html-keyboard-response","217","374961","0.0-2.0-79.0-1.0","25","32234","male","null","","","","null","","77","","","374655","1","","","","","","300","91200","306","95493","300","","","","","","","","","","","","","","","","","","","","","","","","","","","","","","","","","","","","","","","","","","","","","","","","","","","","",""
"","localizer","","html-keyboard-response","218","375375","0.0-2.0-80.0-0.0","25","32234","male","5","","","","68","0","78","","Stimuli/Experimental_stims/localizer/body_parts/sippakorn-yamkasikorn-32_sJlJa5gA-unsplash.jpg","374961","1","body_parts","","0","0","1","400","91500","414","95799","","","","","","","","","","","","","","","","","","","","","","","","","","","","","","","","","","","","","","","","","","","","","","","","","","","","","",""
"","iti_localizer","","html-keyboard-response","219","375690","0.0-2.0-80.0-1.0","25","32234","male","null","","","","null","","78","","","375375","1","","","","","","300","91900","315","96213","300","","","","","","","","","","","","","","","","","","","","","","","","","","","","","","","","","","","","","","","","","","","","","","","","","","","","",""
"","localizer","","html-keyboard-response","220","376108","0.0-2.0-81.0-0.0","25","32234","male","204","","","","68","0","79","","Stimuli/Experimental_stims/localizer/body_parts/charles-etoroma-1fo0biloDOc-unsplash.jpg","375690","1","body_parts","","0","0","1","400","92200","418","96528","","","","","","","","","","","","","","","","","","","","","","","","","","","","","","","","","","","","","","","","","","","","","","","","","","","","","",""
"","iti_localizer","","html-keyboard-response","221","376487","0.0-2.0-81.0-1.0","25","32234","male","null","","","","null","","79","","","376108","1","","","","","","300","92600","379","96946","300","","","","","","","","","","","","","","","","","","","","","","","","","","","","","","","","","","","","","","","","","","","","","","","","","","","","",""
"","localizer","","html-keyboard-response","222","376900","0.0-2.0-82.0-0.0","25","32234","male","NaN","","","","null","NaN","80","","Stimuli/Experimental_stims/localizer/body_parts/nadine-shaabana-ypyaaEf2ntM-unsplash.jpg","376487","1","body_parts","","0","1","0","400","92900","413","97325","","","","","","","","","","","","","","","","","","","","","","","","","","","","","","","","","","","","","","","","","","","","","","","","","","","","","",""
"","iti_localizer","","html-keyboard-response","223","377220","0.0-2.0-82.0-1.0","25","32234","male","null","","","","null","","80","","","376900","1","","","","","","300","93300","320","97738","300","","","","","","","","","","","","","","","","","","","","","","","","","","","","","","","","","","","","","","","","","","","","","","","","","","","","",""
"","localizer","","html-keyboard-response","224","377638","0.0-2.0-83.0-0.0","25","32234","male","34","","","","75","1","81","","Stimuli/Experimental_stims/localizer/body_parts/diana-polekhina-SwWjCbIIoFE-unsplash.jpg","377220","1","body_parts","","1","0","1","400","93600","418","98058","","","","","","","","","","","","","","","","","","","","","","","","","","","","","","","","","","","","","","","","","","","","","","","","","","","","","",""
"","iti_localizer","","html-keyboard-response","225","377953","0.0-2.0-83.0-1.0","25","32234","male","null","","","","null","","81","","","377638","1","","","","","","300","94000","315","98476","300","","","","","","","","","","","","","","","","","","","","","","","","","","","","","","","","","","","","","","","","","","","","","","","","","","","","",""
"","localizer","","html-keyboard-response","226","378366","0.0-2.0-84.0-0.0","25","32234","male","52","","","","75","1","82","","Stimuli/Experimental_stims/localizer/body_parts/deborah-diem-ieVxpPjl1e0-unsplash.jpg","377953","1","body_parts","","0","0","0","400","94300","413","98791","","","","","","","","","","","","","","","","","","","","","","","","","","","","","","","","","","","","","","","","","","","","","","","","","","","","","",""
"","iti_localizer","","html-keyboard-response","227","378702","0.0-2.0-84.0-1.0","25","32234","male","null","","","","null","","82","","","378366","1","","","","","","300","94700","336","99204","300","","","","","","","","","","","","","","","","","","","","","","","","","","","","","","","","","","","","","","","","","","","","","","","","","","","","",""
"","localizer","","html-keyboard-response","228","379196","0.0-2.0-85.0-0.0","25","32234","male","105","","","","68","0","83","","Stimuli/Experimental_stims/localizer/body_parts/sincerely-media-pdynOoM7xmA-unsplash.jpg","378702","1","body_parts","","0","0","1","400","95000","494","99540","","","","","","","","","","","","","","","","","","","","","","","","","","","","","","","","","","","","","","","","","","","","","","","","","","","","","",""
"","iti_localizer","","html-keyboard-response","229","379520","0.0-2.0-85.0-1.0","25","32234","male","null","","","","null","","83","","","379196","1","","","","","","300","95400","324","100034","300","","","","","","","","","","","","","","","","","","","","","","","","","","","","","","","","","","","","","","","","","","","","","","","","","","","","",""
"","localizer","","html-keyboard-response","230","379934","0.0-2.0-86.0-0.0","25","32234","male","91","","","","68","0","84","","Stimuli/Experimental_stims/localizer/body_parts/ben-hartley-RbrsejLGVZ8-unsplash.jpg","379520","1","body_parts","","0","0","1","400","95700","414","100358","","","","","","","","","","","","","","","","","","","","","","","","","","","","","","","","","","","","","","","","","","","","","","","","","","","","","",""
"","iti_localizer","","html-keyboard-response","231","380242","0.0-2.0-86.0-1.0","25","32234","male","null","","","","null","","84","","","379934","1","","","","","","300","96100","308","100772","300","","","","","","","","","","","","","","","","","","","","","","","","","","","","","","","","","","","","","","","","","","","","","","","","","","","","",""
"","localizer","","html-keyboard-response","232","380651","0.0-2.0-87.0-0.0","25","32234","male","2","","","","68","0","85","","Stimuli/Experimental_stims/localizer/body_parts/apostolos-vamvouras-g5wKHRu2QW0-unsplash.jpg","380242","1","body_parts","","0","0","1","400","96400","409","101080","","","","","","","","","","","","","","","","","","","","","","","","","","","","","","","","","","","","","","","","","","","","","","","","","","","","","",""
"","iti_localizer","","html-keyboard-response","233","394687","0.0-2.0-87.0-1.0","25","32234","male","null","","","","null","","85","","","380651","1","","","","","","14000","96800","14036","101489","14000","","","","","","","","","","","","","","","","","","","","","","","","","","","","","","","","","","","","","","","","","","","","","","","","","","","","",""
"","localizer","","html-keyboard-response","234","395102","0.0-2.0-88.0-0.0","25","32234","male","306","","","","68","0","86","","Stimuli/Experimental_stims/localizer/objects/kelly-jean-cKjbI0Y00X0-unsplash.jpg","394687","1","objects","","1","0","0","400","110800","415","115525","","","","","","","","","","","","","","","","","","","","","","","","","","","","","","","","","","","","","","","","","","","","","","","","","","","","","",""
"","iti_localizer","","html-keyboard-response","235","395407","0.0-2.0-88.0-1.0","25","32234","male","null","","","","null","","86","","","395102","1","","","","","","300","111200","305","115940","300","","","","","","","","","","","","","","","","","","","","","","","","","","","","","","","","","","","","","","","","","","","","","","","","","","","","",""
"","localizer","","html-keyboard-response","236","395830","0.0-2.0-89.0-0.0","25","32234","male","177","","","","75","1","87","","Stimuli/Experimental_stims/localizer/objects/sam-moghadam-khamseh-L_7MQsHl_aU-unsplash.jpg","395407","1","objects","","0","0","0","400","111500","423","116245","","","","","","","","","","","","","","","","","","","","","","","","","","","","","","","","","","","","","","","","","","","","","","","","","","","","","",""
"","iti_localizer","","html-keyboard-response","237","396144","0.0-2.0-89.0-1.0","25","32234","male","null","","","","null","","87","","","395830","1","","","","","","300","111900","314","116668","300","","","","","","","","","","","","","","","","","","","","","","","","","","","","","","","","","","","","","","","","","","","","","","","","","","","","",""
"","localizer","","html-keyboard-response","238","396570","0.0-2.0-90.0-0.0","25","32234","male","138","","","","75","1","88","","Stimuli/Experimental_stims/localizer/objects/lance-reis-v0FYj9iioQg-unsplash.jpg","396144","1","objects","","0","0","0","400","112200","426","116982","","","","","","","","","","","","","","","","","","","","","","","","","","","","","","","","","","","","","","","","","","","","","","","","","","","","","",""
"","iti_localizer","","html-keyboard-response","239","396891","0.0-2.0-90.0-1.0","25","32234","male","null","","","","null","","88","","","396570","1","","","","","","300","112600","321","117408","300","","","","","","","","","","","","","","","","","","","","","","","","","","","","","","","","","","","","","","","","","","","","","","","","","","","","",""
"","localizer","","html-keyboard-response","240","397305","0.0-2.0-91.0-0.0","25","32234","male","58","","","","75","1","89","","Stimuli/Experimental_stims/localizer/objects/ryunosuke-kikuno-viEzuL1ouDs-unsplash.jpg","396891","1","objects","","0","0","0","400","112900","414","117729","","","","","","","","","","","","","","","","","","","","","","","","","","","","","","","","","","","","","","","","","","","","","","","","","","","","","",""
"","iti_localizer","","html-keyboard-response","241","397615","0.0-2.0-91.0-1.0","25","32234","male","null","","","","null","","89","","","397305","1","","","","","","300","113300","310","118143","300","","","","","","","","","","","","","","","","","","","","","","","","","","","","","","","","","","","","","","","","","","","","","","","","","","","","",""
"","localizer","","html-keyboard-response","242","398029","0.0-2.0-92.0-0.0","25","32234","male","127","","","","75","1","90","","Stimuli/Experimental_stims/localizer/objects/carlos-felipe-ramirez-mesa-x9g65MOXsPY-unsplash.jpg","397615","1","objects","","0","0","0","400","113600","414","118453","","","","","","","","","","","","","","","","","","","","","","","","","","","","","","","","","","","","","","","","","","","","","","","","","","","","","",""
"","iti_localizer","","html-keyboard-response","243","398344","0.0-2.0-92.0-1.0","25","32234","male","null","","","","null","","90","","","398029","1","","","","","","300","114000","315","118867","300","","","","","","","","","","","","","","","","","","","","","","","","","","","","","","","","","","","","","","","","","","","","","","","","","","","","",""
"","localizer","","html-keyboard-response","244","398760","0.0-2.0-93.0-0.0","25","32234","male","45","","","","75","1","91","","Stimuli/Experimental_stims/localizer/objects/saif71-com-VIKdvmGUhq8-unsplash.jpg","398344","1","objects","","0","0","0","400","114300","416","119182","","","","","","","","","","","","","","","","","","","","","","","","","","","","","","","","","","","","","","","","","","","","","","","","","","","","","",""
"","iti_localizer","","html-keyboard-response","245","399075","0.0-2.0-93.0-1.0","25","32234","male","null","","","","null","","91","","","398760","1","","","","","","300","114700","315","119598","300","","","","","","","","","","","","","","","","","","","","","","","","","","","","","","","","","","","","","","","","","","","","","","","","","","","","",""
"","localizer","","html-keyboard-response","246","399494","0.0-2.0-94.0-0.0","25","32234","male","26","","","","75","1","92","","Stimuli/Experimental_stims/localizer/objects/barrett-ward-0lMpQaXfOCg-unsplash.jpg","399075","1","objects","","0","0","0","400","115000","419","119913","","","","","","","","","","","","","","","","","","","","","","","","","","","","","","","","","","","","","","","","","","","","","","","","","","","","","",""
