"success","ttype","start_time","trial_type","trial_index","time_elapsed","internal_node_id","age","PID","gender","rt","responses","view_history","repeat_instructions","key_press","response","index","stimulus_index","path","start_time_elapsed","run","task","isi","is_odd_ball","no_response","acc","duration","onset","duration_time_elapsed","onset_time_elapsed","trial_duration","left_chosen","chosen_stimulus","unchosen_stimulus","chosen_category","unchosen_category","chosen_rating","unchosen_rating","chosen_path","unchosen_path","pair_id","practice","scramble_screen_time","scramble_instructed_side","stim_type","iti","block","left_stimulus","right_stimulus","left_category","right_category","left_path","right_path","left_rating","right_rating","scramble_acc","warning","scramble_no_response","stimulus_id","item_id","outcome","response_rt","deliberation_reward_tally","choice_type","gain_left","left_item_id","right_item_id","higher_outcome_chosen","chosen_left","old_pair","pair_type","old_response","pair_acc","reward_type","outcome_response","outcome_rt","outcome_acc","category","choice","deliberated_stim","old_rating","new_rating","total_reward_tally"
"true","full_screen","d08172023hr1507","fullscreen","0","5373","0.0-0.0-0.0","24","25736","female","","","","","","","","","","","","","","","","","","","","","","","","","","","","","","","","","","","","","","","","","","","","","","","","","","","","","","","","","","","","","","","","","","","","","","","","",""
"","get_id","","survey-text","1","20641","0.0-0.0-1.0","24","25736","female","15248","{""Q0"":""24"",""Q1"":""female""}","","","","","","","","","","","","","","","","","","","","","","","","","","","","","","","","","","","","","","","","","","","","","","","","","","","","","","","","","","","","","","","","","","","","","","",""
"","ratings_instructions","","instructions","2","38460","0.0-1.0-0.0-0.0","24","25736","female","16477","","[{""page_index"":0,""viewing_time"":11816},{""page_index"":1,""viewing_time"":4660}]","","","","","","","","","","","","","","","","","","","","","","","","","","","","","","","","","","","","","","","","","","","","","","","","","","","","","","","","","","","","","","","","","","","","","",""
"","rating_comprehension_check","","survey-multi-choice","3","64722","0.0-1.0-0.0-1.0","24","25736","female","26249","{""Q0"":""True"",""Q1"":""Mouse""}","","0","","","","","","","","","","","","","","","","","","","","","","","","","","","","","","","","","","","","","","","","","","","","","","","","","","","","","","","","","","","","","","","","","","","","",""
"","","","html-keyboard-response","4","68281","0.0-1.0-1.0","24","25736","female","3547","","","","68","","","","","","","","","","","","","","","","","","","","","","","","","","","","","","","","","","","","","","","","","","","","","","","","","","","","","","","","","","","","","","","","","","","",""
"","rating","","html-slider-response","5","74754","0.0-1.0-2.0","24","25736","female","6461","","","","","68","0","38","Stimuli/Experimental_stims/objects/art-lasovsky-8XddFc6NkBY-unsplash.jpg","","","","","","","","","","","","","","","","","","","","","","","","","","","","","","","","","","","","","","","","","","","","","","","","","","","","","","","","","","","","","","","",""
"","rating","","html-slider-response","6","78963","0.0-1.0-3.0","24","25736","female","4200","","","","","77","1","24","Stimuli/Experimental_stims/body_parts/clay-banks-LjqARJaJotc-unsplash.jpg","","","","","","","","","","","","","","","","","","","","","","","","","","","","","","","","","","","","","","","","","","","","","","","","","","","","","","","","","","","","","","","",""
"","rating","","html-slider-response","7","81845","0.0-1.0-4.0","24","25736","female","2872","","","","","79","2","13","Stimuli/Experimental_stims/faces/daniel-rigdon-dXmXKPP2L4E-unsplash.jpg","","","","","","","","","","","","","","","","","","","","","","","","","","","","","","","","","","","","","","","","","","","","","","","","","","","","","","","","","","","","","","","",""
"","rating","","html-slider-response","8","85249","0.0-1.0-5.0","24","25736","female","3393","","","","","77","3","2","Stimuli/Experimental_stims/outdoor_scenes/bruno-van-der-kraan-qez8mNJ3ilU-unsplash.jpg","","","","","","","","","","","","","","","","","","","","","","","","","","","","","","","","","","","","","","","","","","","","","","","","","","","","","","","","","","","","","","","",""
"","rating","","html-slider-response","9","89992","0.0-1.0-6.0","24","25736","female","4727","","","","","75","4","36","Stimuli/Experimental_stims/objects/alexander-andrews-JYGnB9gTCls-unsplash.jpg","","","","","","","","","","","","","","","","","","","","","","","","","","","","","","","","","","","","","","","","","","","","","","","","","","","","","","","","","","","","","","","",""
"","rating","","html-slider-response","10","93097","0.0-1.0-7.0","24","25736","female","3073","","","","","75","5","7","Stimuli/Experimental_stims/outdoor_scenes/petr-vysohlid-9fqwGqGLUxc-unsplash.jpg","","","","","","","","","","","","","","","","","","","","","","","","","","","","","","","","","","","","","","","","","","","","","","","","","","","","","","","","","","","","","","","",""
"","rating","","html-slider-response","11","106886","0.0-1.0-8.0","24","25736","female","13773","","","","","77","6","28","Stimuli/Experimental_stims/body_parts/ira-vishnevskaya-8DQAvdCby1I-unsplash.jpg","","","","","","","","","","","","","","","","","","","","","","","","","","","","","","","","","","","","","","","","","","","","","","","","","","","","","","","","","","","","","","","",""
"","rating","","html-slider-response","12","118249","0.0-1.0-9.0","24","25736","female","11336","","","","","72","7","14","Stimuli/Experimental_stims/faces/david-siglin-UuW4psOb388-unsplash.jpg","","","","","","","","","","","","","","","","","","","","","","","","","","","","","","","","","","","","","","","","","","","","","","","","","","","","","","","","","","","","","","","",""
"","rating","","html-slider-response","13","121969","0.0-1.0-10.0","24","25736","female","3707","","","","","75","8","23","Stimuli/Experimental_stims/faces/rikonavt-HQjfrvdTfak-unsplash.jpg","","","","","","","","","","","","","","","","","","","","","","","","","","","","","","","","","","","","","","","","","","","","","","","","","","","","","","","","","","","","","","","",""
"","rating","","html-slider-response","14","124708","0.0-1.0-11.0","24","25736","female","2722","","","","","77","9","39","Stimuli/Experimental_stims/objects/charlesdeluvio-1-nx1QR5dTE-unsplash.jpg","","","","","","","","","","","","","","","","","","","","","","","","","","","","","","","","","","","","","","","","","","","","","","","","","","","","","","","","","","","","","","","",""
"","rating","","html-slider-response","15","128821","0.0-1.0-12.0","24","25736","female","4086","","","","","80","10","11","Stimuli/Experimental_stims/outdoor_scenes/stephen-leonardi-gyIRjKPXupE-unsplash.jpg","","","","","","","","","","","","","","","","","","","","","","","","","","","","","","","","","","","","","","","","","","","","","","","","","","","","","","","","","","","","","","","",""
"","rating","","html-slider-response","16","132104","0.0-1.0-13.0","24","25736","female","3270","","","","","75","11","16","Stimuli/Experimental_stims/faces/freddy-kearney-o-ioeoATbIM-unsplash.jpg","","","","","","","","","","","","","","","","","","","","","","","","","","","","","","","","","","","","","","","","","","","","","","","","","","","","","","","","","","","","","","","",""
"","rating","","html-slider-response","17","135708","0.0-1.0-14.0","24","25736","female","3594","","","","","79","12","46","Stimuli/Experimental_stims/objects/mockup-graphics-PNsj6RiHAF4-unsplash.jpg","","","","","","","","","","","","","","","","","","","","","","","","","","","","","","","","","","","","","","","","","","","","","","","","","","","","","","","","","","","","","","","",""
"","rating","","html-slider-response","18","139130","0.0-1.0-15.0","24","25736","female","3408","","","","","74","13","20","Stimuli/Experimental_stims/faces/justin-chen-J7Cf1Gch49E-unsplash.jpg","","","","","","","","","","","","","","","","","","","","","","","","","","","","","","","","","","","","","","","","","","","","","","","","","","","","","","","","","","","","","","","",""
"","rating","","html-slider-response","19","143117","0.0-1.0-16.0","24","25736","female","3973","","","","","72","14","18","Stimuli/Experimental_stims/faces/jessica-radanavong-mrYkTuAesKE-unsplash.jpg","","","","","","","","","","","","","","","","","","","","","","","","","","","","","","","","","","","","","","","","","","","","","","","","","","","","","","","","","","","","","","","",""
"","rating","","html-slider-response","20","147471","0.0-1.0-17.0","24","25736","female","4341","","","","","70","15","42","Stimuli/Experimental_stims/objects/jess-bailey-nOeVi8DsN8U-unsplash.jpg","","","","","","","","","","","","","","","","","","","","","","","","","","","","","","","","","","","","","","","","","","","","","","","","","","","","","","","","","","","","","","","",""
"","rating","","html-slider-response","21","152397","0.0-1.0-18.0","24","25736","female","4916","","","","","72","16","5","Stimuli/Experimental_stims/outdoor_scenes/jeff-king-bJHWJeiHfHc-unsplash.jpg","","","","","","","","","","","","","","","","","","","","","","","","","","","","","","","","","","","","","","","","","","","","","","","","","","","","","","","","","","","","","","","",""
"","rating","","html-slider-response","22","156041","0.0-1.0-19.0","24","25736","female","3634","","","","","75","17","25","Stimuli/Experimental_stims/body_parts/engin-akyurt-Q2rfH3GW39c-unsplash.jpg","","","","","","","","","","","","","","","","","","","","","","","","","","","","","","","","","","","","","","","","","","","","","","","","","","","","","","","","","","","","","","","",""
"","rating","","html-slider-response","23","162710","0.0-1.0-20.0","24","25736","female","6656","","","","","67","18","29","Stimuli/Experimental_stims/body_parts/manuel-schinner-ZwjFuJ7ebpk-unsplash.jpg","","","","","","","","","","","","","","","","","","","","","","","","","","","","","","","","","","","","","","","","","","","","","","","","","","","","","","","","","","","","","","","",""
"","rating","","html-slider-response","24","166715","0.0-1.0-21.0","24","25736","female","3993","","","","","69","19","47","Stimuli/Experimental_stims/objects/ronaldo-arthur-vidal-Cdz_lvnl37k-unsplash.jpg","","","","","","","","","","","","","","","","","","","","","","","","","","","","","","","","","","","","","","","","","","","","","","","","","","","","","","","","","","","","","","","",""
"","rating","","html-slider-response","25","171024","0.0-1.0-22.0","24","25736","female","4283","","","","","73","20","4","Stimuli/Experimental_stims/outdoor_scenes/jarrett-kow-1ZOyYPOBn7I-unsplash.jpg","","","","","","","","","","","","","","","","","","","","","","","","","","","","","","","","","","","","","","","","","","","","","","","","","","","","","","","","","","","","","","","",""
"","rating","","html-slider-response","26","174370","0.0-1.0-23.0","24","25736","female","3332","","","","","70","21","31","Stimuli/Experimental_stims/body_parts/sincerely-media-VN6DbKajo5s-unsplash.jpg","","","","","","","","","","","","","","","","","","","","","","","","","","","","","","","","","","","","","","","","","","","","","","","","","","","","","","","","","","","","","","","",""
"","rating","","html-slider-response","27","190645","0.0-1.0-24.0","24","25736","female","16249","","","","","75","22","44","Stimuli/Experimental_stims/objects/kuiye-chen-NuOGFo4PudE-unsplash.jpg","","","","","","","","","","","","","","","","","","","","","","","","","","","","","","","","","","","","","","","","","","","","","","","","","","","","","","","","","","","","","","","",""
"","rating","","html-slider-response","28","195201","0.0-1.0-25.0","24","25736","female","4534","","","","","78","23","37","Stimuli/Experimental_stims/objects/alexander-andrews-VLGWE_SumrA-unsplash.jpg","","","","","","","","","","","","","","","","","","","","","","","","","","","","","","","","","","","","","","","","","","","","","","","","","","","","","","","","","","","","","","","",""
"","rating","","html-slider-response","29","204606","0.0-1.0-26.0","24","25736","female","9388","","","","","70","24","10","Stimuli/Experimental_stims/outdoor_scenes/shannon-kunkle-dM8INmkyDas-unsplash.jpg","","","","","","","","","","","","","","","","","","","","","","","","","","","","","","","","","","","","","","","","","","","","","","","","","","","","","","","","","","","","","","","",""
"","rating","","html-slider-response","30","209824","0.0-1.0-27.0","24","25736","female","5206","","","","","75","25","40","Stimuli/Experimental_stims/objects/fabian-blank-pElSkGRA2NU-unsplash.jpg","","","","","","","","","","","","","","","","","","","","","","","","","","","","","","","","","","","","","","","","","","","","","","","","","","","","","","","","","","","","","","","",""
"","rating","","html-slider-response","31","213626","0.0-1.0-28.0","24","25736","female","3792","","","","","76","26","9","Stimuli/Experimental_stims/outdoor_scenes/sergey-pesterev-y-b_FOmJXdg-unsplash.jpg","","","","","","","","","","","","","","","","","","","","","","","","","","","","","","","","","","","","","","","","","","","","","","","","","","","","","","","","","","","","","","","",""
"","rating","","html-slider-response","32","216761","0.0-1.0-29.0","24","25736","female","3118","","","","","67","27","41","Stimuli/Experimental_stims/objects/insung-yoon-w2JtIQQXoRU-unsplash.jpg","","","","","","","","","","","","","","","","","","","","","","","","","","","","","","","","","","","","","","","","","","","","","","","","","","","","","","","","","","","","","","","",""
"","rating","","html-slider-response","33","219927","0.0-1.0-30.0","24","25736","female","3156","","","","","71","28","8","Stimuli/Experimental_stims/outdoor_scenes/samsommer-vddccTqwal8-unsplash.jpg","","","","","","","","","","","","","","","","","","","","","","","","","","","","","","","","","","","","","","","","","","","","","","","","","","","","","","","","","","","","","","","",""
"","rating","","html-slider-response","34","224039","0.0-1.0-31.0","24","25736","female","4101","","","","","74","29","3","Stimuli/Experimental_stims/outdoor_scenes/henry-be-NLF6hTe4PAg-unsplash.jpg","","","","","","","","","","","","","","","","","","","","","","","","","","","","","","","","","","","","","","","","","","","","","","","","","","","","","","","","","","","","","","","",""
"","rating","","html-slider-response","35","226968","0.0-1.0-32.0","24","25736","female","2920","","","","","68","30","27","Stimuli/Experimental_stims/body_parts/heike-mintel-i_Gns0ELnLw-unsplash.jpg","","","","","","","","","","","","","","","","","","","","","","","","","","","","","","","","","","","","","","","","","","","","","","","","","","","","","","","","","","","","","","","",""
"","rating","","html-slider-response","36","232698","0.0-1.0-33.0","24","25736","female","5716","","","","","74","31","19","Stimuli/Experimental_stims/faces/joel-mott-LaK153ghdig-unsplash.jpg","","","","","","","","","","","","","","","","","","","","","","","","","","","","","","","","","","","","","","","","","","","","","","","","","","","","","","","","","","","","","","","",""
"","rating","","html-slider-response","37","238645","0.0-1.0-34.0","24","25736","female","5931","","","","","74","32","45","Stimuli/Experimental_stims/objects/leohoho-rngTKHXumy0-unsplash.jpg","","","","","","","","","","","","","","","","","","","","","","","","","","","","","","","","","","","","","","","","","","","","","","","","","","","","","","","","","","","","","","","",""
"","rating","","html-slider-response","38","242058","0.0-1.0-35.0","24","25736","female","3390","","","","","74","33","30","Stimuli/Experimental_stims/body_parts/mika-korhonen-Xodzxosar18-unsplash.jpg","","","","","","","","","","","","","","","","","","","","","","","","","","","","","","","","","","","","","","","","","","","","","","","","","","","","","","","","","","","","","","","",""
"","rating","","html-slider-response","39","246069","0.0-1.0-36.0","24","25736","female","3991","","","","","74","34","21","Stimuli/Experimental_stims/faces/leilani-angel-K84vnnzxmTQ-unsplash.jpg","","","","","","","","","","","","","","","","","","","","","","","","","","","","","","","","","","","","","","","","","","","","","","","","","","","","","","","","","","","","","","","",""
"","rating","","html-slider-response","40","249843","0.0-1.0-37.0","24","25736","female","3760","","","","","73","35","34","Stimuli/Experimental_stims/body_parts/wagner-santos-mBWMvIuVnso-unsplash.jpg","","","","","","","","","","","","","","","","","","","","","","","","","","","","","","","","","","","","","","","","","","","","","","","","","","","","","","","","","","","","","","","",""
"","rating","","html-slider-response","41","254402","0.0-1.0-38.0","24","25736","female","4540","","","","","68","36","35","Stimuli/Experimental_stims/body_parts/wc-so-KH4AAPjb-tI-unsplash.jpg","","","","","","","","","","","","","","","","","","","","","","","","","","","","","","","","","","","","","","","","","","","","","","","","","","","","","","","","","","","","","","","",""
"","rating","","html-slider-response","42","258683","0.0-1.0-39.0","24","25736","female","4266","","","","","69","37","15","Stimuli/Experimental_stims/faces/erik-lucatero-d2MSDujJl2g-unsplash.jpg","","","","","","","","","","","","","","","","","","","","","","","","","","","","","","","","","","","","","","","","","","","","","","","","","","","","","","","","","","","","","","","",""
"","rating","","html-slider-response","43","262001","0.0-1.0-40.0","24","25736","female","3296","","","","","78","38","1","Stimuli/Experimental_stims/outdoor_scenes/ashim-d-silva-S2Q5mdOrrVc-unsplash.jpg","","","","","","","","","","","","","","","","","","","","","","","","","","","","","","","","","","","","","","","","","","","","","","","","","","","","","","","","","","","","","","","",""
"","rating","","html-slider-response","44","266274","0.0-1.0-41.0","24","25736","female","4244","","","","","75","39","22","Stimuli/Experimental_stims/faces/ravi-patel-VMGAbeeJTKo-unsplash.jpg","","","","","","","","","","","","","","","","","","","","","","","","","","","","","","","","","","","","","","","","","","","","","","","","","","","","","","","","","","","","","","","",""
"","rating","","html-slider-response","45","269819","0.0-1.0-42.0","24","25736","female","3524","","","","","72","40","26","Stimuli/Experimental_stims/body_parts/engin-akyurt-x_3gyC42btc-unsplash.jpg","","","","","","","","","","","","","","","","","","","","","","","","","","","","","","","","","","","","","","","","","","","","","","","","","","","","","","","","","","","","","","","",""
"","rating","","html-slider-response","46","273048","0.0-1.0-43.0","24","25736","female","3216","","","","","74","41","0","Stimuli/Experimental_stims/outdoor_scenes/aleksandra-boguslawska-MS7KD9Ti7FQ-unsplash.jpg","","","","","","","","","","","","","","","","","","","","","","","","","","","","","","","","","","","","","","","","","","","","","","","","","","","","","","","","","","","","","","","",""
"","rating","","html-slider-response","47","278595","0.0-1.0-44.0","24","25736","female","5531","","","","","71","42","43","Stimuli/Experimental_stims/objects/jonathan-greenaway-Y4hGgeiFn3s-unsplash.jpg","","","","","","","","","","","","","","","","","","","","","","","","","","","","","","","","","","","","","","","","","","","","","","","","","","","","","","","","","","","","","","","",""
"","rating","","html-slider-response","48","293749","0.0-1.0-45.0","24","25736","female","15130","","","","","74","43","32","Stimuli/Experimental_stims/body_parts/towfiqu-barbhuiya-3AsiVDsZnHg-unsplash.jpg","","","","","","","","","","","","","","","","","","","","","","","","","","","","","","","","","","","","","","","","","","","","","","","","","","","","","","","","","","","","","","","",""
"","rating","","html-slider-response","49","296798","0.0-1.0-46.0","24","25736","female","3035","","","","","82","44","17","Stimuli/Experimental_stims/faces/good-faces-xmSWVeGEnJw-unsplash.jpg","","","","","","","","","","","","","","","","","","","","","","","","","","","","","","","","","","","","","","","","","","","","","","","","","","","","","","","","","","","","","","","",""
"","rating","","html-slider-response","50","300618","0.0-1.0-47.0","24","25736","female","3808","","","","","74","45","6","Stimuli/Experimental_stims/outdoor_scenes/meng-ji-8BH_M-53CyA-unsplash.jpg","","","","","","","","","","","","","","","","","","","","","","","","","","","","","","","","","","","","","","","","","","","","","","","","","","","","","","","","","","","","","","","",""
"","rating","","html-slider-response","51","303656","0.0-1.0-48.0","24","25736","female","3030","","","","","75","46","33","Stimuli/Experimental_stims/body_parts/tucker-good-36skLT5jZcc-unsplash.jpg","","","","","","","","","","","","","","","","","","","","","","","","","","","","","","","","","","","","","","","","","","","","","","","","","","","","","","","","","","","","","","","",""
"","rating","","html-slider-response","52","306533","0.0-1.0-49.0","24","25736","female","2861","","","","","83","47","12","Stimuli/Experimental_stims/faces/aiony-haust-jmATI5Q_YgY-unsplash.jpg","","","","","","","","","","","","","","","","","","","","","","","","","","","","","","","","","","","","","","","","","","","","","","","","","","","","","","","","","","","","","","","",""
"","localizer_instructions","","instructions","53","319496","0.0-2.0-0.0-0.0","24","25736","female","12861","","[{""page_index"":0,""viewing_time"":3795},{""page_index"":1,""viewing_time"":2038},{""page_index"":2,""viewing_time"":7027}]","","","","","","","","","","","","","","","","","","","","","","","","","","","","","","","","","","","","","","","","","","","","","","","","","","","","","","","","","","","","","","","","","","","","","",""
"","localizer_comprehension_check","","survey-multi-choice","54","338858","0.0-2.0-0.0-1.0","24","25736","female","19349","{""Q0"":""True"",""Q1"":""K"",""Q2"":""D""}","","0","","","","","","","","","","","","","","","","","","","","","","","","","","","","","","","","","","","","","","","","","","","","","","","","","","","","","","","","","","","","","","","","","","","","",""
"","","","html-keyboard-response","55","342222","0.0-2.0-1.0","24","25736","female","3354","","","","68","","","","","","","","","","","","","","","","","","","","","","","","","","","","","","","","","","","","","","","","","","","","","","","","","","","","","","","","","","","","","","","","","","","",""
"","localizer","","html-keyboard-response","56","342636","0.0-2.0-2.0-0.0","24","25736","female","NaN","","","","null","NaN","0","","Stimuli/Practice_stims/Localizer/annie-spratt-g9KFpAfQ5bc-unsplash.jpg","342222","0","NaN","","0","1","0","400","0","414","0","","","","","","","","","","","","","","","","","","","","","","","","","","","","","","","","","","","","","","","","","","","","","","","","","","","","",""
"","iti_localizer","","html-keyboard-response","57","342949","0.0-2.0-2.0-1.0","24","25736","female","null","","","","null","","0","","","342636","0","","","","","","300","400","313","414","300","","","","","","","","","","","","","","","","","","","","","","","","","","","","","","","","","","","","","","","","","","","","","","","","","","","",""
"","localizer","","html-keyboard-response","58","343436","0.0-2.0-2.1-0.1","24","25736","female","NaN","","","","null","NaN","0","","Stimuli/Practice_stims/Localizer/annie-spratt-g9KFpAfQ5bc-unsplash.jpg","342949","0","NaN","","0","1","0","400","700","487","727","","","","","","","","","","","","","","","","","","","","","","","","","","","","","","","","","","","","","","","","","","","","","","","","","","","","",""
"","iti_localizer","","html-keyboard-response","59","343758","0.0-2.0-2.1-1.1","24","25736","female","null","","","","null","","0","","","343436","0","","","","","","300","1100","322","1214","300","","","","","","","","","","","","","","","","","","","","","","","","","","","","","","","","","","","","","","","","","","","","","","","","","","","",""
"","localizer","","html-keyboard-response","60","344172","0.0-2.0-2.2-0.2","24","25736","female","NaN","","","","null","NaN","0","","Stimuli/Practice_stims/Localizer/annie-spratt-g9KFpAfQ5bc-unsplash.jpg","343758","0","NaN","","0","1","0","400","1400","414","1536","","","","","","","","","","","","","","","","","","","","","","","","","","","","","","","","","","","","","","","","","","","","","","","","","","","","",""
"","iti_localizer","","html-keyboard-response","61","344487","0.0-2.0-2.2-1.2","24","25736","female","null","","","","null","","0","","","344172","0","","","","","","300","1800","315","1950","300","","","","","","","","","","","","","","","","","","","","","","","","","","","","","","","","","","","","","","","","","","","","","","","","","","","",""
"","localizer","","html-keyboard-response","62","344895","0.0-2.0-2.3-0.3","24","25736","female","18","","","","75","1","0","","Stimuli/Practice_stims/Localizer/annie-spratt-g9KFpAfQ5bc-unsplash.jpg","344487","0","NaN","","0","0","0","400","2100","408","2265","","","","","","","","","","","","","","","","","","","","","","","","","","","","","","","","","","","","","","","","","","","","","","","","","","","","",""
"","iti_localizer","","html-keyboard-response","63","345209","0.0-2.0-2.3-1.3","24","25736","female","null","","","","null","","0","","","344895","0","","","","","","300","2500","314","2673","300","","","","","","","","","","","","","","","","","","","","","","","","","","","","","","","","","","","","","","","","","","","","","","","","","","","",""
"","localizer","","html-keyboard-response","64","345617","0.0-2.0-3.0-0.0","24","25736","female","59","","","","75","1","1","","Stimuli/Practice_stims/Localizer/becca-tapert-sY5RjMB1KkE-unsplash.jpg","345209","0","NaN","","0","0","0","400","2800","408","2987","","","","","","","","","","","","","","","","","","","","","","","","","","","","","","","","","","","","","","","","","","","","","","","","","","","","",""
"","iti_localizer","","html-keyboard-response","65","345952","0.0-2.0-3.0-1.0","24","25736","female","null","","","","null","","1","","","345617","0","","","","","","300","3200","335","3395","300","","","","","","","","","","","","","","","","","","","","","","","","","","","","","","","","","","","","","","","","","","","","","","","","","","","",""
"","localizer","","html-keyboard-response","66","346360","0.0-2.0-4.0-0.0","24","25736","female","76","","","","68","0","2","","Stimuli/Practice_stims/Localizer/charl-durand-bsfXvI25iNg-unsplash.jpg","345952","0","NaN","","1","0","0","400","3500","408","3730","","","","","","","","","","","","","","","","","","","","","","","","","","","","","","","","","","","","","","","","","","","","","","","","","","","","",""
"","iti_localizer","","html-keyboard-response","67","346667","0.0-2.0-4.0-1.0","24","25736","female","null","","","","null","","2","","","346360","0","","","","","","300","3900","307","4138","300","","","","","","","","","","","","","","","","","","","","","","","","","","","","","","","","","","","","","","","","","","","","","","","","","","","",""
"","localizer","","html-keyboard-response","68","347081","0.0-2.0-5.0-0.0","24","25736","female","1","","","","68","0","3","","Stimuli/Practice_stims/Localizer/nizar-albusaidy-B2r2SWAf5CE-unsplash.jpg","346667","0","NaN","","0","0","1","400","4200","414","4445","","","","","","","","","","","","","","","","","","","","","","","","","","","","","","","","","","","","","","","","","","","","","","","","","","","","",""
"","iti_localizer","","html-keyboard-response","69","347391","0.0-2.0-5.0-1.0","24","25736","female","null","","","","null","","3","","","347081","0","","","","","","300","4600","310","4859","300","","","","","","","","","","","","","","","","","","","","","","","","","","","","","","","","","","","","","","","","","","","","","","","","","","","",""
"","localizer","","html-keyboard-response","70","347812","0.0-2.0-6.0-0.0","24","25736","female","19","","","","68","0","4","","Stimuli/Practice_stims/Localizer/randy-fath-epf1tdtIIkM-unsplash.jpg","347391","0","NaN","","1","0","0","400","4900","421","5169","","","","","","","","","","","","","","","","","","","","","","","","","","","","","","","","","","","","","","","","","","","","","","","","","","","","",""
"","iti_localizer","","html-keyboard-response","71","348133","0.0-2.0-6.0-1.0","24","25736","female","null","","","","null","","4","","","347812","0","","","","","","300","5300","321","5590","300","","","","","","","","","","","","","","","","","","","","","","","","","","","","","","","","","","","","","","","","","","","","","","","","","","","",""
"","localizer","","html-keyboard-response","72","348541","0.0-2.0-7.0-0.0","24","25736","female","285","","","","75","1","5","","Stimuli/Practice_stims/Localizer/yassine-khalfalli-adsQ9d_Cx0c-unsplash.jpg","348133","0","NaN","","0","0","0","400","5600","408","5911","","","","","","","","","","","","","","","","","","","","","","","","","","","","","","","","","","","","","","","","","","","","","","","","","","","","",""
"","iti_localizer","","html-keyboard-response","73","348853","0.0-2.0-7.0-1.0","24","25736","female","null","","","","null","","5","","","348541","0","","","","","","300","6000","312","6319","300","","","","","","","","","","","","","","","","","","","","","","","","","","","","","","","","","","","","","","","","","","","","","","","","","","","",""
"","practice_over","","html-keyboard-response","74","349155","0.0-2.0-7.0-2.0-0.0","24","25736","female","293","","","","68","","","","","","","","","","","","","","","","","","","","","","","","","","","","","","","","","","","","","","","","","","","","","","","","","","","","","","","","","","","","","","","","","","","",""
"","start_run","","html-keyboard-response","75","351693","0.0-2.0-7.0-2.0-1.0","24","25736","female","2526","","","","84","","","","","","","","","","","","","","","","","","","","","","","","","","","","","","","","","","","","","","","","","","","","","","","","","","","","","","","","","","","","","","","","","","","",""
"","localizer","","html-keyboard-response","76","352157","0.0-2.0-8.0-0.0","24","25736","female","NaN","","","","null","NaN","6","","Stimuli/Experimental_stims/localizer/faces/christina-wocintechchat-com-0Zx1bDv5BNY-unsplash.jpg","351693","1","faces","","0","1","0","400","0","464","0","","","","","","","","","","","","","","","","","","","","","","","","","","","","","","","","","","","","","","","","","","","","","","","","","","","","",""
"","iti_localizer","","html-keyboard-response","77","352474","0.0-2.0-8.0-1.0","24","25736","female","null","","","","null","","6","","","352157","1","","","","","","300","400","317","464","300","","","","","","","","","","","","","","","","","","","","","","","","","","","","","","","","","","","","","","","","","","","","","","","","","","","",""
"","localizer","","html-keyboard-response","78","352893","0.0-2.0-9.0-0.0","24","25736","female","NaN","","","","null","NaN","7","","Stimuli/Experimental_stims/localizer/faces/jeffery-erhunse-BQMZ5ligqps-unsplash.jpg","352474","1","faces","","0","1","0","400","700","419","781","","","","","","","","","","","","","","","","","","","","","","","","","","","","","","","","","","","","","","","","","","","","","","","","","","","","",""
"","iti_localizer","","html-keyboard-response","79","353263","0.0-2.0-9.0-1.0","24","25736","female","null","","","","null","","7","","","352893","1","","","","","","300","1100","370","1200","300","","","","","","","","","","","","","","","","","","","","","","","","","","","","","","","","","","","","","","","","","","","","","","","","","","","",""
"","localizer","","html-keyboard-response","80","353673","0.0-2.0-10.0-0.0","24","25736","female","131","","","","75","1","8","","Stimuli/Experimental_stims/localizer/faces/matheus-ferrero-W7b3eDUb_2I-unsplash.jpg","353263","1","faces","","0","0","0","400","1400","410","1570","","","","","","","","","","","","","","","","","","","","","","","","","","","","","","","","","","","","","","","","","","","","","","","","","","","","",""
"","iti_localizer","","html-keyboard-response","81","353983","0.0-2.0-10.0-1.0","24","25736","female","null","","","","null","","8","","","353673","1","","","","","","300","1800","310","1980","300","","","","","","","","","","","","","","","","","","","","","","","","","","","","","","","","","","","","","","","","","","","","","","","","","","","",""
"","localizer","","html-keyboard-response","82","354403","0.0-2.0-11.0-0.0","24","25736","female","NaN","","","","null","NaN","9","","Stimuli/Experimental_stims/localizer/faces/jurica-koletic-7YVZYZeITc8-unsplash.jpg","353983","1","faces","","1","1","0","400","2100","420","2290","","","","","","","","","","","","","","","","","","","","","","","","","","","","","","","","","","","","","","","","","","","","","","","","","","","","",""
"","iti_localizer","","html-keyboard-response","83","354724","0.0-2.0-11.0-1.0","24","25736","female","null","","","","null","","9","","","354403","1","","","","","","300","2500","321","2710","300","","","","","","","","","","","","","","","","","","","","","","","","","","","","","","","","","","","","","","","","","","","","","","","","","","","",""
"","localizer","","html-keyboard-response","84","355147","0.0-2.0-12.0-0.0","24","25736","female","NaN","","","","null","NaN","10","","Stimuli/Experimental_stims/localizer/faces/drew-hays-agGIKYs4mYs-unsplash.jpg","354724","1","faces","","0","1","0","400","2800","423","3031","","","","","","","","","","","","","","","","","","","","","","","","","","","","","","","","","","","","","","","","","","","","","","","","","","","","",""
"","iti_localizer","","html-keyboard-response","85","355452","0.0-2.0-12.0-1.0","24","25736","female","null","","","","null","","10","","","355147","1","","","","","","300","3200","305","3454","300","","","","","","","","","","","","","","","","","","","","","","","","","","","","","","","","","","","","","","","","","","","","","","","","","","","",""
"","localizer","","html-keyboard-response","86","355865","0.0-2.0-13.0-0.0","24","25736","female","242","","","","68","0","11","","Stimuli/Experimental_stims/localizer/faces/rui-silvestre-hAMJpesMeDE-unsplash.jpg","355452","1","faces","","0","0","1","400","3500","413","3759","","","","","","","","","","","","","","","","","","","","","","","","","","","","","","","","","","","","","","","","","","","","","","","","","","","","",""
"","iti_localizer","","html-keyboard-response","87","356186","0.0-2.0-13.0-1.0","24","25736","female","null","","","","null","","11","","","355865","1","","","","","","300","3900","321","4172","300","","","","","","","","","","","","","","","","","","","","","","","","","","","","","","","","","","","","","","","","","","","","","","","","","","","",""
"","localizer","","html-keyboard-response","88","356597","0.0-2.0-14.0-0.0","24","25736","female","283","","","","68","0","12","","Stimuli/Experimental_stims/localizer/faces/sean-kong--1B_y4wGs-s-unsplash.jpg","356186","1","faces","","0","0","1","400","4200","411","4493","","","","","","","","","","","","","","","","","","","","","","","","","","","","","","","","","","","","","","","","","","","","","","","","","","","","",""
"","iti_localizer","","html-keyboard-response","89","356949","0.0-2.0-14.0-1.0","24","25736","female","null","","","","null","","12","","","356597","1","","","","","","300","4600","352","4904","300","","","","","","","","","","","","","","","","","","","","","","","","","","","","","","","","","","","","","","","","","","","","","","","","","","","",""
"","localizer","","html-keyboard-response","90","357378","0.0-2.0-15.0-0.0","24","25736","female","323","","","","68","0","13","","Stimuli/Experimental_stims/localizer/faces/vince-fleming-j3lf-Jn6deo-unsplash.jpg","356949","1","faces","","0","0","1","400","4900","429","5256","","","","","","","","","","","","","","","","","","","","","","","","","","","","","","","","","","","","","","","","","","","","","","","","","","","","",""
"","iti_localizer","","html-keyboard-response","91","357686","0.0-2.0-15.0-1.0","24","25736","female","null","","","","null","","13","","","357378","1","","","","","","300","5300","308","5685","300","","","","","","","","","","","","","","","","","","","","","","","","","","","","","","","","","","","","","","","","","","","","","","","","","","","",""
"","localizer","","html-keyboard-response","92","358213","0.0-2.0-16.0-0.0","24","25736","female","348","","","","68","0","14","","Stimuli/Experimental_stims/localizer/faces/tyler-nix-ZGa9d1a_4tA-unsplash.jpg","357686","1","faces","","0","0","1","400","5600","527","5993","","","","","","","","","","","","","","","","","","","","","","","","","","","","","","","","","","","","","","","","","","","","","","","","","","","","",""
"","iti_localizer","","html-keyboard-response","93","358547","0.0-2.0-16.0-1.0","24","25736","female","null","","","","null","","14","","","358213","1","","","","","","300","6000","334","6520","300","","","","","","","","","","","","","","","","","","","","","","","","","","","","","","","","","","","","","","","","","","","","","","","","","","","",""
"","localizer","","html-keyboard-response","94","358956","0.0-2.0-17.0-0.0","24","25736","female","373","","","","68","0","15","","Stimuli/Experimental_stims/localizer/faces/abstral-official-cyOKLSgkgCE-unsplash.jpg","358547","1","faces","","0","0","1","400","6300","409","6854","","","","","","","","","","","","","","","","","","","","","","","","","","","","","","","","","","","","","","","","","","","","","","","","","","","","",""
"","iti_localizer","","html-keyboard-response","95","359272","0.0-2.0-17.0-1.0","24","25736","female","null","","","","null","","15","","","358956","1","","","","","","300","6700","316","7263","300","","","","","","","","","","","","","","","","","","","","","","","","","","","","","","","","","","","","","","","","","","","","","","","","","","","",""
"","localizer","","html-keyboard-response","96","359694","0.0-2.0-18.0-0.0","24","25736","female","NaN","","","","null","NaN","16","","Stimuli/Experimental_stims/localizer/faces/ethan-haddox-__ng3cRXmFE-unsplash.jpg","359272","1","faces","","0","1","0","400","7000","422","7579","","","","","","","","","","","","","","","","","","","","","","","","","","","","","","","","","","","","","","","","","","","","","","","","","","","","",""
"","iti_localizer","","html-keyboard-response","97","360017","0.0-2.0-18.0-1.0","24","25736","female","null","","","","null","","16","","","359694","1","","","","","","300","7400","323","8001","300","","","","","","","","","","","","","","","","","","","","","","","","","","","","","","","","","","","","","","","","","","","","","","","","","","","",""
"","localizer","","html-keyboard-response","98","360433","0.0-2.0-19.0-0.0","24","25736","female","299","","","","68","0","17","","Stimuli/Experimental_stims/localizer/faces/foto-sushi-6anudmpILw4-unsplash.jpg","360017","1","faces","","0","0","1","400","7700","416","8324","","","","","","","","","","","","","","","","","","","","","","","","","","","","","","","","","","","","","","","","","","","","","","","","","","","","",""
"","iti_localizer","","html-keyboard-response","99","360790","0.0-2.0-19.0-1.0","24","25736","female","null","","","","null","","17","","","360433","1","","","","","","300","8100","357","8740","300","","","","","","","","","","","","","","","","","","","","","","","","","","","","","","","","","","","","","","","","","","","","","","","","","","","",""
"","localizer","","html-keyboard-response","100","361208","0.0-2.0-20.0-0.0","24","25736","female","NaN","","","","null","NaN","18","","Stimuli/Experimental_stims/localizer/faces/christian-ferrer-8vT-DgHZDG4-unsplash.jpg","360790","1","faces","","0","1","0","400","8400","418","9097","","","","","","","","","","","","","","","","","","","","","","","","","","","","","","","","","","","","","","","","","","","","","","","","","","","","",""
"","iti_localizer","","html-keyboard-response","101","361521","0.0-2.0-20.0-1.0","24","25736","female","null","","","","null","","18","","","361208","1","","","","","","300","8800","313","9515","300","","","","","","","","","","","","","","","","","","","","","","","","","","","","","","","","","","","","","","","","","","","","","","","","","","","",""
"","localizer","","html-keyboard-response","102","361956","0.0-2.0-21.0-0.0","24","25736","female","NaN","","","","null","NaN","19","","Stimuli/Experimental_stims/localizer/faces/stephanie-nakagawa-ADSKIn0ScDg-unsplash.jpg","361521","1","faces","","0","1","0","400","9100","435","9828","","","","","","","","","","","","","","","","","","","","","","","","","","","","","","","","","","","","","","","","","","","","","","","","","","","","",""
"","iti_localizer","","html-keyboard-response","103","362280","0.0-2.0-21.0-1.0","24","25736","female","null","","","","null","","19","","","361956","1","","","","","","300","9500","324","10263","300","","","","","","","","","","","","","","","","","","","","","","","","","","","","","","","","","","","","","","","","","","","","","","","","","","","",""
"","localizer","","html-keyboard-response","104","362698","0.0-2.0-22.0-0.0","24","25736","female","2","","","","68","0","20","","Stimuli/Experimental_stims/localizer/faces/toa-heftiba-2O1EUSTRBrY-unsplash.jpg","362280","1","faces","","1","0","0","400","9800","418","10587","","","","","","","","","","","","","","","","","","","","","","","","","","","","","","","","","","","","","","","","","","","","","","","","","","","","",""
"","iti_localizer","","html-keyboard-response","105","363017","0.0-2.0-22.0-1.0","24","25736","female","null","","","","null","","20","","","362698","1","","","","","","300","10200","319","11005","300","","","","","","","","","","","","","","","","","","","","","","","","","","","","","","","","","","","","","","","","","","","","","","","","","","","",""
"","localizer","","html-keyboard-response","106","363524","0.0-2.0-23.0-0.0","24","25736","female","NaN","","","","null","NaN","21","","Stimuli/Experimental_stims/localizer/faces/darshan-patel-QJEVpydulGs-unsplash.jpg","363017","1","faces","","0","1","0","400","10500","507","11324","","","","","","","","","","","","","","","","","","","","","","","","","","","","","","","","","","","","","","","","","","","","","","","","","","","","",""
"","iti_localizer","","html-keyboard-response","107","363842","0.0-2.0-23.0-1.0","24","25736","female","null","","","","null","","21","","","363524","1","","","","","","300","10900","318","11831","300","","","","","","","","","","","","","","","","","","","","","","","","","","","","","","","","","","","","","","","","","","","","","","","","","","","",""
"","localizer","","html-keyboard-response","108","364262","0.0-2.0-24.0-0.0","24","25736","female","192","","","","68","0","22","","Stimuli/Experimental_stims/localizer/faces/mubariz-mehdizadeh-o-wlIFT4zE4-unsplash.jpg","363842","1","faces","","0","0","1","400","11200","420","12149","","","","","","","","","","","","","","","","","","","","","","","","","","","","","","","","","","","","","","","","","","","","","","","","","","","","",""
"","iti_localizer","","html-keyboard-response","109","364579","0.0-2.0-24.0-1.0","24","25736","female","null","","","","null","","22","","","364262","1","","","","","","300","11600","317","12569","300","","","","","","","","","","","","","","","","","","","","","","","","","","","","","","","","","","","","","","","","","","","","","","","","","","","",""
"","localizer","","html-keyboard-response","110","364993","0.0-2.0-25.0-0.0","24","25736","female","52","","","","68","0","23","","Stimuli/Experimental_stims/localizer/faces/midas-hofstra-tidSLv-UaNs-unsplash.jpg","364579","1","faces","","0","0","1","400","11900","414","12886","","","","","","","","","","","","","","","","","","","","","","","","","","","","","","","","","","","","","","","","","","","","","","","","","","","","",""
"","iti_localizer","","html-keyboard-response","111","365316","0.0-2.0-25.0-1.0","24","25736","female","null","","","","null","","23","","","364993","1","","","","","","300","12300","323","13300","300","","","","","","","","","","","","","","","","","","","","","","","","","","","","","","","","","","","","","","","","","","","","","","","","","","","",""
"","localizer","","html-keyboard-response","112","365754","0.0-2.0-26.0-0.0","24","25736","female","86","","","","68","0","24","","Stimuli/Experimental_stims/localizer/faces/toa-heftiba-O3ymvT7Wf9U-unsplash.jpg","365316","1","faces","","0","0","1","400","12600","438","13623","","","","","","","","","","","","","","","","","","","","","","","","","","","","","","","","","","","","","","","","","","","","","","","","","","","","",""
"","iti_localizer","","html-keyboard-response","113","366081","0.0-2.0-26.0-1.0","24","25736","female","null","","","","null","","24","","","365754","1","","","","","","300","13000","327","14061","300","","","","","","","","","","","","","","","","","","","","","","","","","","","","","","","","","","","","","","","","","","","","","","","","","","","",""
"","localizer","","html-keyboard-response","114","366494","0.0-2.0-27.0-0.0","24","25736","female","58","","","","68","0","25","","Stimuli/Experimental_stims/localizer/faces/katsiaryna-endruszkiewicz-BteCp6aq4GI-unsplash.jpg","366081","1","faces","","0","0","1","400","13300","413","14388","","","","","","","","","","","","","","","","","","","","","","","","","","","","","","","","","","","","","","","","","","","","","","","","","","","","",""
"","iti_localizer","","html-keyboard-response","115","380508","0.0-2.0-27.0-1.0","24","25736","female","null","","","","null","","25","","","366494","1","","","","","","14000","13700","14014","14801","14000","","","","","","","","","","","","","","","","","","","","","","","","","","","","","","","","","","","","","","","","","","","","","","","","","","","",""
"","localizer","","html-keyboard-response","116","380932","0.0-2.0-28.0-0.0","24","25736","female","234","","","","68","0","26","","Stimuli/Experimental_stims/localizer/outdoor_scenes/jaanus-jagomagi-FddgewYQF2M-unsplash.jpg","380508","1","outdoor_scenes","","0","0","1","400","27700","424","28815","","","","","","","","","","","","","","","","","","","","","","","","","","","","","","","","","","","","","","","","","","","","","","","","","","","","",""
"","iti_localizer","","html-keyboard-response","117","381248","0.0-2.0-28.0-1.0","24","25736","female","null","","","","null","","26","","","380932","1","","","","","","300","28100","316","29239","300","","","","","","","","","","","","","","","","","","","","","","","","","","","","","","","","","","","","","","","","","","","","","","","","","","","",""
"","localizer","","html-keyboard-response","118","381671","0.0-2.0-29.0-0.0","24","25736","female","NaN","","","","null","NaN","27","","Stimuli/Experimental_stims/localizer/outdoor_scenes/v2osk-1Z2niiBPg5A-unsplash.jpg","381248","1","outdoor_scenes","","1","1","0","400","28400","423","29555","","","","","","","","","","","","","","","","","","","","","","","","","","","","","","","","","","","","","","","","","","","","","","","","","","","","",""
"","iti_localizer","","html-keyboard-response","119","381989","0.0-2.0-29.0-1.0","24","25736","female","null","","","","null","","27","","","381671","1","","","","","","300","28800","318","29978","300","","","","","","","","","","","","","","","","","","","","","","","","","","","","","","","","","","","","","","","","","","","","","","","","","","","",""
"","localizer","","html-keyboard-response","120","382397","0.0-2.0-30.0-0.0","24","25736","female","NaN","","","","null","NaN","28","","Stimuli/Experimental_stims/localizer/outdoor_scenes/wai-siew-mTFyV8oNDzU-unsplash.jpg","381989","1","outdoor_scenes","","0","1","0","400","29100","408","30296","","","","","","","","","","","","","","","","","","","","","","","","","","","","","","","","","","","","","","","","","","","","","","","","","","","","",""
"","iti_localizer","","html-keyboard-response","121","382708","0.0-2.0-30.0-1.0","24","25736","female","null","","","","null","","28","","","382397","1","","","","","","300","29500","311","30704","300","","","","","","","","","","","","","","","","","","","","","","","","","","","","","","","","","","","","","","","","","","","","","","","","","","","",""
"","localizer","","html-keyboard-response","122","383124","0.0-2.0-31.0-0.0","24","25736","female","NaN","","","","null","NaN","29","","Stimuli/Experimental_stims/localizer/outdoor_scenes/jay-cai-F_laX9E8CUo-unsplash.jpg","382708","1","outdoor_scenes","","0","1","0","400","29800","416","31015","","","","","","","","","","","","","","","","","","","","","","","","","","","","","","","","","","","","","","","","","","","","","","","","","","","","",""
"","iti_localizer","","html-keyboard-response","123","383449","0.0-2.0-31.0-1.0","24","25736","female","null","","","","null","","29","","","383124","1","","","","","","300","30200","325","31431","300","","","","","","","","","","","","","","","","","","","","","","","","","","","","","","","","","","","","","","","","","","","","","","","","","","","",""
"","localizer","","html-keyboard-response","124","383871","0.0-2.0-32.0-0.0","24","25736","female","132","","","","68","0","30","","Stimuli/Experimental_stims/localizer/outdoor_scenes/jeremy-cai-ucYWe5mzTMU-unsplash.jpg","383449","1","outdoor_scenes","","0","0","1","400","30500","422","31756","","","","","","","","","","","","","","","","","","","","","","","","","","","","","","","","","","","","","","","","","","","","","","","","","","","","",""
"","iti_localizer","","html-keyboard-response","125","384184","0.0-2.0-32.0-1.0","24","25736","female","null","","","","null","","30","","","383871","1","","","","","","300","30900","313","32178","300","","","","","","","","","","","","","","","","","","","","","","","","","","","","","","","","","","","","","","","","","","","","","","","","","","","",""
"","localizer","","html-keyboard-response","126","384602","0.0-2.0-33.0-0.0","24","25736","female","405","","","","68","0","31","","Stimuli/Experimental_stims/localizer/outdoor_scenes/erol-ahmed-d3pTF3r_hwY-unsplash.jpg","384184","1","outdoor_scenes","","0","0","1","400","31200","418","32491","","","","","","","","","","","","","","","","","","","","","","","","","","","","","","","","","","","","","","","","","","","","","","","","","","","","",""
"","iti_localizer","","html-keyboard-response","127","384911","0.0-2.0-33.0-1.0","24","25736","female","null","","","","null","","31","","","384602","1","","","","","","300","31600","309","32909","300","","","","","","","","","","","","","","","","","","","","","","","","","","","","","","","","","","","","","","","","","","","","","","","","","","","",""
"","localizer","","html-keyboard-response","128","385331","0.0-2.0-34.0-0.0","24","25736","female","409","","","","68","0","32","","Stimuli/Experimental_stims/localizer/outdoor_scenes/quino-al-vmZ2DehWQ3Q-unsplash.jpg","384911","1","outdoor_scenes","","0","0","1","400","31900","420","33218","","","","","","","","","","","","","","","","","","","","","","","","","","","","","","","","","","","","","","","","","","","","","","","","","","","","",""
"","iti_localizer","","html-keyboard-response","129","385645","0.0-2.0-34.0-1.0","24","25736","female","null","","","","null","","32","","","385331","1","","","","","","300","32300","314","33638","300","","","","","","","","","","","","","","","","","","","","","","","","","","","","","","","","","","","","","","","","","","","","","","","","","","","",""
"","localizer","","html-keyboard-response","130","386169","0.0-2.0-35.0-0.0","24","25736","female","77","","","","68","0","33","","Stimuli/Experimental_stims/localizer/outdoor_scenes/kenneth-thewissen-D76DklsG-5U-unsplash.jpg","385645","1","outdoor_scenes","","0","0","1","400","32600","524","33952","","","","","","","","","","","","","","","","","","","","","","","","","","","","","","","","","","","","","","","","","","","","","","","","","","","","",""
"","iti_localizer","","html-keyboard-response","131","386478","0.0-2.0-35.0-1.0","24","25736","female","null","","","","null","","33","","","386169","1","","","","","","300","33000","309","34476","300","","","","","","","","","","","","","","","","","","","","","","","","","","","","","","","","","","","","","","","","","","","","","","","","","","","",""
"","localizer","","html-keyboard-response","132","386892","0.0-2.0-36.0-0.0","24","25736","female","229","","","","68","0","34","","Stimuli/Experimental_stims/localizer/outdoor_scenes/johny-goerend-U_diPCXCBxU-unsplash.jpg","386478","1","outdoor_scenes","","0","0","1","400","33300","414","34785","","","","","","","","","","","","","","","","","","","","","","","","","","","","","","","","","","","","","","","","","","","","","","","","","","","","",""
"","iti_localizer","","html-keyboard-response","133","387217","0.0-2.0-36.0-1.0","24","25736","female","null","","","","null","","34","","","386892","1","","","","","","300","33700","325","35199","300","","","","","","","","","","","","","","","","","","","","","","","","","","","","","","","","","","","","","","","","","","","","","","","","","","","",""
"","localizer","","html-keyboard-response","134","387635","0.0-2.0-37.0-0.0","24","25736","female","332","","","","68","0","35","","Stimuli/Experimental_stims/localizer/outdoor_scenes/ken-cheung-KonWFWUaAuk-unsplash.jpg","387217","1","outdoor_scenes","","0","0","1","400","34000","418","35524","","","","","","","","","","","","","","","","","","","","","","","","","","","","","","","","","","","","","","","","","","","","","","","","","","","","",""
"","iti_localizer","","html-keyboard-response","135","387951","0.0-2.0-37.0-1.0","24","25736","female","null","","","","null","","35","","","387635","1","","","","","","300","34400","316","35942","300","","","","","","","","","","","","","","","","","","","","","","","","","","","","","","","","","","","","","","","","","","","","","","","","","","","",""
"","localizer","","html-keyboard-response","136","388366","0.0-2.0-38.0-0.0","24","25736","female","5","","","","68","0","36","","Stimuli/Experimental_stims/localizer/outdoor_scenes/alessio-furlan-Vw3a0HgE7AM-unsplash.jpg","387951","1","outdoor_scenes","","0","0","1","400","34700","415","36258","","","","","","","","","","","","","","","","","","","","","","","","","","","","","","","","","","","","","","","","","","","","","","","","","","","","",""
"","iti_localizer","","html-keyboard-response","137","388682","0.0-2.0-38.0-1.0","24","25736","female","null","","","","null","","36","","","388366","1","","","","","","300","35100","316","36673","300","","","","","","","","","","","","","","","","","","","","","","","","","","","","","","","","","","","","","","","","","","","","","","","","","","","",""
"","localizer","","html-keyboard-response","138","389107","0.0-2.0-39.0-0.0","24","25736","female","5","","","","68","0","37","","Stimuli/Experimental_stims/localizer/outdoor_scenes/ricardo-gomez-angel-dTSaC-S-7fs-unsplash.jpg","388682","1","outdoor_scenes","","0","0","1","400","35400","425","36989","","","","","","","","","","","","","","","","","","","","","","","","","","","","","","","","","","","","","","","","","","","","","","","","","","","","",""
"","iti_localizer","","html-keyboard-response","139","389421","0.0-2.0-39.0-1.0","24","25736","female","null","","","","null","","37","","","389107","1","","","","","","300","35800","314","37414","300","","","","","","","","","","","","","","","","","","","","","","","","","","","","","","","","","","","","","","","","","","","","","","","","","","","",""
"","localizer","","html-keyboard-response","140","389836","0.0-2.0-40.0-0.0","24","25736","female","305","","","","68","0","38","","Stimuli/Experimental_stims/localizer/outdoor_scenes/samuel-ferrara-IEHPDNk2-8w-unsplash.jpg","389421","1","outdoor_scenes","","0","0","1","400","36100","415","37728","","","","","","","","","","","","","","","","","","","","","","","","","","","","","","","","","","","","","","","","","","","","","","","","","","","","",""
"","iti_localizer","","html-keyboard-response","141","390156","0.0-2.0-40.0-1.0","24","25736","female","null","","","","null","","38","","","389836","1","","","","","","300","36500","320","38143","300","","","","","","","","","","","","","","","","","","","","","","","","","","","","","","","","","","","","","","","","","","","","","","","","","","","",""
"","localizer","","html-keyboard-response","142","390572","0.0-2.0-41.0-0.0","24","25736","female","179","","","","68","0","39","","Stimuli/Experimental_stims/localizer/outdoor_scenes/pietro-de-grandi-T7K4aEPoGGk-unsplash.jpg","390156","1","outdoor_scenes","","0","0","1","400","36800","416","38463","","","","","","","","","","","","","","","","","","","","","","","","","","","","","","","","","","","","","","","","","","","","","","","","","","","","",""
"","iti_localizer","","html-keyboard-response","143","390903","0.0-2.0-41.0-1.0","24","25736","female","null","","","","null","","39","","","390572","1","","","","","","300","37200","331","38879","300","","","","","","","","","","","","","","","","","","","","","","","","","","","","","","","","","","","","","","","","","","","","","","","","","","","",""
"","localizer","","html-keyboard-response","144","391328","0.0-2.0-42.0-0.0","24","25736","female","137","","","","68","0","40","","Stimuli/Experimental_stims/localizer/outdoor_scenes/tomasz-filipek-CUWC-6MRcNg-unsplash.jpg","390903","1","outdoor_scenes","","0","0","1","400","37500","425","39210","","","","","","","","","","","","","","","","","","","","","","","","","","","","","","","","","","","","","","","","","","","","","","","","","","","","",""
"","iti_localizer","","html-keyboard-response","145","391644","0.0-2.0-42.0-1.0","24","25736","female","null","","","","null","","40","","","391328","1","","","","","","300","37900","316","39635","300","","","","","","","","","","","","","","","","","","","","","","","","","","","","","","","","","","","","","","","","","","","","","","","","","","","",""
"","localizer","","html-keyboard-response","146","392060","0.0-2.0-43.0-0.0","24","25736","female","48","","","","68","0","41","","Stimuli/Experimental_stims/localizer/outdoor_scenes/cayetano-gil-rguHxZmOF5U-unsplash.jpg","391644","1","outdoor_scenes","","0","0","1","400","38200","416","39951","","","","","","","","","","","","","","","","","","","","","","","","","","","","","","","","","","","","","","","","","","","","","","","","","","","","",""
"","iti_localizer","","html-keyboard-response","147","392375","0.0-2.0-43.0-1.0","24","25736","female","null","","","","null","","41","","","392060","1","","","","","","300","38600","315","40367","300","","","","","","","","","","","","","","","","","","","","","","","","","","","","","","","","","","","","","","","","","","","","","","","","","","","",""
"","localizer","","html-keyboard-response","148","392795","0.0-2.0-44.0-0.0","24","25736","female","9","","","","68","0","42","","Stimuli/Experimental_stims/localizer/outdoor_scenes/nikola-majksner-hXNGeAFOgT4-unsplash.jpg","392375","1","outdoor_scenes","","0","0","1","400","38900","420","40682","","","","","","","","","","","","","","","","","","","","","","","","","","","","","","","","","","","","","","","","","","","","","","","","","","","","",""
"","iti_localizer","","html-keyboard-response","149","393102","0.0-2.0-44.0-1.0","24","25736","female","null","","","","null","","42","","","392795","1","","","","","","300","39300","307","41102","300","","","","","","","","","","","","","","","","","","","","","","","","","","","","","","","","","","","","","","","","","","","","","","","","","","","",""
"","localizer","","html-keyboard-response","150","393513","0.0-2.0-45.0-0.0","24","25736","female","77","","","","68","0","43","","Stimuli/Experimental_stims/localizer/outdoor_scenes/wil-stewart-pHANr-CpbYM-unsplash.jpg","393102","1","outdoor_scenes","","1","0","0","400","39600","411","41409","","","","","","","","","","","","","","","","","","","","","","","","","","","","","","","","","","","","","","","","","","","","","","","","","","","","",""
"","iti_localizer","","html-keyboard-response","151","393818","0.0-2.0-45.0-1.0","24","25736","female","null","","","","null","","43","","","393513","1","","","","","","300","40000","305","41820","300","","","","","","","","","","","","","","","","","","","","","","","","","","","","","","","","","","","","","","","","","","","","","","","","","","","",""
"","localizer","","html-keyboard-response","152","394265","0.0-2.0-46.0-0.0","24","25736","female","141","","","","68","0","44","","Stimuli/Experimental_stims/localizer/outdoor_scenes/chang-qing-2YQoKbyGvDc-unsplash.jpg","393818","1","outdoor_scenes","","0","0","1","400","40300","447","42125","","","","","","","","","","","","","","","","","","","","","","","","","","","","","","","","","","","","","","","","","","","","","","","","","","","","",""
"","iti_localizer","","html-keyboard-response","153","394617","0.0-2.0-46.0-1.0","24","25736","female","null","","","","null","","44","","","394265","1","","","","","","300","40700","352","42572","300","","","","","","","","","","","","","","","","","","","","","","","","","","","","","","","","","","","","","","","","","","","","","","","","","","","",""
"","localizer","","html-keyboard-response","154","395040","0.0-2.0-47.0-0.0","24","25736","female","66","","","","68","0","45","","Stimuli/Experimental_stims/localizer/outdoor_scenes/solotravelgoals-7kLufxYoqWk-unsplash.jpg","394617","1","outdoor_scenes","","0","0","1","400","41000","423","42924","","","","","","","","","","","","","","","","","","","","","","","","","","","","","","","","","","","","","","","","","","","","","","","","","","","","",""
"","iti_localizer","","html-keyboard-response","155","409080","0.0-2.0-47.0-1.0","24","25736","female","null","","","","null","","45","","","395040","1","","","","","","14000","41400","14040","43347","14000","","","","","","","","","","","","","","","","","","","","","","","","","","","","","","","","","","","","","","","","","","","","","","","","","","","",""
"","localizer","","html-keyboard-response","156","409494","0.0-2.0-48.0-0.0","24","25736","female","38","","","","68","0","46","","Stimuli/Experimental_stims/localizer/body_parts/jeremy-bishop-mLd3hAaH2ns-unsplash.jpg","409080","1","body_parts","","0","0","1","400","55400","414","57387","","","","","","","","","","","","","","","","","","","","","","","","","","","","","","","","","","","","","","","","","","","","","","","","","","","","",""
"","iti_localizer","","html-keyboard-response","157","409850","0.0-2.0-48.0-1.0","24","25736","female","null","","","","null","","46","","","409494","1","","","","","","300","55800","356","57801","300","","","","","","","","","","","","","","","","","","","","","","","","","","","","","","","","","","","","","","","","","","","","","","","","","","","",""
"","localizer","","html-keyboard-response","158","410277","0.0-2.0-49.0-0.0","24","25736","female","18","","","","75","1","47","","Stimuli/Experimental_stims/localizer/body_parts/lilartsy-1KkhQ8uL28g-unsplash.jpg","409850","1","body_parts","","0","0","0","400","56100","427","58157","","","","","","","","","","","","","","","","","","","","","","","","","","","","","","","","","","","","","","","","","","","","","","","","","","","","",""
"","iti_localizer","","html-keyboard-response","159","410590","0.0-2.0-49.0-1.0","24","25736","female","null","","","","null","","47","","","410277","1","","","","","","300","56500","313","58584","300","","","","","","","","","","","","","","","","","","","","","","","","","","","","","","","","","","","","","","","","","","","","","","","","","","","",""
"","localizer","","html-keyboard-response","160","411086","0.0-2.0-50.0-0.0","24","25736","female","NaN","","","","null","NaN","48","","Stimuli/Experimental_stims/localizer/body_parts/toa-heftiba-qxvWnfHb3-M-unsplash.jpg","410590","1","body_parts","","0","1","0","400","56800","496","58897","","","","","","","","","","","","","","","","","","","","","","","","","","","","","","","","","","","","","","","","","","","","","","","","","","","","",""
"","iti_localizer","","html-keyboard-response","161","411410","0.0-2.0-50.0-1.0","24","25736","female","null","","","","null","","48","","","411086","1","","","","","","300","57200","324","59393","300","","","","","","","","","","","","","","","","","","","","","","","","","","","","","","","","","","","","","","","","","","","","","","","","","","","",""
"","localizer","","html-keyboard-response","162","411825","0.0-2.0-51.0-0.0","24","25736","female","NaN","","","","null","NaN","49","","Stimuli/Experimental_stims/localizer/body_parts/callum-skelton-3KLMq7y46nA-unsplash.jpg","411410","1","body_parts","","1","1","0","400","57500","415","59717","","","","","","","","","","","","","","","","","","","","","","","","","","","","","","","","","","","","","","","","","","","","","","","","","","","","",""
"","iti_localizer","","html-keyboard-response","163","412141","0.0-2.0-51.0-1.0","24","25736","female","null","","","","null","","49","","","411825","1","","","","","","300","57900","316","60132","300","","","","","","","","","","","","","","","","","","","","","","","","","","","","","","","","","","","","","","","","","","","","","","","","","","","",""
"","localizer","","html-keyboard-response","164","412551","0.0-2.0-52.0-0.0","24","25736","female","NaN","","","","null","NaN","50","","Stimuli/Experimental_stims/localizer/body_parts/ant-rozetsky-bXQd8JXx0vs-unsplash.jpg","412141","1","body_parts","","0","1","0","400","58200","410","60448","","","","","","","","","","","","","","","","","","","","","","","","","","","","","","","","","","","","","","","","","","","","","","","","","","","","",""
"","iti_localizer","","html-keyboard-response","165","412971","0.0-2.0-52.0-1.0","24","25736","female","null","","","","null","","50","","","412551","1","","","","","","300","58600","420","60858","300","","","","","","","","","","","","","","","","","","","","","","","","","","","","","","","","","","","","","","","","","","","","","","","","","","","",""
"","localizer","","html-keyboard-response","166","413383","0.0-2.0-53.0-0.0","24","25736","female","17","","","","75","1","51","","Stimuli/Experimental_stims/localizer/body_parts/boyd-christiansen-uVj7kewrZ-o-unsplash.jpg","412971","1","body_parts","","0","0","0","400","58900","412","61278","","","","","","","","","","","","","","","","","","","","","","","","","","","","","","","","","","","","","","","","","","","","","","","","","","","","",""
"","iti_localizer","","html-keyboard-response","167","413750","0.0-2.0-53.0-1.0","24","25736","female","null","","","","null","","51","","","413383","1","","","","","","300","59300","367","61690","300","","","","","","","","","","","","","","","","","","","","","","","","","","","","","","","","","","","","","","","","","","","","","","","","","","","",""
"","localizer","","html-keyboard-response","168","414160","0.0-2.0-54.0-0.0","24","25736","female","126","","","","68","0","52","","Stimuli/Experimental_stims/localizer/body_parts/helen-ast-l2iY5Sh0mTg-unsplash.jpg","413750","1","body_parts","","0","0","1","400","59600","410","62057","","","","","","","","","","","","","","","","","","","","","","","","","","","","","","","","","","","","","","","","","","","","","","","","","","","","",""
"","iti_localizer","","html-keyboard-response","169","414476","0.0-2.0-54.0-1.0","24","25736","female","null","","","","null","","52","","","414160","1","","","","","","300","60000","316","62467","300","","","","","","","","","","","","","","","","","","","","","","","","","","","","","","","","","","","","","","","","","","","","","","","","","","","",""
"","localizer","","html-keyboard-response","170","414895","0.0-2.0-55.0-0.0","24","25736","female","NaN","","","","null","NaN","53","","Stimuli/Experimental_stims/localizer/body_parts/pure-julia-E9Q4bqYHtIM-unsplash.jpg","414476","1","body_parts","","0","1","0","400","60300","419","62783","","","","","","","","","","","","","","","","","","","","","","","","","","","","","","","","","","","","","","","","","","","","","","","","","","","","",""
"","iti_localizer","","html-keyboard-response","171","415212","0.0-2.0-55.0-1.0","24","25736","female","null","","","","null","","53","","","414895","1","","","","","","300","60700","317","63202","300","","","","","","","","","","","","","","","","","","","","","","","","","","","","","","","","","","","","","","","","","","","","","","","","","","","",""
"","localizer","","html-keyboard-response","172","415622","0.0-2.0-56.0-0.0","24","25736","female","357","","","","68","0","54","","Stimuli/Experimental_stims/localizer/body_parts/sina-rezakhani-d1gQi0Jl05U-unsplash (1).jpg","415212","1","body_parts","","0","0","1","400","61000","410","63519","","","","","","","","","","","","","","","","","","","","","","","","","","","","","","","","","","","","","","","","","","","","","","","","","","","","",""
"","iti_localizer","","html-keyboard-response","173","415938","0.0-2.0-56.0-1.0","24","25736","female","null","","","","null","","54","","","415622","1","","","","","","300","61400","316","63929","300","","","","","","","","","","","","","","","","","","","","","","","","","","","","","","","","","","","","","","","","","","","","","","","","","","","",""
"","localizer","","html-keyboard-response","174","416384","0.0-2.0-57.0-0.0","24","25736","female","151","","","","75","1","55","","Stimuli/Experimental_stims/localizer/body_parts/megan-menegay-UojxG_BJxnI-unsplash.jpg","415938","1","body_parts","","0","0","0","400","61700","446","64245","","","","","","","","","","","","","","","","","","","","","","","","","","","","","","","","","","","","","","","","","","","","","","","","","","","","",""
"","iti_localizer","","html-keyboard-response","175","416704","0.0-2.0-57.0-1.0","24","25736","female","null","","","","null","","55","","","416384","1","","","","","","300","62100","320","64691","300","","","","","","","","","","","","","","","","","","","","","","","","","","","","","","","","","","","","","","","","","","","","","","","","","","","",""
"","localizer","","html-keyboard-response","176","417215","0.0-2.0-58.0-0.0","24","25736","female","152","","","","75","1","56","","Stimuli/Experimental_stims/localizer/body_parts/sincerely-media-7TBFwUQA6Xk-unsplash.jpg","416704","1","body_parts","","0","0","0","400","62400","511","65011","","","","","","","","","","","","","","","","","","","","","","","","","","","","","","","","","","","","","","","","","","","","","","","","","","","","",""
"","iti_localizer","","html-keyboard-response","177","417532","0.0-2.0-58.0-1.0","24","25736","female","null","","","","null","","56","","","417215","1","","","","","","300","62800","317","65522","300","","","","","","","","","","","","","","","","","","","","","","","","","","","","","","","","","","","","","","","","","","","","","","","","","","","",""
"","localizer","","html-keyboard-response","178","417977","0.0-2.0-59.0-0.0","24","25736","female","281","","","","75","1","57","","Stimuli/Experimental_stims/localizer/body_parts/sincerely-media-pdynOoM7xmA-unsplash.jpg","417532","1","body_parts","","0","0","0","400","63100","445","65839","","","","","","","","","","","","","","","","","","","","","","","","","","","","","","","","","","","","","","","","","","","","","","","","","","","","",""
"","iti_localizer","","html-keyboard-response","179","418300","0.0-2.0-59.0-1.0","24","25736","female","null","","","","null","","57","","","417977","1","","","","","","300","63500","323","66284","300","","","","","","","","","","","","","","","","","","","","","","","","","","","","","","","","","","","","","","","","","","","","","","","","","","","",""
"","localizer","","html-keyboard-response","180","418716","0.0-2.0-60.0-0.0","24","25736","female","18","","","","75","1","58","","Stimuli/Experimental_stims/localizer/body_parts/adrien-king-XzBluXxBoyQ-unsplash.jpg","418300","1","body_parts","","0","0","0","400","63800","416","66607","","","","","","","","","","","","","","","","","","","","","","","","","","","","","","","","","","","","","","","","","","","","","","","","","","","","",""
"","iti_localizer","","html-keyboard-response","181","419042","0.0-2.0-60.0-1.0","24","25736","female","null","","","","null","","58","","","418716","1","","","","","","300","64200","326","67023","300","","","","","","","","","","","","","","","","","","","","","","","","","","","","","","","","","","","","","","","","","","","","","","","","","","","",""
"","localizer","","html-keyboard-response","182","419455","0.0-2.0-61.0-0.0","24","25736","female","NaN","","","","null","NaN","59","","Stimuli/Experimental_stims/localizer/body_parts/nattalia-nunez-MB9sdDfZMSg-unsplash.jpg","419042","1","body_parts","","1","1","0","400","64500","413","67349","","","","","","","","","","","","","","","","","","","","","","","","","","","","","","","","","","","","","","","","","","","","","","","","","","","","",""
"","iti_localizer","","html-keyboard-response","183","419781","0.0-2.0-61.0-1.0","24","25736","female","null","","","","null","","59","","","419455","1","","","","","","300","64900","326","67762","300","","","","","","","","","","","","","","","","","","","","","","","","","","","","","","","","","","","","","","","","","","","","","","","","","","","",""
"","localizer","","html-keyboard-response","184","420208","0.0-2.0-62.0-0.0","24","25736","female","8","","","","68","0","60","","Stimuli/Experimental_stims/localizer/body_parts/louis-hansel-FjKTMRTQYAs-unsplash.jpg","419781","1","body_parts","","0","0","1","400","65200","427","68088","","","","","","","","","","","","","","","","","","","","","","","","","","","","","","","","","","","","","","","","","","","","","","","","","","","","",""
"","iti_localizer","","html-keyboard-response","185","420571","0.0-2.0-62.0-1.0","24","25736","female","null","","","","null","","60","","","420208","1","","","","","","300","65600","363","68515","300","","","","","","","","","","","","","","","","","","","","","","","","","","","","","","","","","","","","","","","","","","","","","","","","","","","",""
"","localizer","","html-keyboard-response","186","420994","0.0-2.0-63.0-0.0","24","25736","female","34","","","","68","0","61","","Stimuli/Experimental_stims/localizer/body_parts/jonathan-borba-hTwH8QFkPMs-unsplash.jpg","420571","1","body_parts","","0","0","1","400","65900","423","68878","","","","","","","","","","","","","","","","","","","","","","","","","","","","","","","","","","","","","","","","","","","","","","","","","","","","",""
"","iti_localizer","","html-keyboard-response","187","421316","0.0-2.0-63.0-1.0","24","25736","female","null","","","","null","","61","","","420994","1","","","","","","300","66300","322","69301","300","","","","","","","","","","","","","","","","","","","","","","","","","","","","","","","","","","","","","","","","","","","","","","","","","","","",""
"","localizer","","html-keyboard-response","188","421736","0.0-2.0-64.0-0.0","24","25736","female","225","","","","68","0","62","","Stimuli/Experimental_stims/localizer/body_parts/hu-chen-tCbTGNwrFNM-unsplash.jpg","421316","1","body_parts","","0","0","1","400","66600","420","69623","","","","","","","","","","","","","","","","","","","","","","","","","","","","","","","","","","","","","","","","","","","","","","","","","","","","",""
"","iti_localizer","","html-keyboard-response","189","422052","0.0-2.0-64.0-1.0","24","25736","female","null","","","","null","","62","","","421736","1","","","","","","300","67000","316","70043","300","","","","","","","","","","","","","","","","","","","","","","","","","","","","","","","","","","","","","","","","","","","","","","","","","","","",""
"","localizer","","html-keyboard-response","190","422460","0.0-2.0-65.0-0.0","24","25736","female","37","","","","68","0","63","","Stimuli/Experimental_stims/localizer/body_parts/danie-franco-jyyNiSEcCl4-unsplash.jpg","422052","1","body_parts","","0","0","1","400","67300","408","70359","","","","","","","","","","","","","","","","","","","","","","","","","","","","","","","","","","","","","","","","","","","","","","","","","","","","",""
"","iti_localizer","","html-keyboard-response","191","422769","0.0-2.0-65.0-1.0","24","25736","female","null","","","","null","","63","","","422460","1","","","","","","300","67700","309","70767","300","","","","","","","","","","","","","","","","","","","","","","","","","","","","","","","","","","","","","","","","","","","","","","","","","","","",""
"","localizer","","html-keyboard-response","192","423192","0.0-2.0-66.0-0.0","24","25736","female","95","","","","68","0","64","","Stimuli/Experimental_stims/localizer/body_parts/natalie-grainger-8uB5kFKWWkk-unsplash.jpg","422769","1","body_parts","","0","0","1","400","68000","423","71076","","","","","","","","","","","","","","","","","","","","","","","","","","","","","","","","","","","","","","","","","","","","","","","","","","","","",""
"","iti_localizer","","html-keyboard-response","193","423507","0.0-2.0-66.0-1.0","24","25736","female","null","","","","null","","64","","","423192","1","","","","","","300","68400","315","71499","300","","","","","","","","","","","","","","","","","","","","","","","","","","","","","","","","","","","","","","","","","","","","","","","","","","","",""
"","localizer","","html-keyboard-response","194","423928","0.0-2.0-67.0-0.0","24","25736","female","36","","","","68","0","65","","Stimuli/Experimental_stims/localizer/body_parts/apostolos-vamvouras-g5wKHRu2QW0-unsplash.jpg","423507","1","body_parts","","0","0","1","400","68700","421","71814","","","","","","","","","","","","","","","","","","","","","","","","","","","","","","","","","","","","","","","","","","","","","","","","","","","","",""
"","iti_localizer","","html-keyboard-response","195","437957","0.0-2.0-67.0-1.0","24","25736","female","null","","","","null","","65","","","423928","1","","","","","","14000","69100","14029","72235","14000","","","","","","","","","","","","","","","","","","","","","","","","","","","","","","","","","","","","","","","","","","","","","","","","","","","",""
"","localizer","","html-keyboard-response","196","438382","0.0-2.0-68.0-0.0","24","25736","female","140","","","","75","1","66","","Stimuli/Experimental_stims/localizer/objects/quaritsch-photography-lZ8onQ1wuY8-unsplash.jpg","437957","1","objects","","1","0","1","400","83100","425","86264","","","","","","","","","","","","","","","","","","","","","","","","","","","","","","","","","","","","","","","","","","","","","","","","","","","","",""
"","iti_localizer","","html-keyboard-response","197","438692","0.0-2.0-68.0-1.0","24","25736","female","null","","","","null","","66","","","438382","1","","","","","","300","83500","310","86689","300","","","","","","","","","","","","","","","","","","","","","","","","","","","","","","","","","","","","","","","","","","","","","","","","","","","",""
"","localizer","","html-keyboard-response","198","439104","0.0-2.0-69.0-0.0","24","25736","female","60","","","","68","0","67","","Stimuli/Experimental_stims/localizer/objects/ana-9GmAaEMMKho-unsplash.jpg","438692","1","objects","","0","0","1","400","83800","412","86999","","","","","","","","","","","","","","","","","","","","","","","","","","","","","","","","","","","","","","","","","","","","","","","","","","","","",""
"","iti_localizer","","html-keyboard-response","199","439425","0.0-2.0-69.0-1.0","24","25736","female","null","","","","null","","67","","","439104","1","","","","","","300","84200","321","87411","300","","","","","","","","","","","","","","","","","","","","","","","","","","","","","","","","","","","","","","","","","","","","","","","","","","","",""
"","localizer","","html-keyboard-response","200","439839","0.0-2.0-70.0-0.0","24","25736","female","43","","","","75","1","68","","Stimuli/Experimental_stims/localizer/objects/nordwood-themes-nDd3dIkkOLo-unsplash.jpg","439425","1","objects","","0","0","0","400","84500","414","87732","","","","","","","","","","","","","","","","","","","","","","","","","","","","","","","","","","","","","","","","","","","","","","","","","","","","",""
"","iti_localizer","","html-keyboard-response","201","440157","0.0-2.0-70.0-1.0","24","25736","female","null","","","","null","","68","","","439839","1","","","","","","300","84900","318","88146","300","","","","","","","","","","","","","","","","","","","","","","","","","","","","","","","","","","","","","","","","","","","","","","","","","","","",""
"","localizer","","html-keyboard-response","202","440567","0.0-2.0-71.0-0.0","24","25736","female","86","","","","68","0","69","","Stimuli/Experimental_stims/localizer/objects/kelly-jean-cKjbI0Y00X0-unsplash.jpg","440157","1","objects","","0","0","1","400","85200","410","88464","","","","","","","","","","","","","","","","","","","","","","","","","","","","","","","","","","","","","","","","","","","","","","","","","","","","",""
"","iti_localizer","","html-keyboard-response","203","440883","0.0-2.0-71.0-1.0","24","25736","female","null","","","","null","","69","","","440567","1","","","","","","300","85600","316","88874","300","","","","","","","","","","","","","","","","","","","","","","","","","","","","","","","","","","","","","","","","","","","","","","","","","","","",""
"","localizer","","html-keyboard-response","204","441297","0.0-2.0-72.0-0.0","24","25736","female","268","","","","68","0","70","","Stimuli/Experimental_stims/localizer/objects/florian-klauer-nptLmg6jqDo-unsplash.jpg","440883","1","objects","","0","0","1","400","85900","414","89190","","","","","","","","","","","","","","","","","","","","","","","","","","","","","","","","","","","","","","","","","","","","","","","","","","","","",""
"","iti_localizer","","html-keyboard-response","205","441604","0.0-2.0-72.0-1.0","24","25736","female","null","","","","null","","70","","","441297","1","","","","","","300","86300","307","89604","300","","","","","","","","","","","","","","","","","","","","","","","","","","","","","","","","","","","","","","","","","","","","","","","","","","","",""
"","localizer","","html-keyboard-response","206","442017","0.0-2.0-73.0-0.0","24","25736","female","202","","","","68","0","71","","Stimuli/Experimental_stims/localizer/objects/nicolas-hippert-SVgX47QIUlc-unsplash.jpg","441604","1","objects","","0","0","1","400","86600","413","89911","","","","","","","","","","","","","","","","","","","","","","","","","","","","","","","","","","","","","","","","","","","","","","","","","","","","",""
"","iti_localizer","","html-keyboard-response","207","442336","0.0-2.0-73.0-1.0","24","25736","female","null","","","","null","","71","","","442017","1","","","","","","300","87000","319","90324","300","","","","","","","","","","","","","","","","","","","","","","","","","","","","","","","","","","","","","","","","","","","","","","","","","","","",""
"","localizer","","html-keyboard-response","208","442793","0.0-2.0-74.0-0.0","24","25736","female","158","","","","68","0","72","","Stimuli/Experimental_stims/localizer/objects/florian-klauer-mk7D-4UCfmg-unsplash.jpg","442336","1","objects","","0","0","1","400","87300","457","90643","","","","","","","","","","","","","","","","","","","","","","","","","","","","","","","","","","","","","","","","","","","","","","","","","","","","",""
"","iti_localizer","","html-keyboard-response","209","443108","0.0-2.0-74.0-1.0","24","25736","female","null","","","","null","","72","","","442793","1","","","","","","300","87700","315","91100","300","","","","","","","","","","","","","","","","","","","","","","","","","","","","","","","","","","","","","","","","","","","","","","","","","","","",""
"","localizer","","html-keyboard-response","210","443525","0.0-2.0-75.0-0.0","24","25736","female","1","","","","68","0","73","","Stimuli/Experimental_stims/localizer/objects/alex-lvrs-2zDw14yCYqk-unsplash.jpg","443108","1","objects","","0","0","1","400","88000","417","91415","","","","","","","","","","","","","","","","","","","","","","","","","","","","","","","","","","","","","","","","","","","","","","","","","","","","",""
"","iti_localizer","","html-keyboard-response","211","443831","0.0-2.0-75.0-1.0","24","25736","female","null","","","","null","","73","","","443525","1","","","","","","300","88400","306","91832","300","","","","","","","","","","","","","","","","","","","","","","","","","","","","","","","","","","","","","","","","","","","","","","","","","","","",""
"","localizer","","html-keyboard-response","212","444249","0.0-2.0-76.0-0.0","24","25736","female","170","","","","68","0","74","","Stimuli/Experimental_stims/localizer/objects/hipster-mum-XookgCxFw6Q-unsplash.jpg","443831","1","objects","","0","0","1","400","88700","418","92138","","","","","","","","","","","","","","","","","","","","","","","","","","","","","","","","","","","","","","","","","","","","","","","","","","","","",""
"","iti_localizer","","html-keyboard-response","213","444565","0.0-2.0-76.0-1.0","24","25736","female","null","","","","null","","74","","","444249","1","","","","","","300","89100","316","92556","300","","","","","","","","","","","","","","","","","","","","","","","","","","","","","","","","","","","","","","","","","","","","","","","","","","","",""
"","localizer","","html-keyboard-response","214","444983","0.0-2.0-77.0-0.0","24","25736","female","79","","","","68","0","75","","Stimuli/Experimental_stims/localizer/objects/ian-talmacs-ugqU0a4P18U-unsplash.jpg","444565","1","objects","","0","0","1","400","89400","418","92872","","","","","","","","","","","","","","","","","","","","","","","","","","","","","","","","","","","","","","","","","","","","","","","","","","","","",""
"","iti_localizer","","html-keyboard-response","215","445292","0.0-2.0-77.0-1.0","24","25736","female","null","","","","null","","75","","","444983","1","","","","","","300","89800","309","93290","300","","","","","","","","","","","","","","","","","","","","","","","","","","","","","","","","","","","","","","","","","","","","","","","","","","","",""
"","localizer","","html-keyboard-response","216","445721","0.0-2.0-78.0-0.0","24","25736","female","211","","","","68","0","76","","Stimuli/Experimental_stims/localizer/objects/chris-briggs-FobzAZJGM9M-unsplash.jpg","445292","1","objects","","0","0","1","400","90100","429","93599","","","","","","","","","","","","","","","","","","","","","","","","","","","","","","","","","","","","","","","","","","","","","","","","","","","","",""
"","iti_localizer","","html-keyboard-response","217","446035","0.0-2.0-78.0-1.0","24","25736","female","null","","","","null","","76","","","445721","1","","","","","","300","90500","314","94028","300","","","","","","","","","","","","","","","","","","","","","","","","","","","","","","","","","","","","","","","","","","","","","","","","","","","",""
"","localizer","","html-keyboard-response","218","446444","0.0-2.0-79.0-0.0","24","25736","female","140","","","","68","0","77","","Stimuli/Experimental_stims/localizer/objects/recha-oktaviani-t__61ap00Mc-unsplash.jpg","446035","1","objects","","0","0","1","400","90800","409","94342","","","","","","","","","","","","","","","","","","","","","","","","","","","","","","","","","","","","","","","","","","","","","","","","","","","","",""
"","iti_localizer","","html-keyboard-response","219","446751","0.0-2.0-79.0-1.0","24","25736","female","null","","","","null","","77","","","446444","1","","","","","","300","91200","307","94751","300","","","","","","","","","","","","","","","","","","","","","","","","","","","","","","","","","","","","","","","","","","","","","","","","","","","",""
"","localizer","","html-keyboard-response","220","447163","0.0-2.0-80.0-0.0","24","25736","female","42","","","","68","0","78","","Stimuli/Experimental_stims/localizer/objects/jonny-caspari-wsvCC6UyKjs-unsplash.jpg","446751","1","objects","","0","0","1","400","91500","412","95058","","","","","","","","","","","","","","","","","","","","","","","","","","","","","","","","","","","","","","","","","","","","","","","","","","","","",""
"","iti_localizer","","html-keyboard-response","221","447484","0.0-2.0-80.0-1.0","24","25736","female","null","","","","null","","78","","","447163","1","","","","","","300","91900","321","95470","300","","","","","","","","","","","","","","","","","","","","","","","","","","","","","","","","","","","","","","","","","","","","","","","","","","","",""
"","localizer","","html-keyboard-response","222","447894","0.0-2.0-81.0-0.0","24","25736","female","1","","","","68","0","79","","Stimuli/Experimental_stims/localizer/objects/markus-spiske-ANrVtttbNss-unsplash.jpg","447484","1","objects","","0","0","1","400","92200","410","95791","","","","","","","","","","","","","","","","","","","","","","","","","","","","","","","","","","","","","","","","","","","","","","","","","","","","",""
"","iti_localizer","","html-keyboard-response","223","448272","0.0-2.0-81.0-1.0","24","25736","female","null","","","","null","","79","","","447894","1","","","","","","300","92600","378","96201","300","","","","","","","","","","","","","","","","","","","","","","","","","","","","","","","","","","","","","","","","","","","","","","","","","","","",""
"","localizer","","html-keyboard-response","224","448685","0.0-2.0-82.0-0.0","24","25736","female","86","","","","68","0","80","","Stimuli/Experimental_stims/localizer/objects/ignat-dolomanov-kFBDVnmskPA-unsplash.jpg","448272","1","objects","","0","0","1","400","92900","413","96579","","","","","","","","","","","","","","","","","","","","","","","","","","","","","","","","","","","","","","","","","","","","","","","","","","","","",""
"","iti_localizer","","html-keyboard-response","225","449005","0.0-2.0-82.0-1.0","24","25736","female","null","","","","null","","80","","","448685","1","","","","","","300","93300","320","96992","300","","","","","","","","","","","","","","","","","","","","","","","","","","","","","","","","","","","","","","","","","","","","","","","","","","","",""
"","localizer","","html-keyboard-response","226","449420","0.0-2.0-83.0-0.0","24","25736","female","59","","","","68","0","81","","Stimuli/Experimental_stims/localizer/objects/mockup-graphics-Pj2PY-E-LfM-unsplash.jpg","449005","1","objects","","0","0","1","400","93600","415","97312","","","","","","","","","","","","","","","","","","","","","","","","","","","","","","","","","","","","","","","","","","","","","","","","","","","","",""
"","iti_localizer","","html-keyboard-response","227","449736","0.0-2.0-83.0-1.0","24","25736","female","null","","","","null","","81","","","449420","1","","","","","","300","94000","316","97727","300","","","","","","","","","","","","","","","","","","","","","","","","","","","","","","","","","","","","","","","","","","","","","","","","","","","",""
"","localizer","","html-keyboard-response","228","450262","0.0-2.0-84.0-0.0","24","25736","female","14","","","","68","0","82","","Stimuli/Experimental_stims/localizer/objects/lance-reis-v0FYj9iioQg-unsplash.jpg","449736","1","objects","","0","0","1","400","94300","526","98043","","","","","","","","","","","","","","","","","","","","","","","","","","","","","","","","","","","","","","","","","","","","","","","","","","","","",""
"","iti_localizer","","html-keyboard-response","229","450584","0.0-2.0-84.0-1.0","24","25736","female","null","","","","null","","82","","","450262","1","","","","","","300","94700","322","98569","300","","","","","","","","","","","","","","","","","","","","","","","","","","","","","","","","","","","","","","","","","","","","","","","","","","","",""
"","localizer","","html-keyboard-response","230","451005","0.0-2.0-85.0-0.0","24","25736","female","118","","","","68","0","83","","Stimuli/Experimental_stims/localizer/objects/mockup-graphics-U6ZMEefFGx8-unsplash.jpg","450584","1","objects","","0","0","1","400","95000","421","98891","","","","","","","","","","","","","","","","","","","","","","","","","","","","","","","","","","","","","","","","","","","","","","","","","","","","",""
"","iti_localizer","","html-keyboard-response","231","451316","0.0-2.0-85.0-1.0","24","25736","female","null","","","","null","","83","","","451005","1","","","","","","300","95400","311","99312","300","","","","","","","","","","","","","","","","","","","","","","","","","","","","","","","","","","","","","","","","","","","","","","","","","","","",""
"","localizer","","html-keyboard-response","232","451736","0.0-2.0-86.0-0.0","24","25736","female","91","","","","68","0","84","","Stimuli/Experimental_stims/localizer/objects/engin-akyurt-bbbKzTmY2Gg-unsplash.jpg","451316","1","objects","","1","0","0","400","95700","420","99623","","","","","","","","","","","","","","","","","","","","","","","","","","","","","","","","","","","","","","","","","","","","","","","","","","","","",""
"","iti_localizer","","html-keyboard-response","233","452055","0.0-2.0-86.0-1.0","24","25736","female","null","","","","null","","84","","","451736","1","","","","","","300","96100","319","100043","300","","","","","","","","","","","","","","","","","","","","","","","","","","","","","","","","","","","","","","","","","","","","","","","","","","","",""
"","localizer","","html-keyboard-response","234","452471","0.0-2.0-87.0-0.0","24","25736","female","82","","","","68","0","85","","Stimuli/Experimental_stims/localizer/objects/eugene-chystiakov-3neSwyntbQ8-unsplash.jpg","452055","1","objects","","0","0","1","400","96400","416","100362","","","","","","","","","","","","","","","","","","","","","","","","","","","","","","","","","","","","","","","","","","","","","","","","","","","","",""
"","iti_localizer","","html-keyboard-response","235","466486","0.0-2.0-87.0-1.0","24","25736","female","null","","","","null","","85","","","452471","1","","","","","","14000","96800","14015","100778","14000","","","","","","","","","","","","","","","","","","","","","","","","","","","","","","","","","","","","","","","","","","","","","","","","","","","",""
"","localizer","","html-keyboard-response","236","466896","0.0-2.0-88.0-0.0","24","25736","female","99","","","","75","1","86","","Stimuli/Experimental_stims/localizer/body_parts/bady-abbas-N-VEeMnm7gE-unsplash.jpg","466486","1","body_parts","","0","0","0","400","110800","410","114793","","","","","","","","","","","","","","","","","","","","","","","","","","","","","","","","","","","","","","","","","","","","","","","","","","","","",""
"","iti_localizer","","html-keyboard-response","237","467207","0.0-2.0-88.0-1.0","24","25736","female","null","","","","null","","86","","","466896","1","","","","","","300","111200","311","115203","300","","","","","","","","","","","","","","","","","","","","","","","","","","","","","","","","","","","","","","","","","","","","","","","","","","","",""
"","localizer","","html-keyboard-response","238","467625","0.0-2.0-89.0-0.0","24","25736","female","NaN","","","","null","NaN","87","","Stimuli/Experimental_stims/localizer/body_parts/sincerely-media-QyzlAZjm0r0-unsplash.jpg","467207","1","body_parts","","1","1","0","400","111500","418","115514","","","","","","","","","","","","","","","","","","","","","","","","","","","","","","","","","","","","","","","","","","","","","","","","","","","","",""
"","iti_localizer","","html-keyboard-response","239","467942","0.0-2.0-89.0-1.0","24","25736","female","null","","","","null","","87","","","467625","1","","","","","","300","111900","317","115932","300","","","","","","","","","","","","","","","","","","","","","","","","","","","","","","","","","","","","","","","","","","","","","","","","","","","",""
"","localizer","","html-keyboard-response","240","468400","0.0-2.0-90.0-0.0","24","25736","female","117","","","","68","0","88","","Stimuli/Experimental_stims/localizer/body_parts/jeremy-yap-TfJEi17kA0w-unsplash.jpg","467942","1","body_parts","","0","0","1","400","112200","458","116249","","","","","","","","","","","","","","","","","","","","","","","","","","","","","","","","","","","","","","","","","","","","","","","","","","","","",""
"","iti_localizer","","html-keyboard-response","241","468711","0.0-2.0-90.0-1.0","24","25736","female","null","","","","null","","88","","","468400","1","","","","","","300","112600","311","116707","300","","","","","","","","","","","","","","","","","","","","","","","","","","","","","","","","","","","","","","","","","","","","","","","","","","","",""
"","localizer","","html-keyboard-response","242","469125","0.0-2.0-91.0-0.0","24","25736","female","23","","","","68","0","89","","Stimuli/Experimental_stims/localizer/body_parts/matheus-frade-eyzdb1C3JDM-unsplash.jpg","468711","1","body_parts","","0","0","1","400","112900","414","117018","","","","","","","","","","","","","","","","","","","","","","","","","","","","","","","","","","","","","","","","","","","","","","","","","","","","",""
"","iti_localizer","","html-keyboard-response","243","469434","0.0-2.0-91.0-1.0","24","25736","female","null","","","","null","","89","","","469125","1","","","","","","300","113300","309","117432","300","","","","","","","","","","","","","","","","","","","","","","","","","","","","","","","","","","","","","","","","","","","","","","","","","","","",""
"","localizer","","html-keyboard-response","244","469852","0.0-2.0-92.0-0.0","24","25736","female","7","","","","68","0","90","","Stimuli/Experimental_stims/localizer/body_parts/priscilla-du-preez-e6fcNpur53A-unsplash.jpg","469434","1","body_parts","","0","0","1","400","113600","418","117741","","","","","","","","","","","","","","","","","","","","","","","","","","","","","","","","","","","","","","","","","","","","","","","","","","","","",""
"","iti_localizer","","html-keyboard-response","245","470165","0.0-2.0-92.0-1.0","24","25736","female","null","","","","null","","90","","","469852","1","","","","","","300","114000","313","118159","300","","","","","","","","","","","","","","","","","","","","","","","","","","","","","","","","","","","","","","","","","","","","","","","","","","","",""
"","localizer","","html-keyboard-response","246","470579","0.0-2.0-93.0-0.0","24","25736","female","0","","","","68","0","91","","Stimuli/Experimental_stims/localizer/body_parts/nihal-karkala-LlOfbQD-IJ0-unsplash.jpg","470165","1","body_parts","","0","0","1","400","114300","414","118472","","","","","","","","","","","","","","","","","","","","","","","","","","","","","","","","","","","","","","","","","","","","","","","","","","","","",""
"","iti_localizer","","html-keyboard-response","247","470895","0.0-2.0-93.0-1.0","24","25736","female","null","","","","null","","91","","","470579","1","","","","","","300","114700","316","118886","300","","","","","","","","","","","","","","","","","","","","","","","","","","","","","","","","","","","","","","","","","","","","","","","","","","","",""
