"success","ttype","start_time","trial_type","trial_index","time_elapsed","internal_node_id","age","PID","gender","rt","responses","view_history","repeat_instructions","key_press","response","index","stimulus_index","path","start_time_elapsed","run","task","isi","is_odd_ball","no_response","acc","duration","onset","duration_time_elapsed","onset_time_elapsed","trial_duration","left_chosen","chosen_stimulus","unchosen_stimulus","chosen_category","unchosen_category","chosen_rating","unchosen_rating","chosen_path","unchosen_path","pair_id","practice","scramble_screen_time","scramble_instructed_side","stim_type","iti","block","left_stimulus","right_stimulus","left_category","right_category","left_path","right_path","left_rating","right_rating","scramble_acc","scramble_no_response","warning","missed_checkup","stimulus_id","item_id","outcome","response_rt","deliberation_reward_tally","choice_type","gain_left","left_item_id","right_item_id","higher_outcome_chosen","chosen_left","old_pair","pair_type","old_response","pair_acc","reward_type","outcome_response","outcome_rt","outcome_acc","category","choice","deliberated_stim","old_rating","new_rating","total_reward_tally"
"true","full_screen","d08172023hr1644","fullscreen","0","508423","0.0-0.0-0.0","42","66556","Male","","","","","","","","","","","","","","","","","","","","","","","","","","","","","","","","","","","","","","","","","","","","","","","","","","","","","","","","","","","","","","","","","","","","","","","","","",""
"","get_id","","survey-text","1","515884","0.0-0.0-1.0","42","66556","Male","7448","{""Q0"":""42"",""Q1"":""Male""}","","","","","","","","","","","","","","","","","","","","","","","","","","","","","","","","","","","","","","","","","","","","","","","","","","","","","","","","","","","","","","","","","","","","","","","",""
"","ratings_instructions","","instructions","2","523980","0.0-1.0-0.0-0.0","42","66556","Male","7274","","[{""page_index"":0,""viewing_time"":4563},{""page_index"":1,""viewing_time"":2710}]","","","","","","","","","","","","","","","","","","","","","","","","","","","","","","","","","","","","","","","","","","","","","","","","","","","","","","","","","","","","","","","","","","","","","","",""
"","rating_comprehension_check","","survey-multi-choice","3","532023","0.0-1.0-0.0-1.0","42","66556","Male","8030","{""Q0"":""True"",""Q1"":""Mouse""}","","0","","","","","","","","","","","","","","","","","","","","","","","","","","","","","","","","","","","","","","","","","","","","","","","","","","","","","","","","","","","","","","","","","","","","","",""
"","","","html-keyboard-response","4","534235","0.0-1.0-1.0","42","66556","Male","2196","","","","68","","","","","","","","","","","","","","","","","","","","","","","","","","","","","","","","","","","","","","","","","","","","","","","","","","","","","","","","","","","","","","","","","","","","",""
"","rating","","html-slider-response","5","539716","0.0-1.0-2.0","42","66556","Male","5469","","","","","81","0","38","Stimuli/Experimental_stims/objects/art-lasovsky-8XddFc6NkBY-unsplash.jpg","","","","","","","","","","","","","","","","","","","","","","","","","","","","","","","","","","","","","","","","","","","","","","","","","","","","","","","","","","","","","","","","",""
"","rating","","html-slider-response","6","542862","0.0-1.0-3.0","42","66556","Male","3123","","","","","50","1","24","Stimuli/Experimental_stims/body_parts/clay-banks-LjqARJaJotc-unsplash.jpg","","","","","","","","","","","","","","","","","","","","","","","","","","","","","","","","","","","","","","","","","","","","","","","","","","","","","","","","","","","","","","","","",""
"","rating","","html-slider-response","7","546099","0.0-1.0-4.0","42","66556","Male","3219","","","","","50","2","13","Stimuli/Experimental_stims/faces/daniel-rigdon-dXmXKPP2L4E-unsplash.jpg","","","","","","","","","","","","","","","","","","","","","","","","","","","","","","","","","","","","","","","","","","","","","","","","","","","","","","","","","","","","","","","","",""
"","rating","","html-slider-response","8","551771","0.0-1.0-5.0","42","66556","Male","5661","","","","","98","3","2","Stimuli/Experimental_stims/outdoor_scenes/bruno-van-der-kraan-qez8mNJ3ilU-unsplash.jpg","","","","","","","","","","","","","","","","","","","","","","","","","","","","","","","","","","","","","","","","","","","","","","","","","","","","","","","","","","","","","","","","",""
"","rating","","html-slider-response","9","555876","0.0-1.0-6.0","42","66556","Male","4093","","","","","50","4","36","Stimuli/Experimental_stims/objects/alexander-andrews-JYGnB9gTCls-unsplash.jpg","","","","","","","","","","","","","","","","","","","","","","","","","","","","","","","","","","","","","","","","","","","","","","","","","","","","","","","","","","","","","","","","",""
"","rating","","html-slider-response","10","559027","0.0-1.0-7.0","42","66556","Male","3138","","","","","98","5","7","Stimuli/Experimental_stims/outdoor_scenes/petr-vysohlid-9fqwGqGLUxc-unsplash.jpg","","","","","","","","","","","","","","","","","","","","","","","","","","","","","","","","","","","","","","","","","","","","","","","","","","","","","","","","","","","","","","","","",""
"","rating","","html-slider-response","11","563219","0.0-1.0-8.0","42","66556","Male","4181","","","","","50","6","28","Stimuli/Experimental_stims/body_parts/ira-vishnevskaya-8DQAvdCby1I-unsplash.jpg","","","","","","","","","","","","","","","","","","","","","","","","","","","","","","","","","","","","","","","","","","","","","","","","","","","","","","","","","","","","","","","","",""
"","rating","","html-slider-response","12","566212","0.0-1.0-9.0","42","66556","Male","2982","","","","","50","7","14","Stimuli/Experimental_stims/faces/david-siglin-UuW4psOb388-unsplash.jpg","","","","","","","","","","","","","","","","","","","","","","","","","","","","","","","","","","","","","","","","","","","","","","","","","","","","","","","","","","","","","","","","",""
"","rating","","html-slider-response","13","569231","0.0-1.0-10.0","42","66556","Male","3003","","","","","100","8","23","Stimuli/Experimental_stims/faces/rikonavt-HQjfrvdTfak-unsplash.jpg","","","","","","","","","","","","","","","","","","","","","","","","","","","","","","","","","","","","","","","","","","","","","","","","","","","","","","","","","","","","","","","","",""
"","rating","","html-slider-response","14","573563","0.0-1.0-11.0","42","66556","Male","4319","","","","","74","9","39","Stimuli/Experimental_stims/objects/charlesdeluvio-1-nx1QR5dTE-unsplash.jpg","","","","","","","","","","","","","","","","","","","","","","","","","","","","","","","","","","","","","","","","","","","","","","","","","","","","","","","","","","","","","","","","",""
"","rating","","html-slider-response","15","576684","0.0-1.0-12.0","42","66556","Male","3109","","","","","98","10","11","Stimuli/Experimental_stims/outdoor_scenes/stephen-leonardi-gyIRjKPXupE-unsplash.jpg","","","","","","","","","","","","","","","","","","","","","","","","","","","","","","","","","","","","","","","","","","","","","","","","","","","","","","","","","","","","","","","","",""
"","rating","","html-slider-response","16","579355","0.0-1.0-13.0","42","66556","Male","2660","","","","","97","11","16","Stimuli/Experimental_stims/faces/freddy-kearney-o-ioeoATbIM-unsplash.jpg","","","","","","","","","","","","","","","","","","","","","","","","","","","","","","","","","","","","","","","","","","","","","","","","","","","","","","","","","","","","","","","","",""
"","rating","","html-slider-response","17","582972","0.0-1.0-14.0","42","66556","Male","3604","","","","","0","12","46","Stimuli/Experimental_stims/objects/mockup-graphics-PNsj6RiHAF4-unsplash.jpg","","","","","","","","","","","","","","","","","","","","","","","","","","","","","","","","","","","","","","","","","","","","","","","","","","","","","","","","","","","","","","","","",""
"","rating","","html-slider-response","18","586019","0.0-1.0-15.0","42","66556","Male","3036","","","","","50","13","20","Stimuli/Experimental_stims/faces/justin-chen-J7Cf1Gch49E-unsplash.jpg","","","","","","","","","","","","","","","","","","","","","","","","","","","","","","","","","","","","","","","","","","","","","","","","","","","","","","","","","","","","","","","","",""
"","rating","","html-slider-response","19","588963","0.0-1.0-16.0","42","66556","Male","2932","","","","","0","14","18","Stimuli/Experimental_stims/faces/jessica-radanavong-mrYkTuAesKE-unsplash.jpg","","","","","","","","","","","","","","","","","","","","","","","","","","","","","","","","","","","","","","","","","","","","","","","","","","","","","","","","","","","","","","","","",""
"","rating","","html-slider-response","20","591443","0.0-1.0-17.0","42","66556","Male","2469","","","","","50","15","42","Stimuli/Experimental_stims/objects/jess-bailey-nOeVi8DsN8U-unsplash.jpg","","","","","","","","","","","","","","","","","","","","","","","","","","","","","","","","","","","","","","","","","","","","","","","","","","","","","","","","","","","","","","","","",""
"","rating","","html-slider-response","21","594125","0.0-1.0-18.0","42","66556","Male","2671","","","","","100","16","5","Stimuli/Experimental_stims/outdoor_scenes/jeff-king-bJHWJeiHfHc-unsplash.jpg","","","","","","","","","","","","","","","","","","","","","","","","","","","","","","","","","","","","","","","","","","","","","","","","","","","","","","","","","","","","","","","","",""
"","rating","","html-slider-response","22","596580","0.0-1.0-19.0","42","66556","Male","2443","","","","","50","17","25","Stimuli/Experimental_stims/body_parts/engin-akyurt-Q2rfH3GW39c-unsplash.jpg","","","","","","","","","","","","","","","","","","","","","","","","","","","","","","","","","","","","","","","","","","","","","","","","","","","","","","","","","","","","","","","","",""
"","rating","","html-slider-response","23","599596","0.0-1.0-20.0","42","66556","Male","2999","","","","","50","18","29","Stimuli/Experimental_stims/body_parts/manuel-schinner-ZwjFuJ7ebpk-unsplash.jpg","","","","","","","","","","","","","","","","","","","","","","","","","","","","","","","","","","","","","","","","","","","","","","","","","","","","","","","","","","","","","","","","",""
"","rating","","html-slider-response","24","603075","0.0-1.0-21.0","42","66556","Male","3467","","","","","50","19","47","Stimuli/Experimental_stims/objects/ronaldo-arthur-vidal-Cdz_lvnl37k-unsplash.jpg","","","","","","","","","","","","","","","","","","","","","","","","","","","","","","","","","","","","","","","","","","","","","","","","","","","","","","","","","","","","","","","","",""
"","rating","","html-slider-response","25","607340","0.0-1.0-22.0","42","66556","Male","4253","","","","","98","20","4","Stimuli/Experimental_stims/outdoor_scenes/jarrett-kow-1ZOyYPOBn7I-unsplash.jpg","","","","","","","","","","","","","","","","","","","","","","","","","","","","","","","","","","","","","","","","","","","","","","","","","","","","","","","","","","","","","","","","",""
"","rating","","html-slider-response","26","624180","0.0-1.0-23.0","42","66556","Male","16828","","","","","50","21","31","Stimuli/Experimental_stims/body_parts/sincerely-media-VN6DbKajo5s-unsplash.jpg","","","","","","","","","","","","","","","","","","","","","","","","","","","","","","","","","","","","","","","","","","","","","","","","","","","","","","","","","","","","","","","","",""
"","rating","","html-slider-response","27","628645","0.0-1.0-24.0","42","66556","Male","4453","","","","","50","22","44","Stimuli/Experimental_stims/objects/kuiye-chen-NuOGFo4PudE-unsplash.jpg","","","","","","","","","","","","","","","","","","","","","","","","","","","","","","","","","","","","","","","","","","","","","","","","","","","","","","","","","","","","","","","","",""
"","rating","","html-slider-response","28","661147","0.0-1.0-25.0","42","66556","Male","32491","","","","","50","23","37","Stimuli/Experimental_stims/objects/alexander-andrews-VLGWE_SumrA-unsplash.jpg","","","","","","","","","","","","","","","","","","","","","","","","","","","","","","","","","","","","","","","","","","","","","","","","","","","","","","","","","","","","","","","","",""
"","rating","","html-slider-response","29","664436","0.0-1.0-26.0","42","66556","Male","3277","","","","","99","24","10","Stimuli/Experimental_stims/outdoor_scenes/shannon-kunkle-dM8INmkyDas-unsplash.jpg","","","","","","","","","","","","","","","","","","","","","","","","","","","","","","","","","","","","","","","","","","","","","","","","","","","","","","","","","","","","","","","","",""
"","rating","","html-slider-response","30","673204","0.0-1.0-27.0","42","66556","Male","8756","","","","","50","25","40","Stimuli/Experimental_stims/objects/fabian-blank-pElSkGRA2NU-unsplash.jpg","","","","","","","","","","","","","","","","","","","","","","","","","","","","","","","","","","","","","","","","","","","","","","","","","","","","","","","","","","","","","","","","",""
"","rating","","html-slider-response","31","680779","0.0-1.0-28.0","42","66556","Male","7564","","","","","76","26","9","Stimuli/Experimental_stims/outdoor_scenes/sergey-pesterev-y-b_FOmJXdg-unsplash.jpg","","","","","","","","","","","","","","","","","","","","","","","","","","","","","","","","","","","","","","","","","","","","","","","","","","","","","","","","","","","","","","","","",""
"","rating","","html-slider-response","32","687900","0.0-1.0-29.0","42","66556","Male","7110","","","","","95","27","41","Stimuli/Experimental_stims/objects/insung-yoon-w2JtIQQXoRU-unsplash.jpg","","","","","","","","","","","","","","","","","","","","","","","","","","","","","","","","","","","","","","","","","","","","","","","","","","","","","","","","","","","","","","","","",""
"","rating","","html-slider-response","33","691244","0.0-1.0-30.0","42","66556","Male","3332","","","","","50","28","8","Stimuli/Experimental_stims/outdoor_scenes/samsommer-vddccTqwal8-unsplash.jpg","","","","","","","","","","","","","","","","","","","","","","","","","","","","","","","","","","","","","","","","","","","","","","","","","","","","","","","","","","","","","","","","",""
"","rating","","html-slider-response","34","694475","0.0-1.0-31.0","42","66556","Male","3220","","","","","99","29","3","Stimuli/Experimental_stims/outdoor_scenes/henry-be-NLF6hTe4PAg-unsplash.jpg","","","","","","","","","","","","","","","","","","","","","","","","","","","","","","","","","","","","","","","","","","","","","","","","","","","","","","","","","","","","","","","","",""
"","rating","","html-slider-response","35","696892","0.0-1.0-32.0","42","66556","Male","2405","","","","","50","30","27","Stimuli/Experimental_stims/body_parts/heike-mintel-i_Gns0ELnLw-unsplash.jpg","","","","","","","","","","","","","","","","","","","","","","","","","","","","","","","","","","","","","","","","","","","","","","","","","","","","","","","","","","","","","","","","",""
"","rating","","html-slider-response","36","699877","0.0-1.0-33.0","42","66556","Male","2973","","","","","50","31","19","Stimuli/Experimental_stims/faces/joel-mott-LaK153ghdig-unsplash.jpg","","","","","","","","","","","","","","","","","","","","","","","","","","","","","","","","","","","","","","","","","","","","","","","","","","","","","","","","","","","","","","","","",""
"","rating","","html-slider-response","37","702196","0.0-1.0-34.0","42","66556","Male","2308","","","","","50","32","45","Stimuli/Experimental_stims/objects/leohoho-rngTKHXumy0-unsplash.jpg","","","","","","","","","","","","","","","","","","","","","","","","","","","","","","","","","","","","","","","","","","","","","","","","","","","","","","","","","","","","","","","","",""
"","rating","","html-slider-response","38","705188","0.0-1.0-35.0","42","66556","Male","2980","","","","","50","33","30","Stimuli/Experimental_stims/body_parts/mika-korhonen-Xodzxosar18-unsplash.jpg","","","","","","","","","","","","","","","","","","","","","","","","","","","","","","","","","","","","","","","","","","","","","","","","","","","","","","","","","","","","","","","","",""
"","rating","","html-slider-response","39","708541","0.0-1.0-36.0","42","66556","Male","3341","","","","","50","34","21","Stimuli/Experimental_stims/faces/leilani-angel-K84vnnzxmTQ-unsplash.jpg","","","","","","","","","","","","","","","","","","","","","","","","","","","","","","","","","","","","","","","","","","","","","","","","","","","","","","","","","","","","","","","","",""
"","rating","","html-slider-response","40","713276","0.0-1.0-37.0","42","66556","Male","4723","","","","","50","35","34","Stimuli/Experimental_stims/body_parts/wagner-santos-mBWMvIuVnso-unsplash.jpg","","","","","","","","","","","","","","","","","","","","","","","","","","","","","","","","","","","","","","","","","","","","","","","","","","","","","","","","","","","","","","","","",""
"","rating","","html-slider-response","41","715915","0.0-1.0-38.0","42","66556","Male","2627","","","","","50","36","35","Stimuli/Experimental_stims/body_parts/wc-so-KH4AAPjb-tI-unsplash.jpg","","","","","","","","","","","","","","","","","","","","","","","","","","","","","","","","","","","","","","","","","","","","","","","","","","","","","","","","","","","","","","","","",""
"","rating","","html-slider-response","42","718125","0.0-1.0-39.0","42","66556","Male","2198","","","","","50","37","15","Stimuli/Experimental_stims/faces/erik-lucatero-d2MSDujJl2g-unsplash.jpg","","","","","","","","","","","","","","","","","","","","","","","","","","","","","","","","","","","","","","","","","","","","","","","","","","","","","","","","","","","","","","","","",""
"","rating","","html-slider-response","43","720364","0.0-1.0-40.0","42","66556","Male","2227","","","","","50","38","1","Stimuli/Experimental_stims/outdoor_scenes/ashim-d-silva-S2Q5mdOrrVc-unsplash.jpg","","","","","","","","","","","","","","","","","","","","","","","","","","","","","","","","","","","","","","","","","","","","","","","","","","","","","","","","","","","","","","","","",""
"","rating","","html-slider-response","44","724764","0.0-1.0-41.0","42","66556","Male","4387","","","","","50","39","22","Stimuli/Experimental_stims/faces/ravi-patel-VMGAbeeJTKo-unsplash.jpg","","","","","","","","","","","","","","","","","","","","","","","","","","","","","","","","","","","","","","","","","","","","","","","","","","","","","","","","","","","","","","","","",""
"","rating","","html-slider-response","45","727909","0.0-1.0-42.0","42","66556","Male","3133","","","","","50","40","26","Stimuli/Experimental_stims/body_parts/engin-akyurt-x_3gyC42btc-unsplash.jpg","","","","","","","","","","","","","","","","","","","","","","","","","","","","","","","","","","","","","","","","","","","","","","","","","","","","","","","","","","","","","","","","",""
"","rating","","html-slider-response","46","735408","0.0-1.0-43.0","42","66556","Male","7485","","","","","75","41","0","Stimuli/Experimental_stims/outdoor_scenes/aleksandra-boguslawska-MS7KD9Ti7FQ-unsplash.jpg","","","","","","","","","","","","","","","","","","","","","","","","","","","","","","","","","","","","","","","","","","","","","","","","","","","","","","","","","","","","","","","","",""
"","rating","","html-slider-response","47","747485","0.0-1.0-44.0","42","66556","Male","12063","","","","","49","42","43","Stimuli/Experimental_stims/objects/jonathan-greenaway-Y4hGgeiFn3s-unsplash.jpg","","","","","","","","","","","","","","","","","","","","","","","","","","","","","","","","","","","","","","","","","","","","","","","","","","","","","","","","","","","","","","","","",""
"","rating","","html-slider-response","48","751987","0.0-1.0-45.0","42","66556","Male","4490","","","","","50","43","32","Stimuli/Experimental_stims/body_parts/towfiqu-barbhuiya-3AsiVDsZnHg-unsplash.jpg","","","","","","","","","","","","","","","","","","","","","","","","","","","","","","","","","","","","","","","","","","","","","","","","","","","","","","","","","","","","","","","","",""
"","rating","","html-slider-response","49","758044","0.0-1.0-46.0","42","66556","Male","6045","","","","","75","44","17","Stimuli/Experimental_stims/faces/good-faces-xmSWVeGEnJw-unsplash.jpg","","","","","","","","","","","","","","","","","","","","","","","","","","","","","","","","","","","","","","","","","","","","","","","","","","","","","","","","","","","","","","","","",""
"","rating","","html-slider-response","50","761084","0.0-1.0-47.0","42","66556","Male","3028","","","","","96","45","6","Stimuli/Experimental_stims/outdoor_scenes/meng-ji-8BH_M-53CyA-unsplash.jpg","","","","","","","","","","","","","","","","","","","","","","","","","","","","","","","","","","","","","","","","","","","","","","","","","","","","","","","","","","","","","","","","",""
"","rating","","html-slider-response","51","763876","0.0-1.0-48.0","42","66556","Male","2781","","","","","50","46","33","Stimuli/Experimental_stims/body_parts/tucker-good-36skLT5jZcc-unsplash.jpg","","","","","","","","","","","","","","","","","","","","","","","","","","","","","","","","","","","","","","","","","","","","","","","","","","","","","","","","","","","","","","","","",""
"","rating","","html-slider-response","52","768372","0.0-1.0-49.0","42","66556","Male","4485","","","","","50","47","12","Stimuli/Experimental_stims/faces/aiony-haust-jmATI5Q_YgY-unsplash.jpg","","","","","","","","","","","","","","","","","","","","","","","","","","","","","","","","","","","","","","","","","","","","","","","","","","","","","","","","","","","","","","","","",""
"","localizer_instructions","","instructions","53","821660","0.0-2.0-0.0-0.0","42","66556","Male","53216","","[{""page_index"":0,""viewing_time"":28520},{""page_index"":1,""viewing_time"":23073},{""page_index"":2,""viewing_time"":1623}]","","","","","","","","","","","","","","","","","","","","","","","","","","","","","","","","","","","","","","","","","","","","","","","","","","","","","","","","","","","","","","","","","","","","","","",""
"","localizer_comprehension_check","","survey-multi-choice","54","835029","0.0-2.0-0.0-1.0","42","66556","Male","13342","{""Q0"":""True"",""Q1"":""K"",""Q2"":""D""}","","0","","","","","","","","","","","","","","","","","","","","","","","","","","","","","","","","","","","","","","","","","","","","","","","","","","","","","","","","","","","","","","","","","","","","","",""
"","","","html-keyboard-response","55","844591","0.0-2.0-1.0","42","66556","Male","9544","","","","68","","","","","","","","","","","","","","","","","","","","","","","","","","","","","","","","","","","","","","","","","","","","","","","","","","","","","","","","","","","","","","","","","","","","",""
"","localizer","","html-keyboard-response","56","845008","0.0-2.0-2.0-0.0","42","66556","Male","NaN","","","","null","NaN","0","","Stimuli/Practice_stims/Localizer/annie-spratt-g9KFpAfQ5bc-unsplash.jpg","844591","0","NaN","","0","1","0","400","0","417","0","","","","","","","","","","","","","","","","","","","","","","","","","","","","","","","","","","","","","","","","","","","","","","","","","","","","","",""
"","iti_localizer","","html-keyboard-response","57","845320","0.0-2.0-2.0-1.0","42","66556","Male","null","","","","null","","0","","","845008","0","","","","","","300","400","312","417","300","","","","","","","","","","","","","","","","","","","","","","","","","","","","","","","","","","","","","","","","","","","","","","","","","","","","",""
"","localizer","","html-keyboard-response","58","845745","0.0-2.0-2.1-0.1","42","66556","Male","268","","","","68","0","0","","Stimuli/Practice_stims/Localizer/annie-spratt-g9KFpAfQ5bc-unsplash.jpg","845320","0","NaN","","0","0","1","400","700","425","729","","","","","","","","","","","","","","","","","","","","","","","","","","","","","","","","","","","","","","","","","","","","","","","","","","","","","",""
"","iti_localizer","","html-keyboard-response","59","846056","0.0-2.0-2.1-1.1","42","66556","Male","null","","","","null","","0","","","845745","0","","","","","","300","1100","311","1154","300","","","","","","","","","","","","","","","","","","","","","","","","","","","","","","","","","","","","","","","","","","","","","","","","","","","","",""
"","localizer","","html-keyboard-response","60","846473","0.0-2.0-3.0-0.0","42","66556","Male","NaN","","","","null","NaN","1","","Stimuli/Practice_stims/Localizer/becca-tapert-sY5RjMB1KkE-unsplash.jpg","846056","0","NaN","","0","1","0","400","1400","417","1465","","","","","","","","","","","","","","","","","","","","","","","","","","","","","","","","","","","","","","","","","","","","","","","","","","","","","",""
"","iti_localizer","","html-keyboard-response","61","846784","0.0-2.0-3.0-1.0","42","66556","Male","null","","","","null","","1","","","846473","0","","","","","","300","1800","311","1882","300","","","","","","","","","","","","","","","","","","","","","","","","","","","","","","","","","","","","","","","","","","","","","","","","","","","","",""
"","localizer","","html-keyboard-response","62","847201","0.0-2.0-3.1-0.1","42","66556","Male","337","","","","68","0","1","","Stimuli/Practice_stims/Localizer/becca-tapert-sY5RjMB1KkE-unsplash.jpg","846784","0","NaN","","0","0","1","400","2100","417","2193","","","","","","","","","","","","","","","","","","","","","","","","","","","","","","","","","","","","","","","","","","","","","","","","","","","","","",""
"","iti_localizer","","html-keyboard-response","63","847512","0.0-2.0-3.1-1.1","42","66556","Male","null","","","","null","","1","","","847201","0","","","","","","300","2500","311","2610","300","","","","","","","","","","","","","","","","","","","","","","","","","","","","","","","","","","","","","","","","","","","","","","","","","","","","",""
"","localizer","","html-keyboard-response","64","847929","0.0-2.0-4.0-0.0","42","66556","Male","279","","","","68","0","2","","Stimuli/Practice_stims/Localizer/charl-durand-bsfXvI25iNg-unsplash.jpg","847512","0","NaN","","1","0","0","400","2800","417","2921","","","","","","","","","","","","","","","","","","","","","","","","","","","","","","","","","","","","","","","","","","","","","","","","","","","","","",""
"","iti_localizer","","html-keyboard-response","65","848240","0.0-2.0-4.0-1.0","42","66556","Male","null","","","","null","","2","","","847929","0","","","","","","300","3200","311","3338","300","","","","","","","","","","","","","","","","","","","","","","","","","","","","","","","","","","","","","","","","","","","","","","","","","","","","",""
"","localizer","","html-keyboard-response","66","848656","0.0-2.0-5.0-0.0","42","66556","Male","NaN","","","","null","NaN","3","","Stimuli/Practice_stims/Localizer/nizar-albusaidy-B2r2SWAf5CE-unsplash.jpg","848240","0","NaN","","0","1","0","400","3500","416","3649","","","","","","","","","","","","","","","","","","","","","","","","","","","","","","","","","","","","","","","","","","","","","","","","","","","","","",""
"","iti_localizer","","html-keyboard-response","67","848968","0.0-2.0-5.0-1.0","42","66556","Male","null","","","","null","","3","","","848656","0","","","","","","300","3900","312","4065","300","","","","","","","","","","","","","","","","","","","","","","","","","","","","","","","","","","","","","","","","","","","","","","","","","","","","",""
"","localizer","","html-keyboard-response","68","849384","0.0-2.0-5.1-0.1","42","66556","Male","NaN","","","","null","NaN","3","","Stimuli/Practice_stims/Localizer/nizar-albusaidy-B2r2SWAf5CE-unsplash.jpg","848968","0","NaN","","0","1","0","400","4200","416","4377","","","","","","","","","","","","","","","","","","","","","","","","","","","","","","","","","","","","","","","","","","","","","","","","","","","","","",""
"","iti_localizer","","html-keyboard-response","69","849696","0.0-2.0-5.1-1.1","42","66556","Male","null","","","","null","","3","","","849384","0","","","","","","300","4600","312","4793","300","","","","","","","","","","","","","","","","","","","","","","","","","","","","","","","","","","","","","","","","","","","","","","","","","","","","",""
"","localizer","","html-keyboard-response","70","850113","0.0-2.0-5.2-0.2","42","66556","Male","342","","","","68","0","3","","Stimuli/Practice_stims/Localizer/nizar-albusaidy-B2r2SWAf5CE-unsplash.jpg","849696","0","NaN","","0","0","1","400","4900","417","5105","","","","","","","","","","","","","","","","","","","","","","","","","","","","","","","","","","","","","","","","","","","","","","","","","","","","","",""
"","iti_localizer","","html-keyboard-response","71","850424","0.0-2.0-5.2-1.2","42","66556","Male","null","","","","null","","3","","","850113","0","","","","","","300","5300","311","5522","300","","","","","","","","","","","","","","","","","","","","","","","","","","","","","","","","","","","","","","","","","","","","","","","","","","","","",""
"","localizer","","html-keyboard-response","72","850842","0.0-2.0-6.0-0.0","42","66556","Male","405","","","","75","1","4","","Stimuli/Practice_stims/Localizer/randy-fath-epf1tdtIIkM-unsplash.jpg","850424","0","NaN","","1","0","1","400","5600","418","5833","","","","","","","","","","","","","","","","","","","","","","","","","","","","","","","","","","","","","","","","","","","","","","","","","","","","","",""
"","iti_localizer","","html-keyboard-response","73","851152","0.0-2.0-6.0-1.0","42","66556","Male","null","","","","null","","4","","","850842","0","","","","","","300","6000","310","6251","300","","","","","","","","","","","","","","","","","","","","","","","","","","","","","","","","","","","","","","","","","","","","","","","","","","","","",""
"","localizer","","html-keyboard-response","74","851569","0.0-2.0-7.0-0.0","42","66556","Male","359","","","","68","0","5","","Stimuli/Practice_stims/Localizer/yassine-khalfalli-adsQ9d_Cx0c-unsplash.jpg","851152","0","NaN","","0","0","1","400","6300","417","6561","","","","","","","","","","","","","","","","","","","","","","","","","","","","","","","","","","","","","","","","","","","","","","","","","","","","","",""
"","iti_localizer","","html-keyboard-response","75","851880","0.0-2.0-7.0-1.0","42","66556","Male","null","","","","null","","5","","","851569","0","","","","","","300","6700","311","6978","300","","","","","","","","","","","","","","","","","","","","","","","","","","","","","","","","","","","","","","","","","","","","","","","","","","","","",""
"","practice_over","","html-keyboard-response","76","854174","0.0-2.0-7.0-2.0-0.0","42","66556","Male","2284","","","","68","","","","","","","","","","","","","","","","","","","","","","","","","","","","","","","","","","","","","","","","","","","","","","","","","","","","","","","","","","","","","","","","","","","","",""
"","start_run","","html-keyboard-response","77","856319","0.0-2.0-7.0-2.0-1.0","42","66556","Male","2135","","","","84","","","","","","","","","","","","","","","","","","","","","","","","","","","","","","","","","","","","","","","","","","","","","","","","","","","","","","","","","","","","","","","","","","","","",""
"","localizer","","html-keyboard-response","78","856736","0.0-2.0-8.0-0.0","42","66556","Male","NaN","","","","null","NaN","6","","Stimuli/Experimental_stims/localizer/faces/christina-wocintechchat-com-0Zx1bDv5BNY-unsplash.jpg","856319","1","faces","","0","1","0","400","0","417","0","","","","","","","","","","","","","","","","","","","","","","","","","","","","","","","","","","","","","","","","","","","","","","","","","","","","","",""
"","iti_localizer","","html-keyboard-response","79","857049","0.0-2.0-8.0-1.0","42","66556","Male","null","","","","null","","6","","","856736","1","","","","","","300","400","313","417","300","","","","","","","","","","","","","","","","","","","","","","","","","","","","","","","","","","","","","","","","","","","","","","","","","","","","",""
"","localizer","","html-keyboard-response","80","857464","0.0-2.0-9.0-0.0","42","66556","Male","NaN","","","","null","NaN","7","","Stimuli/Experimental_stims/localizer/faces/jeffery-erhunse-BQMZ5ligqps-unsplash.jpg","857049","1","faces","","0","1","0","400","700","415","730","","","","","","","","","","","","","","","","","","","","","","","","","","","","","","","","","","","","","","","","","","","","","","","","","","","","","",""
"","iti_localizer","","html-keyboard-response","81","857776","0.0-2.0-9.0-1.0","42","66556","Male","null","","","","null","","7","","","857464","1","","","","","","300","1100","312","1145","300","","","","","","","","","","","","","","","","","","","","","","","","","","","","","","","","","","","","","","","","","","","","","","","","","","","","",""
"","localizer","","html-keyboard-response","82","858193","0.0-2.0-10.0-0.0","42","66556","Male","295","","","","68","0","8","","Stimuli/Experimental_stims/localizer/faces/matheus-ferrero-W7b3eDUb_2I-unsplash.jpg","857776","1","faces","","0","0","1","400","1400","417","1457","","","","","","","","","","","","","","","","","","","","","","","","","","","","","","","","","","","","","","","","","","","","","","","","","","","","","",""
"","iti_localizer","","html-keyboard-response","83","858504","0.0-2.0-10.0-1.0","42","66556","Male","null","","","","null","","8","","","858193","1","","","","","","300","1800","311","1874","300","","","","","","","","","","","","","","","","","","","","","","","","","","","","","","","","","","","","","","","","","","","","","","","","","","","","",""
"","localizer","","html-keyboard-response","84","858920","0.0-2.0-11.0-0.0","42","66556","Male","394","","","","75","1","9","","Stimuli/Experimental_stims/localizer/faces/jurica-koletic-7YVZYZeITc8-unsplash.jpg","858504","1","faces","","1","0","1","400","2100","416","2185","","","","","","","","","","","","","","","","","","","","","","","","","","","","","","","","","","","","","","","","","","","","","","","","","","","","","",""
"","iti_localizer","","html-keyboard-response","85","859233","0.0-2.0-11.0-1.0","42","66556","Male","null","","","","null","","9","","","858920","1","","","","","","300","2500","313","2601","300","","","","","","","","","","","","","","","","","","","","","","","","","","","","","","","","","","","","","","","","","","","","","","","","","","","","",""
"","localizer","","html-keyboard-response","86","859649","0.0-2.0-12.0-0.0","42","66556","Male","275","","","","68","0","10","","Stimuli/Experimental_stims/localizer/faces/drew-hays-agGIKYs4mYs-unsplash.jpg","859233","1","faces","","0","0","1","400","2800","416","2914","","","","","","","","","","","","","","","","","","","","","","","","","","","","","","","","","","","","","","","","","","","","","","","","","","","","","",""
"","iti_localizer","","html-keyboard-response","87","859960","0.0-2.0-12.0-1.0","42","66556","Male","null","","","","null","","10","","","859649","1","","","","","","300","3200","311","3330","300","","","","","","","","","","","","","","","","","","","","","","","","","","","","","","","","","","","","","","","","","","","","","","","","","","","","",""
"","localizer","","html-keyboard-response","88","860376","0.0-2.0-13.0-0.0","42","66556","Male","NaN","","","","null","NaN","11","","Stimuli/Experimental_stims/localizer/faces/rui-silvestre-hAMJpesMeDE-unsplash.jpg","859960","1","faces","","0","1","0","400","3500","416","3641","","","","","","","","","","","","","","","","","","","","","","","","","","","","","","","","","","","","","","","","","","","","","","","","","","","","","",""
"","iti_localizer","","html-keyboard-response","89","860689","0.0-2.0-13.0-1.0","42","66556","Male","null","","","","null","","11","","","860376","1","","","","","","300","3900","313","4057","300","","","","","","","","","","","","","","","","","","","","","","","","","","","","","","","","","","","","","","","","","","","","","","","","","","","","",""
"","localizer","","html-keyboard-response","90","861104","0.0-2.0-14.0-0.0","42","66556","Male","374","","","","68","0","12","","Stimuli/Experimental_stims/localizer/faces/sean-kong--1B_y4wGs-s-unsplash.jpg","860689","1","faces","","0","0","1","400","4200","415","4370","","","","","","","","","","","","","","","","","","","","","","","","","","","","","","","","","","","","","","","","","","","","","","","","","","","","","",""
"","iti_localizer","","html-keyboard-response","91","861416","0.0-2.0-14.0-1.0","42","66556","Male","null","","","","null","","12","","","861104","1","","","","","","300","4600","312","4785","300","","","","","","","","","","","","","","","","","","","","","","","","","","","","","","","","","","","","","","","","","","","","","","","","","","","","",""
"","localizer","","html-keyboard-response","92","861833","0.0-2.0-15.0-0.0","42","66556","Male","371","","","","68","0","13","","Stimuli/Experimental_stims/localizer/faces/vince-fleming-j3lf-Jn6deo-unsplash.jpg","861416","1","faces","","0","0","1","400","4900","417","5097","","","","","","","","","","","","","","","","","","","","","","","","","","","","","","","","","","","","","","","","","","","","","","","","","","","","","",""
"","iti_localizer","","html-keyboard-response","93","862144","0.0-2.0-15.0-1.0","42","66556","Male","null","","","","null","","13","","","861833","1","","","","","","300","5300","311","5514","300","","","","","","","","","","","","","","","","","","","","","","","","","","","","","","","","","","","","","","","","","","","","","","","","","","","","",""
"","localizer","","html-keyboard-response","94","862560","0.0-2.0-16.0-0.0","42","66556","Male","NaN","","","","null","NaN","14","","Stimuli/Experimental_stims/localizer/faces/tyler-nix-ZGa9d1a_4tA-unsplash.jpg","862144","1","faces","","0","1","0","400","5600","416","5825","","","","","","","","","","","","","","","","","","","","","","","","","","","","","","","","","","","","","","","","","","","","","","","","","","","","","",""
"","iti_localizer","","html-keyboard-response","95","862872","0.0-2.0-16.0-1.0","42","66556","Male","null","","","","null","","14","","","862560","1","","","","","","300","6000","312","6241","300","","","","","","","","","","","","","","","","","","","","","","","","","","","","","","","","","","","","","","","","","","","","","","","","","","","","",""
"","localizer","","html-keyboard-response","96","863288","0.0-2.0-17.0-0.0","42","66556","Male","371","","","","68","0","15","","Stimuli/Experimental_stims/localizer/faces/abstral-official-cyOKLSgkgCE-unsplash.jpg","862872","1","faces","","0","0","1","400","6300","416","6553","","","","","","","","","","","","","","","","","","","","","","","","","","","","","","","","","","","","","","","","","","","","","","","","","","","","","",""
"","iti_localizer","","html-keyboard-response","97","863600","0.0-2.0-17.0-1.0","42","66556","Male","null","","","","null","","15","","","863288","1","","","","","","300","6700","312","6969","300","","","","","","","","","","","","","","","","","","","","","","","","","","","","","","","","","","","","","","","","","","","","","","","","","","","","",""
"","localizer","","html-keyboard-response","98","864016","0.0-2.0-18.0-0.0","42","66556","Male","307","","","","68","0","16","","Stimuli/Experimental_stims/localizer/faces/ethan-haddox-__ng3cRXmFE-unsplash.jpg","863600","1","faces","","0","0","1","400","7000","416","7281","","","","","","","","","","","","","","","","","","","","","","","","","","","","","","","","","","","","","","","","","","","","","","","","","","","","","",""
"","iti_localizer","","html-keyboard-response","99","864328","0.0-2.0-18.0-1.0","42","66556","Male","null","","","","null","","16","","","864016","1","","","","","","300","7400","312","7697","300","","","","","","","","","","","","","","","","","","","","","","","","","","","","","","","","","","","","","","","","","","","","","","","","","","","","",""
"","localizer","","html-keyboard-response","100","864741","0.0-2.0-19.0-0.0","42","66556","Male","299","","","","68","0","17","","Stimuli/Experimental_stims/localizer/faces/foto-sushi-6anudmpILw4-unsplash.jpg","864328","1","faces","","0","0","1","400","7700","413","8009","","","","","","","","","","","","","","","","","","","","","","","","","","","","","","","","","","","","","","","","","","","","","","","","","","","","","",""
"","iti_localizer","","html-keyboard-response","101","865057","0.0-2.0-19.0-1.0","42","66556","Male","null","","","","null","","17","","","864741","1","","","","","","300","8100","316","8422","300","","","","","","","","","","","","","","","","","","","","","","","","","","","","","","","","","","","","","","","","","","","","","","","","","","","","",""
"","localizer","","html-keyboard-response","102","865472","0.0-2.0-20.0-0.0","42","66556","Male","301","","","","68","0","18","","Stimuli/Experimental_stims/localizer/faces/christian-ferrer-8vT-DgHZDG4-unsplash.jpg","865057","1","faces","","0","0","1","400","8400","415","8738","","","","","","","","","","","","","","","","","","","","","","","","","","","","","","","","","","","","","","","","","","","","","","","","","","","","","",""
"","iti_localizer","","html-keyboard-response","103","865784","0.0-2.0-20.0-1.0","42","66556","Male","null","","","","null","","18","","","865472","1","","","","","","300","8800","312","9153","300","","","","","","","","","","","","","","","","","","","","","","","","","","","","","","","","","","","","","","","","","","","","","","","","","","","","",""
"","localizer","","html-keyboard-response","104","866210","0.0-2.0-21.0-0.0","42","66556","Male","316","","","","68","0","19","","Stimuli/Experimental_stims/localizer/faces/stephanie-nakagawa-ADSKIn0ScDg-unsplash.jpg","865784","1","faces","","0","0","1","400","9100","426","9465","","","","","","","","","","","","","","","","","","","","","","","","","","","","","","","","","","","","","","","","","","","","","","","","","","","","","",""
"","iti_localizer","","html-keyboard-response","105","866528","0.0-2.0-21.0-1.0","42","66556","Male","null","","","","null","","19","","","866210","1","","","","","","300","9500","318","9891","300","","","","","","","","","","","","","","","","","","","","","","","","","","","","","","","","","","","","","","","","","","","","","","","","","","","","",""
"","localizer","","html-keyboard-response","106","866942","0.0-2.0-22.0-0.0","42","66556","Male","321","","","","68","0","20","","Stimuli/Experimental_stims/localizer/faces/toa-heftiba-2O1EUSTRBrY-unsplash.jpg","866528","1","faces","","1","0","0","400","9800","414","10209","","","","","","","","","","","","","","","","","","","","","","","","","","","","","","","","","","","","","","","","","","","","","","","","","","","","","",""
"","iti_localizer","","html-keyboard-response","107","867256","0.0-2.0-22.0-1.0","42","66556","Male","null","","","","null","","20","","","866942","1","","","","","","300","10200","314","10623","300","","","","","","","","","","","","","","","","","","","","","","","","","","","","","","","","","","","","","","","","","","","","","","","","","","","","",""
"","localizer","","html-keyboard-response","108","867681","0.0-2.0-23.0-0.0","42","66556","Male","NaN","","","","null","NaN","21","","Stimuli/Experimental_stims/localizer/faces/darshan-patel-QJEVpydulGs-unsplash.jpg","867256","1","faces","","0","1","0","400","10500","425","10937","","","","","","","","","","","","","","","","","","","","","","","","","","","","","","","","","","","","","","","","","","","","","","","","","","","","","",""
"","iti_localizer","","html-keyboard-response","109","867994","0.0-2.0-23.0-1.0","42","66556","Male","null","","","","null","","21","","","867681","1","","","","","","300","10900","313","11362","300","","","","","","","","","","","","","","","","","","","","","","","","","","","","","","","","","","","","","","","","","","","","","","","","","","","","",""
"","localizer","","html-keyboard-response","110","868409","0.0-2.0-24.0-0.0","42","66556","Male","NaN","","","","null","NaN","22","","Stimuli/Experimental_stims/localizer/faces/mubariz-mehdizadeh-o-wlIFT4zE4-unsplash.jpg","867994","1","faces","","0","1","0","400","11200","415","11675","","","","","","","","","","","","","","","","","","","","","","","","","","","","","","","","","","","","","","","","","","","","","","","","","","","","","",""
"","iti_localizer","","html-keyboard-response","111","868720","0.0-2.0-24.0-1.0","42","66556","Male","null","","","","null","","22","","","868409","1","","","","","","300","11600","311","12090","300","","","","","","","","","","","","","","","","","","","","","","","","","","","","","","","","","","","","","","","","","","","","","","","","","","","","",""
"","localizer","","html-keyboard-response","112","869132","0.0-2.0-25.0-0.0","42","66556","Male","401","","","","68","0","23","","Stimuli/Experimental_stims/localizer/faces/midas-hofstra-tidSLv-UaNs-unsplash.jpg","868720","1","faces","","0","0","1","400","11900","412","12401","","","","","","","","","","","","","","","","","","","","","","","","","","","","","","","","","","","","","","","","","","","","","","","","","","","","","",""
"","iti_localizer","","html-keyboard-response","113","869448","0.0-2.0-25.0-1.0","42","66556","Male","null","","","","null","","23","","","869132","1","","","","","","300","12300","316","12813","300","","","","","","","","","","","","","","","","","","","","","","","","","","","","","","","","","","","","","","","","","","","","","","","","","","","","",""
"","localizer","","html-keyboard-response","114","869864","0.0-2.0-26.0-0.0","42","66556","Male","287","","","","68","0","24","","Stimuli/Experimental_stims/localizer/faces/toa-heftiba-O3ymvT7Wf9U-unsplash.jpg","869448","1","faces","","0","0","1","400","12600","416","13129","","","","","","","","","","","","","","","","","","","","","","","","","","","","","","","","","","","","","","","","","","","","","","","","","","","","","",""
"","iti_localizer","","html-keyboard-response","115","870176","0.0-2.0-26.0-1.0","42","66556","Male","null","","","","null","","24","","","869864","1","","","","","","300","13000","312","13545","300","","","","","","","","","","","","","","","","","","","","","","","","","","","","","","","","","","","","","","","","","","","","","","","","","","","","",""
"","localizer","","html-keyboard-response","116","870591","0.0-2.0-27.0-0.0","42","66556","Male","247","","","","68","0","25","","Stimuli/Experimental_stims/localizer/faces/katsiaryna-endruszkiewicz-BteCp6aq4GI-unsplash.jpg","870176","1","faces","","0","0","1","400","13300","415","13857","","","","","","","","","","","","","","","","","","","","","","","","","","","","","","","","","","","","","","","","","","","","","","","","","","","","","",""
"","iti_localizer","","html-keyboard-response","117","884608","0.0-2.0-27.0-1.0","42","66556","Male","null","","","","null","","25","","","870591","1","","","","","","14000","13700","14017","14272","14000","","","","","","","","","","","","","","","","","","","","","","","","","","","","","","","","","","","","","","","","","","","","","","","","","","","","",""
"","localizer","","html-keyboard-response","118","885025","0.0-2.0-28.0-0.0","42","66556","Male","NaN","","","","null","NaN","26","","Stimuli/Experimental_stims/localizer/outdoor_scenes/jaanus-jagomagi-FddgewYQF2M-unsplash.jpg","884608","1","outdoor_scenes","","0","1","0","400","27700","417","28289","","","","","","","","","","","","","","","","","","","","","","","","","","","","","","","","","","","","","","","","","","","","","","","","","","","","","",""
"","iti_localizer","","html-keyboard-response","119","885337","0.0-2.0-28.0-1.0","42","66556","Male","null","","","","null","","26","","","885025","1","","","","","","300","28100","312","28706","300","","","","","","","","","","","","","","","","","","","","","","","","","","","","","","","","","","","","","","","","","","","","","","","","","","","","",""
"","localizer","","html-keyboard-response","120","885755","0.0-2.0-29.0-0.0","42","66556","Male","NaN","","","","null","NaN","27","","Stimuli/Experimental_stims/localizer/outdoor_scenes/v2osk-1Z2niiBPg5A-unsplash.jpg","885337","1","outdoor_scenes","","1","1","0","400","28400","418","29018","","","","","","","","","","","","","","","","","","","","","","","","","","","","","","","","","","","","","","","","","","","","","","","","","","","","","",""
"","iti_localizer","","html-keyboard-response","121","886073","0.0-2.0-29.0-1.0","42","66556","Male","null","","","","null","","27","","","885755","1","","","","","","300","28800","318","29436","300","","","","","","","","","","","","","","","","","","","","","","","","","","","","","","","","","","","","","","","","","","","","","","","","","","","","",""
"","localizer","","html-keyboard-response","122","886488","0.0-2.0-30.0-0.0","42","66556","Male","NaN","","","","null","NaN","28","","Stimuli/Experimental_stims/localizer/outdoor_scenes/wai-siew-mTFyV8oNDzU-unsplash.jpg","886073","1","outdoor_scenes","","0","1","0","400","29100","415","29754","","","","","","","","","","","","","","","","","","","","","","","","","","","","","","","","","","","","","","","","","","","","","","","","","","","","","",""
"","iti_localizer","","html-keyboard-response","123","886800","0.0-2.0-30.0-1.0","42","66556","Male","null","","","","null","","28","","","886488","1","","","","","","300","29500","312","30169","300","","","","","","","","","","","","","","","","","","","","","","","","","","","","","","","","","","","","","","","","","","","","","","","","","","","","",""
"","localizer","","html-keyboard-response","124","887216","0.0-2.0-31.0-0.0","42","66556","Male","170","","","","75","1","29","","Stimuli/Experimental_stims/localizer/outdoor_scenes/jay-cai-F_laX9E8CUo-unsplash.jpg","886800","1","outdoor_scenes","","0","0","0","400","29800","416","30481","","","","","","","","","","","","","","","","","","","","","","","","","","","","","","","","","","","","","","","","","","","","","","","","","","","","","",""
"","iti_localizer","","html-keyboard-response","125","887529","0.0-2.0-31.0-1.0","42","66556","Male","null","","","","null","","29","","","887216","1","","","","","","300","30200","313","30897","300","","","","","","","","","","","","","","","","","","","","","","","","","","","","","","","","","","","","","","","","","","","","","","","","","","","","",""
"","localizer","","html-keyboard-response","126","887945","0.0-2.0-32.0-0.0","42","66556","Male","221","","","","68","0","30","","Stimuli/Experimental_stims/localizer/outdoor_scenes/jeremy-cai-ucYWe5mzTMU-unsplash.jpg","887529","1","outdoor_scenes","","0","0","1","400","30500","416","31210","","","","","","","","","","","","","","","","","","","","","","","","","","","","","","","","","","","","","","","","","","","","","","","","","","","","","",""
"","iti_localizer","","html-keyboard-response","127","888257","0.0-2.0-32.0-1.0","42","66556","Male","null","","","","null","","30","","","887945","1","","","","","","300","30900","312","31626","300","","","","","","","","","","","","","","","","","","","","","","","","","","","","","","","","","","","","","","","","","","","","","","","","","","","","",""
"","localizer","","html-keyboard-response","128","888672","0.0-2.0-33.0-0.0","42","66556","Male","73","","","","68","0","31","","Stimuli/Experimental_stims/localizer/outdoor_scenes/erol-ahmed-d3pTF3r_hwY-unsplash.jpg","888257","1","outdoor_scenes","","0","0","1","400","31200","415","31938","","","","","","","","","","","","","","","","","","","","","","","","","","","","","","","","","","","","","","","","","","","","","","","","","","","","","",""
"","iti_localizer","","html-keyboard-response","129","888984","0.0-2.0-33.0-1.0","42","66556","Male","null","","","","null","","31","","","888672","1","","","","","","300","31600","312","32353","300","","","","","","","","","","","","","","","","","","","","","","","","","","","","","","","","","","","","","","","","","","","","","","","","","","","","",""
"","localizer","","html-keyboard-response","130","889400","0.0-2.0-34.0-0.0","42","66556","Male","20","","","","68","0","32","","Stimuli/Experimental_stims/localizer/outdoor_scenes/quino-al-vmZ2DehWQ3Q-unsplash.jpg","888984","1","outdoor_scenes","","0","0","1","400","31900","416","32665","","","","","","","","","","","","","","","","","","","","","","","","","","","","","","","","","","","","","","","","","","","","","","","","","","","","","",""
"","iti_localizer","","html-keyboard-response","131","889713","0.0-2.0-34.0-1.0","42","66556","Male","null","","","","null","","32","","","889400","1","","","","","","300","32300","313","33081","300","","","","","","","","","","","","","","","","","","","","","","","","","","","","","","","","","","","","","","","","","","","","","","","","","","","","",""
"","localizer","","html-keyboard-response","132","890129","0.0-2.0-35.0-0.0","42","66556","Male","NaN","","","","null","NaN","33","","Stimuli/Experimental_stims/localizer/outdoor_scenes/kenneth-thewissen-D76DklsG-5U-unsplash.jpg","889713","1","outdoor_scenes","","0","1","0","400","32600","416","33394","","","","","","","","","","","","","","","","","","","","","","","","","","","","","","","","","","","","","","","","","","","","","","","","","","","","","",""
"","iti_localizer","","html-keyboard-response","133","890443","0.0-2.0-35.0-1.0","42","66556","Male","null","","","","null","","33","","","890129","1","","","","","","300","33000","314","33810","300","","","","","","","","","","","","","","","","","","","","","","","","","","","","","","","","","","","","","","","","","","","","","","","","","","","","",""
"","localizer","","html-keyboard-response","134","890856","0.0-2.0-36.0-0.0","42","66556","Male","44","","","","68","0","34","","Stimuli/Experimental_stims/localizer/outdoor_scenes/johny-goerend-U_diPCXCBxU-unsplash.jpg","890443","1","outdoor_scenes","","0","0","1","400","33300","413","34124","","","","","","","","","","","","","","","","","","","","","","","","","","","","","","","","","","","","","","","","","","","","","","","","","","","","","",""
"","iti_localizer","","html-keyboard-response","135","891168","0.0-2.0-36.0-1.0","42","66556","Male","null","","","","null","","34","","","890856","1","","","","","","300","33700","312","34537","300","","","","","","","","","","","","","","","","","","","","","","","","","","","","","","","","","","","","","","","","","","","","","","","","","","","","",""
"","localizer","","html-keyboard-response","136","891584","0.0-2.0-37.0-0.0","42","66556","Male","207","","","","68","0","35","","Stimuli/Experimental_stims/localizer/outdoor_scenes/ken-cheung-KonWFWUaAuk-unsplash.jpg","891168","1","outdoor_scenes","","0","0","1","400","34000","416","34849","","","","","","","","","","","","","","","","","","","","","","","","","","","","","","","","","","","","","","","","","","","","","","","","","","","","","",""
"","iti_localizer","","html-keyboard-response","137","891899","0.0-2.0-37.0-1.0","42","66556","Male","null","","","","null","","35","","","891584","1","","","","","","300","34400","315","35265","300","","","","","","","","","","","","","","","","","","","","","","","","","","","","","","","","","","","","","","","","","","","","","","","","","","","","",""
"","localizer","","html-keyboard-response","138","892313","0.0-2.0-38.0-0.0","42","66556","Male","347","","","","68","0","36","","Stimuli/Experimental_stims/localizer/outdoor_scenes/alessio-furlan-Vw3a0HgE7AM-unsplash.jpg","891899","1","outdoor_scenes","","0","0","1","400","34700","414","35580","","","","","","","","","","","","","","","","","","","","","","","","","","","","","","","","","","","","","","","","","","","","","","","","","","","","","",""
"","iti_localizer","","html-keyboard-response","139","892624","0.0-2.0-38.0-1.0","42","66556","Male","null","","","","null","","36","","","892313","1","","","","","","300","35100","311","35994","300","","","","","","","","","","","","","","","","","","","","","","","","","","","","","","","","","","","","","","","","","","","","","","","","","","","","",""
"","localizer","","html-keyboard-response","140","893043","0.0-2.0-39.0-0.0","42","66556","Male","NaN","","","","null","NaN","37","","Stimuli/Experimental_stims/localizer/outdoor_scenes/ricardo-gomez-angel-dTSaC-S-7fs-unsplash.jpg","892624","1","outdoor_scenes","","0","1","0","400","35400","419","36305","","","","","","","","","","","","","","","","","","","","","","","","","","","","","","","","","","","","","","","","","","","","","","","","","","","","","",""
"","iti_localizer","","html-keyboard-response","141","893361","0.0-2.0-39.0-1.0","42","66556","Male","null","","","","null","","37","","","893043","1","","","","","","300","35800","318","36724","300","","","","","","","","","","","","","","","","","","","","","","","","","","","","","","","","","","","","","","","","","","","","","","","","","","","","",""
"","localizer","","html-keyboard-response","142","893777","0.0-2.0-40.0-0.0","42","66556","Male","261","","","","68","0","38","","Stimuli/Experimental_stims/localizer/outdoor_scenes/samuel-ferrara-IEHPDNk2-8w-unsplash.jpg","893361","1","outdoor_scenes","","0","0","1","400","36100","416","37042","","","","","","","","","","","","","","","","","","","","","","","","","","","","","","","","","","","","","","","","","","","","","","","","","","","","","",""
"","iti_localizer","","html-keyboard-response","143","894088","0.0-2.0-40.0-1.0","42","66556","Male","null","","","","null","","38","","","893777","1","","","","","","300","36500","311","37458","300","","","","","","","","","","","","","","","","","","","","","","","","","","","","","","","","","","","","","","","","","","","","","","","","","","","","",""
"","localizer","","html-keyboard-response","144","894504","0.0-2.0-41.0-0.0","42","66556","Male","161","","","","68","0","39","","Stimuli/Experimental_stims/localizer/outdoor_scenes/pietro-de-grandi-T7K4aEPoGGk-unsplash.jpg","894088","1","outdoor_scenes","","0","0","1","400","36800","416","37769","","","","","","","","","","","","","","","","","","","","","","","","","","","","","","","","","","","","","","","","","","","","","","","","","","","","","",""
"","iti_localizer","","html-keyboard-response","145","894816","0.0-2.0-41.0-1.0","42","66556","Male","null","","","","null","","39","","","894504","1","","","","","","300","37200","312","38185","300","","","","","","","","","","","","","","","","","","","","","","","","","","","","","","","","","","","","","","","","","","","","","","","","","","","","",""
"","localizer","","html-keyboard-response","146","895233","0.0-2.0-42.0-0.0","42","66556","Male","233","","","","68","0","40","","Stimuli/Experimental_stims/localizer/outdoor_scenes/tomasz-filipek-CUWC-6MRcNg-unsplash.jpg","894816","1","outdoor_scenes","","0","0","1","400","37500","417","38497","","","","","","","","","","","","","","","","","","","","","","","","","","","","","","","","","","","","","","","","","","","","","","","","","","","","","",""
"","iti_localizer","","html-keyboard-response","147","895544","0.0-2.0-42.0-1.0","42","66556","Male","null","","","","null","","40","","","895233","1","","","","","","300","37900","311","38914","300","","","","","","","","","","","","","","","","","","","","","","","","","","","","","","","","","","","","","","","","","","","","","","","","","","","","",""
"","localizer","","html-keyboard-response","148","895961","0.0-2.0-43.0-0.0","42","66556","Male","246","","","","68","0","41","","Stimuli/Experimental_stims/localizer/outdoor_scenes/cayetano-gil-rguHxZmOF5U-unsplash.jpg","895544","1","outdoor_scenes","","0","0","1","400","38200","417","39225","","","","","","","","","","","","","","","","","","","","","","","","","","","","","","","","","","","","","","","","","","","","","","","","","","","","","",""
"","iti_localizer","","html-keyboard-response","149","896273","0.0-2.0-43.0-1.0","42","66556","Male","null","","","","null","","41","","","895961","1","","","","","","300","38600","312","39642","300","","","","","","","","","","","","","","","","","","","","","","","","","","","","","","","","","","","","","","","","","","","","","","","","","","","","",""
"","localizer","","html-keyboard-response","150","896689","0.0-2.0-44.0-0.0","42","66556","Male","254","","","","68","0","42","","Stimuli/Experimental_stims/localizer/outdoor_scenes/nikola-majksner-hXNGeAFOgT4-unsplash.jpg","896273","1","outdoor_scenes","","0","0","1","400","38900","416","39954","","","","","","","","","","","","","","","","","","","","","","","","","","","","","","","","","","","","","","","","","","","","","","","","","","","","","",""
"","iti_localizer","","html-keyboard-response","151","897000","0.0-2.0-44.0-1.0","42","66556","Male","null","","","","null","","42","","","896689","1","","","","","","300","39300","311","40370","300","","","","","","","","","","","","","","","","","","","","","","","","","","","","","","","","","","","","","","","","","","","","","","","","","","","","",""
"","localizer","","html-keyboard-response","152","897417","0.0-2.0-45.0-0.0","42","66556","Male","209","","","","68","0","43","","Stimuli/Experimental_stims/localizer/outdoor_scenes/wil-stewart-pHANr-CpbYM-unsplash.jpg","897000","1","outdoor_scenes","","1","0","0","400","39600","417","40681","","","","","","","","","","","","","","","","","","","","","","","","","","","","","","","","","","","","","","","","","","","","","","","","","","","","","",""
"","iti_localizer","","html-keyboard-response","153","897728","0.0-2.0-45.0-1.0","42","66556","Male","null","","","","null","","43","","","897417","1","","","","","","300","40000","311","41098","300","","","","","","","","","","","","","","","","","","","","","","","","","","","","","","","","","","","","","","","","","","","","","","","","","","","","",""
"","localizer","","html-keyboard-response","154","898146","0.0-2.0-46.0-0.0","42","66556","Male","288","","","","68","0","44","","Stimuli/Experimental_stims/localizer/outdoor_scenes/chang-qing-2YQoKbyGvDc-unsplash.jpg","897728","1","outdoor_scenes","","0","0","1","400","40300","418","41409","","","","","","","","","","","","","","","","","","","","","","","","","","","","","","","","","","","","","","","","","","","","","","","","","","","","","",""
"","iti_localizer","","html-keyboard-response","155","898464","0.0-2.0-46.0-1.0","42","66556","Male","null","","","","null","","44","","","898146","1","","","","","","300","40700","318","41827","300","","","","","","","","","","","","","","","","","","","","","","","","","","","","","","","","","","","","","","","","","","","","","","","","","","","","",""
"","localizer","","html-keyboard-response","156","898880","0.0-2.0-47.0-0.0","42","66556","Male","327","","","","68","0","45","","Stimuli/Experimental_stims/localizer/outdoor_scenes/solotravelgoals-7kLufxYoqWk-unsplash.jpg","898464","1","outdoor_scenes","","0","0","1","400","41000","416","42145","","","","","","","","","","","","","","","","","","","","","","","","","","","","","","","","","","","","","","","","","","","","","","","","","","","","","",""
"","iti_localizer","","html-keyboard-response","157","912907","0.0-2.0-47.0-1.0","42","66556","Male","null","","","","null","","45","","","898880","1","","","","","","14000","41400","14027","42561","14000","","","","","","","","","","","","","","","","","","","","","","","","","","","","","","","","","","","","","","","","","","","","","","","","","","","","",""
"","localizer","","html-keyboard-response","158","913320","0.0-2.0-48.0-0.0","42","66556","Male","NaN","","","","null","NaN","46","","Stimuli/Experimental_stims/localizer/body_parts/jeremy-bishop-mLd3hAaH2ns-unsplash.jpg","912907","1","body_parts","","0","1","0","400","55400","413","56588","","","","","","","","","","","","","","","","","","","","","","","","","","","","","","","","","","","","","","","","","","","","","","","","","","","","","",""
"","iti_localizer","","html-keyboard-response","159","913632","0.0-2.0-48.0-1.0","42","66556","Male","null","","","","null","","46","","","913320","1","","","","","","300","55800","312","57001","300","","","","","","","","","","","","","","","","","","","","","","","","","","","","","","","","","","","","","","","","","","","","","","","","","","","","",""
"","localizer","","html-keyboard-response","160","914049","0.0-2.0-49.0-0.0","42","66556","Male","NaN","","","","null","NaN","47","","Stimuli/Experimental_stims/localizer/body_parts/lilartsy-1KkhQ8uL28g-unsplash.jpg","913632","1","body_parts","","0","1","0","400","56100","417","57313","","","","","","","","","","","","","","","","","","","","","","","","","","","","","","","","","","","","","","","","","","","","","","","","","","","","","",""
"","iti_localizer","","html-keyboard-response","161","914361","0.0-2.0-49.0-1.0","42","66556","Male","null","","","","null","","47","","","914049","1","","","","","","300","56500","312","57730","300","","","","","","","","","","","","","","","","","","","","","","","","","","","","","","","","","","","","","","","","","","","","","","","","","","","","",""
"","localizer","","html-keyboard-response","162","914778","0.0-2.0-50.0-0.0","42","66556","Male","344","","","","68","0","48","","Stimuli/Experimental_stims/localizer/body_parts/toa-heftiba-qxvWnfHb3-M-unsplash.jpg","914361","1","body_parts","","0","0","1","400","56800","417","58042","","","","","","","","","","","","","","","","","","","","","","","","","","","","","","","","","","","","","","","","","","","","","","","","","","","","","",""
"","iti_localizer","","html-keyboard-response","163","915088","0.0-2.0-50.0-1.0","42","66556","Male","null","","","","null","","48","","","914778","1","","","","","","300","57200","310","58459","300","","","","","","","","","","","","","","","","","","","","","","","","","","","","","","","","","","","","","","","","","","","","","","","","","","","","",""
"","localizer","","html-keyboard-response","164","915504","0.0-2.0-51.0-0.0","42","66556","Male","317","","","","68","0","49","","Stimuli/Experimental_stims/localizer/body_parts/callum-skelton-3KLMq7y46nA-unsplash.jpg","915088","1","body_parts","","1","0","0","400","57500","416","58769","","","","","","","","","","","","","","","","","","","","","","","","","","","","","","","","","","","","","","","","","","","","","","","","","","","","","",""
"","iti_localizer","","html-keyboard-response","165","915817","0.0-2.0-51.0-1.0","42","66556","Male","null","","","","null","","49","","","915504","1","","","","","","300","57900","313","59185","300","","","","","","","","","","","","","","","","","","","","","","","","","","","","","","","","","","","","","","","","","","","","","","","","","","","","",""
"","localizer","","html-keyboard-response","166","916232","0.0-2.0-52.0-0.0","42","66556","Male","327","","","","68","0","50","","Stimuli/Experimental_stims/localizer/body_parts/ant-rozetsky-bXQd8JXx0vs-unsplash.jpg","915817","1","body_parts","","0","0","1","400","58200","415","59498","","","","","","","","","","","","","","","","","","","","","","","","","","","","","","","","","","","","","","","","","","","","","","","","","","","","","",""
"","iti_localizer","","html-keyboard-response","167","916545","0.0-2.0-52.0-1.0","42","66556","Male","null","","","","null","","50","","","916232","1","","","","","","300","58600","313","59913","300","","","","","","","","","","","","","","","","","","","","","","","","","","","","","","","","","","","","","","","","","","","","","","","","","","","","",""
"","localizer","","html-keyboard-response","168","916961","0.0-2.0-53.0-0.0","42","66556","Male","265","","","","68","0","51","","Stimuli/Experimental_stims/localizer/body_parts/boyd-christiansen-uVj7kewrZ-o-unsplash.jpg","916545","1","body_parts","","0","0","1","400","58900","416","60226","","","","","","","","","","","","","","","","","","","","","","","","","","","","","","","","","","","","","","","","","","","","","","","","","","","","","",""
"","iti_localizer","","html-keyboard-response","169","917273","0.0-2.0-53.0-1.0","42","66556","Male","null","","","","null","","51","","","916961","1","","","","","","300","59300","312","60642","300","","","","","","","","","","","","","","","","","","","","","","","","","","","","","","","","","","","","","","","","","","","","","","","","","","","","",""
"","localizer","","html-keyboard-response","170","917688","0.0-2.0-54.0-0.0","42","66556","Male","269","","","","68","0","52","","Stimuli/Experimental_stims/localizer/body_parts/helen-ast-l2iY5Sh0mTg-unsplash.jpg","917273","1","body_parts","","0","0","1","400","59600","415","60954","","","","","","","","","","","","","","","","","","","","","","","","","","","","","","","","","","","","","","","","","","","","","","","","","","","","","",""
"","iti_localizer","","html-keyboard-response","171","918000","0.0-2.0-54.0-1.0","42","66556","Male","null","","","","null","","52","","","917688","1","","","","","","300","60000","312","61369","300","","","","","","","","","","","","","","","","","","","","","","","","","","","","","","","","","","","","","","","","","","","","","","","","","","","","",""
"","localizer","","html-keyboard-response","172","918416","0.0-2.0-55.0-0.0","42","66556","Male","278","","","","68","0","53","","Stimuli/Experimental_stims/localizer/body_parts/pure-julia-E9Q4bqYHtIM-unsplash.jpg","918000","1","body_parts","","0","0","1","400","60300","416","61681","","","","","","","","","","","","","","","","","","","","","","","","","","","","","","","","","","","","","","","","","","","","","","","","","","","","","",""
"","iti_localizer","","html-keyboard-response","173","918729","0.0-2.0-55.0-1.0","42","66556","Male","null","","","","null","","53","","","918416","1","","","","","","300","60700","313","62097","300","","","","","","","","","","","","","","","","","","","","","","","","","","","","","","","","","","","","","","","","","","","","","","","","","","","","",""
"","localizer","","html-keyboard-response","174","919145","0.0-2.0-56.0-0.0","42","66556","Male","NaN","","","","null","NaN","54","","Stimuli/Experimental_stims/localizer/body_parts/sina-rezakhani-d1gQi0Jl05U-unsplash (1).jpg","918729","1","body_parts","","0","1","0","400","61000","416","62410","","","","","","","","","","","","","","","","","","","","","","","","","","","","","","","","","","","","","","","","","","","","","","","","","","","","","",""
"","iti_localizer","","html-keyboard-response","175","919456","0.0-2.0-56.0-1.0","42","66556","Male","null","","","","null","","54","","","919145","1","","","","","","300","61400","311","62826","300","","","","","","","","","","","","","","","","","","","","","","","","","","","","","","","","","","","","","","","","","","","","","","","","","","","","",""
"","localizer","","html-keyboard-response","176","919872","0.0-2.0-57.0-0.0","42","66556","Male","322","","","","68","0","55","","Stimuli/Experimental_stims/localizer/body_parts/megan-menegay-UojxG_BJxnI-unsplash.jpg","919456","1","body_parts","","0","0","1","400","61700","416","63137","","","","","","","","","","","","","","","","","","","","","","","","","","","","","","","","","","","","","","","","","","","","","","","","","","","","","",""
"","iti_localizer","","html-keyboard-response","177","920184","0.0-2.0-57.0-1.0","42","66556","Male","null","","","","null","","55","","","919872","1","","","","","","300","62100","312","63553","300","","","","","","","","","","","","","","","","","","","","","","","","","","","","","","","","","","","","","","","","","","","","","","","","","","","","",""
"","localizer","","html-keyboard-response","178","920600","0.0-2.0-58.0-0.0","42","66556","Male","252","","","","68","0","56","","Stimuli/Experimental_stims/localizer/body_parts/sincerely-media-7TBFwUQA6Xk-unsplash.jpg","920184","1","body_parts","","0","0","1","400","62400","416","63865","","","","","","","","","","","","","","","","","","","","","","","","","","","","","","","","","","","","","","","","","","","","","","","","","","","","","",""
"","iti_localizer","","html-keyboard-response","179","920913","0.0-2.0-58.0-1.0","42","66556","Male","null","","","","null","","56","","","920600","1","","","","","","300","62800","313","64281","300","","","","","","","","","","","","","","","","","","","","","","","","","","","","","","","","","","","","","","","","","","","","","","","","","","","","",""
"","localizer","","html-keyboard-response","180","921329","0.0-2.0-59.0-0.0","42","66556","Male","251","","","","68","0","57","","Stimuli/Experimental_stims/localizer/body_parts/sincerely-media-pdynOoM7xmA-unsplash.jpg","920913","1","body_parts","","0","0","1","400","63100","416","64594","","","","","","","","","","","","","","","","","","","","","","","","","","","","","","","","","","","","","","","","","","","","","","","","","","","","","",""
"","iti_localizer","","html-keyboard-response","181","921640","0.0-2.0-59.0-1.0","42","66556","Male","null","","","","null","","57","","","921329","1","","","","","","300","63500","311","65010","300","","","","","","","","","","","","","","","","","","","","","","","","","","","","","","","","","","","","","","","","","","","","","","","","","","","","",""
"","localizer","","html-keyboard-response","182","922058","0.0-2.0-60.0-0.0","42","66556","Male","377","","","","68","0","58","","Stimuli/Experimental_stims/localizer/body_parts/adrien-king-XzBluXxBoyQ-unsplash.jpg","921640","1","body_parts","","0","0","1","400","63800","418","65321","","","","","","","","","","","","","","","","","","","","","","","","","","","","","","","","","","","","","","","","","","","","","","","","","","","","","",""
"","iti_localizer","","html-keyboard-response","183","922369","0.0-2.0-60.0-1.0","42","66556","Male","null","","","","null","","58","","","922058","1","","","","","","300","64200","311","65739","300","","","","","","","","","","","","","","","","","","","","","","","","","","","","","","","","","","","","","","","","","","","","","","","","","","","","",""
"","localizer","","html-keyboard-response","184","922784","0.0-2.0-61.0-0.0","42","66556","Male","389","","","","75","1","59","","Stimuli/Experimental_stims/localizer/body_parts/nattalia-nunez-MB9sdDfZMSg-unsplash.jpg","922369","1","body_parts","","1","0","1","400","64500","415","66050","","","","","","","","","","","","","","","","","","","","","","","","","","","","","","","","","","","","","","","","","","","","","","","","","","","","","",""
"","iti_localizer","","html-keyboard-response","185","923097","0.0-2.0-61.0-1.0","42","66556","Male","null","","","","null","","59","","","922784","1","","","","","","300","64900","313","66465","300","","","","","","","","","","","","","","","","","","","","","","","","","","","","","","","","","","","","","","","","","","","","","","","","","","","","",""
"","localizer","","html-keyboard-response","186","923513","0.0-2.0-62.0-0.0","42","66556","Male","164","","","","68","0","60","","Stimuli/Experimental_stims/localizer/body_parts/louis-hansel-FjKTMRTQYAs-unsplash.jpg","923097","1","body_parts","","0","0","1","400","65200","416","66778","","","","","","","","","","","","","","","","","","","","","","","","","","","","","","","","","","","","","","","","","","","","","","","","","","","","","",""
"","iti_localizer","","html-keyboard-response","187","923825","0.0-2.0-62.0-1.0","42","66556","Male","null","","","","null","","60","","","923513","1","","","","","","300","65600","312","67194","300","","","","","","","","","","","","","","","","","","","","","","","","","","","","","","","","","","","","","","","","","","","","","","","","","","","","",""
"","localizer","","html-keyboard-response","188","924243","0.0-2.0-63.0-0.0","42","66556","Male","271","","","","68","0","61","","Stimuli/Experimental_stims/localizer/body_parts/jonathan-borba-hTwH8QFkPMs-unsplash.jpg","923825","1","body_parts","","0","0","1","400","65900","418","67506","","","","","","","","","","","","","","","","","","","","","","","","","","","","","","","","","","","","","","","","","","","","","","","","","","","","","",""
"","iti_localizer","","html-keyboard-response","189","924560","0.0-2.0-63.0-1.0","42","66556","Male","null","","","","null","","61","","","924243","1","","","","","","300","66300","317","67924","300","","","","","","","","","","","","","","","","","","","","","","","","","","","","","","","","","","","","","","","","","","","","","","","","","","","","",""
"","localizer","","html-keyboard-response","190","924977","0.0-2.0-64.0-0.0","42","66556","Male","324","","","","68","0","62","","Stimuli/Experimental_stims/localizer/body_parts/hu-chen-tCbTGNwrFNM-unsplash.jpg","924560","1","body_parts","","0","0","1","400","66600","417","68241","","","","","","","","","","","","","","","","","","","","","","","","","","","","","","","","","","","","","","","","","","","","","","","","","","","","","",""
"","iti_localizer","","html-keyboard-response","191","925288","0.0-2.0-64.0-1.0","42","66556","Male","null","","","","null","","62","","","924977","1","","","","","","300","67000","311","68658","300","","","","","","","","","","","","","","","","","","","","","","","","","","","","","","","","","","","","","","","","","","","","","","","","","","","","",""
"","localizer","","html-keyboard-response","192","925704","0.0-2.0-65.0-0.0","42","66556","Male","270","","","","68","0","63","","Stimuli/Experimental_stims/localizer/body_parts/danie-franco-jyyNiSEcCl4-unsplash.jpg","925288","1","body_parts","","0","0","1","400","67300","416","68969","","","","","","","","","","","","","","","","","","","","","","","","","","","","","","","","","","","","","","","","","","","","","","","","","","","","","",""
"","iti_localizer","","html-keyboard-response","193","926016","0.0-2.0-65.0-1.0","42","66556","Male","null","","","","null","","63","","","925704","1","","","","","","300","67700","312","69385","300","","","","","","","","","","","","","","","","","","","","","","","","","","","","","","","","","","","","","","","","","","","","","","","","","","","","",""
"","localizer","","html-keyboard-response","194","926434","0.0-2.0-66.0-0.0","42","66556","Male","308","","","","68","0","64","","Stimuli/Experimental_stims/localizer/body_parts/natalie-grainger-8uB5kFKWWkk-unsplash.jpg","926016","1","body_parts","","0","0","1","400","68000","418","69697","","","","","","","","","","","","","","","","","","","","","","","","","","","","","","","","","","","","","","","","","","","","","","","","","","","","","",""
"","iti_localizer","","html-keyboard-response","195","926752","0.0-2.0-66.0-1.0","42","66556","Male","null","","","","null","","64","","","926434","1","","","","","","300","68400","318","70115","300","","","","","","","","","","","","","","","","","","","","","","","","","","","","","","","","","","","","","","","","","","","","","","","","","","","","",""
"","localizer","","html-keyboard-response","196","927169","0.0-2.0-67.0-0.0","42","66556","Male","382","","","","68","0","65","","Stimuli/Experimental_stims/localizer/body_parts/apostolos-vamvouras-g5wKHRu2QW0-unsplash.jpg","926752","1","body_parts","","0","0","1","400","68700","417","70433","","","","","","","","","","","","","","","","","","","","","","","","","","","","","","","","","","","","","","","","","","","","","","","","","","","","","",""
"","iti_localizer","","html-keyboard-response","197","941184","0.0-2.0-67.0-1.0","42","66556","Male","null","","","","null","","65","","","927169","1","","","","","","14000","69100","14015","70850","14000","","","","","","","","","","","","","","","","","","","","","","","","","","","","","","","","","","","","","","","","","","","","","","","","","","","","",""
"","localizer","","html-keyboard-response","198","941601","0.0-2.0-68.0-0.0","42","66556","Male","NaN","","","","null","NaN","66","","Stimuli/Experimental_stims/localizer/objects/quaritsch-photography-lZ8onQ1wuY8-unsplash.jpg","941184","1","objects","","1","1","0","400","83100","417","84865","","","","","","","","","","","","","","","","","","","","","","","","","","","","","","","","","","","","","","","","","","","","","","","","","","","","","",""
"","iti_localizer","","html-keyboard-response","199","941915","0.0-2.0-68.0-1.0","42","66556","Male","null","","","","null","","66","","","941601","1","","","","","","300","83500","314","85282","300","","","","","","","","","","","","","","","","","","","","","","","","","","","","","","","","","","","","","","","","","","","","","","","","","","","","",""
"","localizer","","html-keyboard-response","200","942328","0.0-2.0-69.0-0.0","42","66556","Male","NaN","","","","null","NaN","67","","Stimuli/Experimental_stims/localizer/objects/ana-9GmAaEMMKho-unsplash.jpg","941915","1","objects","","0","1","0","400","83800","413","85596","","","","","","","","","","","","","","","","","","","","","","","","","","","","","","","","","","","","","","","","","","","","","","","","","","","","","",""
"","iti_localizer","","html-keyboard-response","201","942640","0.0-2.0-69.0-1.0","42","66556","Male","null","","","","null","","67","","","942328","1","","","","","","300","84200","312","86009","300","","","","","","","","","","","","","","","","","","","","","","","","","","","","","","","","","","","","","","","","","","","","","","","","","","","","",""
"","localizer","","html-keyboard-response","202","943056","0.0-2.0-70.0-0.0","42","66556","Male","327","","","","68","0","68","","Stimuli/Experimental_stims/localizer/objects/nordwood-themes-nDd3dIkkOLo-unsplash.jpg","942640","1","objects","","0","0","1","400","84500","416","86321","","","","","","","","","","","","","","","","","","","","","","","","","","","","","","","","","","","","","","","","","","","","","","","","","","","","","",""
"","iti_localizer","","html-keyboard-response","203","943368","0.0-2.0-70.0-1.0","42","66556","Male","null","","","","null","","68","","","943056","1","","","","","","300","84900","312","86737","300","","","","","","","","","","","","","","","","","","","","","","","","","","","","","","","","","","","","","","","","","","","","","","","","","","","","",""
"","localizer","","html-keyboard-response","204","943782","0.0-2.0-71.0-0.0","42","66556","Male","279","","","","68","0","69","","Stimuli/Experimental_stims/localizer/objects/kelly-jean-cKjbI0Y00X0-unsplash.jpg","943368","1","objects","","0","0","1","400","85200","414","87049","","","","","","","","","","","","","","","","","","","","","","","","","","","","","","","","","","","","","","","","","","","","","","","","","","","","","",""
"","iti_localizer","","html-keyboard-response","205","944097","0.0-2.0-71.0-1.0","42","66556","Male","null","","","","null","","69","","","943782","1","","","","","","300","85600","315","87463","300","","","","","","","","","","","","","","","","","","","","","","","","","","","","","","","","","","","","","","","","","","","","","","","","","","","","",""
"","localizer","","html-keyboard-response","206","944512","0.0-2.0-72.0-0.0","42","66556","Male","253","","","","68","0","70","","Stimuli/Experimental_stims/localizer/objects/florian-klauer-nptLmg6jqDo-unsplash.jpg","944097","1","objects","","0","0","1","400","85900","415","87778","","","","","","","","","","","","","","","","","","","","","","","","","","","","","","","","","","","","","","","","","","","","","","","","","","","","","",""
"","iti_localizer","","html-keyboard-response","207","944824","0.0-2.0-72.0-1.0","42","66556","Male","null","","","","null","","70","","","944512","1","","","","","","300","86300","312","88193","300","","","","","","","","","","","","","","","","","","","","","","","","","","","","","","","","","","","","","","","","","","","","","","","","","","","","",""
"","localizer","","html-keyboard-response","208","945241","0.0-2.0-73.0-0.0","42","66556","Male","235","","","","68","0","71","","Stimuli/Experimental_stims/localizer/objects/nicolas-hippert-SVgX47QIUlc-unsplash.jpg","944824","1","objects","","0","0","1","400","86600","417","88505","","","","","","","","","","","","","","","","","","","","","","","","","","","","","","","","","","","","","","","","","","","","","","","","","","","","","",""
"","iti_localizer","","html-keyboard-response","209","945552","0.0-2.0-73.0-1.0","42","66556","Male","null","","","","null","","71","","","945241","1","","","","","","300","87000","311","88922","300","","","","","","","","","","","","","","","","","","","","","","","","","","","","","","","","","","","","","","","","","","","","","","","","","","","","",""
"","localizer","","html-keyboard-response","210","945994","0.0-2.0-74.0-0.0","42","66556","Male","326","","","","68","0","72","","Stimuli/Experimental_stims/localizer/objects/florian-klauer-mk7D-4UCfmg-unsplash.jpg","945552","1","objects","","0","0","1","400","87300","442","89233","","","","","","","","","","","","","","","","","","","","","","","","","","","","","","","","","","","","","","","","","","","","","","","","","","","","","",""
"","iti_localizer","","html-keyboard-response","211","946305","0.0-2.0-74.0-1.0","42","66556","Male","null","","","","null","","72","","","945994","1","","","","","","300","87700","311","89675","300","","","","","","","","","","","","","","","","","","","","","","","","","","","","","","","","","","","","","","","","","","","","","","","","","","","","",""
"","localizer","","html-keyboard-response","212","946721","0.0-2.0-75.0-0.0","42","66556","Male","304","","","","68","0","73","","Stimuli/Experimental_stims/localizer/objects/alex-lvrs-2zDw14yCYqk-unsplash.jpg","946305","1","objects","","0","0","1","400","88000","416","89986","","","","","","","","","","","","","","","","","","","","","","","","","","","","","","","","","","","","","","","","","","","","","","","","","","","","","",""
"","iti_localizer","","html-keyboard-response","213","947033","0.0-2.0-75.0-1.0","42","66556","Male","null","","","","null","","73","","","946721","1","","","","","","300","88400","312","90402","300","","","","","","","","","","","","","","","","","","","","","","","","","","","","","","","","","","","","","","","","","","","","","","","","","","","","",""
"","localizer","","html-keyboard-response","214","947448","0.0-2.0-76.0-0.0","42","66556","Male","340","","","","68","0","74","","Stimuli/Experimental_stims/localizer/objects/hipster-mum-XookgCxFw6Q-unsplash.jpg","947033","1","objects","","0","0","1","400","88700","415","90714","","","","","","","","","","","","","","","","","","","","","","","","","","","","","","","","","","","","","","","","","","","","","","","","","","","","","",""
"","iti_localizer","","html-keyboard-response","215","947760","0.0-2.0-76.0-1.0","42","66556","Male","null","","","","null","","74","","","947448","1","","","","","","300","89100","312","91129","300","","","","","","","","","","","","","","","","","","","","","","","","","","","","","","","","","","","","","","","","","","","","","","","","","","","","",""
"","localizer","","html-keyboard-response","216","948177","0.0-2.0-77.0-0.0","42","66556","Male","NaN","","","","null","NaN","75","","Stimuli/Experimental_stims/localizer/objects/ian-talmacs-ugqU0a4P18U-unsplash.jpg","947760","1","objects","","0","1","0","400","89400","417","91441","","","","","","","","","","","","","","","","","","","","","","","","","","","","","","","","","","","","","","","","","","","","","","","","","","","","","",""
"","iti_localizer","","html-keyboard-response","217","948488","0.0-2.0-77.0-1.0","42","66556","Male","null","","","","null","","75","","","948177","1","","","","","","300","89800","311","91858","300","","","","","","","","","","","","","","","","","","","","","","","","","","","","","","","","","","","","","","","","","","","","","","","","","","","","",""
"","localizer","","html-keyboard-response","218","948904","0.0-2.0-78.0-0.0","42","66556","Male","359","","","","68","0","76","","Stimuli/Experimental_stims/localizer/objects/chris-briggs-FobzAZJGM9M-unsplash.jpg","948488","1","objects","","0","0","1","400","90100","416","92169","","","","","","","","","","","","","","","","","","","","","","","","","","","","","","","","","","","","","","","","","","","","","","","","","","","","","",""
"","iti_localizer","","html-keyboard-response","219","949216","0.0-2.0-78.0-1.0","42","66556","Male","null","","","","null","","76","","","948904","1","","","","","","300","90500","312","92585","300","","","","","","","","","","","","","","","","","","","","","","","","","","","","","","","","","","","","","","","","","","","","","","","","","","","","",""
"","localizer","","html-keyboard-response","220","949633","0.0-2.0-79.0-0.0","42","66556","Male","314","","","","68","0","77","","Stimuli/Experimental_stims/localizer/objects/recha-oktaviani-t__61ap00Mc-unsplash.jpg","949216","1","objects","","0","0","1","400","90800","417","92897","","","","","","","","","","","","","","","","","","","","","","","","","","","","","","","","","","","","","","","","","","","","","","","","","","","","","",""
"","iti_localizer","","html-keyboard-response","221","949945","0.0-2.0-79.0-1.0","42","66556","Male","null","","","","null","","77","","","949633","1","","","","","","300","91200","312","93314","300","","","","","","","","","","","","","","","","","","","","","","","","","","","","","","","","","","","","","","","","","","","","","","","","","","","","",""
"","localizer","","html-keyboard-response","222","950360","0.0-2.0-80.0-0.0","42","66556","Male","307","","","","68","0","78","","Stimuli/Experimental_stims/localizer/objects/jonny-caspari-wsvCC6UyKjs-unsplash.jpg","949945","1","objects","","0","0","1","400","91500","415","93626","","","","","","","","","","","","","","","","","","","","","","","","","","","","","","","","","","","","","","","","","","","","","","","","","","","","","",""
"","iti_localizer","","html-keyboard-response","223","950674","0.0-2.0-80.0-1.0","42","66556","Male","null","","","","null","","78","","","950360","1","","","","","","300","91900","314","94041","300","","","","","","","","","","","","","","","","","","","","","","","","","","","","","","","","","","","","","","","","","","","","","","","","","","","","",""
"","localizer","","html-keyboard-response","224","951094","0.0-2.0-81.0-0.0","42","66556","Male","356","","","","68","0","79","","Stimuli/Experimental_stims/localizer/objects/markus-spiske-ANrVtttbNss-unsplash.jpg","950674","1","objects","","0","0","1","400","92200","420","94355","","","","","","","","","","","","","","","","","","","","","","","","","","","","","","","","","","","","","","","","","","","","","","","","","","","","","",""
"","iti_localizer","","html-keyboard-response","225","951408","0.0-2.0-81.0-1.0","42","66556","Male","null","","","","null","","79","","","951094","1","","","","","","300","92600","314","94775","300","","","","","","","","","","","","","","","","","","","","","","","","","","","","","","","","","","","","","","","","","","","","","","","","","","","","",""
"","localizer","","html-keyboard-response","226","951819","0.0-2.0-82.0-0.0","42","66556","Male","400","","","","68","0","80","","Stimuli/Experimental_stims/localizer/objects/ignat-dolomanov-kFBDVnmskPA-unsplash.jpg","951408","1","objects","","0","0","1","400","92900","411","95089","","","","","","","","","","","","","","","","","","","","","","","","","","","","","","","","","","","","","","","","","","","","","","","","","","","","","",""
"","iti_localizer","","html-keyboard-response","227","952136","0.0-2.0-82.0-1.0","42","66556","Male","null","","","","null","","80","","","951819","1","","","","","","300","93300","317","95500","300","","","","","","","","","","","","","","","","","","","","","","","","","","","","","","","","","","","","","","","","","","","","","","","","","","","","",""
"","localizer","","html-keyboard-response","228","952552","0.0-2.0-83.0-0.0","42","66556","Male","NaN","","","","null","NaN","81","","Stimuli/Experimental_stims/localizer/objects/mockup-graphics-Pj2PY-E-LfM-unsplash.jpg","952136","1","objects","","0","1","0","400","93600","416","95817","","","","","","","","","","","","","","","","","","","","","","","","","","","","","","","","","","","","","","","","","","","","","","","","","","","","","",""
"","iti_localizer","","html-keyboard-response","229","952864","0.0-2.0-83.0-1.0","42","66556","Male","null","","","","null","","81","","","952552","1","","","","","","300","94000","312","96233","300","","","","","","","","","","","","","","","","","","","","","","","","","","","","","","","","","","","","","","","","","","","","","","","","","","","","",""
"","localizer","","html-keyboard-response","230","953281","0.0-2.0-84.0-0.0","42","66556","Male","379","","","","68","0","82","","Stimuli/Experimental_stims/localizer/objects/lance-reis-v0FYj9iioQg-unsplash.jpg","952864","1","objects","","0","0","1","400","94300","417","96545","","","","","","","","","","","","","","","","","","","","","","","","","","","","","","","","","","","","","","","","","","","","","","","","","","","","","",""
"","iti_localizer","","html-keyboard-response","231","953592","0.0-2.0-84.0-1.0","42","66556","Male","null","","","","null","","82","","","953281","1","","","","","","300","94700","311","96962","300","","","","","","","","","","","","","","","","","","","","","","","","","","","","","","","","","","","","","","","","","","","","","","","","","","","","",""
"","localizer","","html-keyboard-response","232","954009","0.0-2.0-85.0-0.0","42","66556","Male","378","","","","68","0","83","","Stimuli/Experimental_stims/localizer/objects/mockup-graphics-U6ZMEefFGx8-unsplash.jpg","953592","1","objects","","0","0","1","400","95000","417","97273","","","","","","","","","","","","","","","","","","","","","","","","","","","","","","","","","","","","","","","","","","","","","","","","","","","","","",""
"","iti_localizer","","html-keyboard-response","233","954320","0.0-2.0-85.0-1.0","42","66556","Male","null","","","","null","","83","","","954009","1","","","","","","300","95400","311","97690","300","","","","","","","","","","","","","","","","","","","","","","","","","","","","","","","","","","","","","","","","","","","","","","","","","","","","",""
"","localizer","","html-keyboard-response","234","954736","0.0-2.0-86.0-0.0","42","66556","Male","NaN","","","","null","NaN","84","","Stimuli/Experimental_stims/localizer/objects/engin-akyurt-bbbKzTmY2Gg-unsplash.jpg","954320","1","objects","","1","1","0","400","95700","416","98001","","","","","","","","","","","","","","","","","","","","","","","","","","","","","","","","","","","","","","","","","","","","","","","","","","","","","",""
"","iti_localizer","","html-keyboard-response","235","955048","0.0-2.0-86.0-1.0","42","66556","Male","null","","","","null","","84","","","954736","1","","","","","","300","96100","312","98417","300","","","","","","","","","","","","","","","","","","","","","","","","","","","","","","","","","","","","","","","","","","","","","","","","","","","","",""
"","localizer","","html-keyboard-response","236","955464","0.0-2.0-87.0-0.0","42","66556","Male","228","","","","68","0","85","","Stimuli/Experimental_stims/localizer/objects/eugene-chystiakov-3neSwyntbQ8-unsplash.jpg","955048","1","objects","","0","0","1","400","96400","416","98729","","","","","","","","","","","","","","","","","","","","","","","","","","","","","","","","","","","","","","","","","","","","","","","","","","","","","",""
"","iti_localizer","","html-keyboard-response","237","969481","0.0-2.0-87.0-1.0","42","66556","Male","null","","","","null","","85","","","955464","1","","","","","","14000","96800","14017","99145","14000","","","","","","","","","","","","","","","","","","","","","","","","","","","","","","","","","","","","","","","","","","","","","","","","","","","","",""
"","localizer","","html-keyboard-response","238","969896","0.0-2.0-88.0-0.0","42","66556","Male","NaN","","","","null","NaN","86","","Stimuli/Experimental_stims/localizer/body_parts/bady-abbas-N-VEeMnm7gE-unsplash.jpg","969481","1","body_parts","","0","1","0","400","110800","415","113162","","","","","","","","","","","","","","","","","","","","","","","","","","","","","","","","","","","","","","","","","","","","","","","","","","","","","",""
"","iti_localizer","","html-keyboard-response","239","970209","0.0-2.0-88.0-1.0","42","66556","Male","null","","","","null","","86","","","969896","1","","","","","","300","111200","313","113577","300","","","","","","","","","","","","","","","","","","","","","","","","","","","","","","","","","","","","","","","","","","","","","","","","","","","","",""
"","localizer","","html-keyboard-response","240","970625","0.0-2.0-89.0-0.0","42","66556","Male","287","","","","68","0","87","","Stimuli/Experimental_stims/localizer/body_parts/sincerely-media-QyzlAZjm0r0-unsplash.jpg","970209","1","body_parts","","1","0","0","400","111500","416","113890","","","","","","","","","","","","","","","","","","","","","","","","","","","","","","","","","","","","","","","","","","","","","","","","","","","","","",""
"","iti_localizer","","html-keyboard-response","241","970937","0.0-2.0-89.0-1.0","42","66556","Male","null","","","","null","","87","","","970625","1","","","","","","300","111900","312","114306","300","","","","","","","","","","","","","","","","","","","","","","","","","","","","","","","","","","","","","","","","","","","","","","","","","","","","",""
"","localizer","","html-keyboard-response","242","971352","0.0-2.0-90.0-0.0","42","66556","Male","356","","","","68","0","88","","Stimuli/Experimental_stims/localizer/body_parts/jeremy-yap-TfJEi17kA0w-unsplash.jpg","970937","1","body_parts","","0","0","1","400","112200","415","114618","","","","","","","","","","","","","","","","","","","","","","","","","","","","","","","","","","","","","","","","","","","","","","","","","","","","","",""
"","iti_localizer","","html-keyboard-response","243","971665","0.0-2.0-90.0-1.0","42","66556","Male","null","","","","null","","88","","","971352","1","","","","","","300","112600","313","115033","300","","","","","","","","","","","","","","","","","","","","","","","","","","","","","","","","","","","","","","","","","","","","","","","","","","","","",""
"","localizer","","html-keyboard-response","244","972080","0.0-2.0-91.0-0.0","42","66556","Male","282","","","","68","0","89","","Stimuli/Experimental_stims/localizer/body_parts/matheus-frade-eyzdb1C3JDM-unsplash.jpg","971665","1","body_parts","","0","0","1","400","112900","415","115346","","","","","","","","","","","","","","","","","","","","","","","","","","","","","","","","","","","","","","","","","","","","","","","","","","","","","",""
"","iti_localizer","","html-keyboard-response","245","972393","0.0-2.0-91.0-1.0","42","66556","Male","null","","","","null","","89","","","972080","1","","","","","","300","113300","313","115761","300","","","","","","","","","","","","","","","","","","","","","","","","","","","","","","","","","","","","","","","","","","","","","","","","","","","","",""
"","localizer","","html-keyboard-response","246","972808","0.0-2.0-92.0-0.0","42","66556","Male","308","","","","68","0","90","","Stimuli/Experimental_stims/localizer/body_parts/priscilla-du-preez-e6fcNpur53A-unsplash.jpg","972393","1","body_parts","","0","0","1","400","113600","415","116074","","","","","","","","","","","","","","","","","","","","","","","","","","","","","","","","","","","","","","","","","","","","","","","","","","","","","",""
